'Start Wavelength	183.907
'End Wavelength	1046.922
'Gate Delay	5.000
'Gate Width (ms)	1.050
'Laser Output Level	0.000
'X Position	0.000
'Y Position	0.000
'Z Position	0.000
'Grid Point Number	1.000
'Shot Number	100.000
183.907	242.000
183.977	149.000
184.047	-32
184.116	201
184.186	329
184.256	-507
184.325	-154
184.395	99
184.465	584
184.534	-484
184.604	-199
184.674	182
184.743	-298
184.813	580
184.883	-123
184.952	-39
185.022	-205
185.092	-279
185.161	-824
185.231	-142
185.301	186
185.370	86
185.440	-116
185.509	38
185.579	6
185.649	-7
185.718	298
185.788	-187
185.857	-339
185.927	-58
185.996	-197
186.066	-354
186.136	126
186.205	504
186.275	-98
186.344	-5
186.414	-239
186.483	-33
186.553	691
186.622	314
186.692	497
186.761	-483
186.831	195
186.900	430
186.970	784
187.039	210
187.109	404
187.178	-103
187.248	-46
187.317	-19
187.387	204
187.456	184
187.526	710
187.595	37
187.664	462
187.734	-9
187.803	680
187.873	305
187.942	317
188.012	-319
188.081	-408
188.150	-543
188.220	326
188.289	802
188.358	751
188.428	267
188.497	431
188.567	-335
188.636	-230
188.705	533
188.775	-30
188.844	-299
188.913	213
188.983	-186
189.052	109
189.121	819
189.191	486
189.260	195
189.329	201
189.399	-569
189.468	232
189.537	1
189.606	245
189.676	126
189.745	719
189.814	444
189.883	302
189.953	-835
190.022	29
190.091	1324
190.161	461
190.230	522
190.299	-369
190.368	183
190.437	-148
190.507	154
190.576	-256
190.645	-696
190.714	666
190.783	-98
190.853	442
190.922	777
190.991	61
191.060	-40
191.129	-206
191.198	268
191.268	734
191.337	-265
191.406	42
191.475	-380
191.544	431
191.613	278
191.682	202
191.752	67
191.821	7
191.890	46
191.959	446
192.028	781
192.097	281
192.166	-564
192.235	-598
192.304	-264
192.373	-34
192.442	91
192.511	277
192.580	52
192.650	295
192.719	415
192.788	658
192.857	151
192.926	-4
192.995	164
193.064	766
193.133	472
193.202	730
193.271	618
193.340	-63
193.409	342
193.478	221
193.547	710
193.615	563
193.684	682
193.753	387
193.822	873
193.891	588
193.960	453
194.029	345
194.098	-82
194.167	-294
194.236	528
194.305	-90
194.374	240
194.443	611
194.512	-326
194.580	381
194.649	242
194.718	412
194.787	416
194.856	-9
194.925	-140
194.994	365
195.062	-519
195.131	-401
195.200	507
195.269	287
195.338	-328
195.407	354
195.475	396
195.544	784
195.613	304
195.682	313
195.751	-181
195.819	-18
195.888	768
195.957	1263
196.026	464
196.094	117
196.163	825
196.232	566
196.301	-389
196.369	699
196.438	310
196.507	407
196.576	606
196.644	159
196.713	-160
196.782	648
196.850	703
196.919	155
196.988	287
197.056	-692
197.125	152
197.194	11
197.262	5
197.331	666
197.400	-635
197.468	148
197.537	412
197.606	647
197.674	534
197.743	642
197.812	-168
197.880	842
197.949	712
198.017	796
198.086	191
198.155	441
198.223	37
198.292	662
198.360	-212
198.429	231
198.497	95
198.566	761
198.635	1153
198.703	346
198.772	9
198.840	958
198.909	396
198.977	923
199.046	226
199.114	702
199.183	-80
199.251	376
199.320	-149
199.388	352
199.457	-498
199.525	-330
199.594	87
199.662	107
199.731	155
199.799	449
199.867	813
199.936	1024
200.004	507
200.073	727
200.141	578
200.210	647
200.278	-30
200.346	-69
200.415	566
200.483	726
200.552	490
200.620	184
200.688	539
200.757	300
200.825	27
200.893	578
200.962	780
201.030	-41
201.098	287
201.167	269
201.235	57
201.303	136
201.372	254
201.440	269
201.508	428
201.577	-174
201.645	66
201.713	274
201.781	719
201.850	279
201.918	115
201.986	572
202.055	923
202.123	316
202.191	193
202.259	-228
202.327	135
202.396	-407
202.464	162
202.532	-318
202.600	1045
202.669	361
202.737	-80
202.805	395
202.873	-283
202.941	976
203.009	452
203.078	-206
203.146	-47
203.214	-766
203.282	463
203.350	863
203.418	189
203.487	-5
203.555	184
203.623	391
203.691	-39
203.759	-581
203.827	327
203.895	478
203.963	884
204.031	389
204.099	352
204.168	93
204.236	498
204.304	586
204.372	2
204.440	1048
204.508	551
204.576	-811
204.644	-97
204.712	634
204.780	-11
204.848	-36
204.916	691
204.984	514
205.052	-27
205.120	276
205.188	448
205.256	895
205.324	224
205.392	-265
205.460	431
205.528	376
205.596	24
205.664	257
205.732	41
205.799	1844
205.867	1229
205.935	220
206.003	601
206.071	483
206.139	505
206.207	709
206.275	82
206.343	349
206.411	377
206.478	25
206.546	311
206.614	-263
206.682	976
206.750	576
206.818	820
206.885	821
206.953	-244
207.021	778
207.089	945
207.157	-346
207.225	1041
207.292	232
207.360	114
207.428	575
207.496	-47
207.563	-20
207.631	-401
207.699	-10
207.767	111
207.834	200
207.902	344
207.970	407
208.038	894
208.105	232
208.173	517
208.241	-113
208.309	527
208.376	529
208.444	580
208.512	292
208.579	-456
208.647	862
208.715	561
208.782	-331
208.850	-460
208.918	674
208.985	-261
209.053	452
209.120	-204
209.188	-429
209.256	363
209.323	871
209.391	536
209.459	998
209.526	316
209.594	222
209.661	356
209.729	819
209.796	-307
209.864	52
209.932	-191
209.999	505
210.067	527
210.134	908
210.202	737
210.269	1075
210.337	566
210.404	181
210.472	-38
210.539	704
210.607	618
210.674	310
210.742	289
210.809	453
210.877	571
210.944	753
211.012	523
211.079	1316
211.146	610
211.214	935
211.281	99
211.349	1056
211.416	346
211.484	-32
211.551	-81
211.618	1193
211.686	658
211.753	478
211.821	12
211.888	770
211.955	295
212.023	908
212.090	923
212.157	896
212.225	1049
212.292	1053
212.359	3251
212.427	6136
212.494	1660
212.561	875
212.629	-313
212.696	694
212.763	401
212.831	458
212.898	-353
212.965	617
213.032	777
213.100	565
213.167	1020
213.234	1107
213.301	597
213.369	194
213.436	349
213.503	872
213.570	473
213.638	795
213.705	201
213.772	752
213.839	811
213.906	413
213.973	945
214.041	742
214.108	889
214.175	1092
214.242	396
214.309	409
214.376	755
214.444	454
214.511	873
214.578	842
214.645	985
214.712	636
214.779	376
214.846	186
214.913	596
214.980	1199
215.048	1513
215.115	1332
215.182	1059
215.249	1183
215.316	868
215.383	1088
215.450	667
215.517	1037
215.584	504
215.651	225
215.718	-194
215.785	500
215.852	539
215.919	828
215.986	210
216.053	-109
216.120	567
216.187	675
216.254	790
216.321	661
216.388	346
216.455	565
216.522	397
216.589	620
216.656	1844
216.722	1386
216.789	1402
216.856	1731
216.923	830
216.990	1061
217.057	1248
217.124	1270
217.191	547
217.258	1774
217.324	2060
217.391	1630
217.458	986
217.525	704
217.592	1543
217.659	-21
217.725	669
217.792	1906
217.859	1351
217.926	629
217.993	-18
218.059	822
218.126	279
218.193	1031
218.260	488
218.327	753
218.393	98
218.460	331
218.527	-19
218.594	792
218.660	1278
218.727	1068
218.794	558
218.860	1061
218.927	388
218.994	596
219.061	645
219.127	251
219.194	1583
219.261	-491
219.327	442
219.394	1282
219.461	-392
219.527	-203
219.594	516
219.661	-145
219.727	74
219.794	802
219.860	301
219.927	957
219.994	1628
220.060	1752
220.127	1557
220.193	1595
220.260	1566
220.326	1861
220.393	2888
220.460	3202
220.526	1966
220.593	1177
220.659	1121
220.726	1560
220.792	3909
220.859	2843
220.925	4785
220.992	4951
221.058	5600
221.125	4777
221.191	2717
221.258	726
221.324	760
221.391	195
221.457	394
221.524	1029
221.590	1308
221.657	4747
221.723	1580
221.789	3452
221.856	2321
221.922	572
221.989	691
222.055	701
222.121	345
222.188	1782
222.254	502
222.321	536
222.387	-283
222.453	1022
222.520	261
222.586	1114
222.652	-534
222.719	792
222.785	983
222.851	538
222.918	248
222.984	951
223.050	543
223.116	425
223.183	979
223.249	532
223.315	-550
223.382	292
223.448	281
223.514	-264
223.580	333
223.647	-371
223.713	251
223.779	-319
223.845	357
223.911	316
223.978	45
224.044	387
224.110	144
224.176	759
224.242	-153
224.309	64
224.375	-322
224.441	828
224.507	-143
224.573	3
224.639	626
224.705	755
224.772	599
224.838	-7
224.904	-153
224.970	-48
225.036	389
225.102	558
225.168	695
225.234	448
225.300	942
225.366	923
225.432	370
225.499	1338
225.565	-16
225.631	1020
225.697	222
225.763	1246
225.829	319
225.895	799
225.961	1033
226.027	1055
226.093	616
226.159	1376
226.225	2694
226.291	6699
226.357	7892
226.423	3539
226.489	2012
226.554	1471
226.620	1315
226.686	1597
226.752	2768
226.818	5756
226.884	11064
226.950	7940
227.016	3635
227.082	2088
227.148	1406
227.214	1008
227.279	1525
227.345	867
227.411	745
227.477	924
227.543	3407
227.609	2783
227.674	829
227.740	793
227.806	636
227.872	-233
227.938	413
228.003	1771
228.069	-74
228.135	817
228.201	819
228.267	521
228.332	743
228.398	802
228.464	593
228.530	424
228.595	310
228.661	335
228.727	917
228.792	651
228.858	-25
228.924	131
228.990	1038
229.055	532
229.121	373
229.187	532
229.252	363
229.318	268
229.384	978
229.449	649
229.515	-645
229.581	-546
229.646	222
229.712	567
229.777	2380
229.843	1103
229.909	978
229.974	2307
230.040	1236
230.105	1538
230.171	1405
230.236	1965
230.302	2006
230.368	1334
230.433	845
230.499	745
230.564	1160
230.630	966
230.695	211
230.761	867
230.826	-34
230.892	1362
230.957	935
231.023	492
231.088	-39
231.154	1032
231.219	784
231.284	1051
231.350	651
231.415	-91
231.481	507
231.546	258
231.612	242
231.677	727
231.742	34
231.808	261
231.873	-90
231.939	-551
232.004	960
232.069	1005
232.135	-104
232.200	57
232.265	-244
232.331	-39
232.396	602
232.461	174
232.527	-59
232.592	137
232.657	620
232.723	1204
232.788	691
232.853	-3
232.918	312
232.984	-71
233.049	-131
233.114	1806
233.179	1190
233.245	2065
233.310	1725
233.375	215
233.440	643
233.506	317
233.571	331
233.636	71
233.701	525
233.766	1109
233.832	1193
233.897	592
233.962	180
234.027	1317
234.092	310
234.157	301
234.222	484
234.288	2021
234.353	5142
234.418	4000
234.483	2160
234.548	1548
234.613	493
234.678	772
234.743	1139
234.808	5499
234.873	1616
234.938	972
235.004	688
235.069	638
235.134	772
235.199	1288
235.264	428
235.329	531
235.394	1045
235.459	1346
235.524	-76
235.589	751
235.654	855
235.719	657
235.784	819
235.849	766
235.913	2877
235.978	2588
236.043	1599
236.108	1432
236.173	415
236.238	624
236.303	744
236.368	879
236.433	2535
236.498	2546
236.563	1156
236.627	4980
236.692	14492
236.757	7755
236.822	3663
236.887	2892
236.952	2121
237.017	1412
237.081	1703
237.146	2571
237.211	6322
237.276	15695
237.341	19760
237.405	7809
237.470	3261
237.535	2267
237.600	1429
237.664	1635
237.729	1114
237.794	2046
237.859	4047
237.923	1942
237.988	1501
238.053	2175
238.118	2580
238.182	8517
238.247	5241
238.312	2648
238.376	2408
238.441	913
238.506	2349
238.570	684
238.635	538
238.700	956
238.764	679
238.829	3481
238.893	2516
238.958	1553
239.023	1054
239.087	840
239.152	557
239.216	519
239.281	510
239.346	644
239.410	783
239.475	1264
239.539	7858
239.604	3004
239.668	1522
239.733	956
239.797	1979
239.862	6864
239.926	5845
239.991	1308
240.055	1051
240.120	331
240.184	959
240.249	639
240.313	608
240.378	836
240.442	4551
240.507	5592
240.571	908
240.635	4017
240.700	2304
240.764	931
240.829	642
240.893	250
240.957	284
241.022	4117
241.086	4994
241.151	1708
241.215	45
241.279	1728
241.344	2041
241.408	1387
241.472	531
241.537	1062
241.601	1211
241.665	708
241.730	973
241.794	1743
241.858	-126
241.922	1894
241.987	1134
242.051	174
242.115	694
242.179	1247
242.244	49
242.308	1210
242.372	1201
242.436	1485
242.501	776
242.565	1140
242.629	720
242.693	1002
242.757	1043
242.822	326
242.886	1061
242.950	803
243.014	520
243.078	359
243.142	11
243.206	310
243.271	1090
243.335	1099
243.399	1439
243.463	10562
243.527	17482
243.591	3599
243.655	1461
243.719	1098
243.783	1220
243.847	2372
243.911	2424
243.975	3325
244.040	705
244.104	1504
244.168	967
244.232	1802
244.296	2269
244.360	1682
244.424	940
244.488	684
244.552	1474
244.615	350
244.679	933
244.743	1956
244.807	615
244.871	754
244.935	389
244.999	-388
245.063	753
245.127	1768
245.191	2477
245.255	1197
245.319	1732
245.383	861
245.446	2021
245.510	898
245.574	990
245.638	1093
245.702	1337
245.766	2621
245.829	1622
245.893	1217
245.957	646
246.021	1260
246.085	1301
246.149	1962
246.212	5339
246.276	4929
246.340	1935
246.404	1805
246.467	2637
246.531	2627
246.595	2021
246.659	1738
246.722	1614
246.786	2354
246.850	2188
246.913	2878
246.977	927
247.041	1660
247.104	911
247.168	1773
247.232	5157
247.295	7866
247.359	2935
247.423	1438
247.486	3312
247.550	2280
247.614	1635
247.677	2554
247.741	1525
247.804	638
247.868	980
247.932	5166
247.995	7144
248.059	2035
248.122	931
248.186	2519
248.249	3998
248.313	15186
248.376	11893
248.440	7166
248.503	1957
248.567	3518
248.630	3385
248.694	3541
248.757	7610
248.821	13567
248.884	7610
248.948	8917
249.011	11181
249.075	17782
249.138	11359
249.202	4585
249.265	2900
249.328	4447
249.392	2182
249.455	3065
249.519	1789
249.582	2621
249.645	4985
249.709	2641
249.772	2694
249.835	3326
249.899	2001
249.962	2631
250.025	2045
250.089	6676
250.152	6270
250.215	2528
250.279	2189
250.342	2617
250.405	2664
250.468	1512
250.532	2172
250.595	5028
250.658	23804
250.721	25136
250.785	7779
250.848	5475
250.911	2744
250.974	3083
251.038	4984
251.101	7966
251.164	4123
251.227	4699
251.290	3818
251.354	7659
251.417	30585
251.480	19073
251.543	19557
251.606	51871
251.669	25573
251.732	11819
251.795	12018
251.859	13613
251.922	30335
251.985	12766
252.048	6392
252.111	4658
252.174	4661
252.237	9789
252.300	15562
252.363	22694
252.426	35303
252.489	11778
252.552	7658
252.615	5051
252.678	5562
252.741	13420
252.804	21778
252.867	36785
252.930	18470
252.993	9488
253.056	6326
253.119	4784
253.182	3785
253.245	5348
253.308	4874
253.371	4126
253.434	3485
253.497	5219
253.559	8651
253.622	6093
253.685	6654
253.748	5013
253.811	3316
253.874	4454
253.937	2494
254.000	3338
254.062	6684
254.125	7284
254.188	9053
254.251	4829
254.314	2970
254.376	6204
254.439	4955
254.502	4514
254.565	6523
254.628	7954
254.690	4386
254.753	2323
254.816	2171
254.878	2925
254.941	6365
255.004	4744
255.067	2725
255.129	2248
255.192	1441
255.255	1070
255.317	2309
255.380	1284
255.443	1012
255.505	1376
255.568	1211
255.631	1363
255.693	646
255.756	-27
255.819	968
255.881	1100
255.944	849
256.006	1439
256.069	1126
256.132	1018
256.194	1687
256.257	5351
256.319	3212
256.382	2519
256.444	1782
256.507	1685
256.569	1927
256.632	1905
256.694	2615
256.757	10777
256.819	18688
256.882	6125
256.944	2285
257.007	2717
257.069	2126
257.132	2444
257.194	1607
257.257	872
257.319	600
257.381	1527
257.444	7488
257.506	29007
257.569	21468
257.631	12053
257.693	5104
257.756	2938
257.818	2573
257.880	1303
257.943	1346
258.005	667
258.067	654
258.130	1184
258.192	2369
258.254	3152
258.317	2264
258.379	1495
258.441	4891
258.503	4309
258.566	9488
258.628	7662
258.690	1570
258.753	2182
258.815	4096
258.877	1359
258.939	1463
259.001	1665
259.064	445
259.126	1910
259.188	2122
259.250	1907
259.312	2658
259.375	7400
259.437	2913
259.499	1638
259.561	718
259.623	1110
259.685	1226
259.747	1490
259.809	8325
259.872	11525
259.934	23337
259.996	12221
260.058	3489
260.120	1532
260.182	1588
260.244	1529
260.306	497
260.368	1959
260.430	896
260.492	4699
260.554	6905
260.616	3810
260.678	12158
260.740	9544
260.802	1824
260.864	2196
260.926	848
260.988	1819
261.050	1554
261.112	6190
261.174	15871
261.236	7511
261.298	2671
261.359	7056
261.421	5696
261.483	1639
261.545	2083
261.607	-8
261.669	1071
261.731	4329
261.793	7127
261.854	2144
261.916	2334
261.978	2086
262.040	1173
262.102	2175
262.164	2806
262.225	1884
262.287	1298
262.349	4295
262.411	2340
262.472	1374
262.534	4828
262.596	6443
262.658	1845
262.719	159
262.781	2903
262.843	6682
262.904	2761
262.966	1696
263.028	1706
263.090	19966
263.151	29221
263.213	8423
263.275	4085
263.336	1489
263.398	1417
263.459	915
263.521	1314
263.583	3893
263.644	1935
263.706	401
263.767	-442
263.829	212
263.891	1049
263.952	433
264.014	217
264.075	3211
264.137	4848
264.198	2021
264.260	-144
264.321	723
264.383	4800
264.444	7595
264.506	1763
264.567	1425
264.629	5243
264.690	6648
264.752	1336
264.813	1088
264.875	547
264.936	1176
264.998	614
265.059	497
265.120	457
265.182	2873
265.243	14656
265.305	7293
265.366	2047
265.427	1498
265.489	1187
265.550	-118
265.611	983
265.673	751
265.734	-15
265.795	551
265.857	188
265.918	335
265.979	4096
266.040	21621
266.102	9401
266.163	3829
266.224	2527
266.286	1720
266.347	96
266.408	1206
266.469	679
266.530	193
266.592	431
266.653	2586
266.714	2522
266.775	1264
266.836	924
266.898	801
266.959	2113
267.020	322
267.081	875
267.142	432
267.203	209
267.264	360
267.326	549
267.387	829
267.448	-36
267.509	817
267.570	296
267.631	-111
267.692	-79
267.753	495
267.814	-387
267.875	3679
267.936	3971
267.997	2415
268.058	1183
268.119	1013
268.180	512
268.241	733
268.302	971
268.363	256
268.424	814
268.485	1031
268.546	-93
268.607	55
268.668	-179
268.729	-72
268.790	122
268.851	1000
268.912	3515
268.972	2797
269.033	1284
269.094	41
269.155	1188
269.216	1220
269.277	-110
269.338	576
269.398	944
269.459	500
269.520	1713
269.581	1154
269.642	2594
269.702	1156
269.763	1285
269.824	14
269.885	579
269.945	2213
270.006	436
270.067	-7
270.128	157
270.188	79
270.249	-103
270.310	-149
270.370	1342
270.431	664
270.492	187
270.553	996
270.613	2283
270.674	4710
270.734	1118
270.795	888
270.856	1963
270.916	660
270.977	400
271.038	1745
271.098	219
271.159	2202
271.219	799
271.280	620
271.340	884
271.401	1438
271.462	4182
271.522	779
271.583	734
271.643	1250
271.704	913
271.764	1799
271.825	4060
271.885	16206
271.946	13981
272.006	4035
272.066	10438
272.127	11291
272.187	3839
272.248	1800
272.308	2782
272.369	9676
272.429	3489
272.489	4372
272.550	2274
272.610	3973
272.671	1842
272.731	3959
272.791	4218
272.852	2715
272.912	1990
272.972	1080
273.033	950
273.093	2103
273.153	2616
273.214	1569
273.274	1716
273.334	11073
273.394	11670
273.455	3902
273.515	7426
273.575	10758
273.635	4501
273.696	9143
273.756	12137
273.816	3554
273.876	2488
273.936	10634
273.997	11116
274.057	2871
274.117	1117
274.177	4161
274.237	19353
274.297	12020
274.358	9523
274.418	11653
274.478	6362
274.538	2341
274.598	2409
274.658	12689
274.718	12257
274.778	3450
274.838	1893
274.898	8326
274.958	17935
275.018	15317
275.078	6775
275.138	3539
275.198	1091
275.258	1727
275.318	2188
275.378	3977
275.438	3785
275.498	2611
275.558	12096
275.618	17465
275.678	7766
275.738	5430
275.798	4664
275.858	1518
275.918	828
275.978	1509
276.038	1556
276.098	801
276.157	4560
276.217	8649
276.277	3499
276.337	2398
276.397	1185
276.457	1862
276.517	1274
276.576	976
276.636	1561
276.696	2156
276.756	7006
276.815	3679
276.875	1765
276.935	2698
276.995	1155
277.055	1304
277.114	677
277.174	3356
277.234	7614
277.293	1973
277.353	1110
277.413	1643
277.472	991
277.532	1335
277.592	2206
277.651	11364
277.711	11744
277.771	4901
277.830	19770
277.890	9503
277.950	13071
278.009	27260
278.069	7596
278.128	12812
278.188	11631
278.248	6738
278.307	18720
278.367	7297
278.426	3043
278.486	2451
278.545	1238
278.605	2394
278.664	740
278.724	2109
278.783	9684
278.843	13497
278.902	3825
278.962	2227
279.021	3253
279.081	5121
279.140	4024
279.199	2297
279.259	3836
279.318	3424
279.378	4233
279.437	8127
279.496	35143
279.556	105380
279.615	52372
279.675	15726
279.734	9727
279.793	17199
279.853	18965
279.912	6991
279.971	4189
280.031	4469
280.090	10400
280.149	12429
280.208	15120
280.268	80745
280.327	49046
280.386	13130
280.445	10117
280.505	8156
280.564	4427
280.623	2520
280.682	7002
280.742	6679
280.801	2941
280.860	2177
280.919	1837
280.978	1681
281.037	1269
281.097	2041
281.156	2765
281.215	1038
281.274	2520
281.333	12500
281.392	5243
281.451	2050
281.510	1309
281.569	1221
281.628	1255
281.688	1336
281.747	1930
281.806	1958
281.865	1549
281.924	1081
281.983	1200
282.042	1280
282.101	827
282.160	1047
282.219	196
282.278	1946
282.337	6502
282.396	3240
282.454	1698
282.513	2717
282.572	9755
282.631	3985
282.690	1379
282.749	984
282.808	2519
282.867	2008
282.926	1847
282.985	1493
283.043	287
283.102	999
283.161	1341
283.220	5849
283.279	9886
283.338	3253
283.396	1212
283.455	2379
283.514	2372
283.573	3841
283.631	2071
283.690	2214
283.749	1860
283.808	4925
283.866	3731
283.925	1719
283.984	2212
284.043	2695
284.101	2970
284.160	2763
284.219	3175
284.277	2034
284.336	4625
284.395	15140
284.453	9126
284.512	3964
284.570	5849
284.629	4368
284.688	4691
284.746	5009
284.805	5711
284.863	8857
284.922	9364
284.981	10696
285.039	16729
285.098	30878
285.156	71933
285.215	107691
285.273	95031
285.332	59154
285.390	34259
285.449	21805
285.507	13916
285.566	10460
285.624	8334
285.683	6811
285.741	4962
285.799	5277
285.858	4061
285.916	3840
285.975	3463
286.033	2962
286.091	2353
286.150	2100
286.208	2005
286.267	2765
286.325	2478
286.383	4298
286.442	3341
286.500	1806
286.558	1873
286.616	1661
286.675	2812
286.733	2018
286.791	1758
286.850	2067
286.908	3517
286.966	4983
287.024	2884
287.083	1645
287.141	798
287.199	2012
287.257	2918
287.315	2357
287.374	2357
287.432	5609
287.490	3079
287.548	2520
287.606	1024
287.664	1473
287.723	3308
287.781	3376
287.839	2379
287.897	2738
287.955	2680
288.013	4453
288.071	11869
288.129	69139
288.187	124445
288.245	45177
288.303	16509
288.361	9982
288.419	7695
288.477	5306
288.535	3481
288.593	2155
288.651	2085
288.709	875
288.767	1906
288.825	957
288.883	667
288.941	1472
288.999	1296
289.057	1166
289.115	1490
289.173	1226
289.231	1078
289.289	1194
289.346	1589
289.404	1945
289.462	3690
289.520	3380
289.578	2026
289.636	769
289.694	1038
289.751	651
289.809	865
289.867	864
289.925	1433
289.983	1482
290.040	1123
290.098	948
290.156	694
290.214	1968
290.271	1011
290.329	1221
290.387	928
290.444	1272
290.502	382
290.560	494
290.617	673
290.675	743
290.733	1672
290.790	903
290.848	1211
290.906	1965
290.963	1248
291.021	1561
291.078	1354
291.136	1386
291.194	9444
291.251	11383
291.309	3381
291.366	1439
291.424	1142
291.481	1329
291.539	669
291.596	1717
291.654	208
291.711	1193
291.769	1759
291.826	3498
291.884	1867
291.941	729
291.999	864
292.056	1874
292.114	1326
292.171	1141
292.228	1791
292.286	2698
292.343	3953
292.401	4600
292.458	2205
292.515	1755
292.573	2759
292.630	1725
292.687	1787
292.745	1236
292.802	3032
292.859	9051
292.917	13245
292.974	5850
293.031	2830
293.089	1760
293.146	1236
293.203	730
293.260	1938
293.318	2689
293.375	4073
293.432	1837
293.489	1147
293.546	1132
293.604	2618
293.661	11101
293.718	20869
293.775	9198
293.832	5491
293.889	4010
293.947	5340
294.004	3055
294.061	2507
294.118	7946
294.175	15787
294.232	17830
294.289	6329
294.346	3383
294.403	3538
294.460	2890
294.517	1782
294.574	1531
294.631	1613
294.688	2067
294.745	8748
294.802	30613
294.859	25645
294.916	11256
294.973	5815
295.030	5116
295.087	3400
295.144	2947
295.201	2300
295.258	1664
295.315	2629
295.372	12752
295.429	15586
295.486	6613
295.542	4717
295.599	17590
295.656	20406
295.713	15421
295.770	14667
295.827	6075
295.883	3201
295.940	3317
295.997	6615
296.054	5062
296.111	3194
296.167	2720
296.224	936
296.281	2001
296.338	1792
296.394	1118
296.451	3112
296.508	10480
296.564	13782
296.621	9614
296.678	24734
296.734	24114
296.791	9391
296.848	5242
296.904	7081
296.961	13502
297.018	21601
297.074	12943
297.131	5602
297.187	3580
297.244	5948
297.301	26507
297.357	28915
297.414	10333
297.470	4220
297.527	3219
297.583	2794
297.640	3354
297.696	1945
297.753	2034
297.809	1688
297.866	1684
297.922	1644
297.979	950
298.035	1907
298.092	5146
298.148	12691
298.204	9137
298.261	4399
298.317	13606
298.374	24472
298.430	12243
298.486	6609
298.543	4449
298.599	4485
298.656	5587
298.712	10687
298.768	22920
298.824	12601
298.881	5362
298.937	4330
298.993	3436
299.050	3714
299.106	2787
299.162	3048
299.218	3262
299.275	2533
299.331	2918
299.387	7475
299.443	26762
299.500	23179
299.556	10959
299.612	5543
299.668	6262
299.724	10555
299.780	8649
299.837	4430
299.893	8026
299.949	25420
300.005	21589
300.061	26312
300.117	32271
300.173	13984
300.229	7531
300.285	9994
300.341	9017
300.397	4748
300.453	3158
300.510	2472
300.566	3042
300.622	5249
300.678	21881
300.734	25767
300.790	22832
300.845	20539
300.901	19819
300.957	25598
301.013	15386
301.069	6464
301.125	5531
301.181	4631
301.237	3965
301.293	2116
301.349	2355
301.405	2961
301.461	4113
301.516	3871
301.572	4423
301.628	6281
301.684	5866
301.740	11453
301.796	12702
301.851	9705
301.907	14525
301.963	12869
302.019	31491
302.074	66030
302.130	53548
302.186	25228
302.242	10755
302.297	7003
302.353	8161
302.409	14093
302.464	10257
302.520	11315
302.576	25712
302.631	24568
302.687	13261
302.743	6618
302.798	4170
302.854	2940
302.910	3173
302.965	5034
303.021	8733
303.076	7877
303.132	10992
303.187	10389
303.243	6224
303.299	3761
303.354	3329
303.410	2503
303.465	2927
303.521	3263
303.576	2897
303.632	3250
303.687	10872
303.743	22308
303.798	15121
303.853	6699
303.909	3928
303.964	4018
304.020	6988
304.075	8357
304.130	9257
304.186	15314
304.241	14799
304.297	10814
304.352	6580
304.358	6358
304.407	4560
304.449	4692
304.463	4740
304.518	4197
304.539	3927
304.573	3497
304.629	2555
304.630	2639
304.684	6448
304.720	14933
304.739	19276
304.794	20790
304.811	17964
304.850	11118
304.902	5253
304.905	4879
304.960	4813
304.992	4595
305.015	4441
305.071	4863
305.083	4533
305.126	3354
305.173	2409
305.181	2255
305.236	2121
305.264	2622
305.292	3107
305.347	3978
305.354	4111
305.402	4966
305.445	4583
305.457	4476
305.512	5208
305.535	5136
305.567	5030
305.622	4506
305.626	4823
305.678	10341
305.716	20420
305.733	24549
305.788	21216
305.807	19490
305.843	16166
305.897	21531
305.898	21598
305.953	17293
305.988	13276
306.008	10934
306.063	6295
306.078	5620
306.118	4192
306.168	3432
306.173	3360
306.228	2529
306.259	2497
306.283	2461
306.338	2431
306.349	2544
306.393	3086
306.440	3864
306.448	3991
306.503	3148
306.530	3956
306.558	5208
306.613	11908
306.620	12585
306.668	16612
306.711	20714
306.723	21505
306.778	15607
306.801	12539
306.833	8444
306.888	5043
306.892	4887
306.943	3598
306.982	3206
306.997	3054
307.052	2809
307.072	2784
307.107	2950
307.162	4344
307.163	4375
307.217	6934
307.253	9161
307.272	10166
307.327	9224
307.343	8475
307.381	6314
307.434	5273
307.436	5335
307.491	12668
307.524	17709
307.546	19906
307.600	16729
307.614	15126
307.655	9726
307.704	5741
307.710	5472
307.765	5251
307.795	7933
307.819	10654
307.874	16335
307.885	15826
307.929	11164
307.975	8166
307.984	7984
308.038	8649
308.065	11195
308.093	16393
308.148	41628
308.156	47612
308.202	85955
308.246	94896
308.257	91316
308.312	52143
308.336	38549
308.366	29624
308.421	18922
308.426	18180
308.475	12052
308.517	9044
308.530	8340
308.585	6825
308.607	6327
308.639	5792
308.694	6013
308.697	6241
308.748	12320
308.787	18007
308.803	18891
308.857	14050
308.877	12446
308.912	10057
308.967	8114
308.967	8127
309.021	9862
309.058	12351
309.076	14569
309.130	25631
309.148	31540
309.185	53965
309.238	99247
309.239	99733
309.293	119193
309.328	112861
309.348	96245
309.402	48083
309.418	36294
309.457	25246
309.508	16389
309.511	15968
309.566	13505
309.598	14052
309.620	15555
309.674	22559
309.688	23931
309.729	23713
309.778	19739
309.783	19193
309.837	13041
309.868	10513
309.892	10410
309.946	13828
309.959	15342
310.001	21162
310.049	24429
310.055	23818
310.109	15210
310.139	10945
310.163	8673
310.218	5407
310.229	4964
310.272	4038
310.319	3344
310.326	3261
310.381	2854
310.409	2745
310.435	2548
310.489	2280
310.499	2254
310.543	2495
310.589	2891
310.598	2927
310.652	3048
310.679	3086
310.706	2796
310.760	2138
310.769	2064
310.814	1862
310.859	1764
310.868	1880
310.923	2432
310.948	2783
310.977	2597
311.031	2302
311.038	2253
311.085	2436
311.128	2556
311.139	2412
311.193	1788
311.218	1513
311.247	1658
311.301	1875
311.308	1917
311.356	1531
311.398	1179
311.410	1275
311.464	1774
311.488	2003
311.518	1884
311.572	1724
311.578	1723
311.626	2364
311.668	2857
311.680	2764
311.734	2376
311.758	2234
311.788	2428
311.842	2739
311.847	2791
311.896	2973
311.937	3171
311.950	3207
312.004	3412
312.027	3509
312.058	2772
312.112	1513
312.117	1402
312.165	1923
312.207	2397
312.297	2909
312.386	2016
312.476	1849
312.566	2629
312.656	2487
312.745	1643
312.835	2274
312.925	2272
313.015	1654
313.104	2412
313.194	1583
313.284	1827
313.374	2078
313.463	2696
313.553	1995
313.643	1649
313.732	1904
313.822	1542
313.912	1342
314.001	2007
314.091	2497
314.180	2473
314.270	2009
314.360	2529
314.449	1534
314.539	1727
314.628	845
314.718	2041
314.808	2255
314.897	1988
314.987	1795
315.076	1857
315.166	2593
315.255	2716
315.345	2676
315.434	2908
315.524	1856
315.613	1798
315.703	2292
315.792	4868
315.881	15003
315.971	6886
316.060	3767
316.150	7040
316.239	7200
316.328	3761
316.418	1895
316.507	1437
316.597	2566
316.686	2516
316.775	2914
316.865	8614
316.954	1992
317.043	1849
317.133	1777
317.222	1836
317.311	1511
317.400	580
317.490	1834
317.579	2113
317.668	1050
317.757	3001
317.847	8123
317.936	25157
318.025	11543
318.114	6090
318.203	4074
318.293	4185
318.382	7579
318.471	6322
318.560	8183
318.649	17306
318.738	5063
318.828	2513
318.917	2386
319.006	2524
319.095	8821
319.184	20527
319.273	13016
319.362	5492
319.451	2194
319.540	2551
319.629	3246
319.718	6236
319.807	2970
319.896	6758
319.985	24782
320.074	11694
320.163	2743
320.252	4809
320.341	3747
320.430	3901
320.519	3430
320.608	3130
320.697	2089
320.786	1705
320.875	2916
320.964	2830
321.053	3798
321.142	5320
321.230	6396
321.319	4592
321.408	11067
321.497	6280
321.586	4960
321.675	6993
321.764	6545
321.852	4447
321.941	5846
322.030	4289
322.119	4757
322.207	10690
322.296	11655
322.385	6097
322.474	5665
322.562	13006
322.651	9262
322.740	5086
322.829	7336
322.917	9096
323.006	6557
323.095	3477
323.183	3176
323.272	4097
323.361	8957
323.449	30647
323.538	11572
323.626	19485
323.715	16199
323.804	4548
323.892	17135
323.981	12655
324.069	3332
324.158	9593
324.246	11912
324.335	2735
324.424	4715
324.512	2604
324.601	3181
324.689	16860
324.778	46390
324.866	11435
324.954	3383
325.043	2308
325.131	2972
325.220	8269
325.308	9450
325.397	6268
325.485	4221
325.574	1395
325.662	1232
325.750	1421
325.839	1274
325.927	1741
326.015	1290
326.104	2811
326.192	4729
326.280	1400
326.369	942
326.457	1465
326.545	2832
326.634	1986
326.722	948
326.810	1791
326.898	1029
326.987	1337
327.075	2107
327.163	3675
327.251	3456
327.340	14601
327.428	36124
327.516	4596
327.604	1512
327.692	2179
327.781	1817
327.869	3458
327.957	2307
328.045	2280
328.133	1392
328.221	2483
328.309	1031
328.397	2125
328.485	1886
328.574	1665
328.662	6515
328.750	4818
328.838	2497
328.926	1312
329.014	390
329.102	1421
329.190	4183
329.278	4295
329.366	649
329.454	1345
329.542	1019
329.630	234
329.718	-111
329.806	1079
329.893	1768
329.981	1736
330.069	1766
330.157	8721
330.245	28945
330.333	18696
330.421	2551
330.509	1723
330.597	7180
330.684	6513
330.772	2296
330.860	3490
330.948	4498
331.036	1909
331.123	915
331.211	1464
331.299	1790
331.387	2901
331.475	6982
331.562	1814
331.650	1166
331.738	1623
331.825	2168
331.913	1444
332.001	1035
332.089	1718
332.176	3599
332.264	9091
332.352	9476
332.439	2469
332.527	1408
332.614	1281
332.702	2077
332.790	1403
332.877	3073
332.965	10630
333.052	2769
333.140	2351
333.228	5669
333.315	1983
333.403	1362
333.490	4721
333.578	5595
333.665	6092
333.753	3700
333.840	1439
333.928	2200
334.015	5121
334.103	7625
334.190	28929
334.278	10274
334.365	4277
334.452	3195
334.540	1984
334.627	2332
334.715	3132
334.802	5016
334.889	31352
334.977	48190
335.064	7461
335.151	2125
335.239	2173
335.326	3399
335.413	10069
335.501	22598
335.588	3807
335.675	2307
335.762	2287
335.850	4080
335.937	3752
336.024	8046
336.111	39934
336.199	25803
336.286	5403
336.373	2448
336.460	1541
336.547	1205
336.635	2044
336.722	1494
336.809	1521
336.896	1366
336.983	6946
337.070	18755
337.157	31050
337.245	22630
337.332	22367
337.419	2489
337.506	1739
337.593	1446
337.680	5042
337.767	19831
337.854	6530
337.941	6101
338.028	7913
338.115	4157
338.202	2220
338.289	4724
338.376	24685
338.463	9980
338.550	9567
338.637	15061
338.724	3743
338.811	8146
338.898	2217
338.984	1374
339.071	953
339.158	1924
339.245	3541
339.332	3717
339.419	4014
339.506	5961
339.593	306
339.679	834
339.766	737
339.853	1331
339.940	3449
340.027	1777
340.113	1372
340.200	1407
340.287	1457
340.374	1054
340.460	2384
340.547	882
340.634	1188
340.720	6715
340.807	5513
340.894	817
340.980	1318
341.067	585
341.154	1132
341.240	1228
341.327	3819
341.414	1488
341.500	1610
341.587	1190
341.674	775
341.760	2339
341.847	2900
341.933	1366
342.020	292
342.106	566
342.193	1265
342.279	1002
342.366	1976
342.452	2737
342.539	1199
342.625	2849
342.712	7706
342.798	4485
342.885	1994
342.971	86
343.058	452
343.144	648
343.230	453
343.317	732
343.403	431
343.490	1117
343.576	690
343.662	1267
343.749	851
343.835	1693
343.921	1710
344.008	15390
344.094	52654
344.180	15070
344.267	2613
344.353	9610
344.439	15202
344.525	4229
344.612	2104
344.698	1136
344.784	1252
344.870	194
344.957	616
345.043	1292
345.129	638
345.215	2544
345.301	1282
345.387	364
345.474	747
345.560	78
345.646	743
345.732	483
345.818	1302
345.904	1099
345.990	858
346.076	482
346.162	3784
346.249	1292
346.335	589
346.421	1196
346.507	2883
346.593	17558
346.679	5894
346.765	1356
346.851	577
346.937	952
347.023	609
347.108	626
347.194	1151
347.280	612
347.366	1270
347.452	3816
347.538	20906
347.624	16368
347.710	13537
347.796	2166
347.882	972
347.967	74
348.053	1566
348.139	1500
348.225	1104
348.311	396
348.397	654
348.482	227
348.568	1247
348.654	-109
348.740	1088
348.825	2480
348.911	1658
348.997	6365
349.083	22372
349.168	4117
349.254	991
349.340	1481
349.425	505
349.511	352
349.597	1238
349.682	1780
349.768	9339
349.854	6937
349.939	1239
350.025	1108
350.110	421
350.196	-504
350.282	561
350.367	-75
350.453	2026
350.538	1225
350.624	1302
350.709	859
350.795	580
350.880	53
350.966	857
351.051	1565
351.137	1301
351.222	817
351.308	1587
351.393	8069
351.479	2752
351.564	669
351.649	604
351.735	141
351.820	216
351.906	499
351.991	473
352.076	3931
352.162	9508
352.247	1728
352.332	685
352.418	1854
352.503	2560
352.588	10389
352.673	11612
352.759	2057
352.844	681
352.929	1067
353.014	1431
353.100	1348
353.185	1919
353.270	2352
353.355	3400
353.441	702
353.526	648
353.611	2123
353.696	3158
353.781	1343
353.866	1221
353.952	593
354.037	1596
354.122	5281
354.207	5247
354.292	2486
354.377	995
354.462	188
354.547	1421
354.632	855
354.717	1825
354.802	2615
354.887	1369
354.972	-441
355.057	333
355.142	-435
355.227	751
355.312	1123
355.397	3291
355.482	8575
355.567	5429
355.652	2955
355.737	3395
355.822	10137
355.907	13238
355.991	2142
356.076	995
356.161	914
356.246	789
356.331	645
356.416	2432
356.501	17128
356.585	30140
356.670	4442
356.755	1495
356.840	1734
356.924	10193
357.009	54066
357.094	29765
357.179	3690
357.263	3419
357.348	2412
357.433	2707
357.517	1998
357.602	1963
357.687	1106
357.771	1246
357.856	4925
357.941	5615
358.025	7874
358.110	54142
358.195	37228
358.279	3421
358.364	2237
358.448	5798
358.533	20778
358.617	17768
358.702	15512
358.787	7902
358.871	3111
358.956	2982
359.040	1325
359.125	650
359.209	61
359.294	2176
359.378	4411
359.462	2592
359.547	1737
359.631	1003
359.716	-240
359.800	884
359.885	894
359.969	1988
360.053	837
360.138	1364
360.222	1591
360.306	2463
360.391	2447
360.475	2902
360.559	7620
360.644	7103
360.728	6321
360.812	8215
360.896	35291
360.981	17424
361.065	7339
361.149	2258
361.233	1225
361.318	970
361.402	1575
361.486	1699
361.570	1180
361.654	644
361.739	3483
361.823	16517
361.907	41357
361.991	9055
362.075	2823
362.159	5469
362.243	5613
362.327	5086
362.411	9131
362.495	5249
362.580	2257
362.664	1794
362.748	1744
362.832	1834
362.916	2828
363.000	11522
363.084	33697
363.168	52568
363.252	14865
363.336	3519
363.420	3820
363.503	14704
363.587	28094
363.671	5534
363.755	1369
363.839	3603
363.923	1140
364.007	3257
364.091	4422
364.175	5590
364.258	29914
364.342	29019
364.426	31875
364.510	24532
364.594	7719
364.677	5856
364.761	25932
364.845	28981
364.929	6039
365.013	4755
365.096	2825
365.180	4095
365.264	5652
365.347	29974
365.431	19247
365.515	3351
365.598	1723
365.682	1396
365.766	2058
365.849	4457
365.933	1689
366.017	1769
366.100	1513
366.184	778
366.267	533
366.351	479
366.435	492
366.518	634
366.602	468
366.685	819
366.769	217
366.852	2078
366.936	4364
367.019	3141
367.103	1329
367.186	4030
367.270	1194
367.353	136
367.436	123
367.520	328
367.603	1531
367.687	1483
367.770	2755
367.853	2876
367.937	5816
368.020	15834
368.104	4428
368.187	1871
368.270	3322
368.353	4096
368.437	3777
368.520	15076
368.603	10487
368.687	6861
368.770	17563
368.853	5321
368.936	2281
369.020	4387
369.103	989
369.186	744
369.269	1133
369.352	1441
369.436	3271
369.519	2827
369.602	663
369.685	1126
369.768	1137
369.851	1244
369.934	562
370.018	668
370.101	2348
370.184	3455
370.267	1940
370.350	3029
370.433	4761
370.516	12603
370.599	24217
370.682	7667
370.765	7582
370.848	10631
370.931	22216
371.014	12358
371.097	1604
371.180	1219
371.263	699
371.346	799
371.429	742
371.511	1552
371.594	1852
371.677	3778
371.760	5022
371.843	3752
371.926	13892
372.009	50354
372.091	22382
372.174	8490
372.257	22716
372.340	11930
372.423	5800
372.505	8387
372.588	3601
372.671	5645
372.754	18937
372.836	15205
372.919	7163
373.002	18678
373.085	7995
373.167	3524
373.250	7443
373.332	20626
373.415	25669
373.498	67773
373.580	33860
373.663	25629
373.746	53612
373.828	13565
373.911	3678
373.993	4009
374.076	14164
374.159	20839
374.241	5694
374.324	15042
374.406	14219
374.489	13648
374.571	51632
374.654	30825
374.736	8218
374.819	28560
374.901	43090
374.983	58318
375.066	13605
375.148	3692
375.231	10033
375.313	30379
375.395	13558
375.478	3761
375.560	1009
375.643	2328
375.725	6335
375.807	33734
375.890	40315
375.972	17322
376.054	6047
376.136	12529
376.219	7424
376.301	7673
376.383	31664
376.465	18439
376.548	5370
376.630	7021
376.712	23871
376.794	17937
376.877	1801
376.959	1177
377.041	1095
377.123	2931
377.205	4798
377.287	1221
377.369	1154
377.452	597
377.534	930
377.616	1262
377.698	-175
377.780	238
377.862	313
377.944	613
378.026	-310
378.108	315
378.190	517
378.272	772
378.354	795
378.436	446
378.518	1268
378.600	5640
378.682	6004
378.764	9159
378.846	11444
378.928	3207
379.010	3901
379.091	2251
379.173	301
379.255	862
379.337	1109
379.419	3933
379.501	15832
379.583	10663
379.664	1325
379.746	2793
379.828	10132
379.910	15921
379.991	16828
380.073	3461
380.155	1542
380.237	1364
380.318	898
380.400	636
380.482	1630
380.564	3904
380.645	3220
380.727	3680
380.809	1876
380.890	1354
380.972	1092
381.053	2080
381.135	1560
381.217	3151
381.298	11252
381.380	8717
381.461	4812
381.543	20538
381.624	39435
381.706	9103
381.787	2823
381.869	3824
381.951	9013
382.032	45173
382.113	43729
382.195	7707
382.276	4962
382.358	7883
382.439	23162
382.521	27623
382.602	48314
382.684	26553
382.765	27476
382.846	37725
382.928	46956
383.009	35258
383.090	16374
383.172	51706
383.253	114069
383.334	48143
383.416	37512
383.497	27732
383.578	8737
383.659	13924
383.741	41712
383.822	141183
383.903	107173
383.984	27139
384.066	42017
384.147	34193
384.228	8473
384.309	3874
384.390	3573
384.471	2956
384.553	2669
384.634	3090
384.715	3627
384.796	2161
384.877	3187
384.958	8615
385.039	15191
385.120	6696
385.201	2280
385.282	2634
385.363	3222
385.444	2481
385.525	4644
385.606	16543
385.687	22733
385.768	5368
385.849	4394
385.930	15881
386.011	45270
386.092	16792
386.173	3168
386.254	2012
386.335	1945
386.416	2164
386.496	4771
386.577	12925
386.658	6589
386.739	2675
386.820	2758
386.901	2322
386.981	2657
387.062	1418
387.143	2434
387.224	8730
387.304	14528
387.385	5806
387.466	2266
387.547	4191
387.627	3213
387.708	4079
387.789	17486
387.869	30361
387.950	11975
388.031	1669
388.111	191
388.192	4507
388.273	6487
388.353	5113
388.434	1769
388.514	2879
388.595	18699
388.676	33536
388.756	15648
388.837	10067
388.917	9184
388.998	960
389.078	1082
389.159	1309
389.239	808
389.320	1978
389.400	1605
389.480	3912
389.561	12015
389.641	10121
389.722	1968
389.802	3230
389.883	3916
389.963	15467
390.043	13726
390.124	4171
390.204	3680
390.284	11925
390.365	10622
390.445	8866
390.525	23447
390.605	24785
390.686	8300
390.766	3853
390.846	1363
390.927	1332
391.007	416
391.087	1815
391.167	2214
391.247	1579
391.328	2845
391.408	4321
391.488	3912
391.568	1614
391.648	1533
391.728	2514
391.808	2992
391.888	2688
391.969	6151
392.049	12652
392.129	7357
392.209	6261
392.289	15206
392.369	11984
392.449	8178
392.529	6095
392.609	4516
392.689	5151
392.769	13789
392.849	18169
392.929	10548
393.009	23004
393.089	24448
393.169	20786
393.248	50617
393.328	201478
393.408	317560
393.488	111771
393.568	25586
393.648	12518
393.728	7115
393.807	5893
393.887	5157
393.967	4195
394.047	4128
394.127	3794
394.206	6607
394.286	18104
394.366	86926
394.446	142952
394.525	40752
394.605	8970
394.685	5561
394.764	9052
394.844	18327
394.924	17993
395.003	5995
395.083	3175
395.163	3572
395.242	2943
395.322	2124
395.402	2031
395.481	3282
395.561	6074
395.640	20295
395.720	21831
395.799	22513
395.879	24244
395.958	11008
396.038	24363
396.117	114610
396.197	187832
396.276	60794
396.356	16315
396.435	11615
396.515	9179
396.594	8541
396.673	16391
396.753	52291
396.832	199809
396.912	214953
396.991	56619
397.070	14341
397.150	7042
397.229	5179
397.308	6473
397.388	12142
397.467	7648
397.546	2371
397.625	662
397.705	3231
397.784	3133
397.863	2026
397.942	937
398.022	1625
398.101	3488
398.180	19357
398.259	14552
398.338	2994
398.417	1379
398.497	1184
398.576	1545
398.655	308
398.734	793
398.813	860
398.892	4584
398.971	19312
399.050	16281
399.129	1982
399.208	512
399.287	910
399.366	43
399.445	345
399.524	457
399.603	82
399.682	1339
399.761	3988
399.840	18947
399.919	25126
399.998	4364
400.077	530
400.156	-643
400.235	1596
400.313	626
400.392	783
400.471	4398
400.550	10291
400.629	4019
400.708	479
400.786	544
400.865	2862
400.944	4751
401.023	3543
401.102	-86
401.180	1149
401.259	612
401.338	229
401.416	1329
401.495	1157
401.574	584
401.652	245
401.731	935
401.810	563
401.888	44
401.967	-224
402.046	121
402.124	442
402.203	819
402.281	807
402.360	961
402.438	4181
402.517	4480
402.596	847
402.674	581
402.753	871
402.831	259
402.910	-624
402.988	2734
403.066	14053
403.145	13247
403.223	4429
403.302	11248
403.380	11292
403.459	10769
403.537	5481
403.615	1832
403.694	-179
403.772	859
403.850	-392
403.929	-22
404.007	-548
404.085	1418
404.164	1064
404.242	-164
404.320	484
404.398	1593
404.477	3947
404.555	26649
404.633	38617
404.711	7680
404.789	1170
404.868	140
404.946	-799
405.024	470
405.102	-13
405.180	-383
405.258	-1367
405.336	155
405.415	-288
405.493	1597
405.571	1900
405.649	14
405.727	-325
405.805	567
405.883	1022
405.961	1109
406.039	992
406.117	298
406.195	1373
406.273	3194
406.351	23906
406.429	24254
406.507	3699
406.585	906
406.663	795
406.740	595
406.818	165
406.896	-571
406.974	29
407.052	649
407.130	10319
407.208	25233
407.285	7625
407.363	163
407.441	52
407.519	100
407.596	-376
407.674	1187
407.752	5113
407.830	8095
407.907	4446
407.985	693
408.063	154
408.141	-402
408.218	977
408.296	1389
408.373	517
408.451	181
408.529	805
408.606	-307
408.684	-870
408.762	-365
408.839	-824
408.917	-541
408.994	-94
409.072	-471
409.149	99
409.227	528
409.304	1347
409.382	1324
409.459	1467
409.537	2788
409.614	2743
409.692	1227
409.769	1119
409.846	1883
409.924	3878
410.001	1830
410.079	1045
410.156	1103
410.233	1082
410.311	889
410.388	329
410.465	343
410.543	-61
410.620	516
410.697	271
410.775	1000
410.852	-264
410.929	973
411.006	1646
411.083	502
411.161	1077
411.238	3142
411.315	813
411.392	65
411.469	363
411.547	1147
411.624	-527
411.701	-156
411.778	138
411.855	996
411.932	1146
412.009	-107
412.086	150
412.163	678
412.240	458
412.317	1100
412.394	272
412.471	-42
412.548	-466
412.625	-87
412.702	-176
412.779	947
412.856	882
412.933	-887
413.010	-93
413.087	-115
413.164	2567
413.241	9857
413.318	2472
413.395	1458
413.471	509
413.548	908
413.625	124
413.702	-58
413.779	560
413.855	-383
413.932	-1169
414.009	-433
414.086	-504
414.162	403
414.239	68
414.316	3718
414.393	12374
414.469	6514
414.546	85
414.623	-476
414.699	-400
414.776	38
414.853	-556
414.929	291
415.006	177
415.082	-60
415.159	370
415.236	-49
415.312	348
415.389	884
415.465	744
415.542	496
415.618	-885
415.695	646
415.771	197
415.848	-37
415.924	-279
416.000	-385
416.077	-333
416.153	-587
416.230	-393
416.306	-869
416.383	-450
416.459	-316
416.535	-1264
416.612	-518
416.688	-113
416.764	-415
416.841	-1039
416.917	-499
416.993	428
417.069	241
417.146	125
417.222	337
417.298	837
417.374	-65
417.451	-51
417.527	-145
417.603	345
417.679	381
417.755	142
417.831	-733
417.908	-362
417.984	-53
418.060	-177
418.136	380
418.212	991
418.288	-159
418.364	159
418.440	248
418.516	341
418.592	891
418.668	2747
418.744	2373
418.820	3356
418.896	322
418.972	-1048
419.048	-729
419.124	836
419.200	655
419.276	-566
419.352	-809
419.428	-651
419.504	-535
419.579	129
419.655	-466
419.731	308
419.807	1727
419.883	3556
419.959	4553
420.034	729
420.110	682
420.186	5588
420.262	9501
420.337	937
420.413	385
420.489	-461
420.565	422
420.640	57
420.716	960
420.792	-722
420.867	1090
420.943	213
421.019	738
421.094	588
421.170	332
421.245	4
421.321	1012
421.397	455
421.472	1927
421.548	3062
421.623	4970
421.699	1898
421.774	1399
421.850	1079
421.925	2727
422.001	3461
422.076	2840
422.152	2796
422.227	5268
422.302	6962
422.378	9944
422.453	16534
422.529	36608
422.604	94271
422.679	179129
422.755	152842
422.830	70754
422.905	28104
422.981	15723
423.056	9729
423.131	7190
423.207	4896
423.282	4116
423.357	4681
423.432	4086
423.508	2529
423.583	4628
423.658	5516
423.733	2188
423.808	2269
423.883	2344
423.959	1708
424.034	1627
424.109	1634
424.184	755
424.259	311
424.334	856
424.409	40
424.484	96
424.559	35
424.634	272
424.709	655
424.784	1375
424.859	1081
424.934	356
425.009	3909
425.084	10327
425.159	6283
425.234	1714
425.309	70
425.384	756
425.459	2131
425.534	1667
425.609	152
425.683	395
425.758	12
425.833	516
425.908	836
425.983	1877
426.058	9673
426.132	7884
426.207	1403
426.282	2125
426.357	1025
426.431	567
426.506	525
426.581	130
426.655	1186
426.730	-111
426.805	-837
426.879	442
426.954	339
427.029	1286
427.103	6605
427.178	23600
427.253	19992
427.327	3191
427.402	813
427.476	4371
427.551	3101
427.625	1040
427.700	687
427.774	-75
427.849	1062
427.923	821
427.998	751
428.072	907
428.147	2406
428.221	7028
428.296	32451
428.370	33771
428.444	5813
428.519	1993
428.593	4092
428.667	5752
428.742	5057
428.816	7274
428.890	15816
428.965	42895
429.039	20987
429.113	8070
429.188	3992
429.262	938
429.336	940
429.410	4585
429.485	5722
429.559	3987
429.633	4822
429.707	2270
429.781	2625
429.855	17296
429.930	43862
430.004	27132
430.078	23881
430.152	29487
430.226	40077
430.300	69066
430.374	21674
430.448	3983
430.522	4676
430.596	20647
430.670	24269
430.744	26881
430.818	61917
430.892	25624
430.966	3342
431.040	1968
431.114	-20
431.188	-302
431.262	445
431.336	-445
431.410	2052
431.484	4765
431.557	7160
431.631	1178
431.705	965
431.779	3924
431.853	25451
431.927	38424
432.000	8877
432.074	1041
432.148	340
432.222	990
432.295	210
432.369	164
432.443	706
432.516	6526
432.590	27581
432.664	22692
432.737	3168
432.811	369
432.885	-237
432.958	692
433.032	-836
433.106	-413
433.179	-191
433.253	-777
433.326	-492
433.400	11
433.473	-1189
433.547	-1302
433.620	385
433.694	247
433.767	1356
433.841	720
433.914	85
433.988	7
434.061	-352
434.134	-379
434.208	-297
434.281	-367
434.355	-866
434.428	-37
434.501	-405
434.575	7
434.648	-295
434.721	-609
434.795	-497
434.868	-226
434.941	-1137
435.014	-715
435.088	-944
435.161	823
435.234	1200
435.307	2275
435.381	1366
435.454	1088
435.527	1040
435.600	1614
435.673	1774
435.746	279
435.819	204
435.892	768
435.966	165
436.039	23
436.112	508
436.185	-316
436.258	-332
436.331	-823
436.404	-680
436.477	-256
436.550	-338
436.623	-341
436.696	-224
436.769	365
436.842	-389
436.915	346
436.987	257
437.060	131
437.133	-83
437.206	-455
437.279	390
437.352	6
437.425	-284
437.498	173
437.570	820
437.643	2604
437.716	640
437.789	140
437.861	225
437.934	4322
438.007	5252
438.080	531
438.152	309
438.225	1596
438.298	8240
438.370	42800
438.443	41580
438.516	11095
438.588	3262
438.661	981
438.734	683
438.806	175
438.879	1221
438.951	1168
439.024	3301
439.096	2362
439.169	146
439.241	515
439.314	-649
439.386	-133
439.459	1459
439.531	3023
439.604	2972
439.676	795
439.749	621
439.821	665
439.893	217
439.966	168
440.038	534
440.110	698
440.183	930
440.255	-330
440.327	746
440.400	3890
440.472	21906
440.544	35318
440.617	9988
440.689	2858
440.761	2294
440.833	5487
440.905	5867
440.978	2022
441.050	-108
441.122	603
441.194	-689
441.266	145
441.338	-92
441.411	624
441.483	5376
441.555	17760
441.627	10705
441.699	2814
441.771	2768
441.843	1709
441.915	1028
441.987	411
442.059	186
442.131	1545
442.203	2442
442.275	3025
442.347	3572
442.419	4392
442.491	14109
442.563	56925
442.635	60041
442.706	19209
442.778	14455
442.850	6562
442.922	1675
442.994	2076
443.066	3343
443.137	4203
443.209	3169
443.281	3847
443.353	8084
443.425	20851
443.496	81068
443.568	141752
443.640	91351
443.711	27702
443.783	6311
443.855	3780
443.926	1697
443.998	1481
444.070	1422
444.141	2358
444.213	2893
444.285	3751
444.356	3552
444.428	3156
444.499	2384
444.571	828
444.642	1245
444.714	1015
444.785	2723
444.857	4275
444.928	6071
445.000	8863
445.071	5437
445.143	9403
445.214	8790
445.285	8415
445.357	19665
445.428	52396
445.500	149451
445.571	165899
445.642	106320
445.714	50084
445.785	24528
445.856	13240
445.928	5950
445.999	5148
446.070	4747
446.141	4471
446.213	5175
446.284	4036
446.355	2697
446.426	2553
446.497	1242
446.569	1939
446.640	3464
446.711	4835
446.782	2171
446.853	1185
446.924	1964
446.995	1879
447.066	1446
447.138	3123
447.209	3546
447.280	1144
447.351	1169
447.422	431
447.493	718
447.564	1523
447.635	2819
447.706	2328
447.777	15
447.847	924
447.918	326
447.989	1057
448.060	1842
448.131	4517
448.202	7305
448.273	4848
448.344	3160
448.414	916
448.485	1397
448.556	63
448.627	227
448.698	654
448.768	-297
448.839	669
448.910	2078
448.981	3488
449.051	1866
449.122	401
449.193	-74
449.263	1355
449.334	404
449.405	2168
449.475	3252
449.546	4849
449.616	4122
449.687	5524
449.758	2068
449.828	1045
449.899	855
449.969	444
450.040	433
450.110	1488
450.181	1169
450.251	1204
450.322	1142
450.392	1961
450.463	940
450.533	816
450.604	945
450.674	1202
450.744	730
450.815	1028
450.885	1165
450.955	999
451.026	1225
451.096	1308
451.166	1794
451.237	2581
451.307	9727
451.377	11178
451.447	2405
451.518	1471
451.588	1258
451.658	1514
451.728	2499
451.799	6634
451.869	16876
451.939	10043
452.009	2166
452.079	1423
452.149	2016
452.219	2019
452.289	8226
452.360	17254
452.430	8327
452.500	2468
452.570	2857
452.640	4294
452.710	8505
452.780	20733
452.850	19957
452.920	13525
452.990	9852
453.060	3243
453.129	3196
453.199	5274
453.269	7288
453.339	38974
453.409	70716
453.479	48303
453.549	68174
453.619	86814
453.688	70943
453.758	18150
453.828	3747
453.898	2775
453.968	2030
454.037	2009
454.087	1643
454.107	1483
454.168	1915
454.177	1970
454.247	1408
454.249	1424
454.316	1429
454.330	1540
454.386	1906
454.411	2796
454.456	3867
454.492	8055
454.525	11780
454.574	10961
454.595	10680
454.655	4028
454.665	2959
454.734	2788
454.736	2859
454.804	3684
454.817	4978
454.873	9152
454.898	13052
454.943	19813
454.979	16577
455.013	14034
455.060	7269
455.082	4347
455.141	3990
455.152	3818
455.221	7001
455.222	7217
455.291	15808
455.303	15783
455.360	16852
455.384	12976
455.430	6053
455.465	6452
455.499	6429
455.546	9570
455.569	10414
455.627	13121
455.638	13895
455.707	6213
455.708	6201
455.777	2416
455.789	2405
455.846	2499
455.869	2297
455.916	1806
455.950	2196
455.985	2434
456.031	2215
456.054	2108
456.112	2241
456.124	2290
456.193	1832
456.193	1817
456.262	2150
456.274	2284
456.332	2650
456.355	2780
456.401	2585
456.436	2557
456.470	2654
456.516	2031
456.540	1740
456.597	1821
456.609	1836
456.678	2295
456.678	2286
456.747	1681
456.759	1716
456.817	1932
456.840	1997
456.886	1945
456.920	1742
456.955	1799
457.001	2216
457.024	2511
457.082	2796
457.093	2767
457.162	4448
457.163	4476
457.232	5047
457.243	4727
457.301	3091
457.324	2859
457.370	2878
457.405	2664
457.439	2596
457.485	3147
457.508	3381
457.566	3821
457.577	4019
457.646	5778
457.647	5812
457.715	9326
457.727	10241
457.784	17428
457.808	21050
457.853	23100
457.889	27488
457.922	27745
457.969	23768
457.991	26569
458.050	28643
458.060	29517
458.129	41618
458.130	42227
458.198	37449
458.211	35129
458.267	30406
458.292	23337
458.336	17241
458.372	14589
458.405	15886
458.453	21576
458.474	26949
458.533	44579
458.543	45282
458.611	61484
458.614	62341
458.680	46149
458.694	38416
458.749	29243
458.775	21610
458.818	11699
458.855	8859
458.887	6648
458.936	5429
458.955	4981
459.016	4739
459.024	4717
459.093	3852
459.097	3888
459.162	4518
459.177	4596
459.230	5280
459.257	5803
459.299	5891
459.338	5564
459.368	5558
459.418	5639
459.437	5353
459.499	5577
459.505	5666
459.574	4211
459.579	4168
459.643	3744
459.659	3809
459.711	4390
459.740	4464
459.780	4397
459.820	4447
459.849	4272
459.900	4527
459.917	4688
459.981	5120
459.986	5146
460.054	4856
460.061	4870
460.123	5029
460.141	5077
460.191	5901
460.222	6296
460.260	6489
460.302	7557
460.328	7360
460.382	6585
460.397	6662
460.462	5823
460.465	5893
460.534	7908
460.543	8226
460.602	16096
460.623	19110
460.671	30242
460.703	39070
460.739	32330
460.783	27448
460.808	26568
460.864	13247
460.876	12314
460.944	5064
460.945	4978
461.013	4884
461.024	4898
461.081	5134
461.104	5282
461.150	4955
461.184	4584
461.218	4545
461.264	4591
461.286	4372
461.345	3661
461.355	3772
461.423	4809
461.425	4836
461.491	5653
461.505	5893
461.559	9998
461.585	11708
461.628	17419
461.665	22815
461.696	23666
461.745	27799
461.764	24527
461.825	12369
461.832	12664
461.901	7803
461.905	7679
461.969	5368
461.985	5399
462.037	5779
462.065	5617
462.105	5991
462.145	6757
462.173	9093
462.225	13263
462.241	14471
462.305	19912
462.310	19265
462.378	11200
462.385	9892
462.446	8228
462.465	7271
462.514	5464
462.545	5399
462.582	5631
462.625	5826
462.650	5386
462.705	4671
462.718	4811
462.785	5350
462.786	5399
462.854	8215
462.865	8714
462.922	10054
462.945	10873
462.990	8496
463.025	6215
463.058	6127
463.104	5135
463.126	4830
463.184	4616
463.194	4652
463.262	5371
463.264	5385
463.330	5419
463.344	5446
463.398	6038
463.424	6282
463.466	5851
463.504	5626
463.533	5778
463.583	5688
463.601	5829
463.663	6625
463.669	6906
463.737	10002
463.743	10280
463.805	13943
463.823	15130
463.873	23726
463.903	28926
463.940	28924
463.982	29696
464.008	24094
464.062	11827
464.076	11692
464.142	7034
464.144	6958
464.211	5663
464.221	5670
464.279	5508
464.301	5477
464.347	6526
464.381	7284
464.414	8242
464.461	9599
464.482	9688
464.540	9942
464.550	9744
464.617	8314
464.620	8247
464.685	8726
464.699	8798
464.753	9798
464.779	10429
464.820	10489
464.859	10513
464.888	10800
464.938	11282
464.956	11317
465.018	11210
465.023	11093
465.091	9574
465.098	9392
465.158	8970
465.177	8804
465.226	8551
465.257	8481
465.293	9044
465.336	9594
465.361	10302
465.416	11986
465.428	12782
465.495	17020
465.496	17117
465.563	28860
465.575	30845
465.631	33874
465.654	35538
465.698	22892
465.734	11942
465.765	11505
465.813	9612
465.833	9190
465.893	8724
465.900	8655
465.968	8535
465.972	8508
466.035	8768
466.052	8842
466.102	8839
466.131	8851
466.170	9173
466.210	9382
466.237	9506
466.290	9864
466.304	10074
466.369	10822
466.372	10848
466.439	11280
466.449	11335
466.506	12729
466.528	13211
466.573	18288
466.607	22075
466.641	31206
466.687	43891
466.708	47155
466.766	56049
466.775	51873
466.842	20237
466.845	18705
466.909	15591
466.925	14790
466.977	13404
467.004	12895
467.044	13170
467.083	13427
467.111	14304
467.163	15912
467.178	16145
467.242	17009
467.245	16938
467.312	15014
467.321	14741
467.379	14721
467.400	14679
467.446	15604
467.480	16238
467.559	14239
467.638	12830
467.717	13381
467.796	14276
467.875	15954
467.955	14147
468.034	22312
468.113	49220
468.192	68510
468.271	19247
468.350	17196
468.429	21178
468.508	22125
468.588	16150
468.667	13717
468.746	13677
468.825	11769
468.904	10621
468.983	13055
469.062	20686
469.141	22582
469.220	10411
469.299	10968
469.378	11764
469.456	13558
469.535	12737
469.614	12415
469.693	13520
469.772	16943
469.851	22556
469.930	14592
470.009	11559
470.088	12965
470.166	15618
470.245	24855
470.324	27660
470.403	18324
470.482	13476
470.560	11726
470.639	11756
470.718	14249
470.797	11283
470.875	14138
470.954	18874
471.033	18711
471.111	9850
471.190	9036
471.269	9489
471.347	9906
471.426	10126
471.505	11551
471.583	11813
471.662	11041
471.740	10620
471.819	10260
471.898	9892
471.976	9625
472.055	9703
472.133	10863
472.212	14905
472.290	15425
472.369	10704
472.447	9896
472.526	8309
472.604	9769
472.683	10741
472.761	10745
472.839	9566
472.918	9225
472.996	10694
473.075	12657
473.153	10372
473.231	9763
473.310	11821
473.388	10818
473.466	10059
473.545	11444
473.623	14821
473.701	13698
473.780	10097
473.858	9978
473.936	11420
474.014	10035
474.093	11953
474.171	16378
474.249	23148
474.327	14326
474.405	8705
474.484	9391
474.562	9251
474.640	10029
474.718	9641
474.796	10034
474.874	9767
474.952	8578
475.030	9054
475.108	9935
475.187	11282
475.265	12504
475.343	16929
475.421	17938
475.499	8983
475.577	10094
475.655	12836
475.733	27317
475.811	45111
475.889	41945
475.966	22857
476.044	10576
476.122	12737
476.200	15896
476.278	12289
476.356	8245
476.434	10212
476.512	11848
476.590	16450
476.667	13594
476.745	8432
476.823	9625
476.901	9248
476.979	9877
477.056	8752
477.134	9925
477.212	9861
477.290	9646
477.367	7968
477.445	8411
477.523	8123
477.601	8524
477.678	8456
477.756	10858
477.834	12004
477.911	8322
477.989	8887
478.066	8439
478.144	11202
478.222	11836
478.299	20193
478.377	15645
478.454	8228
478.532	7504
478.609	8174
478.687	9690
478.764	7179
478.842	8584
478.919	9418
478.997	8413
479.074	7973
479.152	10333
479.229	13669
479.307	7781
479.384	6601
479.461	6738
479.539	8476
479.616	9705
479.694	8149
479.771	10086
479.848	9666
479.926	13150
480.003	13098
480.080	7824
480.157	7198
480.235	7154
480.312	7509
480.389	9157
480.467	14999
480.544	17903
480.621	9556
480.698	9279
480.775	10903
480.853	10826
480.930	8314
481.007	9003
481.084	10394
481.161	11182
481.238	10515
481.315	8073
481.392	7365
481.470	8297
481.547	8153
481.624	6960
481.701	7510
481.778	9027
481.855	9788
481.932	15083
482.009	25125
482.086	15916
482.163	10565
482.240	15777
482.317	25879
482.393	17381
482.470	9272
482.547	8941
482.624	8853
482.701	9971
482.778	8306
482.855	7419
482.932	7276
483.009	8560
483.085	9929
483.162	11749
483.239	11178
483.316	10114
483.393	8581
483.469	9069
483.546	10536
483.623	9938
483.699	7306
483.776	9083
483.853	9164
483.930	15073
484.006	37549
484.083	64167
484.160	28277
484.236	39961
484.313	30122
484.389	23386
484.466	20151
484.543	20963
484.619	22815
484.696	25073
484.772	22902
484.849	23798
484.925	19338
485.002	17546
485.078	19822
485.155	20388
485.231	18084
485.308	16974
485.384	18763
485.461	23634
485.537	39204
485.614	43170
485.690	17818
485.766	17988
485.843	17900
485.919	26071
485.995	25627
486.072	15532
486.148	16556
486.224	16328
486.301	16919
486.377	19903
486.453	20533
486.530	18598
486.606	24231
486.682	27103
486.758	32774
486.835	38567
486.911	30592
486.987	51653
487.063	49189
487.139	60257
487.215	40970
487.292	19992
487.368	18922
487.444	22933
487.520	30408
487.596	34460
487.672	64429
487.748	177761
487.824	252889
487.900	68300
487.976	28931
488.052	25982
488.128	27429
488.204	21976
488.280	17766
488.356	23787
488.432	45710
488.508	67057
488.584	21447
488.660	16356
488.736	16740
488.812	17644
488.888	21591
488.964	29336
489.039	60415
489.115	88366
489.191	44660
489.267	17199
489.343	15942
489.418	13944
489.494	13279
489.570	12824
489.646	13516
489.722	13464
489.797	15661
489.873	24130
489.949	52226
490.024	38337
490.100	14080
490.176	13904
490.251	16956
490.327	21477
490.403	12657
490.478	12946
490.554	10233
490.629	11319
490.705	10813
490.781	12474
490.856	12512
490.932	15293
491.007	14132
491.083	14617
491.158	12780
491.234	18827
491.309	38562
491.385	35896
491.460	12683
491.536	13381
491.611	10116
491.686	13341
491.762	18580
491.837	39005
491.913	63281
491.988	88006
492.063	101411
492.139	28989
492.214	18124
492.289	9041
492.365	11083
492.440	13176
492.515	11797
492.590	12735
492.666	9800
492.741	15678
492.816	22341
492.891	11076
492.967	9709
493.042	8537
493.117	8298
493.192	7874
493.267	10010
493.342	14277
493.418	13919
493.493	9226
493.568	7924
493.643	9355
493.718	12678
493.793	18563
493.868	19302
493.943	12017
494.018	9972
494.093	9201
494.168	8790
494.243	8211
494.318	8170
494.393	7844
494.468	7596
494.543	8595
494.618	10379
494.693	8437
494.768	8514
494.842	8976
494.917	7477
494.992	8208
495.067	8379
495.142	7527
495.217	7993
495.292	8343
495.366	9344
495.441	12280
495.516	15515
495.591	26306
495.665	81423
495.740	185708
495.815	56635
495.890	12824
495.964	9957
496.039	11201
496.114	11033
496.188	11306
496.263	12591
496.338	9672
496.412	12631
496.487	14964
496.561	14954
496.636	15107
496.710	12373
496.785	13913
496.860	16251
496.934	12265
497.009	11561
497.083	11902
497.158	13232
497.232	15569
497.307	19615
497.381	16014
497.455	19333
497.530	24440
497.604	17245
497.679	19257
497.753	29351
497.827	38838
497.902	33374
497.976	43948
498.050	103987
498.125	346666
498.199	299974
498.273	52829
498.348	41427
498.422	33238
498.496	30138
498.570	25657
498.645	20576
498.719	18948
498.793	21769
498.867	34025
498.941	51755
499.016	142835
499.090	365752
499.164	91528
499.238	13503
499.312	12309
499.386	16631
499.460	14732
499.534	13243
499.609	17756
499.683	25861
499.757	27565
499.831	66864
499.905	244865
499.979	190417
500.053	31319
500.127	29343
500.201	21095
500.275	13240
500.349	13403
500.422	15094
500.496	25168
500.570	56681
500.644	132467
500.718	239477
500.792	37912
500.866	13382
500.940	16660
501.013	13503
501.087	13912
501.161	24992
501.235	36120
501.309	82055
501.382	218455
501.456	158254
501.530	38209
501.603	66366
501.677	20082
501.751	10390
501.825	14661
501.898	29229
501.972	84511
502.046	42585
502.119	15505
502.193	37638
502.266	92038
502.340	37007
502.413	40446
502.487	76089
502.561	40518
502.634	12979
502.708	11617
502.781	10568
502.855	7820
502.928	6955
503.002	6962
503.075	7034
503.149	8187
503.222	7279
503.295	8619
503.369	11239
503.442	20416
503.516	63559
503.589	157908
503.662	87662
503.736	31163
503.809	74125
503.882	57056
503.956	90356
504.029	86089
504.102	97043
504.175	125916
504.249	39293
504.322	20145
504.395	14420
504.468	9818
504.542	9458
504.615	6659
504.688	6868
504.761	8137
504.834	9449
504.907	10676
504.980	17250
505.053	10508
505.127	11490
505.200	11810
505.273	13712
505.346	8569
505.419	6571
505.492	6521
505.565	4867
505.638	5167
505.711	5047
505.784	4723
505.857	4582
505.930	6007
506.003	4640
506.076	6570
506.149	8645
506.221	11686
506.294	12276
506.367	35778
506.440	112566
506.513	46619
506.586	12123
506.659	7278
506.731	6518
506.804	8207
506.877	12454
506.950	7672
507.022	5845
507.095	9558
507.168	9794
507.241	6581
507.313	5562
507.386	6835
507.459	9529
507.531	6111
507.604	5351
507.677	5415
507.749	4412
507.822	8093
507.894	16244
507.967	16600
508.040	10162
508.112	9152
508.185	8185
508.257	9037
508.330	12277
508.402	8817
508.475	7136
508.547	9199
508.620	9286
508.692	14541
508.765	7946
508.837	6111
508.909	6250
508.982	7294
509.054	8102
509.127	7032
509.199	5116
509.271	6623
509.344	5781
509.416	4849
509.488	5749
509.560	6083
509.633	6553
509.705	7627
509.777	7491
509.849	11498
509.922	7101
509.994	6453
510.066	6423
510.138	7533
510.210	13987
510.283	13466
510.355	10641
510.427	10166
510.499	13827
510.571	16685
510.643	8933
510.715	13667
510.787	11932
510.859	8366
510.931	11219
511.003	13758
511.076	10904
511.148	8413
511.219	7670
511.291	14527
511.363	14652
511.435	7884
511.507	6912
511.579	6965
511.651	7065
511.723	6219
511.795	6640
511.867	7512
511.939	9944
512.010	21114
512.082	14183
512.154	7485
512.226	8741
512.298	11535
512.369	17565
512.441	12510
512.513	13440
512.585	10685
512.656	10626
512.728	11285
512.800	8974
512.871	8174
512.943	7443
513.015	7499
513.086	7913
513.158	9208
513.230	9211
513.301	15252
513.373	15207
513.444	8822
513.516	7431
513.588	8375
513.659	8367
513.731	11820
513.802	10463
513.874	22213
513.945	34826
514.016	11512
514.088	8209
514.159	9725
514.231	13162
514.302	16146
514.374	11817
514.445	12437
514.516	23302
514.588	16028
514.659	12245
514.730	21168
514.802	15568
514.873	13058
514.944	12845
515.016	12136
515.087	12237
515.158	17573
515.229	23117
515.301	16586
515.372	18906
515.443	11131
515.514	10170
515.585	7994
515.656	8598
515.728	8510
515.799	7426
515.870	8630
515.941	8878
516.012	9300
516.083	11476
516.154	13594
516.225	16458
516.296	14559
516.367	12724
516.438	15412
516.509	22839
516.580	43343
516.651	127127
516.722	390983
516.793	130101
516.864	25504
516.935	23935
517.006	32375
517.077	53120
517.148	144401
517.219	479051
517.289	632697
517.360	153174
517.431	42291
517.502	15828
517.573	14967
517.643	14312
517.714	15339
517.785	15770
517.856	14936
517.926	17582
517.997	20299
518.068	28934
518.138	47874
518.209	99757
518.280	333527
518.350	1005942
518.421	308478
518.492	37838
518.562	24925
518.633	28090
518.703	34341
518.774	66826
518.845	157470
518.915	136381
518.986	38065
519.056	25913
519.127	38830
519.197	58751
519.268	118636
519.338	65665
519.408	17927
519.479	21285
519.549	15280
519.620	11862
519.690	8831
519.760	9534
519.831	9078
519.901	9964
519.971	9180
520.042	9637
520.112	11108
520.182	11074
520.253	13528
520.323	10315
520.393	15777
520.463	23584
520.534	16206
520.604	34461
520.674	13658
520.744	16442
520.814	40738
520.885	34195
520.955	41835
521.025	134679
521.095	43838
521.165	9599
521.235	8799
521.305	8334
521.375	7887
521.445	8955
521.515	12007
521.585	14111
521.655	11775
521.725	11926
521.795	14578
521.865	9337
521.935	13268
522.005	10166
522.075	6846
522.145	8296
522.215	9231
522.285	13816
522.355	19814
522.424	35743
522.494	29190
522.564	15531
522.634	31016
522.704	76532
522.774	24505
522.843	7566
522.913	8605
522.983	11366
523.053	8940
523.122	10054
523.192	15677
523.262	44819
523.331	37516
523.401	8542
523.471	6129
523.540	7006
523.610	5882
523.680	5862
523.749	6794
523.819	8606
523.888	9053
523.958	6122
524.027	6033
524.097	7155
524.166	7154
524.236	7976
524.305	7289
524.375	6164
524.444	6482
524.514	7187
524.583	7869
524.653	9789
524.722	11074
524.791	7129
524.861	6685
524.930	6185
524.999	6647
525.069	11144
525.138	8593
525.207	10467
525.277	7283
525.346	7484
525.415	7346
525.484	7712
525.554	9920
525.623	9134
525.692	8777
525.761	9379
525.830	10431
525.900	15364
525.969	27003
526.038	53576
526.107	114190
526.176	298401
526.245	220942
526.314	70958
526.383	160025
526.452	215837
526.522	332155
526.591	289645
526.660	57509
526.729	29994
526.797	44420
526.867	99735
526.935	327664
527.004	642259
527.073	325223
527.142	28500
527.211	14436
527.280	13293
527.349	12370
527.418	7951
527.487	8339
527.555	6273
527.624	5881
527.693	5386
527.762	6267
527.831	6242
527.899	6057
527.968	5823
528.037	5322
528.106	8096
528.174	14389
528.243	12203
528.312	17096
528.380	20758
528.449	7533
528.518	5273
528.586	4141
528.655	5568
528.723	4268
528.792	4646
528.861	5423
528.929	4631
528.998	5561
529.066	3973
529.135	4829
529.203	4215
529.272	4011
529.340	4753
529.409	5874
529.477	4900
529.545	6805
529.614	8679
529.682	9713
529.751	9203
529.819	10303
529.887	7275
529.956	5399
530.024	5369
530.092	5592
530.161	7063
530.229	10256
530.297	5969
530.365	5956
530.434	5327
530.502	5398
530.570	4038
530.638	4261
530.707	5434
530.775	5571
530.843	4648
530.911	5234
530.979	4935
531.047	5077
531.115	5879
531.183	4564
531.252	5156
531.320	5137
531.388	4536
531.456	5707
531.524	4162
531.592	6388
531.660	6404
531.728	5262
531.796	4731
531.864	4896
531.932	5421
532.000	5104
532.067	5062
532.135	6519
532.203	7542
532.271	8904
532.339	13301
532.407	32981
532.475	16932
532.542	9108
532.610	11553
532.678	19466
532.746	61429
532.814	134777
532.881	29952
532.949	6954
533.017	6441
533.084	6029
533.152	5951
533.220	5593
533.287	6367
533.355	5943
533.423	5605
533.490	4520
533.558	5298
533.625	6191
533.693	7084
533.761	6595
533.828	6936
533.896	6190
533.963	12736
534.031	14978
534.098	20068
534.166	9891
534.233	5671
534.300	6689
534.368	6902
534.435	7284
534.503	7188
534.570	9262
534.637	8891
534.705	10843
534.772	19126
534.840	38551
534.907	134728
534.974	154058
535.041	17209
535.109	9969
535.176	6934
535.243	7160
535.310	6913
535.378	6771
535.445	5613
535.512	6421
535.579	5716
535.646	5520
535.714	5847
535.781	8506
535.848	8177
535.915	7524
535.982	6083
536.049	6125
536.116	7341
536.183	6540
536.250	7296
536.317	7221
536.384	9233
536.451	12227
536.518	11606
536.585	8296
536.652	11462
536.719	15784
536.786	11346
536.853	9980
536.920	15283
536.987	24145
537.053	24969
537.120	71142
537.187	55330
537.254	8469
537.321	7191
537.388	8324
537.454	6507
537.521	6187
537.588	7025
537.654	8584
537.721	9245
537.788	9385
537.855	7209
537.921	7256
537.988	6933
538.055	7366
538.121	6979
538.188	8361
538.254	11282
538.321	22071
538.388	13763
538.454	8554
538.521	7259
538.587	7568
538.654	6861
538.720	7173
538.787	6307
538.853	7783
538.920	9830
538.986	9993
539.053	8191
539.119	7800
539.185	7482
539.252	9533
539.318	14085
539.385	11070
539.451	9746
539.517	11088
539.583	13127
539.650	23323
539.716	52098
539.782	14761
539.849	7582
539.915	7705
539.981	8748
540.047	9468
540.114	8771
540.180	8107
540.246	8477
540.312	12267
540.378	22831
540.444	24265
540.510	25372
540.576	57627
540.643	17387
540.709	7913
540.775	8159
540.841	8869
540.907	11743
540.973	17324
541.039	13365
541.105	13290
541.171	8874
541.237	7705
541.303	9237
541.369	10670
541.435	12217
541.500	19319
541.566	12040
541.632	8024
541.698	6631
541.764	7715
541.830	7442
541.896	6767
541.961	7365
542.027	7379
542.093	7926
542.159	8538
542.224	9292
542.290	13535
542.356	19194
542.421	21944
542.487	9698
542.553	8156
542.618	8708
542.684	8661
542.750	8647
542.815	10681
542.881	19128
542.947	50731
543.012	34202
543.078	7550
543.143	6146
543.209	7986
543.274	8696
543.340	11141
543.405	21410
543.471	29890
543.536	8701
543.602	8164
543.667	6991
543.732	7894
543.798	6946
543.863	8255
543.928	7203
543.994	6761
544.059	7678
544.124	7150
544.190	7135
544.255	7508
544.320	7957
544.386	8275
544.451	10601
544.516	13967
544.581	14825
544.646	32223
544.712	46570
544.777	11230
544.842	10082
544.907	11231
544.972	8758
545.037	8887
545.102	9495
545.168	9960
545.233	9906
545.298	11265
545.363	13013
545.428	15780
545.493	22629
545.558	41996
545.623	17856
545.688	9827
545.753	9941
545.818	10109
545.883	11171
545.947	10291
546.012	12494
546.077	11417
546.142	12183
546.207	12162
546.272	15105
546.337	15612
546.401	13164
546.466	13838
546.531	11968
546.596	14103
546.661	13545
546.725	14441
546.790	13641
546.855	15355
546.919	16050
546.984	17448
547.049	19580
547.113	23215
547.178	23089
547.243	27276
547.307	30676
547.372	33951
547.436	34121
547.501	33541
547.565	34744
547.630	35043
547.695	33548
547.759	34850
547.823	32482
547.888	31500
547.952	32496
548.017	34728
548.081	35699
548.146	40210
548.210	37060
548.274	36789
548.339	36065
548.403	33612
548.468	30979
548.532	30164
548.596	31513
548.660	32029
548.725	35463
548.789	39715
548.853	38601
548.917	35358
548.982	37419
549.046	35537
549.110	28821
549.174	29713
549.238	33523
549.303	34881
549.367	36774
549.431	34257
549.495	33405
549.559	33841
549.623	38540
549.687	44073
549.751	46793
549.815	49073
549.879	50616
549.943	46742
550.007	49231
550.071	48861
550.135	47575
550.199	41805
550.263	40386
550.327	40568
550.391	44654
550.455	45061
550.519	46651
550.582	50223
550.646	58108
550.710	59311
550.774	55105
550.838	54809
550.901	57020
550.965	62014
551.029	64885
551.093	73571
551.156	83240
551.220	109444
551.284	123887
551.347	84630
551.411	85818
551.475	84246
551.538	62019
551.602	55469
551.666	52049
551.729	48688
551.793	48367
551.856	47322
551.920	45103
551.983	46778
552.047	46001
552.110	46111
552.174	46532
552.237	47890
552.301	44127
552.364	43104
552.428	42260
552.491	43040
552.554	44430
552.618	44108
552.681	48014
552.745	47947
552.808	57782
552.871	67394
552.934	51829
552.998	46282
553.061	44085
553.124	42186
553.187	41888
553.251	42918
553.314	42743
553.377	42014
553.440	45489
553.503	46747
553.567	50552
553.630	45206
553.693	44580
553.756	44807
553.819	44334
553.882	42984
553.945	42954
554.008	43249
554.071	41158
554.134	43448
554.197	40858
554.260	39647
554.323	42178
554.386	42909
554.449	43331
554.512	43844
554.575	40180
554.638	41840
554.701	40801
554.764	40113
554.827	39125
554.889	37207
554.952	35706
555.015	34730
555.078	34877
555.141	36702
555.203	36032
555.266	35045
555.329	35793
555.391	34432
555.454	33588
555.517	32697
555.580	32157
555.642	29140
555.705	29804
555.768	30486
555.830	29510
555.893	27967
555.955	26413
556.018	27334
556.080	27917
556.143	27362
556.206	27953
556.268	27561
556.330	27469
556.393	26324
556.455	26532
556.518	28717
556.580	28546
556.643	24071
556.705	23059
556.767	21453
556.830	23455
556.892	23093
556.955	27243
557.017	24427
557.079	22043
557.142	21704
557.204	23162
557.266	30932
557.328	25587
557.391	18325
557.453	18866
557.515	19018
557.577	19925
557.639	21179
557.701	17819
557.764	17432
557.826	18331
557.888	21639
557.950	23098
558.012	29440
558.074	42584
558.136	77700
558.198	180580
558.260	60217
558.322	21136
558.384	20497
558.446	23450
558.508	26456
558.570	36575
558.632	58008
558.694	94415
558.756	140276
558.818	307172
558.880	690932
558.942	227856
559.003	182538
559.065	84489
559.127	31078
559.189	34806
559.251	50485
559.312	84442
559.374	159514
559.436	465355
559.498	225171
559.559	36606
559.621	38002
559.683	54774
559.744	91998
559.806	227219
559.868	344649
559.929	65274
559.991	46245
560.052	68817
560.114	180428
560.176	121430
560.237	97496
560.299	161524
560.360	34181
560.422	14721
560.483	13261
560.545	12706
560.606	11891
560.667	11440
560.729	11461
560.790	10574
560.852	11966
560.913	11740
560.974	10560
561.036	10681
561.097	10093
561.158	10289
561.220	10510
561.281	10790
561.342	10673
561.403	13164
561.465	15671
561.526	28313
561.587	36386
561.648	12316
561.709	10358
561.771	9497
561.832	9698
561.893	8941
561.954	9653
562.015	8611
562.076	9782
562.137	9109
562.198	8607
562.259	10051
562.320	9289
562.381	11343
562.442	13884
562.503	11617
562.564	9388
562.625	9277
562.686	9177
562.747	9778
562.808	9798
562.869	9196
562.930	11345
562.991	10245
563.051	9716
563.112	9485
563.173	8759
563.234	8119
563.294	8541
563.355	7291
563.416	9920
563.477	9592
563.537	9139
563.598	10401
563.659	8651
563.720	9374
563.780	9266
563.841	9912
563.901	9138
563.962	9145
564.023	9085
564.083	8418
564.144	9992
564.204	9915
564.265	10536
564.325	10725
564.386	17867
564.446	15754
564.507	9135
564.567	8999
564.628	8179
564.688	9222
564.749	9050
564.809	10297
564.869	11081
564.930	8729
564.990	9568
565.050	8475
565.111	9080
565.171	7697
565.231	8393
565.292	8991
565.352	8442
565.412	8912
565.472	9012
565.532	9340
565.593	8883
565.653	8455
565.713	9335
565.773	10084
565.833	10483
565.893	13176
565.953	9182
566.013	8875
566.074	10984
566.134	12694
566.194	18228
566.254	17505
566.314	12968
566.374	9788
566.434	9244
566.494	10081
566.554	9815
566.614	9743
566.673	11074
566.733	11095
566.793	12180
566.853	12738
566.913	11770
566.973	12557
567.033	13892
567.092	13235
567.152	13087
567.212	12135
567.272	12573
567.331	13776
567.391	14761
567.451	14898
567.511	17918
567.570	18735
567.630	12881
567.690	12228
567.749	13642
567.809	13467
567.868	15708
567.928	16351
567.988	19004
568.047	24160
568.107	29286
568.166	39180
568.226	58138
568.285	78455
568.345	64807
568.404	49103
568.464	41805
568.523	39891
568.582	42287
568.642	51141
568.701	65261
568.761	88695
568.820	133829
568.879	127142
568.939	92116
568.998	65960
569.057	50056
569.116	40216
569.176	32031
569.235	26777
569.294	23876
569.353	20974
569.413	19252
569.472	18788
569.531	15999
569.590	14479
569.649	14562
569.708	14011
569.767	13457
569.827	15332
569.886	13919
569.945	11596
570.004	12095
570.063	11268
570.122	11445
570.181	12341
570.240	12704
570.299	13349
570.358	12957
570.417	10616
570.475	9596
570.534	10807
570.593	10685
570.652	10579
570.711	10912
570.770	10814
570.829	10722
570.887	10421
570.946	11569
571.005	9610
571.064	9637
571.122	10332
571.181	10365
571.240	9501
571.299	8788
571.357	9347
571.416	10416
571.475	10584
571.533	11759
571.592	8836
571.650	9471
571.709	9358
571.768	9972
571.826	9728
571.885	8492
571.943	8357
572.002	9102
572.060	9067
572.119	8328
572.177	8037
572.236	8158
572.294	6984
572.352	8681
572.411	8267
572.469	7246
572.528	8020
572.586	8293
572.644	8942
572.703	11964
572.761	9010
572.819	8255
572.877	7716
572.936	7488
572.994	7093
573.052	7489
573.110	7715
573.169	8867
573.227	7671
573.285	7193
573.343	7345
573.401	7156
573.459	7563
573.517	7586
573.576	8932
573.634	7387
573.692	8151
573.750	8115
573.808	8489
573.866	8825
573.924	9622
573.982	9977
574.040	7797
574.098	7628
574.155	7144
574.213	6497
574.271	6644
574.329	8028
574.387	7071
574.445	6763
574.503	6770
574.560	6867
574.618	6402
574.676	7314
574.734	6272
574.792	7054
574.849	6128
574.907	6435
574.965	6415
575.022	6460
575.080	6614
575.138	6715
575.195	6917
575.253	7505
575.311	7288
575.368	6123
575.426	6391
575.483	6801
575.541	6784
575.598	6833
575.656	7214
575.713	6750
575.771	7142
575.828	7563
575.886	6281
575.943	7549
576.001	7523
576.058	7491
576.115	7780
576.173	8258
576.230	9983
576.287	10247
576.345	8969
576.402	8395
576.459	8305
576.517	7696
576.574	7897
576.631	9039
576.688	7612
576.746	7592
576.803	7303
576.860	6317
576.917	6353
576.974	7077
577.031	7763
577.089	7538
577.146	7819
577.203	8238
577.260	7702
577.317	7679
577.374	9501
577.431	8224
577.488	8104
577.545	7130
577.602	7773
577.659	6523
577.716	6404
577.773	6688
577.830	6026
577.886	7927
577.943	7038
578.000	7578
578.057	7322
578.114	8068
578.171	8621
578.227	9427
578.284	6728
578.341	7246
578.398	7092
578.454	8232
578.511	8230
578.568	9537
578.625	7939
578.681	7589
578.738	6797
578.794	7000
578.851	6813
578.908	7182
578.964	8090
579.021	7898
579.077	7393
579.134	7494
579.190	7280
579.247	6813
579.303	6887
579.360	6227
579.416	7023
579.473	7918
579.529	7220
579.586	7024
579.642	7853
579.698	7331
579.755	7916
579.811	7676
579.867	7507
579.924	7016
579.980	7220
580.036	6932
580.093	7776
580.149	7934
580.205	7308
580.261	7608
580.317	7897
580.374	9439
580.430	9852
580.486	9395
580.542	8797
580.598	8722
580.619	8564
580.654	8303
580.692	8296
580.710	8309
580.765	7760
580.767	7750
580.823	7595
580.838	7670
580.879	7905
580.911	7870
580.935	7855
580.984	7624
580.991	7602
581.047	7471
581.057	7496
581.103	7633
581.130	7814
581.159	8014
581.203	8251
581.215	8335
581.270	7686
581.276	7767
581.326	8594
581.349	8085
581.382	7300
581.422	7457
581.438	7533
581.494	8046
581.494	8046
581.550	8606
581.567	8493
581.606	8328
581.640	8221
581.661	8146
581.713	8823
581.717	8874
581.773	8015
581.786	8010
581.829	8091
581.859	8142
581.885	8222
581.932	9030
581.940	9170
581.996	8329
582.004	8458
582.052	9166
582.077	8778
582.107	8352
582.150	8610
582.163	8674
582.219	8506
582.223	8454
582.274	8008
582.296	8406
582.330	9035
582.368	9606
582.386	9884
582.441	8152
582.441	8152
582.497	8454
582.514	8289
582.552	7923
582.587	8199
582.608	8403
582.659	8171
582.663	8149
582.719	8655
582.732	8712
582.774	9062
582.805	9090
582.830	9060
582.877	9171
582.885	9170
582.941	8793
582.950	8736
582.996	8632
583.023	9282
583.052	9927
583.095	9506
583.107	9381
583.162	9432
583.168	9409
583.218	9268
583.240	8939
583.273	8555
583.313	9080
583.328	9216
583.384	8547
583.385	8548
583.439	8794
583.458	9058
583.494	9380
583.531	9101
583.549	9035
583.603	8721
583.605	8713
583.660	9378
583.676	9439
583.715	9363
583.748	9435
583.770	9576
583.820	9825
583.825	9847
583.881	9523
583.893	9635
583.936	10001
583.965	9884
583.991	9720
584.038	9859
584.046	9895
584.101	9428
584.110	9519
584.156	10054
584.183	9850
584.211	9613
584.255	10015
584.266	10097
584.321	9777
584.328	9861
584.376	10474
584.400	10234
584.431	10035
584.472	10154
584.486	10183
584.541	10543
584.545	10562
584.596	10571
584.617	10573
584.651	10778
584.689	10748
584.706	10703
584.761	11095
584.762	11096
584.816	11154
584.834	11351
584.871	11379
584.906	11519
584.926	11804
584.978	12365
584.980	12379
585.035	12823
585.051	12880
585.090	12872
585.123	13525
585.145	14120
585.195	14724
585.200	14763
585.254	15862
585.267	16065
585.309	16793
585.340	18409
585.364	19785
585.412	23667
585.419	24186
585.473	30868
585.484	32866
585.528	41531
585.556	48485
585.583	56820
585.628	73713
585.637	79521
585.692	145194
585.700	161674
585.747	256667
585.772	224752
585.801	152474
585.845	65653
585.856	49073
585.910	25521
585.917	23437
585.965	20074
585.989	19309
586.019	18874
586.061	18075
586.074	17904
586.128	17644
586.133	17661
586.183	17814
586.205	17951
586.237	18256
586.277	18369
586.292	18348
586.346	18340
586.349	18381
586.401	18770
586.421	18911
586.455	19486
586.493	20531
586.509	21178
586.564	23236
586.565	23394
586.618	31454
586.637	32213
586.672	31202
586.709	27634
586.727	25518
586.781	24347
586.781	24334
586.835	22881
586.853	22621
586.889	22118
586.925	21667
586.944	21483
586.996	21803
586.998	21826
587.052	22667
587.068	23116
587.106	23585
587.140	23877
587.161	24223
587.212	25001
587.215	25003
587.269	25954
587.284	26065
587.323	26773
587.356	27063
587.377	27194
587.427	28959
587.431	29063
587.485	30077
587.499	30318
587.539	31589
587.571	32747
587.593	33252
587.643	34963
587.648	35142
587.702	37168
587.715	37733
587.755	39715
587.786	41078
587.810	41880
587.858	44011
587.864	44305
587.917	47707
587.930	48628
587.971	51760
588.001	54496
588.025	56743
588.073	60475
588.079	61078
588.133	67688
588.145	69425
588.187	75504
588.217	80318
588.241	84553
588.288	93558
588.295	94926
588.348	109062
588.360	112320
588.402	125757
588.431	136592
588.456	146722
588.503	170818
588.510	174577
588.564	209754
588.575	218169
588.617	254780
588.646	284231
588.671	315824
588.718	382735
588.725	396387
588.778	513488
588.789	540076
588.832	686624
588.861	786536
588.886	876693
588.932	999986
588.939	995851
588.993	912841
589.004	916076
589.047	967963
589.075	973400
589.100	898744
589.147	713972
589.154	690350
589.207	520067
589.218	489276
589.261	435092
589.290	406962
589.314	405517
589.361	413924
589.368	422133
589.421	508602
589.433	530511
589.475	677523
589.504	776780
589.528	848981
589.576	936684
589.582	928408
589.635	885042
589.647	867253
589.689	713098
589.718	587614
589.742	494211
589.790	322981
589.795	312686
589.849	229835
589.861	212651
589.902	180612
589.932	158185
589.955	145639
590.004	121137
590.009	119213
590.062	101696
590.075	97672
590.115	88523
590.146	81818
590.168	78082
590.218	70654
590.222	70117
590.275	64078
590.289	62664
590.328	59257
590.360	56476
590.381	54806
590.431	51249
590.435	51018
590.488	47864
590.503	47110
590.541	45459
590.574	44022
590.594	43214
590.645	41302
590.647	41182
590.700	38662
590.716	37961
590.753	37476
590.787	37134
590.806	36694
590.859	35590
590.859	35556
590.912	34499
590.930	34178
590.965	32921
591.001	31752
591.018	31586
591.071	31071
591.072	31084
591.124	30792
591.143	30688
591.177	29746
591.214	28979
591.230	29115
591.283	29475
591.285	29500
591.336	28415
591.356	28016
591.389	27966
591.427	27858
591.442	27552
591.495	26552
591.498	26486
591.547	26055
591.569	25947
591.600	25701
591.640	25217
591.653	25188
591.706	25369
591.711	25386
591.759	24770
591.782	24452
591.811	25239
591.853	26616
591.864	26411
591.917	25138
591.924	24958
591.969	24930
591.995	24995
592.022	24434
592.066	23465
592.075	23659
592.127	24957
592.137	25217
592.180	25971
592.208	26411
592.233	26104
592.279	25475
592.285	25264
592.338	23564
592.350	23187
592.390	22991
592.421	22842
592.443	23026
592.491	23486
592.495	23465
592.548	23244
592.562	23187
592.600	22687
592.633	22281
592.653	22620
592.704	23401
592.705	23515
592.775	22556
592.846	22647
592.916	22753
592.987	22998
593.058	22031
593.128	22421
593.199	22745
593.270	21614
593.341	21420
593.411	20764
593.482	22828
593.553	22641
593.623	21517
593.694	22468
593.764	23386
593.835	22707
593.906	23369
593.976	22708
594.047	22425
594.117	25056
594.188	27369
594.258	23577
594.329	23037
594.399	24176
594.470	22821
594.540	23460
594.611	24742
594.681	24222
594.751	24759
594.822	25161
594.892	25765
594.963	25699
595.033	26776
595.103	27173
595.174	27039
595.244	30038
595.314	35253
595.384	30204
595.455	27807
595.525	28094
595.595	28228
595.665	29761
595.736	28645
595.806	29330
595.876	28939
595.946	29705
596.016	30834
596.087	32071
596.157	30996
596.227	31171
596.297	32383
596.367	33889
596.437	36847
596.507	38834
596.577	41935
596.647	38492
596.717	37126
596.787	38480
596.857	37924
596.927	38597
596.997	39445
597.067	38251
597.137	40262
597.207	38908
597.277	41039
597.347	39562
597.417	37836
597.487	38234
597.557	38522
597.626	39262
597.696	39897
597.766	40891
597.836	41876
597.906	39577
597.975	35144
598.045	35485
598.115	36272
598.185	37293
598.254	42380
598.324	44823
598.394	46332
598.464	46307
598.533	45339
598.603	44589
598.672	40829
598.742	41467
598.812	40968
598.881	43088
598.951	41940
599.020	43713
599.090	42734
599.159	44980
599.229	44371
599.299	42627
599.368	42700
599.437	42938
599.507	40847
599.576	39279
599.646	39591
599.715	37919
599.785	37531
599.854	36145
599.924	38327
599.993	37341
600.062	36886
600.132	38063
600.201	38098
600.270	42826
600.340	48395
600.409	46579
600.478	45935
600.547	46159
600.617	45960
600.686	38170
600.755	33400
600.824	32089
600.894	32230
600.963	31073
601.032	31456
601.101	30381
601.170	29577
601.239	27776
601.308	30028
601.378	28504
601.447	28768
601.516	28418
601.585	28927
601.654	29668
601.723	29543
601.792	29614
601.861	29858
601.930	31255
601.999	32733
602.068	32214
602.137	32743
602.206	32953
602.275	32903
602.343	33643
602.412	34804
602.481	32731
602.550	33051
602.619	33899
602.688	34572
602.756	35036
602.825	34175
602.894	35069
602.963	35836
603.032	36668
603.100	37343
603.169	37370
603.238	37153
603.307	37505
603.375	37482
603.444	38000
603.513	38177
603.581	38354
603.650	39602
603.719	38034
603.787	38083
603.856	41480
603.924	39857
603.993	41482
604.061	41994
604.130	44369
604.198	45065
604.267	45565
604.335	45384
604.404	45675
604.472	47494
604.541	48099
604.609	48924
604.678	47714
604.746	49167
604.815	49956
604.883	51400
604.951	51529
605.020	50668
605.088	52006
605.156	52462
605.225	53259
605.293	54913
605.361	53784
605.429	54141
605.498	55289
605.566	56536
605.634	58960
605.702	61369
605.771	62943
605.839	64355
605.907	62804
605.975	61449
606.043	59253
606.111	58423
606.180	58194
606.248	58032
606.316	57934
606.384	56954
606.452	58674
606.520	59802
606.588	60490
606.656	59477
606.724	59901
606.792	57591
606.860	53308
606.928	47972
606.996	46162
607.064	44654
607.132	44953
607.200	46244
607.267	49457
607.335	48539
607.403	51377
607.471	50556
607.539	48118
607.607	49293
607.674	44577
607.742	42359
607.810	42811
607.878	42666
607.946	44374
608.013	44018
608.081	45394
608.149	47453
608.216	47425
608.284	50709
608.352	49115
608.419	49789
608.487	48919
608.555	48832
608.622	48961
608.690	50684
608.757	54779
608.825	59144
608.893	57163
608.960	55707
609.028	54879
609.095	53680
609.163	53235
609.230	48587
609.298	42706
609.365	43367
609.432	46439
609.500	49289
609.567	55974
609.635	63613
609.702	69939
609.769	69637
609.837	61882
609.904	47200
609.971	47320
610.039	51327
610.106	60840
610.173	95173
610.241	213289
610.308	256835
610.375	111941
610.442	61478
610.509	49889
610.577	47881
610.644	48416
610.711	47910
610.778	50330
610.845	52040
610.912	54482
610.980	56879
611.047	58451
611.114	58402
611.181	55572
611.248	55043
611.315	57475
611.382	59913
611.449	60551
611.516	62107
611.583	61234
611.650	62197
611.717	64496
611.784	63251
611.851	66028
611.918	69549
611.984	77506
612.051	99680
612.118	164332
612.185	387861
612.252	502657
612.319	131514
612.386	82920
612.452	77115
612.519	72217
612.586	72076
612.653	72265
612.719	72608
612.786	71579
612.853	66655
612.919	62918
612.986	63400
613.053	61841
613.120	58842
613.186	55991
613.253	56513
613.319	56437
613.386	55429
613.453	57051
613.519	58878
613.586	57859
613.652	60995
613.719	59535
613.785	59982
613.852	57761
613.918	57014
613.985	57633
614.051	58694
614.118	60588
614.184	58963
614.250	57179
614.317	58638
614.383	57772
614.449	58929
614.516	58498
614.582	58862
614.648	59043
614.715	56742
614.781	56753
614.847	55716
614.914	57210
614.980	55845
615.046	56340
615.112	55532
615.179	57243
615.245	59467
615.311	59394
615.377	64905
615.443	73493
615.509	65909
615.575	63422
615.642	62060
615.708	62235
615.774	65206
615.840	68377
615.906	74988
615.972	86994
616.038	125930
616.104	217846
616.170	443390
616.236	707397
616.302	205689
616.368	105418
616.434	83584
616.500	71128
616.565	72922
616.631	87810
616.697	83449
616.763	76594
616.829	92748
616.895	156696
616.961	199885
617.026	108425
617.092	65625
617.158	60420
617.224	60120
617.289	56759
617.355	53763
617.421	52436
617.487	54499
617.552	51712
617.618	49870
617.684	50073
617.749	50379
617.815	48468
617.880	47281
617.946	47177
618.012	47642
618.077	48982
618.143	47969
618.208	46764
618.274	49750
618.339	52651
618.405	47019
618.470	43677
618.536	44115
618.601	44237
618.667	43015
618.732	39942
618.798	39275
618.863	38466
618.928	37868
618.994	38933
619.059	39714
619.124	41588
619.190	41091
619.255	37630
619.320	39028
619.386	38384
619.451	38142
619.516	38399
619.581	36182
619.647	37948
619.712	38808
619.777	37770
619.842	36735
619.907	38029
619.972	38826
620.038	39544
620.103	37752
620.168	36499
620.233	38076
620.298	37965
620.363	38906
620.428	38456
620.493	39548
620.558	40208
620.623	39926
620.688	41542
620.753	40440
620.818	40665
620.883	40494
620.948	41611
621.013	40378
621.078	40724
621.143	39805
621.207	42084
621.272	41297
621.337	41493
621.402	40034
621.467	41729
621.532	43153
621.596	40681
621.661	40650
621.726	38747
621.791	38945
621.855	39678
621.920	39781
621.985	39362
622.049	41892
622.114	41958
622.179	40568
622.243	42801
622.308	42776
622.373	43395
622.437	44279
622.502	41390
622.566	41490
622.631	40160
622.695	41423
622.760	41570
622.824	41544
622.889	41092
622.953	41680
623.018	43799
623.082	49253
623.147	44308
623.211	42340
623.276	41684
623.340	40674
623.404	40601
623.469	39486
623.533	40185
623.597	39904
623.662	37927
623.726	37738
623.790	34665
623.854	34606
623.919	33630
623.983	34903
624.047	35061
624.111	34883
624.176	36008
624.240	35664
624.304	38553
624.368	37000
624.432	36115
624.496	36751
624.560	38298
624.625	39567
624.689	38397
624.753	37502
624.817	38365
624.881	36612
624.945	34375
625.009	32763
625.073	32915
625.137	33831
625.201	35543
625.265	38087
625.329	34382
625.393	34658
625.456	35455
625.520	35037
625.584	36497
625.648	39445
625.712	42632
625.776	53062
625.839	63869
625.903	50386
625.967	31672
626.031	33256
626.095	45290
626.158	41504
626.222	29846
626.286	25851
626.349	24379
626.413	23604
626.477	23199
626.540	23658
626.604	23230
626.668	23272
626.731	22797
626.795	22649
626.858	22800
626.922	22621
626.986	21255
627.049	21594
627.113	21557
627.176	22243
627.240	21484
627.303	21928
627.366	21238
627.430	21183
627.493	20938
627.557	20146
627.620	21050
627.684	21425
627.747	21851
627.810	20494
627.874	19536
627.937	18565
628.000	19260
628.064	18359
628.127	17343
628.190	16615
628.253	17420
628.317	16684
628.380	15582
628.443	14372
628.506	15314
628.569	14802
628.632	13794
628.696	13223
628.759	13997
628.822	13281
628.885	12650
628.948	13168
629.011	12969
629.074	13031
629.137	12865
629.200	12342
629.263	13359
629.326	11620
629.389	12010
629.452	11647
629.515	12240
629.578	11715
629.641	11763
629.704	11767
629.767	11413
629.830	10946
629.892	10238
629.955	10686
630.018	12012
630.081	10471
630.144	12721
630.207	12087
630.269	11531
630.332	11257
630.395	11254
630.458	10201
630.520	9069
630.583	9963
630.646	9938
630.708	9525
630.771	10442
630.834	10432
630.896	10204
630.959	10459
631.021	10332
631.084	10207
631.146	10508
631.209	10321
631.272	10747
631.334	9677
631.397	10512
631.459	9563
631.522	10179
631.584	10577
631.646	10080
631.709	10486
631.771	12315
631.834	12486
631.896	10924
631.958	9467
632.021	10029
632.083	9494
632.145	8779
632.208	9080
632.270	9797
632.332	9797
632.395	9192
632.457	9983
632.519	9265
632.581	8825
632.643	8092
632.706	9547
632.768	8083
632.830	8740
632.892	9078
632.954	9169
633.016	9095
633.078	8623
633.141	9468
633.203	8808
633.265	8660
633.327	9104
633.389	8749
633.451	9256
633.513	10174
633.575	9579
633.637	9463
633.698	9900
633.760	9324
633.822	9790
633.884	9226
633.946	9669
634.008	9533
634.070	10192
634.132	9598
634.193	10258
634.255	11971
634.317	11738
634.379	12167
634.441	10907
634.502	10891
634.564	9699
634.626	9029
634.687	8156
634.749	8447
634.811	7698
634.873	7652
634.934	8236
634.996	8001
635.057	8150
635.119	8313
635.181	8015
635.242	8748
635.304	7049
635.365	9589
635.427	7040
635.488	7729
635.550	8275
635.611	8619
635.673	7998
635.734	8917
635.796	8908
635.857	9391
635.918	10060
635.980	10398
636.041	11291
636.102	11200
636.164	11937
636.225	11668
636.286	11091
636.348	9887
636.409	8784
636.470	7867
636.531	8072
636.593	8492
636.654	8812
636.715	7106
636.776	7342
636.838	7260
636.899	7604
636.960	7099
637.021	7207
637.082	6890
637.143	7091
637.204	6393
637.265	6619
637.326	7320
637.387	6636
637.448	7432
637.509	6697
637.570	6395
637.631	7023
637.692	6590
637.753	6408
637.814	6342
637.875	5899
637.936	7094
637.997	6053
638.058	6754
638.119	7200
638.179	5888
638.240	6436
638.301	6159
638.362	6593
638.423	5906
638.483	6018
638.544	5556
638.605	6481
638.666	5673
638.726	7047
638.787	5839
638.848	5503
638.908	5787
638.969	5951
639.030	5593
639.090	5251
639.151	5029
639.211	6241
639.272	6930
639.332	7853
639.393	7769
639.453	5548
639.514	6399
639.574	6886
639.635	5531
639.695	5767
639.756	5628
639.816	6037
639.877	5067
639.937	6639
639.997	9579
640.058	6909
640.118	4822
640.178	5172
640.239	5434
640.299	5350
640.359	5120
640.420	5628
640.480	5258
640.540	6104
640.600	6691
640.661	6270
640.721	5172
640.781	6444
640.841	5670
640.901	6193
640.961	5645
641.021	5200
641.082	5838
641.142	6008
641.202	7334
641.262	4919
641.322	4916
641.382	5228
641.442	4699
641.502	4935
641.562	4661
641.622	4940
641.682	5058
641.742	5518
641.802	6706
641.861	4736
641.921	5003
641.981	4656
642.041	5116
642.101	4961
642.161	4932
642.221	4993
642.280	4639
642.340	5098
642.400	4975
642.460	4831
642.519	4574
642.579	5187
642.639	4720
642.698	4162
642.758	6264
642.818	4963
642.877	3853
642.937	4225
642.997	4579
643.056	6181
643.116	5982
643.175	5170
643.235	5031
643.294	5696
643.354	5620
643.414	5786
643.473	7186
643.532	7499
643.592	10402
643.651	16070
643.711	27136
643.770	48144
643.830	98092
643.889	295826
643.948	219595
644.008	24896
644.067	10215
644.126	7793
644.186	6243
644.245	5581
644.304	5528
644.363	5906
644.423	5301
644.482	4455
644.541	5230
644.600	4302
644.659	6636
644.719	6569
644.778	9902
644.837	13617
644.896	26744
644.955	67918
645.014	68185
645.073	10626
645.132	6446
645.191	5316
645.250	5161
645.309	5216
645.368	4133
645.427	6642
645.486	7445
645.545	16822
645.604	12735
645.663	4917
645.722	4720
645.781	5211
645.840	5332
645.898	6641
645.957	8763
646.016	13223
646.075	24324
646.134	43763
646.192	92247
646.251	262664
646.310	116182
646.369	14744
646.427	8948
646.486	6717
646.545	5529
646.603	4874
646.662	5489
646.721	5111
646.779	4917
646.838	3701
646.896	5171
646.955	7118
647.014	9782
647.072	14680
647.131	36717
647.189	53515
647.248	9054
647.306	4697
647.365	4167
647.423	2544
647.481	4446
647.540	2272
647.598	3173
647.657	2759
647.715	3332
647.773	2969
647.832	2647
647.890	2424
647.948	2684
648.007	2896
648.065	2101
648.123	2124
648.181	4112
648.240	2677
648.298	3293
648.356	2749
648.414	2777
648.472	2377
648.531	2968
648.589	2308
648.647	1910
648.705	2060
648.763	2835
648.821	2331
648.879	2763
648.937	3299
648.995	3846
649.053	4316
649.111	6592
649.169	11034
649.227	19201
649.285	34719
649.343	96941
649.401	144690
649.459	23666
649.516	10582
649.574	4527
649.632	5003
649.690	4820
649.748	5366
649.806	5799
649.863	12011
649.921	22551
649.979	43386
650.037	9707
650.094	2859
650.152	2353
650.210	2192
650.268	2727
650.325	2017
650.383	2253
650.440	1776
650.498	1889
650.556	1311
650.613	1843
650.671	1921
650.728	2251
650.786	1469
650.843	1975
650.901	1399
650.958	1956
651.016	1529
651.073	1974
651.131	1207
651.188	1103
651.246	2039
651.303	1856
651.360	1364
651.418	453
651.475	1619
651.532	358
651.590	2190
651.647	853
651.704	1039
651.762	1794
651.819	1072
651.876	957
651.933	1200
651.990	2006
652.048	662
652.105	912
652.162	2038
652.219	849
652.276	876
652.333	1537
652.390	357
652.448	746
652.505	383
652.562	1075
652.619	1165
652.676	1936
652.733	665
652.790	762
652.847	-153
652.904	1306
652.961	393
653.017	990
653.074	1649
653.131	1066
653.188	524
653.245	370
653.302	693
653.359	612
653.415	1258
653.472	1397
653.529	1330
653.586	285
653.642	1150
653.699	1278
653.756	304
653.813	946
653.869	885
653.926	521
653.983	132
654.039	1113
654.096	607
654.152	1159
654.209	563
654.266	1347
654.322	677
654.379	1229
654.435	366
654.492	481
654.548	1095
654.605	2814
654.661	2418
654.717	800
654.774	1126
654.830	991
654.887	859
654.943	1310
655.000	857
655.056	1424
655.112	951
655.168	153
655.225	1202
655.281	1188
655.337	920
655.394	2609
655.450	2296
655.506	1958
655.562	2028
655.618	3394
655.675	189
655.731	942
655.787	374
655.843	864
655.899	453
655.955	993
656.011	318
656.067	-305
656.123	2037
656.179	788
656.235	1470
656.291	791
656.347	1265
656.403	1338
656.459	362
656.515	779
656.571	1329
656.627	1171
656.683	502
656.739	1384
656.795	745
656.850	1054
656.906	797
656.962	1752
657.018	460
657.074	669
657.129	1499
657.185	2107
657.241	3050
657.297	4794
657.352	1256
657.408	216
657.464	1831
657.519	898
657.575	419
657.630	886
657.686	1121
657.742	1124
657.797	161
657.853	839
657.908	1583
657.964	125
658.019	44
658.075	1252
658.130	959
658.186	367
658.241	764
658.297	566
658.352	-489
658.407	511
658.463	579
658.518	565
658.573	55
658.629	650
658.684	537
658.739	330
658.795	337
658.850	1085
658.905	289
658.960	1287
659.016	301
659.071	790
659.126	1469
659.181	464
659.236	1425
659.291	1881
659.346	1578
659.401	809
659.457	994
659.512	269
659.567	444
659.622	-199
659.677	173
659.732	2
659.787	124
659.842	579
659.897	1154
659.952	1817
660.007	353
660.061	482
660.116	691
660.171	482
660.226	1370
660.281	693
660.336	-508
660.391	1393
660.445	557
660.500	508
660.555	162
660.610	24
660.664	855
660.719	165
660.774	265
660.828	583
660.883	222
660.938	848
660.992	77
661.047	1046
661.101	736
661.156	543
661.211	618
661.265	682
661.320	246
661.374	221
661.429	180
661.483	82
661.538	-132
661.592	731
661.647	498
661.701	532
661.755	1159
661.810	903
661.864	563
661.919	757
661.973	941
662.027	698
662.081	5
662.136	-501
662.190	550
662.244	1156
662.299	-70
662.353	26
662.407	718
662.461	344
662.515	1099
662.569	505
662.624	440
662.678	192
662.732	43
662.786	223
662.840	840
662.894	1102
662.948	-38
663.002	15
663.056	679
663.110	-326
663.164	-262
663.218	859
663.272	304
663.326	102
663.380	624
663.434	533
663.488	501
663.542	580
663.595	588
663.649	-56
663.703	1299
663.757	1191
663.811	166
663.864	145
663.918	904
663.972	-635
664.026	118
664.079	261
664.133	379
664.187	323
664.240	-533
664.294	438
664.348	183
664.401	460
664.455	736
664.508	-578
664.562	573
664.615	-185
664.669	87
664.722	124
664.776	-55
664.829	-437
664.883	393
664.936	309
664.990	570
665.043	644
665.097	341
665.150	1465
665.203	687
665.257	307
665.310	956
665.363	-37
665.417	34
665.470	137
665.523	158
665.576	833
665.630	1180
665.683	259
665.736	855
665.789	821
665.842	789
665.895	515
665.949	608
666.002	692
666.055	995
666.108	692
666.161	539
666.214	557
666.267	238
666.320	969
666.373	977
666.426	1018
666.479	209
666.532	908
666.585	429
666.638	1183
666.691	275
666.744	891
666.796	699
666.849	447
666.902	652
666.955	807
667.008	718
667.060	-522
667.113	-609
667.166	629
667.219	622
667.271	350
667.324	305
667.377	-168
667.430	828
667.482	324
667.535	464
667.587	22
667.640	888
667.693	179
667.745	981
667.798	2068
667.850	1175
667.903	1076
667.955	280
668.008	202
668.060	1393
668.113	484
668.165	99
668.218	1238
668.270	1008
668.322	615
668.375	278
668.427	475
668.479	270
668.532	332
668.584	1120
668.636	465
668.689	988
668.741	1750
668.793	70
668.845	915
668.898	601
668.950	1054
669.002	732
669.054	-189
669.106	-456
669.158	761
669.211	329
669.263	204
669.315	443
669.367	503
669.419	1062
669.471	1796
669.523	656
669.575	2025
669.627	725
669.679	844
669.731	503
669.783	957
669.835	960
669.886	-112
669.938	1053
669.990	1449
670.042	689
670.094	1024
670.146	637
670.197	1020
670.249	1784
670.301	2637
670.353	3624
670.404	4392
670.456	6778
670.508	11902
670.560	19264
670.611	34325
670.663	58385
670.715	112345
670.766	271567
670.818	231578
670.869	43190
670.921	11942
670.972	6248
671.024	4669
671.075	3554
671.127	2839
671.178	1941
671.230	1565
671.281	1544
671.333	1341
671.384	922
671.436	1618
671.487	2746
671.538	2636
671.590	3713
671.641	5696
671.692	9160
671.744	19555
671.795	27009
671.846	9283
671.897	2926
671.949	2025
672.000	1709
672.051	1939
672.102	1224
672.153	623
672.204	342
672.256	1303
672.307	730
672.358	795
672.409	1155
672.460	928
672.511	335
672.562	56
672.613	177
672.664	1058
672.715	475
672.766	480
672.817	258
672.868	-290
672.919	709
672.970	99
673.021	-125
673.071	408
673.122	410
673.173	415
673.224	189
673.275	624
673.326	379
673.376	533
673.427	1
673.478	-213
673.528	456
673.579	828
673.630	-494
673.680	171
673.731	49
673.782	727
673.832	-325
673.883	559
673.934	-618
673.984	-247
674.035	-821
674.085	535
674.136	-23
674.186	665
674.237	873
674.287	472
674.338	973
674.388	106
674.438	-98
674.489	162
674.539	21
674.589	644
674.640	373
674.690	1
674.740	-665
674.791	1101
674.841	509
674.891	463
674.942	812
674.992	-242
675.042	-631
675.092	-10
675.142	238
675.193	73
675.243	-514
675.293	138
675.343	-158
675.393	309
675.443	252
675.493	93
675.543	-596
675.593	-101
675.643	375
675.693	318
675.743	-63
675.793	900
675.843	-207
675.893	340
675.943	446
675.993	-816
676.043	-531
676.093	1311
676.142	-890
676.192	114
676.242	176
676.292	-714
676.341	-604
676.391	100
676.441	-173
676.491	-779
676.540	568
676.590	33
676.640	-835
676.689	91
676.739	-78
676.789	-690
676.838	164
676.888	207
676.937	-627
676.987	-461
677.037	-814
677.086	-473
677.136	-551
677.185	-347
677.235	-538
677.284	-933
677.333	-307
677.383	-324
677.432	-276
677.482	-352
677.531	-95
677.580	-37
677.630	-6
677.679	-52
677.728	-322
677.778	627
677.827	-561
677.876	-207
677.925	-633
677.975	-609
678.024	105
678.073	-357
678.122	-761
678.171	-584
678.220	-706
678.269	659
678.319	869
678.368	-940
678.417	-706
678.466	-152
678.515	71
678.564	65
678.613	213
678.662	-67
678.711	-128
678.760	-305
678.809	-327
678.857	57
678.906	-245
678.955	-651
679.004	-94
679.053	-186
679.102	260
679.151	-976
679.199	-350
679.248	-261
679.297	-203
679.346	-500
679.394	-735
679.443	-18
679.492	-63
679.540	-369
679.589	-441
679.638	-341
679.686	-603
679.735	-626
679.784	-559
679.832	540
679.881	-540
679.929	-255
679.978	-348
680.026	60
680.075	-445
680.123	-979
680.172	-91
680.220	-1104
680.268	-558
680.317	-525
680.365	-693
680.414	8
680.462	-460
680.510	11
680.559	-379
680.607	-724
680.655	149
680.703	-1152
680.752	-26
680.800	-57
680.848	-320
680.896	-1171
680.945	-922
680.993	-668
681.041	-464
681.089	-564
681.137	-704
681.185	-175
681.233	-651
681.258	-782
681.281	-944
681.329	-549
681.377	-72
681.380	-50
681.425	-362
681.473	271
681.502	104
681.521	-76
681.569	-81
681.617	-333
681.624	-182
681.665	503
681.713	59
681.745	377
681.761	468
681.809	246
681.857	336
681.867	483
681.904	831
681.952	1107
681.989	1124
682.000	1082
682.048	372
682.096	386
682.111	625
682.143	1038
682.191	860
682.233	949
682.239	916
682.286	1380
682.334	625
682.354	902
682.382	1215
682.430	1180
682.476	1757
682.477	1736
682.525	1361
682.572	1555
682.598	1722
682.620	1831
682.667	1962
682.715	2068
682.720	2119
682.763	2245
682.810	2286
682.841	2348
682.857	2338
682.905	2172
682.952	2326
682.963	2325
683.000	2101
683.047	2011
683.085	2640
683.095	2799
683.142	2404
683.190	2268
683.206	2166
683.237	1842
683.284	2635
683.328	2814
683.332	2811
683.379	3017
683.426	2958
683.449	2806
683.473	2543
683.521	2915
683.568	2976
683.571	3000
683.615	3009
683.662	2924
683.693	3456
683.709	3673
683.757	2915
683.804	2995
683.814	3084
683.851	3426
683.898	3267
683.936	3807
683.945	3888
683.992	3407
684.039	4027
684.057	4281
684.086	4695
684.133	3839
684.179	4093
684.180	4075
684.227	4154
684.274	4616
684.300	4596
684.321	4477
684.368	4362
684.415	4674
684.422	4597
684.462	4120
684.509	4418
684.543	4220
684.556	4121
684.603	4433
684.649	4475
684.665	4877
684.696	5655
684.743	4806
684.786	5011
684.790	5015
684.837	5043
684.883	5373
684.908	5393
684.930	5445
684.977	6422
685.023	6699
685.029	6652
685.070	5928
685.117	6599
685.150	6454
685.164	6371
685.210	6227
685.257	6629
685.272	6642
685.303	6698
685.350	6110
685.393	6702
685.396	6734
685.443	6161
685.490	7141
685.514	7183
685.536	7214
685.583	7364
685.629	7709
685.636	7664
685.675	6970
685.722	7365
685.757	6859
685.768	6787
685.815	7255
685.861	7450
685.878	7406
685.908	7233
685.954	7087
686.000	7357
686.000	7355
686.047	8140
686.093	8174
686.121	8415
686.139	8569
686.185	9235
686.232	8713
686.242	8948
686.278	9123
686.324	8119
686.363	8214
686.370	8257
686.416	7833
686.463	7768
686.484	7580
686.509	7617
686.555	7783
686.601	7959
686.606	7997
686.647	7872
686.693	7713
686.727	7372
686.739	7358
686.785	7980
686.831	8388
686.848	8328
686.877	8105
686.923	8454
686.969	7970
686.969	7966
687.015	8432
687.061	8044
687.090	7972
687.107	8006
687.153	8138
687.199	8519
687.211	8591
687.245	8665
687.291	8646
687.332	9014
687.336	9077
687.382	8985
687.428	9798
687.453	9674
687.474	9325
687.520	8750
687.565	8743
687.574	8607
687.611	8318
687.657	8845
687.695	8522
687.702	8514
687.748	9298
687.794	9825
687.816	9722
687.839	9391
687.885	9876
687.931	9626
687.937	9581
687.976	9429
688.022	9412
688.058	9640
688.067	9752
688.113	9281
688.158	9645
688.179	10023
688.204	10284
688.249	9792
688.295	9738
688.300	9689
688.340	9774
688.386	9934
688.421	10455
688.431	10557
688.477	10466
688.522	10394
688.542	10442
688.567	10557
688.613	10814
688.658	11317
688.663	11280
688.703	10786
688.749	10631
688.784	10499
688.794	10512
688.839	10288
688.884	10095
688.905	10312
688.930	10578
688.975	10168
689.020	10242
689.026	10225
689.065	10416
689.110	10324
689.146	10826
689.155	10934
689.201	10810
689.246	10796
689.267	10859
689.291	10876
689.336	10717
689.381	10409
689.388	10468
689.426	11059
689.471	10775
689.509	11138
689.516	11202
689.561	10718
689.606	10995
689.630	11151
689.651	11318
689.696	10817
689.741	11211
689.750	11183
689.785	11014
689.830	10992
689.871	10754
689.875	10778
689.920	10601
689.965	10952
689.992	11227
690.010	11235
690.054	10598
690.099	10504
690.112	10377
690.144	10653
690.189	10639
690.233	11251
690.233	11268
690.278	11317
690.323	10944
690.354	10554
690.367	10573
690.412	10847
690.457	11350
690.474	11339
690.501	11191
690.546	11377
690.590	11602
690.595	11508
690.635	10783
690.680	10778
690.716	10812
690.724	10904
690.769	10941
690.813	11656
690.836	11639
690.857	11634
690.902	11490
690.946	11458
690.957	11513
690.991	11795
691.035	12023
691.077	12132
691.080	12168
691.124	12443
691.168	12508
691.198	12504
691.213	12516
691.257	13675
691.301	13578
691.318	13518
691.346	13229
691.390	13101
691.434	13148
691.439	13057
691.478	12647
691.522	12906
691.559	12543
691.567	12575
691.611	13195
691.655	13465
691.680	13527
691.699	13459
691.743	13572
691.787	13375
691.800	13436
691.831	13516
691.875	13271
691.919	12955
691.921	12919
691.964	13261
692.008	13792
692.041	14081
692.052	14127
692.096	14550
692.139	14397
692.162	14403
692.183	14214
692.227	13721
692.271	13274
692.282	13200
692.315	13755
692.359	14253
692.402	14422
692.403	14447
692.447	13926
692.490	13545
692.523	13265
692.534	13423
692.578	13814
692.622	14001
692.643	14228
692.666	14201
692.709	14309
692.753	13887
692.763	13766
692.797	13818
692.840	13982
692.884	14372
692.884	14403
692.928	14080
692.971	13884
693.004	13728
693.015	13757
693.059	13776
693.102	14016
693.124	13853
693.146	13786
693.189	14030
693.233	13676
693.245	13729
693.276	14110
693.320	14540
693.363	14641
693.365	14607
693.407	14407
693.450	14420
693.485	14449
693.493	14535
693.537	14729
693.580	14795
693.605	14939
693.624	14937
693.667	14635
693.710	14549
693.725	14429
693.753	14560
693.797	14442
693.840	14900
693.845	14864
693.883	15084
693.926	15498
693.966	16001
693.970	16003
694.013	15654
694.056	14841
694.086	14380
694.099	14377
694.142	14184
694.185	14189
694.206	14066
694.229	14259
694.272	15008
694.315	15250
694.326	15278
694.358	15458
694.401	15918
694.444	16058
694.446	16049
694.487	16448
694.530	16280
694.566	16425
694.573	16389
694.616	15635
694.659	15168
694.686	14656
694.702	14608
694.745	14367
694.787	14307
694.806	14183
694.830	14165
694.873	14297
694.916	14303
694.926	14258
694.959	14316
695.002	14379
695.044	14316
695.046	14291
695.087	14751
695.130	14811
695.166	14796
695.172	14870
695.215	15216
695.258	15547
695.286	15797
695.301	15880
695.343	15983
695.386	15972
695.406	15962
695.428	15805
695.471	15358
695.514	14965
695.526	14815
695.556	15238
695.599	15766
695.641	16498
695.646	16501
695.684	16377
695.726	16234
695.766	16135
695.769	16157
695.811	15857
695.854	15378
695.886	15247
695.896	15392
695.938	15616
695.981	15668
696.005	15776
696.023	15887
696.065	16111
696.108	16116
696.125	16192
696.150	16684
696.192	17168
696.235	17920
696.245	17993
696.277	17720
696.319	17519
696.361	17192
696.365	17110
696.404	16969
696.446	16908
696.485	16882
696.488	16922
696.530	16676
696.572	16463
696.604	16361
696.614	16496
696.656	16719
696.698	16922
696.724	17132
696.740	17060
696.783	16612
696.825	16232
696.844	15933
696.867	16055
696.909	16338
696.951	16526
696.964	16578
696.992	16730
697.034	16765
697.076	16893
697.083	16857
697.118	17095
697.160	17370
697.202	17619
697.203	17579
697.244	17170
697.286	16621
697.323	16008
697.327	16098
697.369	16695
697.411	17095
697.442	17457
697.453	17434
697.494	17066
697.536	16710
697.562	16415
697.578	16673
697.620	17330
697.661	17925
697.682	18151
697.703	18157
697.744	18122
697.786	18122
697.801	18051
697.828	18558
697.869	19263
697.911	19984
697.921	20112
697.952	19628
697.994	18862
698.035	18127
698.040	17980
698.077	18129
698.118	18340
698.160	18447
698.160	18394
698.201	18036
698.243	17452
698.279	16984
698.284	17107
698.325	17770
698.367	18446
698.399	18925
698.408	18912
698.449	18565
698.491	18249
698.518	17985
698.532	18105
698.573	18332
698.614	18552
698.638	18605
698.656	18692
698.697	18809
698.738	18906
698.757	18900
698.779	19106
698.820	19396
698.862	19684
698.877	19735
698.903	19751
698.944	19693
698.985	19632
698.996	19559
699.026	19802
699.067	20067
699.116	20327
699.235	18891
699.354	19581
699.474	18922
699.593	19535
699.713	21232
699.832	17515
699.951	18813
700.070	19957
700.190	18199
700.309	17679
700.428	17879
700.547	19454
700.667	18510
700.786	18748
700.905	18128
701.024	17140
701.143	19088
701.262	16180
701.381	15476
701.500	17548
701.619	18099
701.738	18282
701.857	17030
701.976	16059
702.095	15876
702.214	16789
702.333	18070
702.452	17970
702.571	16831
702.690	17536
702.809	15993
702.928	15761
703.047	16331
703.165	14946
703.284	16556
703.403	15192
703.522	16587
703.640	17505
703.759	17007
703.878	20191
703.997	19591
704.115	15169
704.234	14736
704.353	15413
704.471	15139
704.590	14895
704.708	14293
704.827	14668
704.946	13818
705.064	14905
705.183	15163
705.301	15447
705.420	19188
705.538	22543
705.656	18792
705.775	16950
705.893	17424
706.012	19228
706.130	18512
706.249	18166
706.367	17286
706.485	18307
706.604	19041
706.722	17841
706.840	19118
706.958	20885
707.077	19449
707.195	17670
707.313	17189
707.431	17002
707.549	16974
707.668	17033
707.786	15800
707.904	16942
708.022	14806
708.140	16763
708.258	14772
708.376	15533
708.494	15874
708.612	16313
708.730	19109
708.848	24243
708.966	20503
709.084	20360
709.202	18956
709.320	19466
709.438	18342
709.556	19239
709.674	19193
709.791	18513
709.909	16459
710.027	19316
710.145	17625
710.263	18199
710.380	18001
710.498	17871
710.616	17902
710.733	17666
710.851	17801
710.969	18170
711.086	18256
711.204	17834
711.322	16555
711.439	16896
711.557	17591
711.674	17120
711.792	17026
711.909	17312
712.027	16095
712.144	15956
712.262	16248
712.379	16792
712.497	19783
712.614	25782
712.732	22449
712.849	20443
712.966	19676
713.084	22771
713.201	22796
713.318	21500
713.436	20835
713.553	20483
713.670	20687
713.787	21860
713.905	23234
714.022	21615
714.139	20464
714.256	22530
714.373	25395
714.490	32400
714.608	55366
714.725	168475
714.842	611319
714.959	163738
715.076	27724
715.193	22169
715.310	19474
715.427	18829
715.544	17827
715.661	17783
715.778	17168
715.895	18871
716.011	18453
716.128	19010
716.245	17584
716.362	18688
716.479	20006
716.596	18969
716.713	16751
716.829	16795
716.946	16065
717.063	16069
717.180	15335
717.296	14929
717.413	14596
717.530	15151
717.646	15576
717.763	15487
717.880	14055
717.996	13892
718.113	13781
718.229	14796
718.346	14268
718.462	13337
718.579	15407
718.695	18935
718.812	24676
718.928	17936
719.045	19305
719.161	13724
719.277	13508
719.394	13608
719.510	13915
719.626	14177
719.743	15761
719.859	19543
719.975	25934
720.092	56327
720.208	222556
720.324	177064
720.440	20255
720.557	16273
720.673	18051
720.789	24386
720.905	34261
721.021	46705
721.137	15044
721.253	13598
721.369	13870
721.486	14436
721.602	16719
721.718	16791
721.834	11561
721.950	12386
722.066	11392
722.181	11966
722.297	12556
722.413	12321
722.529	10490
722.645	12093
722.761	10876
722.877	11433
722.993	10805
723.108	11686
723.224	12776
723.340	11616
723.456	11187
723.571	10967
723.687	10861
723.803	10678
723.918	10868
724.034	10601
724.150	11226
724.265	11044
724.381	12776
724.497	29100
724.612	16320
724.728	10540
724.843	9721
724.959	11426
725.074	12719
725.190	26346
725.305	14438
725.421	11374
725.536	8939
725.651	9393
725.767	8878
725.882	9518
725.997	9280
726.113	9596
726.228	9578
726.343	9160
726.459	8556
726.574	8651
726.689	10185
726.804	8801
726.920	7980
727.035	9251
727.150	9437
727.265	9301
727.380	9048
727.495	10217
727.610	8338
727.725	8754
727.841	8815
727.956	8364
728.071	8992
728.186	9550
728.301	7957
728.416	7810
728.531	8646
728.645	8177
728.760	8017
728.875	9355
728.990	9257
729.105	8974
729.220	7814
729.335	8820
729.449	7950
729.564	7331
729.679	7115
729.794	7696
729.908	7652
730.023	8663
730.138	7450
730.253	7529
730.367	7483
730.482	6895
730.596	7045
730.711	7642
730.826	8248
730.940	7785
731.055	7427
731.169	8605
731.284	7890
731.398	7610
731.513	8593
731.627	9482
731.742	8620
731.856	11628
731.970	9455
732.085	10302
732.199	12822
732.313	15753
732.428	28128
732.542	83181
732.656	177795
732.771	44246
732.885	13055
732.999	11312
733.113	10805
733.227	11494
733.342	9838
733.456	8777
733.570	9722
733.684	8668
733.798	8310
733.912	8984
734.026	8105
734.140	8975
734.254	8099
734.368	10044
734.482	17454
734.596	11005
734.710	8683
734.824	8285
734.938	7487
735.052	7438
735.166	8047
735.280	9211
735.393	7013
735.507	8084
735.621	8546
735.735	11700
735.849	13901
735.962	8175
736.076	7347
736.190	8705
736.303	8514
736.417	12877
736.531	8748
736.644	8854
736.758	7362
736.872	7352
736.985	7262
737.099	7143
737.212	6992
737.326	6714
737.439	6203
737.553	8078
737.666	6317
737.780	6571
737.893	6670
738.007	6812
738.120	6500
738.233	6234
738.347	6104
738.460	7292
738.573	5886
738.687	7279
738.800	6322
738.913	7513
739.026	8448
739.140	6655
739.253	5848
739.366	5993
739.479	6157
739.592	6154
739.705	5545
739.818	6507
739.932	6493
740.045	5575
740.158	6090
740.271	5853
740.384	6285
740.497	6384
740.610	5908
740.723	6161
740.836	5997
740.949	6027
741.062	6429
741.174	9440
741.287	6537
741.400	6444
741.513	6164
741.626	6624
741.739	6400
741.851	6786
741.964	5829
742.077	6327
742.189	5377
742.302	6575
742.415	5988
742.527	6219
742.640	5284
742.753	5227
742.865	4795
742.978	5055
743.090	4578
743.203	5381
743.316	5172
743.428	5376
743.541	5341
743.653	5186
743.766	4259
743.878	4980
743.990	5277
744.103	7920
744.215	5271
744.327	4895
744.440	5902
744.552	7218
744.664	8374
744.777	4829
744.889	4666
745.001	4635
745.113	4820
745.226	5964
745.338	5311
745.450	4306
745.562	4626
745.674	4749
745.786	4528
745.898	5037
746.010	5401
746.122	3737
746.234	4228
746.347	5516
746.459	3654
746.570	4264
746.682	4098
746.794	5011
746.906	4439
747.018	4676
747.130	4702
747.242	4816
747.354	4237
747.466	5060
747.577	4512
747.689	5123
747.801	4597
747.913	4201
748.024	3461
748.136	4733
748.248	3287
748.359	4386
748.471	3401
748.583	3466
748.694	3372
748.806	4294
748.918	4772
749.029	5359
749.141	4609
749.252	5260
749.364	4308
749.475	7265
749.587	9086
749.698	5758
749.809	3878
749.921	4157
750.032	3435
750.144	3481
750.255	3414
750.366	3434
750.478	4345
750.589	4627
750.700	4079
750.811	5430
750.923	4599
751.034	5566
751.145	12755
751.256	6438
751.367	3597
751.479	3774
751.590	3238
751.701	4117
751.812	3368
751.923	4061
752.034	2911
752.145	3667
752.256	3436
752.367	4144
752.478	3632
752.589	3796
752.700	3440
752.811	3218
752.922	4019
753.032	3322
753.143	4762
753.254	4006
753.365	3647
753.476	4392
753.586	4188
753.697	3426
753.808	3326
753.919	3374
754.029	3501
754.140	3305
754.251	2447
754.361	3794
754.472	4421
754.582	3758
754.693	3388
754.804	3796
754.914	3674
755.025	3879
755.135	3177
755.246	3719
755.356	2948
755.466	3939
755.577	2971
755.687	4194
755.798	2898
755.908	3111
756.018	3131
756.129	3276
756.239	2167
756.349	4283
756.460	2738
756.570	3170
756.680	3484
756.790	3278
756.900	3601
757.011	4372
757.121	3247
757.231	3182
757.341	3137
757.451	3448
757.561	2582
757.671	2750
757.781	2918
757.891	3057
758.001	3175
758.111	2963
758.221	2586
758.331	3807
758.441	4060
758.551	4219
758.661	5489
758.771	4129
758.880	3275
758.990	4164
759.100	3240
759.210	3399
759.320	4116
759.429	3815
759.539	3792
759.649	3402
759.758	4302
759.868	4474
759.978	3867
760.087	4618
760.197	4013
760.307	4768
760.416	4578
760.526	4652
760.635	3506
760.745	4287
760.854	3978
760.964	5098
761.073	4461
761.182	5252
761.292	4137
761.401	4094
761.511	4526
761.620	4281
761.729	2983
761.839	3830
761.948	3072
762.057	3667
762.166	3012
762.276	3471
762.385	3806
762.494	3193
762.603	2946
762.712	3864
762.822	3297
762.931	3968
763.040	2713
763.149	3338
763.258	2903
763.367	3771
763.476	2651
763.585	2527
763.694	3712
763.803	3372
763.912	3971
764.021	3583
764.130	3890
764.238	3893
764.347	3762
764.456	3573
764.565	3669
764.674	3028
764.783	3468
764.891	3784
765.000	3316
765.109	4153
765.217	3607
765.326	3449
765.435	4236
765.543	5756
765.652	3696
765.761	4733
765.869	4756
765.978	7829
766.086	10088
766.195	18082
766.303	35727
766.412	113800
766.520	306985
766.629	133247
766.737	23402
766.846	11580
766.954	7879
767.062	7661
767.171	5568
767.279	5670
767.387	4981
767.496	4922
767.604	4534
767.712	4392
767.820	4188
767.928	4594
768.037	3786
768.145	4444
768.253	4041
768.361	4152
768.469	3016
768.577	3521
768.685	4209
768.793	4335
768.901	4024
769.009	4889
769.117	3511
769.225	4328
769.333	3635
769.441	6470
769.549	8279
769.657	15290
769.765	38851
769.873	142497
769.981	195615
770.088	28900
770.196	8631
770.304	6419
770.412	5147
770.519	4751
770.627	5192
770.735	3903
770.842	4089
770.950	3793
771.058	3980
771.165	5252
771.273	4242
771.380	4167
771.488	4117
771.595	5025
771.703	4399
771.810	4398
771.918	3968
772.025	4798
772.133	4968
772.240	5907
772.348	4828
772.455	5496
772.562	5219
772.670	4601
772.777	3666
772.884	5277
772.991	3992
773.099	4309
773.206	4245
773.313	4066
773.420	3998
773.528	4622
773.635	5464
773.742	4638
773.849	4404
773.956	4224
774.063	4007
774.170	4530
774.277	3798
774.384	4100
774.491	4223
774.598	4872
774.705	4261
774.812	4491
774.919	5533
775.026	4720
775.133	3927
775.239	5417
775.346	3570
775.453	5032
775.560	3899
775.667	4127
775.773	4326
775.880	3914
775.987	3877
776.093	3563
776.200	3587
776.307	4691
776.413	3192
776.520	4103
776.627	3683
776.733	3472
776.840	3540
776.946	4695
777.053	4630
777.159	4337
777.266	4566
777.372	5470
777.478	4781
777.585	4867
777.691	4323
777.798	4194
777.904	4227
778.010	4396
778.117	5637
778.223	4972
778.329	3461
778.435	3756
778.542	3586
778.648	3237
778.754	2736
778.860	3977
778.966	3457
779.072	4161
779.178	2900
779.284	3747
779.391	3697
779.497	3864
779.603	3454
779.708	3749
779.815	3807
779.920	4414
780.026	5688
780.132	6608
780.238	2491
780.344	2916
780.450	2964
780.556	3520
780.661	2272
780.767	3492
780.873	3075
780.979	3017
781.085	3183
781.190	3564
781.296	2345
781.402	3618
781.507	3380
781.613	3631
781.719	2319
781.824	3567
781.930	2556
782.035	2697
782.141	3434
782.246	3625
782.352	2536
782.457	3340
782.563	3708
782.668	2865
782.773	3113
782.879	2536
782.984	3291
783.090	3709
783.195	3190
783.300	5474
783.405	2966
783.511	3208
783.616	2727
783.721	3374
783.826	2629
783.932	3229
784.037	3018
784.142	3700
784.247	3584
784.352	3067
784.457	2536
784.562	2632
784.667	3436
784.772	2761
784.877	3012
784.982	2606
785.087	2868
785.192	3415
785.297	3335
785.402	2613
785.507	3255
785.611	3416
785.716	2340
785.821	2813
785.926	2724
786.031	2647
786.135	2734
786.240	2837
786.345	2145
786.450	2082
786.554	2416
786.659	2242
786.763	1459
786.868	2521
786.973	2814
787.077	2484
787.182	2321
787.286	2455
787.391	2940
787.495	2152
787.600	2106
787.704	1748
787.809	2497
787.913	2218
788.017	2826
788.122	3257
788.226	1871
788.330	2540
788.435	2136
788.539	2784
788.643	2123
788.747	2571
788.852	1498
788.956	2384
789.060	2188
789.164	2590
789.268	2153
789.372	2760
789.476	1753
789.580	2556
789.684	1633
789.788	2086
789.892	1886
789.996	3065
790.100	1754
790.204	1845
790.308	2509
790.412	2777
790.516	1846
790.620	1945
790.724	1886
790.828	2964
790.931	1946
791.035	1692
791.139	2117
791.242	2056
791.346	1946
791.450	2507
791.554	2398
791.657	1683
791.761	2384
791.864	2960
791.968	1890
792.072	2824
792.175	1239
792.279	1929
792.382	1527
792.486	2494
792.589	1975
792.693	2624
792.796	1740
792.899	2079
793.003	1420
793.106	1451
793.209	1878
793.313	3373
793.416	1554
793.519	2357
793.623	2377
793.726	3991
793.829	3415
793.932	2356
794.035	1820
794.138	3015
794.242	1822
794.345	3061
794.448	3028
794.551	2908
794.654	3928
794.757	4140
794.860	3361
794.963	3334
795.066	1931
795.169	2517
795.272	1961
795.375	2080
795.477	1904
795.580	2824
795.683	1612
795.786	1478
795.889	585
795.991	1916
796.094	1959
796.197	1682
796.300	2898
796.402	1875
796.505	967
796.608	1068
796.710	1142
796.813	1737
796.915	1738
797.018	2525
797.120	1512
797.223	1205
797.326	1680
797.428	2413
797.530	1328
797.633	1446
797.735	1862
797.838	1984
797.940	4145
798.042	2887
798.145	1170
798.247	1859
798.349	844
798.452	2050
798.554	707
798.656	1335
798.758	1818
798.860	1631
798.962	1644
799.065	2145
799.167	1023
799.269	2324
799.371	1704
799.473	2246
799.575	2106
799.677	3104
799.779	1996
799.881	2193
799.983	4310
800.085	2239
800.187	2066
800.289	1536
800.390	1449
800.492	1139
800.594	1880
800.696	1783
800.798	1429
800.899	1314
801.001	1763
801.103	1793
801.205	1212
801.306	1424
801.408	1049
801.509	1279
801.611	1692
801.713	1612
801.814	1113
801.916	1075
802.017	1215
802.119	1000
802.220	1131
802.322	1572
802.423	2334
802.525	2203
802.626	2281
802.727	1348
802.829	1517
802.930	129
803.031	2869
803.133	1163
803.234	963
803.335	1367
803.436	639
803.538	1200
803.639	1211
803.740	1132
803.841	1135
803.942	1850
804.043	1443
804.144	1762
804.245	352
804.346	1736
804.447	1101
804.548	1312
804.649	2893
804.750	2365
804.851	958
804.952	1071
805.053	993
805.154	969
805.255	1866
805.355	873
805.456	1219
805.557	683
805.658	315
805.758	1054
805.859	713
805.960	1218
806.061	578
806.161	456
806.262	986
806.362	1156
806.463	561
806.564	2170
806.664	1462
806.765	2063
806.865	1722
806.966	1203
807.066	135
807.166	989
807.267	611
807.367	396
807.468	964
807.568	935
807.668	1229
807.769	988
807.869	777
807.969	506
808.069	1109
808.170	1050
808.270	895
808.370	1780
808.470	1049
808.570	1095
808.670	2150
808.770	1159
808.870	137
808.970	1271
809.070	243
809.170	1558
809.271	1041
809.370	2152
809.470	1133
809.570	486
809.670	-230
809.770	357
809.870	1468
809.970	911
810.070	499
810.169	1222
810.269	-308
810.369	1198
810.469	924
810.568	864
810.668	104
810.768	997
810.867	647
810.967	1013
811.066	391
811.166	930
811.265	769
811.365	1184
811.464	729
811.564	1400
811.663	742
811.763	1380
811.862	1217
811.962	977
812.061	641
812.160	1128
812.260	1127
812.359	1617
812.458	1434
812.557	3760
812.657	8269
812.756	8219
812.855	2485
812.954	1482
813.053	1192
813.153	1128
813.252	811
813.351	1748
813.450	1337
813.549	812
813.648	1254
813.747	1212
813.846	967
813.945	1056
814.044	854
814.143	2258
814.242	504
814.341	1208
814.439	979
814.538	1561
814.637	871
814.736	2132
814.835	1419
814.933	1520
815.032	1974
815.131	1320
815.229	1978
815.328	2508
815.427	2552
815.525	2745
815.624	2806
815.722	2850
815.821	1779
815.919	2652
816.018	2654
816.116	3279
816.215	2849
816.313	3266
816.412	2467
816.510	3399
816.609	3972
816.707	4762
816.805	3914
816.904	3908
817.002	3857
817.100	5100
817.198	5285
817.296	5110
817.395	5891
817.493	7265
817.591	6803
817.689	10190
817.787	11839
817.885	16727
817.983	26927
818.081	48795
818.179	101645
818.277	228291
818.375	424506
818.473	263607
818.571	86507
818.669	42019
818.767	29641
818.865	27052
818.963	27818
819.061	35593
819.158	52152
819.256	90247
819.354	178506
819.452	367330
819.549	521634
819.647	305247
819.745	117008
819.842	58144
819.940	37027
820.038	25971
820.135	19868
820.233	14681
820.330	11141
820.428	10115
820.525	8328
820.623	8049
820.720	6737
820.818	6570
820.915	5561
821.012	5668
821.110	4396
821.207	4325
821.304	4629
821.402	3872
821.499	4412
821.596	3859
821.693	3470
821.791	3926
821.888	3023
821.985	4939
822.082	6245
822.179	5206
822.276	2315
822.373	2929
822.470	2679
822.567	1634
822.664	2202
822.761	2203
822.858	1573
822.955	2483
823.052	1653
823.149	2400
823.246	2211
823.343	2069
823.440	1744
823.536	1883
823.633	1968
823.730	1749
823.827	1079
823.923	1975
824.020	1833
824.117	1734
824.213	914
824.310	2518
824.407	1339
824.503	2005
824.600	1946
824.696	1778
824.793	1966
824.889	2135
824.986	1528
825.082	1318
825.179	1475
825.275	1300
825.371	1741
825.468	1799
825.564	305
825.660	1119
825.757	1404
825.853	2318
825.949	409
826.045	736
826.142	529
826.238	1154
826.334	1668
826.430	2084
826.526	1016
826.622	800
826.718	659
826.814	1638
826.910	1248
827.006	718
827.102	85
827.198	741
827.294	495
827.390	1961
827.486	1058
827.582	689
827.678	-172
827.774	2207
827.869	-228
827.965	1668
828.061	627
828.157	1293
828.252	1250
828.348	1034
828.444	1265
828.539	1370
828.635	611
828.731	1483
828.826	180
828.922	1537
829.017	645
829.113	1806
829.208	466
829.304	1618
829.399	2300
829.495	1433
829.590	1006
829.685	719
829.781	1224
829.876	754
829.971	936
830.066	585
830.162	221
830.257	804
830.352	939
830.447	1032
830.543	587
830.638	821
830.733	2094
830.828	567
830.923	215
831.018	1061
831.113	1265
831.208	1281
831.303	656
831.398	1006
831.493	111
831.588	1310
831.683	1263
831.778	1096
831.873	206
831.967	1389
832.062	592
832.157	932
832.252	1192
832.346	437
832.441	1349
832.536	1784
832.631	2696
832.725	5989
832.820	2339
832.914	1053
833.009	945
833.104	1390
833.198	503
833.293	1159
833.387	828
833.482	388
833.576	675
833.670	1659
833.765	570
833.859	304
833.954	1257
834.048	991
834.142	709
834.237	133
834.331	244
834.425	510
834.519	238
834.613	1477
834.708	494
834.802	-139
834.896	-48
834.990	614
835.084	881
835.178	1138
835.272	919
835.366	959
835.460	1605
835.554	1278
835.648	335
835.742	84
835.836	233
835.930	608
836.024	743
836.117	488
836.211	890
836.305	1483
836.399	1946
836.493	2328
836.586	370
836.680	382
836.774	591
836.867	1062
836.961	-140
837.055	575
837.148	-307
837.242	683
837.335	342
837.429	709
837.522	534
837.616	574
837.709	1869
837.803	2814
837.896	1328
837.989	708
838.083	1150
838.176	1652
838.269	3001
838.363	2303
838.456	347
838.549	325
838.642	1328
838.735	3307
838.829	5086
838.922	1721
839.015	783
839.108	513
839.201	442
839.294	506
839.387	148
839.480	541
839.573	478
839.666	2029
839.759	895
839.852	273
839.945	471
840.038	72
840.131	755
840.223	1043
840.316	148
840.409	894
840.502	366
840.594	409
840.687	492
840.780	131
840.873	-996
840.965	394
841.058	179
841.150	1486
841.243	2308
841.336	938
841.428	340
841.521	242
841.613	213
841.706	896
841.798	451
841.890	316
841.983	-539
842.075	632
842.167	-195
842.260	345
842.352	449
842.444	1368
842.537	1448
842.629	4950
842.721	3457
842.813	218
842.905	-458
842.997	505
843.090	129
843.182	749
843.274	729
843.366	4496
843.458	9299
843.550	15177
843.642	6100
843.734	1741
843.826	586
843.918	1398
844.009	1236
844.101	-64
844.193	538
844.285	-43
844.377	260
844.469	768
844.560	418
844.652	1086
844.744	1042
844.835	263
844.927	95
845.019	1015
845.110	424
845.202	598
845.293	11
845.385	-312
845.476	91
845.568	727
845.659	439
845.751	821
845.842	-572
845.934	1025
846.025	-850
846.116	93
846.208	141
846.299	812
846.390	-111
846.482	1073
846.573	1426
846.664	1235
846.755	803
846.846	1700
846.937	-54
847.029	156
847.120	2
847.211	56
847.302	693
847.393	179
847.484	-72
847.575	-635
847.666	340
847.757	231
847.847	-136
847.938	-161
848.029	-912
848.120	688
848.211	63
848.302	445
848.392	-19
848.483	515
848.574	-409
848.664	-503
848.755	-97
848.846	643
848.936	-104
849.027	86
849.118	-421
849.208	343
849.299	294
849.389	1566
849.480	1575
849.570	4717
849.661	10088
849.751	22346
849.841	28872
849.932	6738
850.022	1478
850.112	585
850.203	23
850.293	544
850.383	4
850.474	-641
850.564	-175
850.654	-41
850.744	-111
850.834	153
850.924	12
851.014	126
851.104	299
851.194	396
851.284	293
851.374	1142
851.464	-203
851.554	784
851.644	-327
851.734	992
851.824	1070
851.914	973
852.004	93
852.094	-114
852.183	-68
852.273	655
852.363	-428
852.452	605
852.542	386
852.632	724
852.721	365
852.811	357
852.901	54
852.990	182
853.080	-203
853.169	997
853.259	446
853.348	458
853.438	514
853.527	1860
853.617	1370
853.706	3916
853.795	6491
853.885	15181
853.974	33170
854.063	59129
854.152	112580
854.242	139299
854.331	37571
854.420	7714
854.509	2872
854.598	3091
854.687	1989
854.777	2034
854.866	1687
854.955	1298
855.044	303
855.133	670
855.222	401
855.311	540
855.400	614
855.488	645
855.577	525
855.666	37
855.755	6
855.844	50
855.933	-139
856.021	555
856.110	84
856.199	966
856.288	-547
856.376	-139
856.465	-118
856.554	417
856.642	-310
856.731	-209
856.819	-139
856.908	-592
856.996	-198
857.085	684
857.173	340
857.262	442
857.350	-421
857.438	127
857.527	-24
857.615	-440
857.703	42
857.792	-312
857.880	-399
857.968	-44
858.056	-129
858.145	-188
858.233	-183
858.321	-368
858.409	-121
858.497	965
858.585	-448
858.673	894
858.761	-691
858.849	243
858.937	-208
859.025	1106
859.113	-157
859.201	-401
859.289	-324
859.377	-2
859.465	-181
859.552	-662
859.640	-140
859.728	201
859.816	-156
859.903	841
859.991	-124
860.079	256
860.166	-652
860.254	72
860.342	-70
860.429	-281
860.517	-915
860.604	170
860.692	-163
860.779	590
860.867	-135
860.954	696
861.042	-89
861.129	1148
861.216	469
861.304	276
861.391	-457
861.478	7
861.565	311
861.653	561
861.740	-1027
861.827	-244
861.914	-460
862.001	-219
862.089	162
862.176	269
862.263	-455
862.350	-182
862.437	-690
862.524	-275
862.611	-993
862.698	566
862.785	242
862.871	506
862.958	-204
863.045	-340
863.132	-370
863.219	208
863.306	-1050
863.392	745
863.479	-172
863.566	213
863.652	269
863.739	400
863.826	-68
863.912	-615
863.999	-857
864.086	246
864.172	-119
864.259	457
864.345	448
864.432	169
864.518	576
864.604	225
864.691	-86
864.777	-68
864.863	243
864.950	855
865.036	629
865.122	895
865.209	1953
865.295	1912
865.381	1929
865.467	2304
865.553	2425
865.639	3867
865.726	4980
865.812	8589
865.898	17394
865.984	32501
866.070	43439
866.156	85361
866.242	70247
866.328	14939
866.414	3676
866.499	2844
866.585	2408
866.671	1921
866.757	1115
866.843	2200
866.928	938
867.014	1665
867.100	1501
867.186	1140
867.271	1837
867.357	1374
867.442	2120
867.528	2435
867.614	619
867.699	1007
867.785	1464
867.870	1254
867.956	1101
868.041	1642
868.127	773
868.212	1927
868.297	1134
868.383	1320
868.468	1948
868.553	2062
868.639	2652
868.724	3949
868.809	6518
868.894	4535
868.979	1250
869.065	1483
869.150	267
869.235	362
869.320	-89
869.405	1413
869.490	-160
869.575	1606
869.660	746
869.745	904
869.830	567
869.915	585
870.000	106
870.085	623
870.169	217
870.254	1260
870.339	812
870.424	763
870.509	-167
870.593	296
870.678	885
870.763	668
870.847	508
870.932	616
871.016	311
871.101	1079
871.186	373
871.270	501
871.355	495
871.439	554
871.523	126
871.608	925
871.692	30
871.777	1020
871.861	383
871.945	537
872.030	-35
872.114	455
872.198	378
872.282	-567
872.367	-34
872.451	441
872.535	197
872.619	100
872.703	49
872.787	-470
872.871	-292
872.955	868
873.039	62
873.123	625
873.207	781
873.291	926
873.375	84
873.459	1077
873.543	491
873.627	757
873.711	171
873.794	1018
873.878	-344
873.962	465
874.045	494
874.129	319
874.137	282
874.213	-82
874.245	69
874.296	312
874.352	-98
874.380	-299
874.460	264
874.464	286
874.547	-306
874.568	-8
874.631	901
874.676	650
874.714	429
874.784	1080
874.798	1207
874.881	1346
874.892	1206
874.965	238
874.999	-42
875.048	-395
875.107	652
875.131	1052
875.215	142
875.215	142
875.298	212
875.323	313
875.381	558
875.430	439
875.465	333
875.538	616
875.548	663
875.631	896
875.646	678
875.714	-456
875.753	-335
875.798	-115
875.861	150
875.881	214
875.964	197
875.968	193
876.047	123
876.076	135
876.130	187
876.183	81
876.213	31
876.291	564
876.296	595
876.379	610
876.398	556
876.462	328
876.506	48
876.545	-154
876.613	374
876.628	492
876.711	-33
876.721	109
876.794	1101
876.828	674
876.877	195
876.935	1127
876.960	1442
877.043	-203
877.043	-201
877.125	340
877.150	319
877.208	404
877.258	297
877.291	104
877.365	490
877.374	566
877.456	479
877.472	445
877.539	219
877.579	303
877.622	344
877.687	753
877.704	896
877.787	39
877.794	81
877.869	533
877.901	948
877.952	1524
878.008	927
878.034	684
878.115	511
878.117	504
878.199	229
878.222	241
878.282	435
878.329	683
878.364	841
878.437	408
878.447	357
878.529	155
878.544	238
878.611	400
878.651	127
878.694	-59
878.758	340
878.776	436
878.858	-180
878.865	-112
878.941	905
878.972	824
879.023	424
879.078	512
879.105	709
879.185	316
879.187	303
879.269	503
879.292	516
879.351	592
879.399	697
879.433	711
879.506	46
879.516	-7
879.598	220
879.613	146
879.680	-292
879.720	80
879.762	652
879.827	882
879.844	845
879.926	460
879.933	439
880.007	333
880.040	325
880.089	281
880.147	20
880.171	27
880.253	1004
880.254	1013
880.335	2448
880.360	2669
880.417	3569
880.467	4148
880.499	4669
880.574	9196
880.580	9479
880.662	7129
880.680	6180
880.744	2482
880.787	1205
880.825	373
880.893	-21
880.907	-62
880.989	367
881.000	321
881.070	316
881.106	422
881.152	156
881.213	65
881.233	178
881.315	209
881.319	220
881.396	245
881.426	146
881.478	51
881.532	134
881.559	112
881.639	163
881.641	169
881.722	559
881.745	363
881.803	-149
881.852	245
881.885	454
881.958	-221
881.966	-306
882.047	443
882.064	336
882.129	350
882.171	526
882.210	499
882.277	285
882.291	297
882.372	1388
882.383	1294
882.454	524
882.489	573
882.535	586
882.596	320
882.616	157
882.697	-121
882.702	-148
882.778	-38
882.808	124
882.859	101
882.914	-151
882.940	-136
883.020	267
883.021	270
883.102	-5
883.127	-6
883.183	143
883.233	430
883.264	317
883.339	-105
883.345	-96
883.426	-346
883.445	-67
883.507	843
883.551	569
883.587	250
883.657	332
883.668	352
883.749	83
883.763	98
883.830	838
883.869	1154
883.910	716
883.975	130
883.991	221
884.072	441
884.081	488
884.152	331
884.187	186
884.233	393
884.292	1036
884.314	986
884.394	141
884.398	113
884.475	33
884.504	-67
884.555	-33
884.610	172
884.636	184
884.716	-227
884.716	-226
884.797	249
884.821	310
884.877	543
884.927	644
884.958	485
885.033	106
885.038	99
885.118	201
885.139	190
885.199	-162
885.244	-413
885.279	-282
885.350	-129
885.359	-97
885.439	577
885.456	600
885.520	463
885.561	659
885.600	621
885.667	71
885.680	18
885.760	-8
885.773	-33
885.840	-270
885.878	-241
885.920	-45
885.984	-63
886.000	-106
886.080	-204
886.089	-215
886.160	-43
886.195	116
886.240	597
886.300	995
886.320	888
886.400	735
886.406	715
886.480	466
886.511	330
886.560	294
886.616	296
886.640	365
886.720	664
886.722	666
886.800	493
886.827	437
886.879	208
886.932	-2
886.959	161
887.038	752
887.039	750
887.119	248
887.143	92
887.198	344
887.248	529
887.278	317
887.354	-146
887.358	-135
887.437	97
887.459	114
887.517	84
887.564	223
887.596	403
887.669	618
887.676	599
887.755	406
887.774	344
887.835	268
887.880	271
887.914	173
887.985	-91
887.994	-83
888.073	-4
888.090	19
888.153	22
888.195	-17
888.232	149
888.300	528
888.311	513
888.391	366
888.405	331
888.470	441
888.510	503
888.549	495
888.615	572
888.628	597
888.708	604
888.720	615
888.787	335
888.825	158
888.866	403
888.930	800
888.945	731
889.024	327
889.035	277
889.103	419
889.140	497
889.182	225
889.245	-218
889.261	-41
889.340	862
889.349	962
889.419	396
889.454	119
889.498	458
889.559	929
889.577	789
889.656	166
889.664	108
889.735	788
889.768	1104
889.814	858
889.873	533
889.978	-210
890.083	34
890.187	292
890.292	38
890.397	1249
890.501	296
890.606	-469
890.710	-597
890.815	605
890.919	-154
891.024	331
891.128	53
891.233	455
891.337	91
891.442	346
891.546	86
891.650	224
891.755	-416
891.859	1626
891.963	194
892.068	288
892.172	-511
892.276	-567
892.380	-432
892.484	81
892.589	502
892.693	563
892.797	462
892.901	-433
893.005	-352
893.109	329
893.213	-119
893.317	594
893.421	-128
893.525	53
893.629	-830
893.733	143
893.837	349
893.941	-13
894.045	-564
894.148	544
894.252	220
894.356	350
894.460	299
894.564	851
894.667	80
894.771	158
894.875	-185
894.978	127
895.082	183
895.186	529
895.289	361
895.393	-87
895.496	290
895.600	210
895.703	151
895.807	832
895.910	654
896.014	847
896.117	-200
896.221	1105
896.324	-1
896.427	-135
896.531	435
896.634	792
896.737	-59
896.840	-365
896.944	-120
897.047	263
897.150	22
897.253	-293
897.356	389
897.460	-176
897.563	-354
897.666	538
897.769	795
897.872	551
897.975	-62
898.078	122
898.181	-316
898.284	728
898.387	216
898.490	21
898.593	160
898.695	607
898.798	-174
898.901	365
899.004	-400
899.107	686
899.209	474
899.312	386
899.415	485
899.518	321
899.620	190
899.723	40
899.826	437
899.928	1061
900.031	415
900.133	695
900.236	384
900.338	-183
900.441	-185
900.543	98
900.646	270
900.748	271
900.851	-180
900.953	-19
901.055	-513
901.158	-473
901.260	577
901.362	600
901.465	75
901.567	148
901.669	-409
901.771	81
901.873	176
901.976	1173
902.078	216
902.180	-307
902.282	241
902.384	690
902.486	729
902.588	580
902.690	-28
902.792	420
902.894	47
902.996	-474
903.098	268
903.200	579
903.302	286
903.404	765
903.505	-240
903.607	403
903.709	-184
903.811	837
903.913	519
904.014	580
904.116	22
904.218	-82
904.319	53
904.421	477
904.523	326
904.624	560
904.726	294
904.827	-497
904.929	-280
905.030	-53
905.132	321
905.233	256
905.335	128
905.436	832
905.537	-860
905.639	731
905.740	-597
905.841	-233
905.943	-127
906.044	-691
906.145	124
906.247	620
906.348	-119
906.449	421
906.550	-887
906.651	897
906.752	584
906.854	515
906.955	139
907.056	-193
907.157	596
907.258	-91
907.359	-122
907.460	352
907.561	301
907.662	107
907.762	-510
907.863	715
907.964	-245
908.065	865
908.166	-666
908.267	-182
908.367	-321
908.468	785
908.569	-90
908.670	629
908.770	773
908.871	-74
908.971	299
909.072	524
909.173	390
909.273	1021
909.374	9
909.474	490
909.575	-197
909.675	108
909.776	62
909.876	61
909.977	-540
910.077	674
910.177	162
910.278	27
910.378	-291
910.478	199
910.579	570
910.679	631
910.779	38
910.879	434
910.980	332
911.080	-402
911.180	-718
911.280	253
911.380	-268
911.480	-80
911.580	229
911.680	464
911.780	502
911.880	829
911.980	18
912.080	-136
912.180	38
912.280	92
912.380	-457
912.480	-229
912.580	-221
912.679	573
912.779	-365
912.879	870
912.979	-355
913.078	390
913.178	-237
913.278	262
913.377	-328
913.477	-305
913.577	158
913.676	86
913.776	56
913.875	382
913.975	-372
914.074	-296
914.174	1012
914.273	62
914.373	231
914.472	250
914.572	-201
914.671	1077
914.770	-111
914.870	732
914.969	798
915.068	61
915.167	-142
915.267	143
915.366	3
915.465	107
915.564	158
915.663	448
915.763	382
915.862	448
915.961	-435
916.060	162
916.159	-274
916.258	-802
916.357	-850
916.456	276
916.555	173
916.654	246
916.752	-571
916.851	150
916.950	-75
917.049	313
917.148	269
917.247	512
917.345	190
917.444	403
917.543	-126
917.642	451
917.740	69
917.839	481
917.937	241
918.036	750
918.135	75
918.233	554
918.332	-84
918.430	289
918.529	-328
918.627	816
918.726	-59
918.824	714
918.923	-33
919.021	129
919.119	303
919.218	104
919.316	-209
919.414	263
919.512	149
919.611	428
919.709	230
919.807	297
919.905	274
920.003	333
920.102	82
920.200	119
920.298	416
920.396	213
920.494	-452
920.592	76
920.690	-344
920.788	270
920.886	400
920.984	136
921.082	-227
921.180	732
921.277	-789
921.375	1305
921.473	-10
921.571	414
921.669	615
921.766	537
921.864	611
921.962	540
922.060	-4
922.157	-291
922.255	405
922.352	223
922.450	647
922.548	1059
922.645	291
922.743	692
922.840	673
922.938	1938
923.035	766
923.133	1186
923.230	523
923.327	1414
923.425	1359
923.522	1450
923.619	1660
923.717	1129
923.814	340
923.911	1639
924.008	1119
924.106	2189
924.203	355
924.300	764
924.397	1249
924.494	1583
924.591	422
924.688	696
924.786	904
924.883	1815
924.979	788
925.077	1561
925.173	636
925.270	1027
925.367	1099
925.464	968
925.561	759
925.658	1615
925.755	740
925.852	568
925.948	852
926.045	797
926.142	184
926.239	1109
926.335	1278
926.432	1845
926.529	1874
926.625	1822
926.722	1004
926.818	535
926.915	1215
927.011	1775
927.108	610
927.204	915
927.301	887
927.397	629
927.494	916
927.590	1544
927.687	1010
927.783	1566
927.879	1550
927.976	921
928.072	343
928.168	15
928.264	1454
928.361	569
928.457	553
928.553	1573
928.649	1003
928.745	1214
928.841	1181
928.937	917
929.033	1011
929.129	761
929.225	789
929.321	1964
929.417	562
929.513	1067
929.609	331
929.705	995
929.801	-157
929.897	632
929.993	968
930.089	715
930.184	1011
930.280	1411
930.376	695
930.471	1320
930.567	362
930.663	471
930.758	210
930.854	-187
930.950	-82
931.045	1108
931.141	545
931.236	536
931.332	828
931.427	-205
931.523	269
931.618	1394
931.714	7
931.809	419
931.905	506
932.000	1053
932.095	77
932.191	624
932.286	1159
932.381	1027
932.476	390
932.572	-15
932.667	751
932.762	874
932.857	218
932.952	1751
933.047	307
933.142	280
933.237	-224
933.332	994
933.427	314
933.522	452
933.617	433
933.712	454
933.807	714
933.902	718
933.997	564
934.092	1718
934.187	-110
934.282	1538
934.376	-234
934.471	436
934.566	182
934.661	978
934.755	90
934.850	542
934.945	1207
935.039	538
935.134	-299
935.228	472
935.323	-51
935.417	281
935.512	800
935.606	72
935.701	899
935.795	-86
935.890	478
935.984	1037
936.079	106
936.173	178
936.267	-208
936.362	1078
936.456	120
936.550	964
936.644	502
936.738	602
936.833	-128
936.927	82
937.021	-407
937.115	322
937.209	529
937.303	681
937.397	-357
937.491	42
937.585	178
937.679	197
937.773	-20
937.867	236
937.961	-376
938.055	508
938.149	-58
938.243	86
938.337	-79
938.430	-692
938.524	-30
938.618	706
938.712	492
938.805	720
938.899	90
938.993	354
939.086	1069
939.180	278
939.274	117
939.367	504
939.461	947
939.554	565
939.648	-233
939.741	794
939.835	466
939.928	752
940.022	893
940.115	-14
940.208	-316
940.302	1108
940.395	927
940.488	-4
940.582	-204
940.675	-417
940.768	372
940.861	-658
940.954	384
941.048	-14
941.141	-97
941.234	-350
941.327	-305
941.420	409
941.513	921
941.606	294
941.699	-167
941.792	283
941.885	311
941.978	501
942.071	-355
942.164	-138
942.257	-216
942.349	527
942.442	517
942.535	752
942.628	-184
942.721	76
942.813	-566
942.906	304
942.999	-407
943.091	428
943.184	-809
943.277	220
943.369	-57
943.462	-608
943.554	-309
943.647	137
943.739	-84
943.832	44
943.924	-1231
944.017	640
944.109	-342
944.201	425
944.294	-837
944.386	370
944.478	113
944.571	152
944.663	-403
944.755	-377
944.847	-324
944.940	302
945.032	-1041
945.124	-578
945.216	217
945.308	-303
945.400	-155
945.492	339
945.584	105
945.676	418
945.768	-958
945.860	-485
945.952	236
946.044	8
946.136	270
946.228	-852
946.320	-233
946.412	-136
946.503	-868
946.595	603
946.687	-783
946.779	-532
946.870	-846
946.962	-7
947.054	8
947.145	-6
947.237	483
947.329	248
947.420	259
947.512	32
947.603	384
947.695	401
947.786	-801
947.878	38
947.969	-880
948.061	-68
948.152	-273
948.243	-132
948.335	-681
948.426	-248
948.517	-724
948.609	-670
948.700	-351
948.791	140
948.882	173
948.973	-104
949.065	-818
949.156	690
949.247	-282
949.338	502
949.429	167
949.520	49
949.611	-632
949.702	-138
949.793	-207
949.884	-184
949.975	-651
950.066	-281
950.157	-467
950.247	-426
950.338	-489
950.429	-367
950.520	-398
950.611	-321
950.701	-355
950.792	-444
950.883	-429
950.973	-285
951.064	-908
951.155	59
951.245	-66
951.336	-334
951.427	7
951.517	-9
951.608	-740
951.698	-233
951.788	-930
951.879	264
951.969	-133
952.060	-336
952.150	-339
952.240	-557
952.331	-520
952.421	1142
952.511	-130
952.602	-824
952.692	-732
952.782	-40
952.872	-838
952.962	-250
953.052	-950
953.143	-614
953.233	-233
953.323	-422
953.413	-450
953.503	661
953.593	-1360
953.683	-636
953.773	-337
953.863	30
953.953	-1356
954.042	-480
954.132	-571
954.222	-86
954.312	-1030
954.402	-539
954.492	-547
954.581	-420
954.671	-298
954.761	-1234
954.850	-326
954.940	-466
955.030	-532
955.119	-804
955.209	-255
955.298	-854
955.388	-84
955.477	346
955.567	-564
955.656	-1258
955.746	-696
955.835	-64
955.925	-658
956.014	-633
956.103	-791
956.193	-608
956.282	-52
956.371	-622
956.461	-19
956.550	-352
956.639	-1449
956.728	-411
956.817	-1488
956.906	-240
956.995	-630
957.085	-848
957.174	-317
957.263	-620
957.352	-898
957.441	-853
957.530	-1222
957.619	-1026
957.708	-748
957.796	-446
957.885	-1064
957.974	-1179
958.063	-899
958.152	-960
958.241	91
958.329	-641
958.418	-1561
958.507	-1300
958.596	-563
958.684	-1300
958.773	-468
958.861	-669
958.950	-405
959.039	136
959.127	-1271
959.216	-352
959.304	-632
959.393	-590
959.481	-1036
959.570	-302
959.658	-1371
959.746	-248
959.835	-1630
959.923	-319
960.011	-155
960.100	-66
960.188	-58
960.276	-112
960.365	-979
960.453	39
960.541	-672
960.629	-939
960.717	-660
960.805	-468
960.893	-983
960.981	-916
961.069	-984
961.158	-367
961.245	-486
961.333	351
961.421	-176
961.509	-512
961.597	-493
961.685	14
961.773	-1504
961.861	-820
961.949	-895
962.036	-926
962.124	-363
962.212	-577
962.299	-1339
962.387	-819
962.475	-1350
962.562	-1534
962.650	-669
962.738	-674
962.825	-1596
962.913	-326
963.000	-812
963.088	-1024
963.175	-672
963.263	-829
963.350	-1559
963.438	124
963.525	-852
963.612	-412
963.700	-402
963.787	2217
963.874	3351
963.962	402
964.049	-701
964.136	-1242
964.223	-1349
964.310	-588
964.398	-833
964.485	-403
964.572	-168
964.659	132
964.746	-460
964.833	-1159
964.920	-932
965.007	-522
965.094	-1482
965.181	-1335
965.268	-841
965.355	-364
965.441	-375
965.528	-1583
965.615	-1212
965.702	65
965.789	-1721
965.875	-480
965.962	-820
966.049	-1029
966.136	-845
966.222	-479
966.309	-1003
966.395	-1222
966.482	-664
966.569	-593
966.655	-979
966.742	-233
966.828	-1168
966.915	-940
967.001	-925
967.087	-301
967.174	-1415
967.260	-446
967.347	-300
967.433	-270
967.519	786
967.605	1038
967.692	-806
967.778	-324
967.864	-483
967.950	-558
968.036	-575
968.123	-315
968.209	-196
968.295	-521
968.381	-1047
968.467	68
968.553	-1583
968.639	-873
968.725	-469
968.811	-315
968.897	266
968.983	-843
969.069	-1377
969.154	-283
969.240	-1143
969.326	-1321
969.412	-798
969.497	-756
969.583	-958
969.669	-1320
969.755	-1167
969.840	-1592
969.926	-817
970.012	-976
970.097	-462
970.183	-128
970.268	-554
970.354	-1164
970.439	-674
970.525	1174
970.610	-51
970.696	-548
970.781	-1101
970.866	-502
970.952	-1452
971.037	-265
971.122	-566
971.208	-1302
971.293	-619
971.378	-913
971.463	-907
971.549	-134
971.634	-453
971.719	-100
971.804	-1179
971.889	91
971.974	-1452
972.059	-1269
972.144	-1602
972.229	-612
972.314	-2122
972.399	-438
972.484	-1123
972.569	-1178
972.654	-1449
972.739	-499
972.824	-822
972.908	386
972.993	-1018
973.078	-1082
973.163	-638
973.247	-841
973.332	-821
973.417	-615
973.501	-1598
973.586	-85
973.671	-1149
973.755	-944
973.840	-118
973.924	-476
974.009	-1609
974.093	-424
974.178	751
974.262	-960
974.346	-243
974.431	740
974.515	-863
974.600	-1390
974.684	-946
974.768	-1229
974.852	-779
974.937	-718
975.021	-230
975.105	-385
975.189	-1369
975.273	-553
975.358	-751
975.442	-1488
975.526	-724
975.610	-1128
975.694	-1445
975.778	-1031
975.862	-291
975.946	-1194
976.030	-633
976.114	-887
976.198	-1315
976.281	-597
976.365	-1523
976.449	-671
976.533	-650
976.617	-1582
976.700	-1033
976.784	-234
976.868	-1127
976.951	-562
977.035	-293
977.119	-845
977.202	-296
977.286	-1365
977.369	-289
977.453	-605
977.536	-867
977.620	-565
977.703	-607
977.787	-959
977.870	-410
977.953	-96
978.037	-1165
978.120	-866
978.203	-736
978.287	24
978.370	-459
978.453	-737
978.536	-1110
978.620	-296
978.703	-679
978.786	-321
978.869	-785
978.952	-1376
979.035	-958
979.118	130
979.201	-876
979.284	-1
979.367	-802
979.450	-390
979.533	-628
979.616	-1252
979.699	-1213
979.782	75
979.865	-1258
979.948	-510
980.030	-2048
980.113	-1139
980.196	-1687
980.279	105
980.361	-1030
980.444	-1145
980.526	-1004
980.609	-517
980.692	-985
980.774	73
980.857	-1195
980.939	-263
981.022	-858
981.104	-693
981.187	-1354
981.269	-946
981.352	-1387
981.434	-564
981.516	-1417
981.599	-323
981.681	-474
981.763	-827
981.846	-1081
981.928	-1319
982.010	-1467
982.092	-263
982.174	-283
982.256	-746
982.339	-1243
982.421	-673
982.503	-1276
982.585	-1623
982.667	-1076
982.749	-1270
982.831	-1005
982.913	-1198
982.995	-617
983.077	-510
983.158	-604
983.240	-1080
983.322	-1259
983.404	-672
983.486	-628
983.568	-608
983.649	-1024
983.731	-693
983.813	-1530
983.894	-144
983.976	-1162
984.058	-637
984.139	-882
984.221	-1468
984.302	-626
984.384	-458
984.465	-1573
984.547	-900
984.628	-884
984.710	-264
984.791	-931
984.872	-237
984.954	-808
985.035	-1183
985.116	-1483
985.198	-722
985.279	-744
985.360	-1081
985.441	-788
985.522	41
985.604	-828
985.685	-2092
985.766	-591
985.847	-1133
985.928	-1032
986.009	-748
986.090	-1113
986.171	-426
986.252	-1113
986.333	-432
986.414	-698
986.495	-983
986.576	-703
986.656	-669
986.737	-948
986.818	-1840
986.899	-1548
986.980	-1752
987.060	-737
987.141	-408
987.222	-1494
987.302	-943
987.383	-1223
987.464	-980
987.544	-1742
987.625	-1557
987.705	-516
987.786	-877
987.866	-518
987.947	-1022
988.027	-1539
988.108	-1235
988.188	-1230
988.268	-858
988.349	-1101
988.429	-1785
988.509	-1607
988.589	-437
988.670	-2327
988.750	-1070
988.830	-1889
988.910	-216
988.990	-1358
989.070	-890
989.151	-781
989.231	-580
989.311	-537
989.391	-992
989.471	-1870
989.551	-103
989.631	-1157
989.711	-850
989.791	-1730
989.870	-1291
989.950	-824
990.030	-101
990.110	-528
990.190	-617
990.269	-1781
990.349	-1070
990.429	-550
990.509	-1483
990.588	-1584
990.668	-1155
990.747	-612
990.827	-969
990.907	-687
990.986	-572
991.066	-983
991.145	-1023
991.225	-776
991.304	-1296
991.383	-1353
991.463	-996
991.542	-1147
991.622	-702
991.701	-1614
991.780	-869
991.859	-1809
991.939	-721
992.018	-850
992.097	-568
992.176	-1777
992.256	-1148
992.335	-1760
992.414	-243
992.493	-935
992.572	-1005
992.651	-752
992.730	-952
992.809	-1190
992.888	-1240
992.967	-872
993.046	-445
993.125	-1620
993.203	-734
993.282	-701
993.361	-987
993.440	-1500
993.519	-1778
993.597	-1541
993.676	-721
993.755	-1241
993.834	-1123
993.912	-1332
993.991	-662
994.069	-1416
994.148	-1144
994.226	-1329
994.305	-853
994.384	-2559
994.462	255
994.540	-1809
994.619	-914
994.697	-954
994.776	-1413
994.854	-1404
994.932	-1330
995.011	-1230
995.089	-913
995.167	-1364
995.245	-891
995.324	-1258
995.402	-733
995.480	-1163
995.558	-1534
995.636	-1487
995.714	-1363
995.792	-1647
995.870	-1458
995.948	-1849
996.026	-1321
996.104	-2545
996.182	-508
996.260	-1498
996.338	-1345
996.416	-1817
996.494	-1240
996.572	-1634
996.649	-1350
996.727	-1691
996.805	-507
996.883	-1796
996.960	-1575
997.038	-1489
997.116	-499
997.193	-1942
997.271	-330
997.348	-1854
997.426	-1104
997.504	-1415
997.581	-1251
997.658	-1166
997.736	-1256
997.813	-2057
997.891	-1033
997.968	-2125
998.046	-500
998.123	-1027
998.200	-1488
998.277	-2611
998.355	-1261
998.432	-2819
998.509	-1131
998.586	-1610
998.663	-806
998.741	-1334
998.818	-1695
998.895	-2113
998.972	-597
999.049	-1501
999.126	-1344
999.203	-1371
999.280	-1725
999.357	-1258
999.434	-1811
999.511	-1380
999.587	-801
999.664	-1975
999.741	-819
999.818	-1290
999.895	-1969
999.971	-1545
1000.048	-1672
1000.125	-639
1000.202	-1322
1000.278	-2353
1000.355	-669
1000.431	-1421
1000.508	-1997
1000.584	-1129
1000.661	-1439
1000.738	-2160
1000.814	-935
1000.890	-1422
1000.967	-1050
1001.043	-2210
1001.120	-1660
1001.196	-1927
1001.272	-2133
1001.349	-1728
1001.425	-1297
1001.501	-1105
1001.577	-1812
1001.654	-2182
1001.730	-1680
1001.806	-1950
1001.882	-1985
1001.958	-1493
1002.034	-1190
1002.110	-1991
1002.186	-2238
1002.262	-1442
1002.338	-1780
1002.414	-1341
1002.490	-1544
1002.566	-1235
1002.642	-1626
1002.718	-1331
1002.794	-1352
1002.870	-1819
1002.945	-1645
1003.021	-1854
1003.097	-1546
1003.173	-2048
1003.248	-1546
1003.324	-2005
1003.400	-1567
1003.475	-1572
1003.551	-2041
1003.626	-2029
1003.702	-534
1003.777	-2024
1003.853	-1997
1003.928	-1514
1004.004	-1937
1004.079	-2349
1004.155	-1448
1004.230	-2629
1004.305	-1591
1004.381	-1023
1004.456	-1965
1004.531	-2351
1004.607	-1264
1004.682	-2376
1004.757	-1143
1004.832	-1971
1004.907	-1342
1004.982	-2449
1005.057	-665
1005.133	-1606
1005.208	-1480
1005.283	-1704
1005.358	-1380
1005.433	-1121
1005.508	-1814
1005.583	-2042
1005.657	-1435
1005.732	-1426
1005.807	-1222
1005.882	-1424
1005.957	-2038
1006.032	-1711
1006.106	-1232
1006.181	-1218
1006.256	-1327
1006.331	-1185
1006.405	-1908
1006.480	-1695
1006.554	-1464
1006.629	-1152
1006.704	-1368
1006.778	-1710
1006.853	-1637
1006.927	-1677
1007.002	-2130
1007.076	-1585
1007.150	-1742
1007.225	-1984
1007.299	-1548
1007.373	-1910
1007.448	-1758
1007.522	-1471
1007.596	-1726
1007.671	-1373
1007.745	-1140
1007.819	-2240
1007.893	-1106
1007.967	-1771
1008.041	-2292
1008.115	-1298
1008.190	-1897
1008.264	-1764
1008.338	-2577
1008.412	-1782
1008.486	-975
1008.560	-1927
1008.633	-1250
1008.707	-1542
1008.781	-875
1008.855	-1430
1008.929	-1257
1009.003	-2194
1009.076	-1460
1009.150	-1793
1009.224	-1174
1009.298	-789
1009.371	-1593
1009.445	-2130
1009.519	-1597
1009.592	-1413
1009.666	-902
1009.739	-1846
1009.813	-2078
1009.886	-1474
1009.960	-2263
1010.033	-1189
1010.107	-1349
1010.180	-2112
1010.253	-1344
1010.327	-2563
1010.400	-2312
1010.473	-1584
1010.547	-697
1010.620	-1947
1010.693	-1612
1010.766	-2200
1010.840	-1512
1010.913	-1953
1010.986	-2588
1011.059	-2302
1011.132	-2052
1011.205	-876
1011.278	-1146
1011.351	-2775
1011.424	-1953
1011.497	-1524
1011.570	-2339
1011.643	-1609
1011.716	-1267
1011.789	-1663
1011.862	-793
1011.934	-2268
1012.007	-1772
1012.080	-1172
1012.153	-2116
1012.225	-1183
1012.298	-1476
1012.371	-1849
1012.443	-1373
1012.516	-2273
1012.588	-910
1012.661	-1908
1012.733	-1831
1012.806	-2600
1012.879	-998
1012.951	-1601
1013.023	-1271
1013.096	-936
1013.168	-836
1013.241	-1034
1013.313	-1565
1013.385	-1898
1013.458	-1130
1013.530	-1185
1013.602	-1185
1013.674	-1855
1013.746	-1374
1013.819	-1817
1013.891	-1734
1013.963	-1843
1014.035	-590
1014.107	-1743
1014.179	-1025
1014.251	-2011
1014.323	-1414
1014.395	-1450
1014.467	-1592
1014.539	-1224
1014.611	-1525
1014.683	-1860
1014.754	-1301
1014.826	-1933
1014.898	-1497
1014.970	-2496
1015.042	-1410
1015.113	-1650
1015.185	-861
1015.257	-2195
1015.328	-801
1015.400	-1546
1015.471	-1145
1015.543	-2593
1015.615	-1593
1015.686	-1641
1015.757	-930
1015.829	-2153
1015.901	-1849
1015.972	-1857
1016.043	-1507
1016.115	-1618
1016.186	-1567
1016.257	-2174
1016.328	-721
1016.400	-1042
1016.471	-1251
1016.542	-1749
1016.613	-1123
1016.685	-1403
1016.756	-733
1016.827	-1537
1016.898	-2613
1016.969	-1567
1017.040	-2088
1017.111	-1870
1017.182	-1731
1017.253	-2360
1017.324	-1407
1017.395	-1718
1017.466	-2116
1017.537	-1419
1017.608	-1546
1017.678	-1803
1017.749	-1370
1017.820	-1487
1017.891	-1369
1017.961	-2397
1018.032	-1503
1018.103	-1340
1018.173	-877
1018.244	-2032
1018.315	-1266
1018.385	-1260
1018.456	-1060
1018.526	-2316
1018.597	-1971
1018.667	-1801
1018.738	-1326
1018.808	-1428
1018.878	-1823
1018.949	-1971
1019.019	-1434
1019.089	-2404
1019.160	-1320
1019.230	-2251
1019.300	-1463
1019.371	-2245
1019.441	-726
1019.511	-1347
1019.581	-1490
1019.651	-1441
1019.721	-1102
1019.791	-1215
1019.861	-2244
1019.931	-1299
1020.001	-1372
1020.071	-1542
1020.141	-1451
1020.211	-1857
1020.281	-596
1020.351	-1519
1020.421	-1698
1020.491	-855
1020.560	-1984
1020.630	-1599
1020.700	-927
1020.770	-2443
1020.839	-1095
1020.909	-1777
1020.979	-1223
1021.048	-1724
1021.118	-1077
1021.187	-1295
1021.257	-537
1021.326	-1655
1021.396	-1765
1021.465	-1885
1021.535	-1849
1021.604	-2576
1021.674	-1550
1021.743	-2105
1021.812	-1218
1021.882	-1846
1021.951	-1553
1022.020	-2421
1022.089	-1057
1022.159	-1705
1022.228	-1322
1022.297	-1143
1022.366	-1646
1022.435	-2004
1022.504	-1370
1022.573	-1577
1022.642	-1758
1022.711	-1844
1022.781	-1395
1022.849	-1762
1022.918	-1530
1022.987	-1212
1023.056	-1882
1023.125	-1677
1023.194	-1783
1023.263	-2202
1023.331	-1982
1023.400	-2258
1023.469	-368
1023.538	-1171
1023.606	-2145
1023.675	-2472
1023.744	-1473
1023.812	-1714
1023.881	-1409
1023.949	-1564
1024.018	-1771
1024.086	-1079
1024.155	-2150
1024.223	-2258
1024.292	-1198
1024.360	-1906
1024.429	-1902
1024.497	-1059
1024.565	-456
1024.634	-1871
1024.702	-1577
1024.770	-1764
1024.838	-1839
1024.907	-1377
1024.975	-1630
1025.043	-1745
1025.111	-1549
1025.179	-1806
1025.247	-2066
1025.315	-2183
1025.383	-1569
1025.451	-2681
1025.519	-1859
1025.587	-1682
1025.655	-814
1025.723	-2357
1025.791	-1371
1025.859	-1390
1025.927	-930
1025.995	-2087
1026.062	-794
1026.130	-1627
1026.198	-1804
1026.266	-2238
1026.333	-1574
1026.401	-1294
1026.469	-2030
1026.536	-1832
1026.604	-2264
1026.671	-1734
1026.739	-1577
1026.806	-1906
1026.874	-1719
1026.941	-1795
1027.009	-1104
1027.076	-2169
1027.144	-1177
1027.211	-1740
1027.278	-1639
1027.345	-1990
1027.413	-2501
1027.480	-2012
1027.547	-884
1027.614	-1789
1027.682	-537
1027.749	-1918
1027.816	-1971
1027.883	-2184
1027.950	-1384
1028.017	-2490
1028.084	-1826
1028.151	-2528
1028.218	-1733
1028.285	-2106
1028.352	-1433
1028.419	-1466
1028.486	-604
1028.553	-978
1028.619	-1538
1028.686	-1918
1028.753	-2032
1028.820	-2217
1028.886	-1513
1028.953	-2089
1029.020	-1508
1029.086	-2070
1029.153	-2297
1029.220	-2138
1029.286	-1134
1029.353	-2487
1029.419	-1424
1029.486	-1373
1029.552	-1150
1029.619	-2098
1029.685	-1551
1029.751	-2256
1029.818	-553
1029.884	-1601
1029.951	-1220
1030.017	-2811
1030.083	-1450
1030.149	-2250
1030.216	-1188
1030.282	-2099
1030.348	-1675
1030.414	-1819
1030.480	-1551
1030.546	-1875
1030.612	-1924
1030.678	-2214
1030.744	-1460
1030.810	-1776
1030.876	-2038
1030.942	-1361
1031.008	-1175
1031.074	-2330
1031.140	-1756
1031.206	-1560
1031.272	-2131
1031.337	-1674
1031.403	-672
1031.469	-2480
1031.534	-2207
1031.600	-1914
1031.666	-1417
1031.731	-2449
1031.797	-1203
1031.863	-2353
1031.928	-2136
1031.994	-2168
1032.059	-863
1032.125	-1841
1032.190	-1407
1032.256	-2162
1032.321	-2146
1032.386	-1601
1032.452	-1049
1032.517	-2336
1032.582	-1523
1032.647	-1223
1032.713	-1947
1032.778	-2114
1032.843	-1872
1032.908	-1301
1032.974	-1425
1033.039	-2312
1033.104	-1453
1033.169	-2266
1033.234	-1459
1033.299	-1388
1033.364	-1847
1033.429	-2263
1033.494	-1154
1033.559	-1871
1033.624	-1245
1033.688	-1657
1033.753	-1137
1033.818	-1650
1033.883	-1215
1033.948	-2084
1034.013	-2852
1034.077	-1770
1034.142	-1161
1034.207	-2051
1034.271	-1035
1034.336	-1272
1034.400	-323
1034.465	-1292
1034.530	-296
1034.594	-1673
1034.658	-899
1034.723	-2195
1034.787	-1765
1034.852	-1850
1034.916	-1812
1034.981	-1534
1035.045	-1616
1035.109	-2373
1035.173	-704
1035.238	-2273
1035.302	-2116
1035.366	-1593
1035.430	-1928
1035.495	-2161
1035.559	-805
1035.623	-1523
1035.687	-1797
1035.751	-1729
1035.815	-1300
1035.879	-1891
1035.943	-2218
1036.007	-1582
1036.071	-1921
1036.135	-1759
1036.198	-1686
1036.262	-2177
1036.326	-2043
1036.390	-1855
1036.454	-1120
1036.517	-1611
1036.581	-1200
1036.645	-2407
1036.709	-1487
1036.772	-1783
1036.836	-1281
1036.900	-2055
1036.963	-1946
1037.026	-1895
1037.090	-2164
1037.154	-2284
1037.217	-1565
1037.280	-2346
1037.344	-2003
1037.407	-2418
1037.471	-2058
1037.534	-1925
1037.597	-1430
1037.661	-2086
1037.724	-1338
1037.787	-1797
1037.850	-1119
1037.913	-2486
1037.977	-791
1038.040	-2133
1038.103	-1942
1038.166	-2487
1038.229	-1724
1038.292	-2134
1038.355	-1975
1038.418	-1964
1038.481	-1293
1038.544	-2222
1038.607	-2082
1038.670	-1746
1038.732	-2379
1038.795	-1789
1038.858	-1768
1038.921	-3398
1038.984	-2360
1039.046	-2238
1039.109	-1829
1039.172	-1779
1039.234	-1075
1039.297	-1960
1039.360	-2070
1039.422	-2316
1039.485	-1314
1039.547	-2164
1039.610	-1483
1039.672	-2154
1039.734	-1796
1039.797	-1348
1039.859	-2461
1039.922	-2015
1039.984	-1484
1040.046	-2321
1040.109	-1633
1040.171	-2331
1040.233	-1584
1040.295	-2265
1040.358	-1521
1040.420	-2674
1040.482	-1591
1040.544	-2079
1040.606	-1709
1040.668	-2637
1040.730	-1449
1040.792	-1411
1040.854	-2304
1040.916	-1790
1040.978	-1809
1041.040	-1668
1041.102	-2010
1041.164	-2071
1041.225	-2169
1041.287	-2483
1041.349	-1804
1041.411	-2424
1041.472	-1588
1041.534	-1893
1041.596	-2139
1041.657	-2114
1041.719	-1678
1041.781	-1682
1041.842	-2284
1041.904	-2038
1041.965	-2115
1042.027	-2310
1042.088	-1200
1042.150	-1492
1042.211	-1837
1042.272	-1411
1042.334	-1968
1042.395	-2108
1042.456	-1838
1042.518	-2062
1042.579	-1429
1042.640	-2335
1042.701	-2009
1042.763	-1383
1042.824	-1623
1042.885	-1391
1042.946	-1341
1043.007	-2390
1043.068	-1601
1043.129	-2459
1043.190	-1834
1043.251	-1476
1043.312	-1167
1043.373	-1802
1043.434	-1006
1043.495	-1817
1043.556	-997
1043.616	-2343
1043.677	-1898
1043.738	-2049
1043.799	-2047
1043.859	-2664
1043.920	-1427
1043.981	-2507
1044.041	-1863
1044.102	-2338
1044.162	-1220
1044.223	-2752
1044.284	-1646
1044.344	-2143
1044.405	-1420
1044.465	-2518
1044.525	-1828
1044.586	-2267
1044.646	-1916
1044.707	-2388
1044.767	-1794
1044.827	-1658
1044.887	-1555
1044.948	-1475
1045.008	-2071
1045.068	-1452
1045.128	-1768
1045.188	-2384
1045.249	-2010
1045.309	-1168
1045.369	-1345
1045.429	-1719
1045.489	-1171
1045.549	-1375
1045.609	-1656
1045.669	-1943
1045.729	-1524
1045.789	-1576
1045.848	-1761
1045.908	-1845
1045.968	-912
1046.028	-1226
1046.088	-1291
1046.147	-1368
1046.207	-1845
1046.267	-1463
1046.326	-843
1046.386	-1859
1046.446	-367
1046.505	-1251
1046.565	-778
1046.624	-1660
1046.684	-849
1046.743	-1773
1046.803	199
1046.862	-574
1046.922	0
