'Start Wavelength	183.907
'End Wavelength	1046.922
'Gate Delay	5.000
'Gate Width (ms)	1.050
'Laser Output Level	0.000
'X Position	0.000
'Y Position	0.000
'Z Position	0.000
'Grid Point Number	1.000
'Shot Number	100.000
183.907	634.000
183.977	-415.000
184.047	-188
184.116	321
184.186	-296
184.256	964
184.325	-218
184.395	-330
184.465	159
184.534	-50
184.604	310
184.674	-36
184.743	310
184.813	-25
184.883	288
184.952	144
185.022	342
185.092	627
185.161	100
185.231	822
185.301	631
185.370	1124
185.440	154
185.509	1341
185.579	-209
185.649	210
185.718	231
185.788	357
185.857	-523
185.927	651
185.996	891
186.066	523
186.136	778
186.205	582
186.275	154
186.344	672
186.414	718
186.483	569
186.553	1105
186.622	2070
186.692	326
186.761	957
186.831	-270
186.900	1115
186.970	908
187.039	353
187.109	719
187.178	763
187.248	332
187.317	953
187.387	205
187.456	801
187.526	254
187.595	685
187.664	289
187.734	858
187.803	229
187.873	321
187.942	754
188.012	662
188.081	667
188.150	873
188.220	1661
188.289	1443
188.358	1392
188.428	946
188.497	517
188.567	1100
188.636	1064
188.705	698
188.775	283
188.844	325
188.913	956
188.983	868
189.052	569
189.121	1155
189.191	758
189.260	1047
189.329	550
189.399	699
189.468	106
189.537	384
189.606	386
189.676	992
189.745	773
189.814	1659
189.883	103
189.953	194
190.022	1096
190.091	2343
190.161	1392
190.230	1114
190.299	369
190.368	410
190.437	240
190.507	936
190.576	294
190.645	446
190.714	970
190.783	675
190.853	1585
190.922	1558
190.991	717
191.060	1049
191.129	751
191.198	1035
191.268	415
191.337	1046
191.406	949
191.475	424
191.544	399
191.613	833
191.682	1000
191.752	1249
191.821	962
191.890	1331
191.959	784
192.028	276
192.097	188
192.166	1181
192.235	470
192.304	710
192.373	821
192.442	1219
192.511	1220
192.580	421
192.650	261
192.719	923
192.788	1010
192.857	1556
192.926	908
192.995	1374
193.064	2009
193.133	3017
193.202	2580
193.271	2335
193.340	2401
193.409	1370
193.478	2587
193.547	3753
193.615	3523
193.684	3416
193.753	2086
193.822	2481
193.891	1282
193.960	1824
194.029	1120
194.098	1603
194.167	1220
194.236	1558
194.305	1037
194.374	1556
194.443	885
194.512	1255
194.580	1247
194.649	1170
194.718	798
194.787	1295
194.856	942
194.925	2277
194.994	784
195.062	847
195.131	817
195.200	1246
195.269	1743
195.338	2111
195.407	1260
195.475	1081
195.544	1337
195.613	992
195.682	1404
195.751	1687
195.819	1132
195.888	1597
195.957	2101
196.026	1371
196.094	2267
196.163	2064
196.232	1139
196.301	1001
196.369	1258
196.438	2044
196.507	1449
196.576	1724
196.644	490
196.713	1023
196.782	1460
196.850	869
196.919	784
196.988	1373
197.056	1412
197.125	1729
197.194	1179
197.262	1503
197.331	1302
197.400	1940
197.468	522
197.537	1294
197.606	1642
197.674	2158
197.743	1954
197.812	1041
197.880	2168
197.949	1356
198.017	2440
198.086	1397
198.155	1412
198.223	2123
198.292	2496
198.360	1800
198.429	2245
198.497	1902
198.566	2479
198.635	3702
198.703	2036
198.772	2930
198.840	3949
198.909	2966
198.977	2465
199.046	1285
199.114	1824
199.183	1849
199.251	1364
199.320	2444
199.388	828
199.457	1189
199.525	1917
199.594	2388
199.662	1976
199.731	1518
199.799	2041
199.867	2011
199.936	2600
200.004	2073
200.073	2171
200.141	1740
200.210	1786
200.278	1434
200.346	2341
200.415	3355
200.483	2435
200.552	3299
200.620	2108
200.688	2077
200.757	2185
200.825	1269
200.893	883
200.962	1798
201.030	1779
201.098	1487
201.167	1525
201.235	2548
201.303	2069
201.372	2564
201.440	1560
201.508	1919
201.577	2282
201.645	2547
201.713	1863
201.781	1518
201.850	2139
201.918	2198
201.986	2421
202.055	2141
202.123	1195
202.191	2429
202.259	2418
202.327	1344
202.396	1496
202.464	2476
202.532	1906
202.600	3141
202.669	2325
202.737	1954
202.805	2042
202.873	2264
202.941	2496
203.009	1347
203.078	2460
203.146	2312
203.214	2294
203.282	1791
203.350	1618
203.418	3254
203.487	2089
203.555	2391
203.623	1973
203.691	2201
203.759	1661
203.827	2506
203.895	2931
203.963	2209
204.031	3292
204.099	2234
204.168	2127
204.236	2567
204.304	3187
204.372	2546
204.440	2212
204.508	2944
204.576	2092
204.644	1965
204.712	2593
204.780	2790
204.848	3126
204.916	1789
204.984	2324
205.052	2420
205.120	2237
205.188	2995
205.256	2682
205.324	2000
205.392	2546
205.460	2797
205.528	1986
205.596	2402
205.664	2340
205.732	2164
205.799	4761
205.867	4984
205.935	2567
206.003	3630
206.071	2474
206.139	2236
206.207	2333
206.275	2717
206.343	2875
206.411	2883
206.478	2676
206.546	2955
206.614	2910
206.682	2888
206.750	3654
206.818	4954
206.885	3213
206.953	2272
207.021	3414
207.089	2771
207.157	2731
207.225	3163
207.292	3089
207.360	4049
207.428	2449
207.496	3036
207.563	2248
207.631	2914
207.699	3369
207.767	2358
207.834	3699
207.902	3645
207.970	2985
208.038	4269
208.105	4075
208.173	3457
208.241	4361
208.309	4433
208.376	3883
208.444	5143
208.512	3258
208.579	3057
208.647	4043
208.715	3838
208.782	3158
208.850	3057
208.918	3256
208.985	3668
209.053	2805
209.120	3030
209.188	2767
209.256	3947
209.323	3775
209.391	4035
209.459	3443
209.526	3421
209.594	3142
209.661	3339
209.729	3618
209.796	3397
209.864	4198
209.932	3771
209.999	3643
210.067	4157
210.134	2982
210.202	4017
210.269	4651
210.337	5417
210.404	4102
210.472	3711
210.539	3474
210.607	4351
210.674	3731
210.742	3801
210.809	3755
210.877	4613
210.944	3816
211.012	4265
211.079	4303
211.146	3493
211.214	5275
211.281	5956
211.349	5157
211.416	4212
211.484	3996
211.551	4304
211.618	4077
211.686	3653
211.753	3684
211.821	5020
211.888	4307
211.955	3995
212.023	4265
212.090	3952
212.157	3968
212.225	4030
212.292	5386
212.359	7929
212.427	11631
212.494	6573
212.561	4512
212.629	4752
212.696	4316
212.763	4156
212.831	4418
212.898	3692
212.965	3370
213.032	4370
213.100	4041
213.167	4738
213.234	4178
213.301	4546
213.369	4362
213.436	3954
213.503	4509
213.570	4478
213.638	4105
213.705	3758
213.772	3352
213.839	4336
213.906	3333
213.973	4730
214.041	3915
214.108	4952
214.175	3993
214.242	4115
214.309	4382
214.376	5171
214.444	4052
214.511	4941
214.578	5245
214.645	5623
214.712	5788
214.779	5194
214.846	5556
214.913	6273
214.980	6377
215.048	7907
215.115	7059
215.182	6200
215.249	4976
215.316	5030
215.383	4051
215.450	4949
215.517	4567
215.584	4716
215.651	4231
215.718	3859
215.785	3750
215.852	4501
215.919	3903
215.986	4962
216.053	3988
216.120	4198
216.187	4731
216.254	3452
216.321	3951
216.388	3828
216.455	4033
216.522	4708
216.589	5146
216.656	6662
216.722	6731
216.789	7448
216.856	7107
216.923	6730
216.990	6881
217.057	6238
217.124	7082
217.191	7367
217.258	7882
217.324	9225
217.391	8784
217.458	8241
217.525	6735
217.592	6248
217.659	5135
217.725	5791
217.792	5525
217.859	5400
217.926	4093
217.993	4046
218.059	4188
218.126	3920
218.193	3323
218.260	3157
218.327	3501
218.393	3376
218.460	2477
218.527	3752
218.594	3632
218.660	5083
218.727	4316
218.794	3672
218.860	3443
218.927	3396
218.994	2778
219.061	2605
219.127	3622
219.194	4505
219.261	3405
219.327	3274
219.394	3376
219.461	2522
219.527	1834
219.594	3770
219.661	3327
219.727	3090
219.794	3515
219.860	3306
219.927	4650
219.994	7170
220.060	10154
220.127	9603
220.193	6962
220.260	7553
220.326	9866
220.393	14043
220.460	14414
220.526	10197
220.593	8056
220.659	7908
220.726	8034
220.792	13563
220.859	13847
220.925	18570
220.992	18704
221.058	17059
221.125	13401
221.191	10435
221.258	7159
221.324	5186
221.391	5134
221.457	4554
221.524	4204
221.590	4944
221.657	10072
221.723	7006
221.789	7683
221.856	6282
221.922	5445
221.989	4230
222.055	4037
222.121	4461
222.188	5815
222.254	4010
222.321	4189
222.387	3747
222.453	3441
222.520	3567
222.586	3097
222.652	3286
222.719	2768
222.785	3184
222.851	2639
222.918	3116
222.984	3280
223.050	2405
223.116	2066
223.183	3421
223.249	2655
223.315	2495
223.382	2703
223.448	2524
223.514	2041
223.580	1707
223.647	2225
223.713	2952
223.779	1628
223.845	2379
223.911	3203
223.978	2997
224.044	2508
224.110	2574
224.176	2087
224.242	2918
224.309	2413
224.375	2287
224.441	2074
224.507	2151
224.573	2754
224.639	2808
224.705	1640
224.772	2128
224.838	2156
224.904	2604
224.970	2338
225.036	2379
225.102	2041
225.168	2528
225.234	2071
225.300	3239
225.366	2941
225.432	3022
225.499	3079
225.565	2734
225.631	3480
225.697	3705
225.763	4597
225.829	4929
225.895	5248
225.961	5635
226.027	5487
226.093	5213
226.159	8425
226.225	13479
226.291	24728
226.357	26729
226.423	16054
226.489	11258
226.554	8409
226.620	8549
226.686	10212
226.752	14429
226.818	23275
226.884	29338
226.950	24964
227.016	16202
227.082	10540
227.148	8041
227.214	7323
227.279	6040
227.345	6037
227.411	7083
227.477	10962
227.543	16792
227.609	16786
227.674	10015
227.740	6309
227.806	5795
227.872	4795
227.938	4105
228.003	4668
228.069	4048
228.135	3644
228.201	3359
228.267	3166
228.332	3511
228.398	3527
228.464	3664
228.530	2442
228.595	3356
228.661	2777
228.727	4841
228.792	3230
228.858	3457
228.924	2510
228.990	4530
229.055	3853
229.121	3164
229.187	2719
229.252	3268
229.318	1638
229.384	2091
229.449	2517
229.515	2364
229.581	1019
229.646	3404
229.712	3580
229.777	5532
229.843	3744
229.909	4849
229.974	4835
230.040	4320
230.105	4019
230.171	4120
230.236	4534
230.302	6347
230.368	4679
230.433	4359
230.499	3602
230.564	4517
230.630	3135
230.695	3590
230.761	4294
230.826	2653
230.892	4703
230.957	3517
231.023	2566
231.088	2408
231.154	3164
231.219	4236
231.284	4382
231.350	4152
231.415	3293
231.481	3205
231.546	2890
231.612	3250
231.677	3056
231.742	2745
231.808	3259
231.873	2658
231.939	2569
232.004	4621
232.069	3392
232.135	3625
232.200	3479
232.265	1973
232.331	2773
232.396	2760
232.461	2879
232.527	2536
232.592	2119
232.657	3123
232.723	3506
232.788	2795
232.853	2365
232.918	2700
232.984	2750
233.049	2404
233.114	2649
233.179	4288
233.245	4199
233.310	3749
233.375	2576
233.440	2375
233.506	2328
233.571	2243
233.636	2146
233.701	3112
233.766	2958
233.832	3024
233.897	2444
233.962	2248
234.027	2551
234.092	3319
234.157	3004
234.222	4403
234.288	4450
234.353	6161
234.418	5427
234.483	5150
234.548	3833
234.613	4981
234.678	4451
234.743	4261
234.808	8142
234.873	4845
234.938	3987
235.004	3822
235.069	3357
235.134	4061
235.199	4147
235.264	4151
235.329	3146
235.394	3857
235.459	3877
235.524	4358
235.589	3058
235.654	3921
235.719	2721
235.784	3534
235.849	3780
235.913	4443
235.978	4688
236.043	5311
236.108	3403
236.173	4055
236.238	4087
236.303	3877
236.368	4126
236.433	6103
236.498	7824
236.563	10135
236.627	22373
236.692	42491
236.757	32127
236.822	16741
236.887	11782
236.952	10155
237.017	8801
237.081	9963
237.146	14313
237.211	30305
237.276	45151
237.341	48649
237.405	28796
237.470	15768
237.535	10400
237.600	7244
237.664	6370
237.729	6273
237.794	11341
237.859	17695
237.923	8655
237.988	5522
238.053	5442
238.118	5574
238.182	10776
238.247	7779
238.312	5081
238.376	4275
238.441	2680
238.506	4662
238.570	3132
238.635	4803
238.700	3776
238.764	3481
238.829	5123
238.893	5122
238.958	5017
239.023	4253
239.087	4272
239.152	4868
239.216	3121
239.281	3764
239.346	3260
239.410	4170
239.475	3703
239.539	10260
239.604	7096
239.668	5428
239.733	7531
239.797	17798
239.862	30005
239.926	20492
239.991	9067
240.055	6230
240.120	5402
240.184	3354
240.249	2952
240.313	3777
240.378	2930
240.442	6445
240.507	5922
240.571	3654
240.635	4938
240.700	4509
240.764	2832
240.829	3102
240.893	2763
240.957	3425
241.022	5572
241.086	7098
241.151	4187
241.215	1973
241.279	3783
241.344	4578
241.408	4325
241.472	4078
241.537	5354
241.601	4632
241.665	3916
241.730	5054
241.794	4498
241.858	4292
241.922	4535
241.987	4961
242.051	4351
242.115	4088
242.179	4274
242.244	3737
242.308	4832
242.372	3514
242.436	3928
242.501	3638
242.565	3614
242.629	3942
242.693	4429
242.757	3462
242.822	3366
242.886	4350
242.950	4018
243.014	3714
243.078	4200
243.142	3933
243.206	3718
243.271	4711
243.335	3985
243.399	6790
243.463	22903
243.527	35396
243.591	12045
243.655	6601
243.719	4238
243.783	6037
243.847	9067
243.911	8217
243.975	9628
244.040	5381
244.104	4733
244.168	4763
244.232	5222
244.296	8168
244.360	8264
244.424	3951
244.488	3242
244.552	3434
244.615	2654
244.679	3402
244.743	4244
244.807	3725
244.871	3388
244.935	2994
244.999	3287
245.063	3537
245.127	4596
245.191	7001
245.255	4988
245.319	5192
245.383	3545
245.446	4471
245.510	2556
245.574	3754
245.638	3071
245.702	4660
245.766	7797
245.829	4540
245.893	3498
245.957	4157
246.021	4307
246.085	5227
246.149	5284
246.212	10908
246.276	11334
246.340	6365
246.404	5662
246.467	6954
246.531	6986
246.595	6051
246.659	5333
246.722	4705
246.786	5206
246.850	6806
246.913	6378
246.977	3850
247.041	4094
247.104	3725
247.168	5125
247.232	11096
247.295	17380
247.359	8413
247.423	5799
247.486	7944
247.550	6021
247.614	5050
247.677	5875
247.741	4082
247.804	4538
247.868	4819
247.932	10043
247.995	14242
248.059	5323
248.122	4090
248.186	5431
248.249	10904
248.313	29357
248.376	25229
248.440	15654
248.503	6398
248.567	7307
248.630	10317
248.694	12285
248.757	17361
248.821	28041
248.884	16977
248.948	17948
249.011	22984
249.075	33217
249.138	23742
249.202	12052
249.265	8549
249.328	7935
249.392	7603
249.455	6270
249.519	7020
249.582	7875
249.645	12384
249.709	9595
249.772	8409
249.835	6774
249.899	6534
249.962	6974
250.025	6508
250.089	14811
250.152	13689
250.215	8454
250.279	7101
250.342	6989
250.405	6912
250.468	5968
250.532	8745
250.595	13604
250.658	50269
250.721	50999
250.785	20538
250.848	13701
250.911	8886
250.974	7494
251.038	13073
251.101	17179
251.164	10391
251.227	11924
251.290	10404
251.354	18607
251.417	61829
251.480	43143
251.543	46342
251.606	94128
251.669	58771
251.732	27222
251.795	27655
251.859	30867
251.922	61297
251.985	28704
252.048	13812
252.111	9504
252.174	10227
252.237	19332
252.300	32444
252.363	47236
252.426	68005
252.489	25833
252.552	14516
252.615	9707
252.678	12718
252.741	27622
252.804	45016
252.867	71459
252.930	38758
252.993	19791
253.056	14101
253.119	8774
253.182	8792
253.245	14104
253.308	10378
253.371	8535
253.434	7504
253.497	9023
253.559	14608
253.622	9978
253.685	14189
253.748	10677
253.811	6418
253.874	8405
253.937	6209
254.000	6160
254.062	13698
254.125	13804
254.188	15162
254.251	9083
254.314	6379
254.376	12769
254.439	11119
254.502	9120
254.565	13356
254.628	16911
254.690	9809
254.753	6551
254.816	6649
254.878	6201
254.941	14208
255.004	10412
255.067	6289
255.129	5119
255.192	4179
255.255	3836
255.317	4795
255.380	3874
255.443	4292
255.505	4425
255.568	3917
255.631	4143
255.693	5698
255.756	2833
255.819	5885
255.881	5085
255.944	3308
256.006	3128
256.069	3672
256.132	3485
256.194	4665
256.257	6432
256.319	6512
256.382	7779
256.444	9057
256.507	6981
256.569	6912
256.632	6425
256.694	10169
256.757	38533
256.819	68493
256.882	26954
256.944	12916
257.007	10121
257.069	8988
257.132	6220
257.194	7159
257.257	6803
257.319	7114
257.381	9401
257.444	29148
257.506	89833
257.569	73242
257.631	31286
257.693	17430
257.756	9924
257.818	8028
257.880	5251
257.943	5420
258.005	5196
258.067	5069
258.130	4329
258.192	6477
258.254	7581
258.317	5060
258.379	5042
258.441	12439
258.503	9364
258.566	10721
258.628	9481
258.690	5171
258.753	5872
258.815	9422
258.877	5243
258.939	5454
259.001	5394
259.064	4358
259.126	5144
259.188	5077
259.250	5291
259.312	6433
259.375	9096
259.437	6351
259.499	5079
259.561	5108
259.623	5072
259.685	4208
259.747	5947
259.809	11413
259.872	12894
259.934	25418
259.996	16822
260.058	6958
260.120	4713
260.182	4544
260.244	4432
260.306	3743
260.368	3724
260.430	4124
260.492	7218
260.554	9530
260.616	7073
260.678	16748
260.740	12035
260.802	6085
260.864	5620
260.926	4243
260.988	5113
261.050	5278
261.112	9125
261.174	17344
261.236	9876
261.298	6154
261.359	8307
261.421	8213
261.483	3961
261.545	5421
261.607	3706
261.669	4669
261.731	6556
261.793	11319
261.854	6005
261.916	6035
261.978	4765
262.040	5339
262.102	4895
262.164	5635
262.225	4658
262.287	4899
262.349	9746
262.411	6095
262.472	3664
262.534	6566
262.596	7020
262.658	5046
262.719	3441
262.781	5158
262.843	6937
262.904	4851
262.966	5009
263.028	5371
263.090	30299
263.151	45044
263.213	15822
263.275	9296
263.336	5176
263.398	4809
263.459	3506
263.521	4627
263.583	9831
263.644	5905
263.706	4033
263.767	2748
263.829	3681
263.891	3309
263.952	3143
264.014	2971
264.075	5229
264.137	7411
264.198	5089
264.260	3767
264.321	2673
264.383	9829
264.444	11578
264.506	4610
264.567	3157
264.629	8690
264.690	9704
264.752	5950
264.813	4826
264.875	3682
264.936	3954
264.998	4734
265.059	5418
265.120	6288
265.182	11698
265.243	57901
265.305	36001
265.366	11397
265.427	6318
265.489	6895
265.550	3828
265.611	5539
265.673	4500
265.734	4821
265.795	4289
265.857	4222
265.918	5142
265.979	20029
266.040	79094
266.102	44398
266.163	16086
266.224	10461
266.286	6630
266.347	4333
266.408	4956
266.469	3879
266.530	3922
266.592	3944
266.653	7179
266.714	8606
266.775	4841
266.836	3571
266.898	3559
266.959	4976
267.020	3531
267.081	4208
267.142	3570
267.203	4573
267.264	3615
267.326	4941
267.387	4028
267.448	3445
267.509	4177
267.570	3554
267.631	3844
267.692	3040
267.753	3801
267.814	3404
267.875	8825
267.936	11451
267.997	5998
268.058	5781
268.119	3845
268.180	3887
268.241	3237
268.302	4154
268.363	3230
268.424	4650
268.485	3696
268.546	2887
268.607	3203
268.668	4038
268.729	2915
268.790	3515
268.851	5132
268.912	10331
268.972	8607
269.033	4974
269.094	3393
269.155	3983
269.216	3821
269.277	4037
269.338	3790
269.398	4793
269.459	4114
269.520	5298
269.581	6114
269.642	7198
269.702	4981
269.763	4724
269.824	4502
269.885	6360
269.945	6425
270.006	4689
270.067	3550
270.128	4529
270.188	3622
270.249	4175
270.310	3446
270.370	3651
270.431	3348
270.492	3573
270.553	4053
270.613	7809
270.674	11183
270.734	5647
270.795	4549
270.856	5879
270.916	3383
270.977	4713
271.038	4293
271.098	4459
271.159	7606
271.219	5468
271.280	4113
271.340	3452
271.401	4636
271.462	5519
271.522	4687
271.583	4046
271.643	4005
271.704	4356
271.764	4941
271.825	11128
271.885	33308
271.946	28056
272.006	11482
272.066	23213
272.127	27128
272.187	19437
272.248	8392
272.308	8561
272.369	19854
272.429	9145
272.489	9711
272.550	7116
272.610	9878
272.671	5867
272.731	6990
272.791	8203
272.852	6071
272.912	6299
272.972	4202
273.033	3858
273.093	5051
273.153	5344
273.214	4852
273.274	4882
273.334	17966
273.394	22402
273.455	9714
273.515	14680
273.575	21457
273.635	7684
273.696	14183
273.756	22266
273.816	8392
273.876	5709
273.936	10123
273.997	10879
274.057	4500
274.117	4984
274.177	9742
274.237	35940
274.297	18083
274.358	14510
274.418	22232
274.478	14055
274.538	6286
274.598	5234
274.658	11778
274.718	11429
274.778	6466
274.838	4383
274.898	9193
274.958	16121
275.018	24651
275.078	13348
275.138	6990
275.198	5367
275.258	4495
275.318	5400
275.378	9195
275.438	8736
275.498	5621
275.558	12023
275.618	23199
275.678	15291
275.738	13840
275.798	8509
275.858	5472
275.918	4109
275.978	6209
276.038	5530
276.098	4840
276.157	11580
276.217	18370
276.277	9318
276.337	6702
276.397	5842
276.457	6553
276.517	5775
276.576	4399
276.636	4883
276.696	6454
276.756	13402
276.815	8581
276.875	6385
276.935	5761
276.995	5657
277.055	5421
277.114	6281
277.174	7955
277.234	15788
277.293	5984
277.353	4975
277.413	3885
277.472	4708
277.532	4144
277.592	4349
277.651	9690
277.711	10557
277.771	7425
277.830	21640
277.890	11771
277.950	14049
278.009	24997
278.069	9546
278.128	13928
278.188	11534
278.248	8151
278.307	15537
278.367	7654
278.426	5347
278.486	4736
278.545	4802
278.605	3897
278.664	4735
278.724	5071
278.783	15755
278.843	20805
278.902	7171
278.962	5898
279.021	6242
279.081	4988
279.140	5299
279.199	5314
279.259	4277
279.318	5309
279.378	5722
279.437	10687
279.496	34674
279.556	74045
279.615	32618
279.675	11492
279.734	9797
279.793	18031
279.853	23587
279.912	9508
279.971	6460
280.031	5431
280.090	16447
280.149	17478
280.208	11971
280.268	54213
280.327	29528
280.386	10527
280.445	14924
280.505	10308
280.564	6150
280.623	5624
280.682	11587
280.742	12270
280.801	5832
280.860	5441
280.919	4672
280.978	3574
281.037	4375
281.097	3213
281.156	4674
281.215	4067
281.274	6460
281.333	21578
281.392	10000
281.451	5200
281.510	4895
281.569	3694
281.628	3321
281.688	4376
281.747	4924
281.806	4060
281.865	4664
281.924	4534
281.983	4316
282.042	2878
282.101	3773
282.160	4304
282.219	3711
282.278	5594
282.337	12755
282.396	6551
282.454	4475
282.513	6576
282.572	17996
282.631	7412
282.690	5180
282.749	4262
282.808	5652
282.867	5250
282.926	4778
282.985	3513
283.043	3795
283.102	3523
283.161	4159
283.220	12402
283.279	15143
283.338	6240
283.396	4514
283.455	4990
283.514	5482
283.573	6413
283.631	5182
283.690	4194
283.749	4622
283.808	9547
283.866	7294
283.925	4211
283.984	4743
284.043	5942
284.101	5601
284.160	3666
284.219	5261
284.277	4723
284.336	8354
284.395	23413
284.453	12517
284.512	7225
284.570	10069
284.629	5991
284.688	5581
284.746	4641
284.805	5991
284.863	6691
284.922	7845
284.981	7928
285.039	10382
285.098	17377
285.156	59763
285.215	128751
285.273	92939
285.332	38962
285.390	22391
285.449	14437
285.507	10620
285.566	8546
285.624	6289
285.683	5750
285.741	5821
285.799	5289
285.858	5805
285.916	5204
285.975	5357
286.033	4226
286.091	5411
286.150	3190
286.208	5221
286.267	4689
286.325	5570
286.383	8552
286.442	6374
286.500	4939
286.558	5061
286.616	4619
286.675	6827
286.733	5016
286.791	5091
286.850	5269
286.908	7759
286.966	10134
287.024	4838
287.083	5020
287.141	4266
287.199	5543
287.257	6837
287.315	5487
287.374	7094
287.432	12993
287.490	7946
287.548	6340
287.606	5269
287.664	5933
287.723	6612
287.781	6623
287.839	5980
287.897	6289
287.955	7093
288.013	10383
288.071	23477
288.129	112786
288.187	180468
288.245	66945
288.303	29006
288.361	19121
288.419	13641
288.477	9489
288.535	7592
288.593	6909
288.651	6190
288.709	5014
288.767	5364
288.825	4948
288.883	6021
288.941	4121
288.999	4879
289.057	5074
289.115	4168
289.173	5073
289.231	5297
289.289	4941
289.346	5001
289.404	6705
289.462	8170
289.520	6950
289.578	4453
289.636	4961
289.694	4721
289.751	4345
289.809	4242
289.867	4696
289.925	5672
289.983	6092
290.040	4764
290.098	4840
290.156	5992
290.214	5789
290.271	4926
290.329	5305
290.387	5704
290.444	4798
290.502	3978
290.560	4457
290.617	5333
290.675	5170
290.733	5198
290.790	4945
290.848	4975
290.906	4401
290.963	4688
291.021	5088
291.078	5434
291.136	5335
291.194	13160
291.251	15928
291.309	6647
291.366	4596
291.424	5455
291.481	5741
291.539	5187
291.596	3713
291.654	4118
291.711	4220
291.769	5946
291.826	7187
291.884	5742
291.941	5086
291.999	4594
292.056	5346
292.114	5326
292.171	5077
292.228	5862
292.286	6181
292.343	9220
292.401	8821
292.458	6113
292.515	5686
292.573	7739
292.630	6072
292.687	5734
292.745	4762
292.802	7154
292.859	11654
292.917	19222
292.974	8431
293.031	5002
293.089	4911
293.146	5421
293.203	5312
293.260	4736
293.318	4066
293.375	5609
293.432	5179
293.489	5165
293.546	4211
293.604	5994
293.661	16119
293.718	26639
293.775	11802
293.832	8923
293.889	7453
293.947	6763
294.004	4615
294.061	4751
294.118	12886
294.175	18681
294.232	15607
294.289	7319
294.346	9153
294.403	9061
294.460	5854
294.517	5904
294.574	5437
294.631	5282
294.688	5933
294.745	13848
294.802	33676
294.859	23678
294.916	10494
294.973	8291
295.030	7704
295.087	6725
295.144	6116
295.201	4912
295.258	5486
295.315	5879
295.372	19475
295.429	21057
295.486	9986
295.542	7868
295.599	17082
295.656	18029
295.713	19473
295.770	20716
295.827	9574
295.883	7375
295.940	6277
295.997	9980
296.054	8220
296.111	5112
296.167	5440
296.224	5906
296.281	5252
296.338	5180
296.394	4353
296.451	6237
296.508	15461
296.564	16674
296.621	12969
296.678	35296
296.734	28425
296.791	12182
296.848	7981
296.904	10940
296.961	19573
297.018	28011
297.074	15019
297.131	8929
297.187	7845
297.244	10941
297.301	35799
297.357	36904
297.414	13084
297.470	8901
297.527	7060
297.583	7657
297.640	6045
297.696	5714
297.753	5255
297.809	5314
297.866	5036
297.922	5720
297.979	4347
298.035	6016
298.092	8943
298.148	19592
298.204	12397
298.261	8619
298.317	18013
298.374	31011
298.430	14710
298.486	9171
298.543	7170
298.599	7260
298.656	7489
298.712	16539
298.768	31834
298.824	16844
298.881	8520
298.937	7517
298.993	7298
299.050	7182
299.106	6016
299.162	6202
299.218	5601
299.275	5561
299.331	5349
299.387	13006
299.443	40665
299.500	48421
299.556	24351
299.612	12689
299.668	15359
299.724	40419
299.780	26501
299.837	11667
299.893	16084
299.949	48914
300.005	40694
300.061	45150
300.117	51879
300.173	21258
300.229	11790
300.285	14333
300.341	12779
300.397	7513
300.453	7237
300.510	6714
300.566	7311
300.622	18074
300.678	60356
300.734	53775
300.790	34883
300.845	31875
300.901	42974
300.957	48891
301.013	22816
301.069	11533
301.125	9405
301.181	8114
301.237	6463
301.293	5999
301.349	5643
301.405	5993
301.461	4736
301.516	5467
301.572	6141
301.628	9342
301.684	7284
301.740	14042
301.796	14800
301.851	12820
301.907	18108
301.963	14279
302.019	38289
302.074	80998
302.130	58035
302.186	25831
302.242	13427
302.297	10760
302.353	12806
302.409	19341
302.464	12280
302.520	14423
302.576	31327
302.631	27545
302.687	15007
302.743	9875
302.798	7740
302.854	7331
302.910	6955
302.965	9450
303.021	11548
303.076	10365
303.132	14838
303.187	13854
303.243	9147
303.299	7641
303.354	7310
303.410	7161
303.465	6223
303.521	6460
303.576	6093
303.632	6923
303.687	14654
303.743	28396
303.798	16970
303.853	9260
303.909	7792
303.964	7809
304.020	10409
304.075	10997
304.130	12608
304.186	19179
304.241	18327
304.297	14713
304.352	8720
304.358	8662
304.407	8190
304.449	7801
304.463	7676
304.518	7186
304.539	6865
304.573	6340
304.629	6661
304.630	6722
304.684	9583
304.720	20060
304.739	25417
304.794	24360
304.811	21203
304.850	13483
304.902	8148
304.905	7819
304.960	8286
304.992	8852
305.015	9239
305.071	7845
305.083	7359
305.126	5657
305.173	5520
305.181	5490
305.236	5255
305.264	5850
305.292	6495
305.347	7082
305.354	7184
305.402	7817
305.445	8215
305.457	8323
305.512	8825
305.535	8124
305.567	7137
305.622	8157
305.626	8624
305.678	17169
305.716	29050
305.733	33644
305.788	25012
305.807	22737
305.843	18429
305.897	27093
305.898	27215
305.953	21180
305.988	16068
306.008	13055
306.063	9801
306.078	9011
306.118	7150
306.168	5297
306.173	5145
306.228	4995
306.259	4766
306.283	4650
306.338	4801
306.349	5051
306.393	6260
306.440	8111
306.448	8361
306.503	6755
306.530	6753
306.558	7366
306.613	13321
306.620	14024
306.668	18747
306.711	23614
306.723	24362
306.778	16826
306.801	14448
306.833	11264
306.888	7094
306.892	6942
306.943	6216
306.982	5965
306.997	5843
307.052	5375
307.072	5326
307.107	5465
307.162	5419
307.163	5427
307.217	6336
307.253	6859
307.272	7051
307.327	7570
307.343	7520
307.381	7270
307.434	6770
307.436	6829
307.491	11362
307.524	16038
307.546	18752
307.600	18612
307.614	17595
307.655	12137
307.704	8021
307.710	7839
307.765	8355
307.795	9386
307.819	10590
307.874	13491
307.885	13617
307.929	13786
307.975	16013
307.984	17037
308.038	24790
308.065	32923
308.093	50737
308.148	111613
308.156	122175
308.202	185062
308.246	205285
308.257	196518
308.312	116981
308.336	87390
308.366	66704
308.421	38936
308.426	36797
308.475	25631
308.517	18634
308.530	17363
308.585	14416
308.607	13510
308.639	12451
308.694	11662
308.697	11721
308.748	13980
308.787	15693
308.803	15911
308.857	14525
308.877	14321
308.912	14825
308.967	16556
308.967	16602
309.021	23068
309.058	28795
309.076	35469
309.130	63582
309.148	77371
309.185	129639
309.238	214262
309.239	215092
309.293	233795
309.328	224067
309.348	195767
309.402	108220
309.418	86754
309.457	62124
309.508	36207
309.511	35426
309.566	26925
309.598	22864
309.620	21582
309.674	20091
309.688	19772
309.729	18065
309.778	15671
309.783	15437
309.837	13238
309.868	12462
309.892	14012
309.946	20401
309.959	22326
310.001	31390
310.049	37412
310.055	36145
310.109	22030
310.139	15048
310.163	12682
310.218	9074
310.229	8394
310.272	7090
310.319	6213
310.326	6136
310.381	5261
310.409	5042
310.435	5053
310.489	4956
310.499	4960
310.543	5388
310.589	5933
310.598	5850
310.652	5375
310.679	4975
310.706	4922
310.760	5190
310.769	5168
310.814	4856
310.859	4805
310.868	4796
310.923	4707
310.948	4704
310.977	4937
311.031	5338
311.038	5397
311.085	5686
311.128	5821
311.139	5764
311.193	5663
311.218	5580
311.247	5429
311.301	5036
311.308	4994
311.356	5093
311.398	5196
311.410	5166
311.464	5034
311.488	4932
311.518	4827
311.572	4739
311.578	4736
311.626	6053
311.668	7144
311.680	7056
311.734	6603
311.758	6393
311.788	6180
311.842	5824
311.847	5786
311.896	6337
311.937	6855
311.950	6929
312.004	7204
312.027	7331
312.058	6700
312.112	5569
312.117	5454
312.165	5244
312.207	5069
312.297	5692
312.386	5932
312.476	6026
312.566	8625
312.656	6132
312.745	5144
312.835	5647
312.925	6164
313.015	6459
313.104	6334
313.194	5926
313.284	6050
313.374	8467
313.463	9014
313.553	7213
313.643	7705
313.732	7624
313.822	8899
313.912	8530
314.001	9527
314.091	10126
314.180	11055
314.270	10812
314.360	10520
314.449	9340
314.539	7981
314.628	8955
314.718	9270
314.808	10057
314.897	9828
314.987	11368
315.076	11903
315.166	12389
315.255	10965
315.345	10372
315.434	10068
315.524	8694
315.613	10412
315.703	13311
315.792	24078
315.881	80172
315.971	39897
316.060	12158
316.150	11495
316.239	11036
316.328	8636
316.418	9262
316.507	10183
316.597	12098
316.686	11370
316.775	11427
316.865	11399
316.954	8869
317.043	8884
317.133	8680
317.222	7005
317.311	6608
317.400	6737
317.490	8604
317.579	9078
317.668	8784
317.757	14196
317.847	37569
317.936	130886
318.025	55259
318.114	31499
318.203	21788
318.293	15178
318.382	28642
318.471	25895
318.560	25859
318.649	27084
318.738	11479
318.828	8333
318.917	7402
319.006	6277
319.095	11278
319.184	28440
319.273	20939
319.362	13443
319.451	7034
319.540	6882
319.629	8926
319.718	14704
319.807	7808
319.896	13272
319.985	35066
320.074	19236
320.163	6815
320.252	9143
320.341	7828
320.430	8799
320.519	10658
320.608	9830
320.697	10227
320.786	11190
320.875	12575
320.964	15138
321.053	17840
321.142	20584
321.230	23833
321.319	21787
321.408	34451
321.497	27381
321.586	20906
321.675	17896
321.764	16593
321.852	15256
321.941	19791
322.030	18876
322.119	18204
322.207	31637
322.296	26387
322.385	24754
322.474	30828
322.562	46024
322.651	33375
322.740	22446
322.829	22960
322.917	17923
323.006	15723
323.095	14615
323.183	11660
323.272	11965
323.361	13998
323.449	23752
323.538	14488
323.626	19033
323.715	15817
323.804	9474
323.892	15694
323.981	14307
324.069	8075
324.158	10632
324.246	11368
324.335	8790
324.424	11626
324.512	8127
324.601	8034
324.689	12102
324.778	21069
324.866	11562
324.954	6912
325.043	6091
325.131	7998
325.220	9324
325.308	10090
325.397	9252
325.485	7820
325.574	6545
325.662	5920
325.750	6776
325.839	6482
325.927	6432
326.015	7246
326.104	6794
326.192	6824
326.280	6105
326.369	5821
326.457	7075
326.545	9521
326.634	7666
326.722	5569
326.810	6162
326.898	7341
326.987	8540
327.075	9725
327.163	9496
327.251	7514
327.340	10144
327.428	17273
327.516	12663
327.604	8951
327.692	7308
327.781	5982
327.869	5846
327.957	6233
328.045	6134
328.133	5367
328.221	5023
328.309	5272
328.397	5619
328.485	6743
328.574	11597
328.662	24405
328.750	15505
328.838	6524
328.926	6487
329.014	4728
329.102	6821
329.190	8883
329.278	8969
329.366	4994
329.454	4445
329.542	4690
329.630	4935
329.718	4924
329.806	6141
329.893	5588
329.981	5588
330.069	5388
330.157	7370
330.245	15433
330.333	11624
330.421	6005
330.509	6693
330.597	16451
330.684	13828
330.772	6914
330.860	6684
330.948	7784
331.036	5237
331.123	4859
331.211	5499
331.299	5058
331.387	7128
331.475	10684
331.562	6137
331.650	4860
331.738	5335
331.825	5568
331.913	4812
332.001	4984
332.089	6044
332.176	6468
332.264	8064
332.352	8248
332.439	6104
332.527	6180
332.614	5301
332.702	6044
332.790	5779
332.877	7121
332.965	9427
333.052	6018
333.140	6463
333.228	8014
333.315	6507
333.403	6254
333.490	8081
333.578	8085
333.665	9735
333.753	8740
333.840	7466
333.928	7852
334.015	10722
334.103	15291
334.190	38876
334.278	27871
334.365	29884
334.452	33649
334.540	21577
334.627	18053
334.715	22565
334.802	32915
334.889	63739
334.977	96808
335.064	60644
335.151	27812
335.239	17969
335.326	16048
335.413	24115
335.501	36865
335.588	16573
335.675	16416
335.762	19957
335.850	26736
335.937	38298
336.024	62210
336.111	118064
336.199	115884
336.286	54983
336.373	27308
336.460	18204
336.547	14770
336.635	12342
336.722	10313
336.809	9920
336.896	9340
336.983	13905
337.070	27750
337.157	42025
337.245	22759
337.332	18405
337.419	8379
337.506	8351
337.593	8388
337.680	11418
337.767	25616
337.854	12122
337.941	11020
338.028	10118
338.115	7431
338.202	7125
338.289	10093
338.376	17708
338.463	11128
338.550	13410
338.637	20040
338.724	7526
338.811	8943
338.898	6034
338.984	6197
339.071	6307
339.158	6879
339.245	10271
339.332	8987
339.419	6788
339.506	8078
339.593	5865
339.679	6488
339.766	6034
339.853	6159
339.940	8940
340.027	6882
340.113	5535
340.200	6544
340.287	6303
340.374	6388
340.460	8897
340.547	5385
340.634	6684
340.720	17258
340.807	15820
340.894	5788
340.980	5998
341.067	6040
341.154	6064
341.240	6347
341.327	12405
341.414	6344
341.500	5718
341.587	6451
341.674	5896
341.760	8453
341.847	10072
341.933	6289
342.020	4812
342.106	4913
342.193	5005
342.279	7766
342.366	5639
342.452	8481
342.539	6614
342.625	8928
342.712	20127
342.798	12457
342.885	6426
342.971	4149
343.058	4922
343.144	5354
343.230	5681
343.317	5229
343.403	4677
343.490	5631
343.576	5480
343.662	5262
343.749	5495
343.835	6288
343.921	7601
344.008	28568
344.094	78762
344.180	24955
344.267	8652
344.353	19017
344.439	25184
344.525	11734
344.612	6372
344.698	6484
344.784	5504
344.870	5211
344.957	5175
345.043	6953
345.129	5756
345.215	8446
345.301	6629
345.387	5273
345.474	4671
345.560	4982
345.646	4632
345.732	5635
345.818	5499
345.904	5400
345.990	5888
346.076	5375
346.162	5110
346.249	5774
346.335	5341
346.421	5695
346.507	10167
346.593	31711
346.679	14584
346.765	6770
346.851	10705
346.937	10908
347.023	6853
347.108	6300
347.194	6206
347.280	5630
347.366	7983
347.452	20258
347.538	54021
347.624	35795
347.710	28145
347.796	8469
347.882	5869
347.967	6017
348.053	5672
348.139	5507
348.225	5252
348.311	5948
348.397	5189
348.482	6467
348.568	7537
348.654	8462
348.740	25278
348.825	37985
348.911	14769
348.997	17242
349.083	36514
349.168	11294
349.254	6197
349.340	6055
349.425	6321
349.511	6267
349.597	7003
349.682	9471
349.768	23064
349.854	17821
349.939	5795
350.025	6087
350.110	5727
350.196	5895
350.282	5324
350.367	4900
350.453	5671
350.538	5576
350.624	6265
350.709	6275
350.795	5065
350.880	6235
350.966	5803
351.051	5952
351.137	5733
351.222	5346
351.308	8573
351.393	22585
351.479	10148
351.564	5525
351.649	5423
351.735	5105
351.820	5652
351.906	5456
351.991	6152
352.076	12579
352.162	23181
352.247	7616
352.332	5844
352.418	6723
352.503	8019
352.588	24003
352.673	28347
352.759	8523
352.844	6582
352.929	5626
353.014	6814
353.100	5862
353.185	7805
353.270	8977
353.355	9796
353.441	5895
353.526	5422
353.611	7276
353.696	10197
353.781	7970
353.866	5073
353.952	6272
354.037	7521
354.122	14351
354.207	13799
354.292	7519
354.377	5267
354.462	5822
354.547	5860
354.632	5687
354.717	6565
354.802	8776
354.887	6191
354.972	4667
355.057	5259
355.142	4786
355.227	5876
355.312	6547
355.397	9697
355.482	19299
355.567	14720
355.652	9349
355.737	10411
355.822	23084
355.907	28513
355.991	8373
356.076	6323
356.161	5891
356.246	6152
356.331	6622
356.416	8489
356.501	34293
356.585	52325
356.670	10903
356.755	8628
356.840	9185
356.924	22169
357.009	88810
357.094	50709
357.179	11315
357.263	9429
357.348	7966
357.433	8619
357.517	7281
357.602	7288
357.687	6833
357.771	7326
357.856	10883
357.941	11037
358.025	18469
358.110	87067
358.195	59866
358.279	11364
358.364	8752
358.448	15033
358.533	44693
358.617	39807
358.702	35829
358.787	18966
358.871	10189
358.956	10680
359.040	7091
359.125	6471
359.209	6228
359.294	8116
359.378	15405
359.462	13934
359.547	8017
359.631	6089
359.716	6260
359.800	6586
359.885	7278
359.969	6374
360.053	6340
360.138	6251
360.222	6740
360.306	9781
360.391	9548
360.475	9395
360.559	17475
360.644	18025
360.728	18555
360.812	19677
360.896	63222
360.981	31724
361.065	17207
361.149	8965
361.233	8459
361.318	7966
361.402	8332
361.486	8788
361.570	8603
361.654	9129
361.739	12510
361.823	35108
361.907	71213
361.991	22869
362.075	15333
362.159	24695
362.243	32894
362.327	67263
362.411	127361
362.495	63549
362.580	25767
362.664	21156
362.748	22944
362.832	31351
362.916	59959
363.000	162583
363.084	305156
363.168	193829
363.252	59564
363.336	27165
363.420	21626
363.503	31855
363.587	45437
363.671	19043
363.755	15549
363.839	18847
363.923	17634
364.007	22268
364.091	29586
364.175	40960
364.258	97003
364.342	195185
364.426	378821
364.510	269533
364.594	84652
364.677	40884
364.761	61434
364.845	59617
364.929	22754
365.013	18662
365.096	15160
365.180	17245
365.264	15754
365.347	43427
365.431	30025
365.515	11337
365.598	9125
365.682	8880
365.766	9682
365.849	11549
365.933	9606
366.017	9592
366.100	10274
366.184	8273
366.267	8382
366.351	8060
366.435	7730
366.518	8033
366.602	7696
366.685	7943
366.769	8271
366.852	9450
366.936	12282
367.019	10043
367.103	8785
367.186	11143
367.270	9233
367.353	8881
367.436	9697
367.520	9651
367.603	10408
367.687	11022
367.770	13913
367.853	12420
367.937	17584
368.020	34817
368.104	13875
368.187	10346
368.270	13698
368.353	13699
368.437	11509
368.520	13001
368.603	13193
368.687	17150
368.770	40312
368.853	16780
368.936	10480
369.020	10983
369.103	7821
369.186	7408
369.269	7343
369.352	8818
369.436	11636
369.519	8931
369.602	7285
369.685	7258
369.768	6967
369.851	7292
369.934	6260
370.018	6538
370.101	8958
370.184	10204
370.267	7428
370.350	11667
370.433	14991
370.516	30955
370.599	70614
370.682	36423
370.765	20803
370.848	25195
370.931	42790
371.014	25574
371.097	8267
371.180	7245
371.263	5979
371.346	5674
371.429	5784
371.511	5172
371.594	7217
371.677	9117
371.760	10217
371.843	10007
371.926	29061
372.009	79656
372.091	36317
372.174	16201
372.257	39204
372.340	24197
372.423	12028
372.505	14228
372.588	9665
372.671	12931
372.754	40112
372.836	31661
372.919	13389
373.002	25495
373.085	14606
373.167	10013
373.250	18254
373.332	40605
373.415	49572
373.498	107417
373.580	60178
373.663	76432
373.746	128383
373.828	33913
373.911	13689
373.993	12454
374.076	23171
374.159	28922
374.241	15112
374.324	34314
374.406	34735
374.489	28443
374.571	85003
374.654	54406
374.736	21427
374.819	50799
374.901	74760
374.983	93668
375.066	29336
375.148	14849
375.231	22502
375.313	44119
375.395	25512
375.478	13616
375.560	11421
375.643	13171
375.725	19588
375.807	60929
375.890	61343
375.972	19241
376.054	13715
376.136	13577
376.219	11560
376.301	17973
376.383	58464
376.465	35997
376.548	15743
376.630	18382
376.712	46287
376.794	36415
376.877	8208
376.959	6619
377.041	6723
377.123	7753
377.205	9884
377.287	6408
377.369	6839
377.452	7787
377.534	7289
377.616	6114
377.698	6971
377.780	6255
377.862	7105
377.944	7106
378.026	6862
378.108	6450
378.190	6300
378.272	6515
378.354	6279
378.436	6068
378.518	6189
378.600	11392
378.682	13429
378.764	23614
378.846	28039
378.928	9579
379.010	10946
379.091	10149
379.173	6739
379.255	6203
379.337	7102
379.419	12337
379.501	36011
379.583	23740
379.664	7636
379.746	10133
379.828	23124
379.910	36221
379.991	37527
380.073	12101
380.155	7570
380.237	7230
380.318	5781
380.400	5903
380.482	7970
380.564	10619
380.645	10278
380.727	10698
380.809	9241
380.890	7222
380.972	6951
381.053	6147
381.135	6558
381.217	9692
381.298	26779
381.380	21002
381.461	12258
381.543	39528
381.624	70673
381.706	21339
381.787	9863
381.869	10549
381.951	18320
382.032	72005
382.113	66275
382.195	17181
382.276	10797
382.358	15614
382.439	41030
382.521	48034
382.602	76671
382.684	42806
382.765	48968
382.846	57886
382.928	40961
383.009	31385
383.090	17591
383.172	43534
383.253	91373
383.334	47111
383.416	59856
383.497	45615
383.578	15090
383.659	16442
383.741	38784
383.822	123958
383.903	96365
383.984	38133
384.066	76975
384.147	67219
384.228	21608
384.309	14719
384.390	15720
384.471	13064
384.553	12049
384.634	11731
384.715	12294
384.796	9259
384.877	9980
384.958	20985
385.039	36121
385.120	18028
385.201	10749
385.282	10340
385.363	10754
385.444	11426
385.525	15512
385.606	38282
385.687	43606
385.768	17299
385.849	14972
385.930	34988
386.011	73062
386.092	33484
386.173	13862
386.254	12024
386.335	11939
386.416	11959
386.496	18919
386.577	33762
386.658	19456
386.739	13059
386.820	13421
386.901	12090
386.981	14647
387.062	15759
387.143	19013
387.224	34209
387.304	44117
387.385	27784
387.466	22951
387.547	25993
387.627	27079
387.708	28456
387.789	50646
387.869	72034
387.950	35569
388.031	17050
388.111	13858
388.192	15837
388.273	17326
388.353	15577
388.434	13206
388.514	15316
388.595	38200
388.676	60418
388.756	36819
388.837	27208
388.917	25608
388.998	12830
389.078	11085
389.159	11525
389.239	10407
389.320	11912
389.400	11302
389.480	13647
389.561	30030
389.641	25807
389.722	11878
389.802	13354
389.883	15947
389.963	33440
390.043	29267
390.124	13291
390.204	14724
390.284	31338
390.365	28894
390.445	20862
390.525	51612
390.605	66196
390.686	28749
390.766	14905
390.846	11988
390.927	10265
391.007	11116
391.087	12081
391.167	11564
391.247	11728
391.328	12639
391.408	13771
391.488	14954
391.568	12854
391.648	14293
391.728	17108
391.808	15982
391.888	17154
391.969	22927
392.049	37739
392.129	27202
392.209	25268
392.289	43939
392.369	38596
392.449	29500
392.529	29225
392.609	30739
392.689	34612
392.769	54800
392.849	66689
392.929	61374
393.009	95298
393.089	130059
393.169	185205
393.248	397849
393.328	841483
393.408	962851
393.488	590912
393.568	260205
393.648	134427
393.728	85352
393.807	61177
393.887	49087
393.967	41759
394.047	38589
394.127	37932
394.206	45847
394.286	92996
394.366	305368
394.446	428096
394.525	174160
394.605	56760
394.685	35945
394.764	34626
394.844	49477
394.924	65279
395.003	35372
395.083	22186
395.163	20525
395.242	18809
395.322	19319
395.402	18404
395.481	21781
395.561	26032
395.640	59683
395.720	118011
395.799	94637
395.879	62883
395.958	58373
396.038	131589
396.117	395437
396.197	536641
396.276	254805
396.356	100086
396.435	68580
396.515	66050
396.594	83538
396.673	143610
396.753	350387
396.832	768847
396.912	751081
396.991	331699
397.070	127146
397.150	72899
397.229	54837
397.308	71691
397.388	151680
397.467	102314
397.546	34508
397.625	22842
397.705	22155
397.784	19272
397.863	17123
397.942	15134
398.022	14711
398.101	16089
398.180	30794
398.259	25149
398.338	13405
398.417	11734
398.497	10780
398.576	10373
398.655	9680
398.734	10040
398.813	9032
398.892	12610
398.971	28363
399.050	25455
399.129	9208
399.208	8211
399.287	7846
399.366	7180
399.445	7352
399.524	7230
399.603	6012
399.682	8099
399.761	11900
399.840	28878
399.919	33527
399.998	10324
400.077	7565
400.156	5504
400.235	7972
400.313	6630
400.392	6543
400.471	12896
400.550	25644
400.629	12870
400.708	7404
400.786	5963
400.865	8239
400.944	10064
401.023	9192
401.102	5292
401.180	5300
401.259	5456
401.338	5103
401.416	5535
401.495	5611
401.574	5984
401.652	5131
401.731	6128
401.810	6134
401.888	5409
401.967	4123
402.046	5559
402.124	5460
402.203	6008
402.281	5559
402.360	5141
402.438	8743
402.517	9269
402.596	6126
402.674	5564
402.753	5074
402.831	4687
402.910	5677
402.988	9452
403.066	28854
403.145	28965
403.223	12056
403.302	27951
403.380	27203
403.459	22987
403.537	15369
403.615	8546
403.694	5460
403.772	7245
403.850	6574
403.929	5535
404.007	5123
404.085	6721
404.164	7528
404.242	6856
404.320	5594
404.398	7687
404.477	11280
404.555	50625
404.633	70104
404.711	18090
404.789	6452
404.868	5604
404.946	5111
405.024	5271
405.102	4695
405.180	4407
405.258	3301
405.336	4891
405.415	3706
405.493	5980
405.571	6095
405.649	4679
405.727	4301
405.805	7145
405.883	7252
405.961	6869
406.039	5624
406.117	4513
406.195	6265
406.273	10533
406.351	47296
406.429	45944
406.507	9396
406.585	4850
406.663	4660
406.740	5201
406.818	5326
406.896	3810
406.974	4193
407.052	5508
407.130	22620
407.208	50245
407.285	18555
407.363	4987
407.441	5202
407.519	4582
407.596	5016
407.674	6864
407.752	13356
407.830	17567
407.907	9415
407.985	5155
408.063	4496
408.141	4053
408.218	4998
408.296	5214
408.373	5763
408.451	6387
408.529	5995
408.606	5538
408.684	6501
408.762	6018
408.839	5935
408.917	7168
408.994	7364
409.072	8699
409.149	10540
409.227	17871
409.304	28450
409.382	31368
409.459	32985
409.537	44713
409.614	43764
409.692	33741
409.769	29874
409.846	42144
409.924	57258
410.001	46740
410.079	31259
410.156	21073
410.233	16920
410.311	13823
410.388	11047
410.465	11445
410.543	11630
410.620	10409
410.697	9291
410.775	10422
410.852	9869
410.929	10907
411.006	13358
411.083	10722
411.161	13051
411.238	14643
411.315	10455
411.392	7648
411.469	8294
411.547	9618
411.624	7098
411.701	7078
411.778	6512
411.855	8371
411.932	6877
412.009	4978
412.086	5947
412.163	6113
412.240	4890
412.317	6306
412.394	6405
412.471	5236
412.548	3653
412.625	4500
412.702	5079
412.779	6903
412.856	8513
412.933	4517
413.010	3938
413.087	4637
413.164	10954
413.241	22867
413.318	9961
413.395	5422
413.471	6653
413.548	5487
413.625	4708
413.702	4026
413.779	4933
413.855	3546
413.932	3979
414.009	3483
414.086	4155
414.162	4292
414.239	4944
414.316	9075
414.393	25898
414.469	17208
414.546	3726
414.623	4302
414.699	3654
414.776	4364
414.853	3662
414.929	3573
415.006	3375
415.082	3552
415.159	3971
415.236	3864
415.312	4171
415.389	4145
415.465	6015
415.542	4974
415.618	3502
415.695	5058
415.771	4698
415.848	3189
415.924	3680
416.000	3522
416.077	3793
416.153	2574
416.230	2678
416.306	3104
416.383	2993
416.459	3364
416.535	3323
416.612	2807
416.688	3882
416.764	3122
416.841	2835
416.917	3007
416.993	3168
417.069	4630
417.146	4296
417.222	8465
417.298	6272
417.374	4947
417.451	4073
417.527	3991
417.603	4531
417.679	4136
417.755	3691
417.831	3380
417.908	4077
417.984	3775
418.060	2446
418.136	4160
418.212	6792
418.288	5128
418.364	3953
418.440	4259
418.516	4193
418.592	5005
418.668	6947
418.744	9161
418.820	9588
418.896	5501
418.972	3947
419.048	4411
419.124	6445
419.200	6431
419.276	5413
419.352	4335
419.428	4557
419.504	5049
419.579	5466
419.655	5650
419.731	5519
419.807	7513
419.883	11468
419.959	12246
420.034	7098
420.110	7531
420.186	17200
420.262	22744
420.337	10139
420.413	8508
420.489	9002
420.565	8708
420.640	9175
420.716	10329
420.792	9031
420.867	10746
420.943	11161
421.019	13086
421.094	13255
421.170	12876
421.245	13212
421.321	14893
421.397	16401
421.472	18945
421.548	23299
421.623	26737
421.699	25170
421.774	27319
421.850	29927
421.925	36114
422.001	41813
422.076	48768
422.152	59733
422.227	79645
422.302	104708
422.378	146533
422.453	221624
422.529	339547
422.604	437075
422.679	360697
422.755	362644
422.830	391975
422.905	294019
422.981	202406
423.056	142394
423.131	106117
423.207	81121
423.282	65006
423.357	53884
423.432	46298
423.508	39427
423.583	36174
423.658	34691
423.733	27157
423.808	24744
423.883	24404
423.959	24717
424.034	28364
424.109	28994
424.184	20985
424.259	16341
424.334	15081
424.409	12538
424.484	12208
424.559	11391
424.634	10812
424.709	10384
424.784	11404
424.859	9748
424.934	9770
425.009	14806
425.084	25087
425.159	17238
425.234	8106
425.309	6700
425.384	7520
425.459	7775
425.534	7723
425.609	5821
425.683	6180
425.758	6307
425.833	6294
425.908	7060
425.983	8379
426.058	19704
426.132	15709
426.207	6645
426.282	7176
426.357	5829
426.431	5593
426.506	5493
426.581	4926
426.655	5377
426.730	4435
426.805	5307
426.879	5644
426.954	4372
427.029	6006
427.103	14018
427.178	44011
427.253	34976
427.327	8405
427.402	4727
427.476	6925
427.551	6315
427.625	4654
427.700	5301
427.774	4507
427.849	5949
427.923	5182
427.998	5975
428.072	7104
428.147	12240
428.221	39347
428.296	151911
428.370	145890
428.444	31066
428.519	10627
428.593	9362
428.667	10747
428.742	11191
428.816	18545
428.890	71531
428.965	174769
429.039	77459
429.113	16897
429.188	9851
429.262	6715
429.336	6579
429.410	11548
429.485	11622
429.559	8729
429.633	9629
429.707	9101
429.781	15945
429.855	70748
429.930	165650
430.004	77052
430.078	37324
430.152	60570
430.226	178443
430.300	269949
430.374	93659
430.448	23927
430.522	16449
430.596	27496
430.670	37173
430.744	105818
430.818	199397
430.892	67168
430.966	12499
431.040	7287
431.114	5310
431.188	4530
431.262	4324
431.336	3983
431.410	5929
431.484	7887
431.557	10014
431.631	6397
431.705	9499
431.779	28496
431.853	132048
431.927	157243
432.000	34880
432.074	8252
432.148	4713
432.222	4705
432.295	3975
432.369	3275
432.443	3522
432.516	11779
432.590	41684
432.664	28776
432.737	4485
432.811	3143
432.885	1368
432.958	2277
433.032	2542
433.106	2155
433.179	2196
433.253	2516
433.326	2173
433.400	2344
433.473	2312
433.547	1564
433.620	2151
433.694	2952
433.767	4211
433.841	2245
433.914	2564
433.988	2390
434.061	2848
434.134	2568
434.208	2656
434.281	2836
434.355	1961
434.428	3199
434.501	2239
434.575	2070
434.648	1966
434.721	1333
434.795	2002
434.868	2556
434.941	2085
435.014	2688
435.088	3297
435.161	3589
435.234	4500
435.307	7524
435.381	7538
435.454	10452
435.527	19073
435.600	26343
435.673	22582
435.746	16040
435.819	12209
435.892	9292
435.966	6468
436.039	4867
436.112	5336
436.185	4143
436.258	2946
436.331	2374
436.404	3639
436.477	2620
436.550	2501
436.623	2786
436.696	2182
436.769	2968
436.842	3547
436.915	2445
436.987	2636
437.060	3066
437.133	2636
437.206	1759
437.279	2549
437.352	1929
437.425	2467
437.498	2832
437.570	3801
437.643	5800
437.716	2363
437.789	1849
437.861	3750
437.934	10454
438.007	8561
438.080	2816
438.152	2336
438.225	4019
438.298	13197
438.370	58711
438.443	45054
438.516	13603
438.588	4775
438.661	2423
438.734	1940
438.806	1975
438.879	2952
438.951	3081
439.024	6793
439.096	4499
439.169	1709
439.241	2447
439.314	1262
439.386	3028
439.459	3625
439.531	4897
439.604	4139
439.676	1884
439.749	2227
439.821	1176
439.893	2242
439.966	2255
440.038	2510
440.110	3560
440.183	2631
440.255	2149
440.327	2892
440.400	6536
440.472	30176
440.544	38835
440.617	8777
440.689	6141
440.761	5189
440.833	8654
440.905	8576
440.978	3261
441.050	1927
441.122	3227
441.194	2736
441.266	2753
441.338	2963
441.411	3509
441.483	9431
441.555	22052
441.627	10639
441.699	4448
441.771	4259
441.843	3769
441.915	3775
441.987	3867
442.059	4380
442.131	5539
442.203	6728
442.275	7887
442.347	13159
442.419	21707
442.491	80298
442.563	252074
442.635	181768
442.706	42581
442.778	20256
442.850	10756
442.922	8681
442.994	8623
443.066	9849
443.137	12123
443.209	13887
443.281	18627
443.353	33844
443.425	95970
443.496	320204
443.568	454094
443.640	272918
443.711	74250
443.783	24930
443.855	14841
443.926	11133
443.998	9409
444.070	7634
444.141	7179
444.213	7278
444.285	7101
444.356	6685
444.428	7090
444.499	6449
444.571	6525
444.642	5816
444.714	6016
444.785	7321
444.857	8460
444.928	10008
445.000	10939
445.071	11530
445.143	15532
445.214	19333
445.285	30672
445.357	63399
445.428	190723
445.500	440798
445.571	423959
445.642	323970
445.714	142836
445.785	47760
445.856	21043
445.928	14365
445.999	11182
446.070	9935
446.141	8534
446.213	8223
446.284	6039
446.355	5217
446.426	4326
446.497	3733
446.569	3990
446.640	4851
446.711	5252
446.782	3417
446.853	2946
446.924	2966
446.995	2940
447.066	3509
447.138	3690
447.209	2702
447.280	2234
447.351	1430
447.422	1789
447.493	1962
447.564	2914
447.635	2803
447.706	2009
447.777	1608
447.847	2160
447.918	1250
447.989	1671
448.060	2213
448.131	2797
448.202	4030
448.273	4083
448.344	2154
448.414	1719
448.485	1797
448.556	1171
448.627	1358
448.698	2124
448.768	737
448.839	591
448.910	1575
448.981	2921
449.051	2127
449.122	1996
449.193	1391
449.263	1303
449.334	991
449.405	1695
449.475	3704
449.546	4185
449.616	3648
449.687	4379
449.758	2200
449.828	2764
449.899	1516
449.969	2009
450.040	2135
450.110	1711
450.181	2002
450.251	771
450.322	1521
450.392	2215
450.463	1758
450.533	2068
450.604	1377
450.674	2585
450.744	2511
450.815	3036
450.885	3840
450.955	3292
451.026	3432
451.096	2622
451.166	3118
451.237	3491
451.307	7424
451.377	6304
451.447	2424
451.518	1913
451.588	2540
451.658	2637
451.728	3126
451.799	4854
451.869	7453
451.939	3525
452.009	2268
452.079	2983
452.149	2151
452.219	2215
452.289	5382
452.360	6647
452.430	4122
452.500	4629
452.570	6681
452.640	13310
452.710	37329
452.780	59845
452.850	36461
452.920	18204
452.990	8864
453.060	5669
453.129	3919
453.199	3975
453.269	5026
453.339	15009
453.409	25039
453.479	15843
453.549	25045
453.619	27944
453.688	17443
453.758	4563
453.828	2634
453.898	2578
453.968	1906
454.037	2535
454.087	2377
454.107	2289
454.168	2538
454.177	2546
454.247	2289
454.249	2279
454.316	1361
454.330	1508
454.386	1927
454.411	2293
454.456	2721
454.492	3873
454.525	4824
454.574	4070
454.595	3760
454.655	2554
454.665	2326
454.734	2637
454.736	2681
454.804	2808
454.817	3390
454.873	5275
454.898	5989
454.943	7178
454.979	5612
455.013	4220
455.060	3274
455.082	2890
455.141	3610
455.152	3673
455.221	4068
455.222	4161
455.291	6307
455.303	6153
455.360	5763
455.384	4972
455.430	3453
455.465	3723
455.499	3902
455.546	4978
455.569	5208
455.627	4995
455.638	5023
455.707	4093
455.708	4121
455.777	3346
455.789	3377
455.846	3356
455.869	3345
455.916	3422
455.950	3791
455.985	3937
456.031	3311
456.054	3053
456.112	3326
456.124	3334
456.193	3550
456.193	3520
456.262	3985
456.274	4100
456.332	4321
456.355	4011
456.401	3419
456.436	3890
456.470	4178
456.516	3900
456.540	3783
456.597	3905
456.609	3906
456.678	4453
456.678	4427
456.747	4005
456.759	4020
456.817	3681
456.840	3685
456.886	3940
456.920	4459
456.955	4843
457.001	4752
457.024	4644
457.082	4601
457.093	4599
457.162	5489
457.163	5520
457.232	5965
457.243	5971
457.301	5671
457.324	5461
457.370	5228
457.405	5845
457.439	6489
457.485	7076
457.508	7508
457.566	8603
457.577	9104
457.646	13872
457.647	13981
457.715	27395
457.727	30358
457.784	51066
457.808	64578
457.853	78505
457.889	101147
457.922	107245
457.969	77966
457.991	79886
458.050	82441
458.060	83867
458.129	131265
458.130	133461
458.198	146519
458.211	135680
458.267	95295
458.292	66815
458.336	39328
458.372	35432
458.405	43663
458.453	63286
458.474	79241
458.533	134938
458.543	138550
458.611	210347
458.614	212981
458.680	163426
458.694	131771
458.749	67044
458.775	46429
458.818	22725
458.855	17399
458.887	13505
458.936	11128
458.955	10500
459.016	9791
459.024	9659
459.093	8352
459.097	8323
459.162	7820
459.177	7880
459.230	8802
459.257	9120
459.299	9037
459.338	9235
459.368	9393
459.418	9665
459.437	9405
459.499	8498
459.505	8475
459.574	7726
459.579	7715
459.643	7490
459.659	7416
459.711	7176
459.740	7239
459.780	7483
459.820	7699
459.849	7665
459.900	7659
459.917	7663
459.981	7626
459.986	7584
460.054	7201
460.061	7183
460.123	7738
460.141	7885
460.191	7865
460.222	7880
460.260	8049
460.302	8467
460.328	8316
460.382	7875
460.397	7893
460.462	7581
460.465	7652
460.534	10100
460.543	10356
460.602	15771
460.623	17959
460.671	24811
460.703	30773
460.739	27684
460.783	25408
460.808	24186
460.864	11606
460.876	10555
460.944	8946
460.945	8907
461.013	8304
461.024	8220
461.081	8090
461.104	8154
461.150	8368
461.184	8295
461.218	8235
461.264	8322
461.286	8330
461.345	8065
461.355	7944
461.423	7733
461.425	7722
461.491	8103
461.505	8276
461.559	9841
461.585	10410
461.628	12050
461.665	13691
461.696	14182
461.745	15520
461.764	14164
461.825	9231
461.832	9371
461.901	9236
461.905	9298
461.969	8476
461.985	8277
462.037	8544
462.065	8654
462.105	8952
462.145	9352
462.173	9974
462.225	11165
462.241	11569
462.305	13053
462.310	12901
462.378	11208
462.385	10876
462.446	9739
462.465	9516
462.514	9494
462.545	9524
462.582	9182
462.625	8877
462.650	8904
462.705	8558
462.718	8575
462.785	9041
462.786	9045
462.854	8912
462.865	8883
462.922	9917
462.945	10384
462.990	9601
463.025	8895
463.058	8933
463.104	8954
463.126	8810
463.184	8365
463.194	8388
463.262	8680
463.264	8690
463.330	8955
463.344	8961
463.398	9182
463.424	9126
463.466	8860
463.504	8970
463.533	9037
463.583	8935
463.601	9187
463.663	9919
463.669	9921
463.737	10055
463.743	10043
463.805	12054
463.823	12719
463.873	15209
463.903	16576
463.940	16798
463.982	17265
464.008	15285
464.062	10775
464.076	10628
464.142	9431
464.144	9427
464.211	9133
464.221	9131
464.279	9356
464.301	9375
464.347	9773
464.381	10078
464.414	10133
464.461	10127
464.482	10220
464.540	10608
464.550	10709
464.617	11012
464.620	11011
464.685	13026
464.699	13473
464.753	17245
464.779	19155
464.820	21571
464.859	23869
464.888	22244
464.938	19211
464.956	18930
465.018	17393
465.023	17393
465.091	17202
465.098	17173
465.158	17452
465.177	17468
465.226	16657
465.257	16175
465.293	16668
465.336	17286
465.361	17779
465.416	18546
465.428	18731
465.495	19834
465.496	19891
465.563	24033
465.575	24682
465.631	25519
465.654	26040
465.698	21509
465.734	17441
465.765	17007
465.813	16135
465.833	16014
465.893	15802
465.900	15820
465.968	15774
465.972	15742
466.035	15536
466.052	15455
466.102	15361
466.131	15286
466.170	15727
466.210	16096
466.237	15950
466.290	15602
466.304	15855
466.369	16776
466.372	16801
466.439	16734
466.449	16693
466.506	16626
466.528	16533
466.573	18741
466.607	20372
466.641	23641
466.687	28100
466.708	29152
466.766	31867
466.775	30500
466.842	19885
466.845	19340
466.909	17330
466.925	16817
466.977	17568
467.004	17963
467.044	19679
467.083	21314
467.111	24212
467.163	29531
467.178	30584
467.242	34673
467.245	34474
467.312	28884
467.321	28083
467.379	26594
467.400	25977
467.446	26726
467.480	27177
467.559	25749
467.638	24946
467.717	25170
467.796	25556
467.875	25685
467.955	25944
468.034	29767
468.113	40773
468.192	50570
468.271	37007
468.350	43786
468.429	58643
468.508	62613
468.588	42284
468.667	29454
468.746	26614
468.825	23522
468.904	22272
468.983	23340
469.062	25032
469.141	25335
469.220	21860
469.299	22681
469.378	26044
469.456	33931
469.535	29291
469.614	27195
469.693	25950
469.772	26825
469.851	29752
469.930	25058
470.009	25108
470.088	24043
470.166	24979
470.245	24922
470.324	24162
470.403	23425
470.482	23225
470.560	22858
470.639	22820
470.718	24738
470.797	21804
470.875	23419
470.954	23818
471.033	24431
471.111	20709
471.190	20877
471.269	21008
471.347	20769
471.426	21945
471.505	24716
471.583	29225
471.662	27156
471.740	24345
471.819	24041
471.898	22089
471.976	22068
472.055	21939
472.133	23652
472.212	25195
472.290	23598
472.369	21527
472.447	20707
472.526	21220
472.604	21711
472.683	21518
472.761	20827
472.839	22188
472.918	20469
472.996	20943
473.075	21384
473.153	22290
473.231	19792
473.310	22334
473.388	20319
473.466	22243
473.545	24064
473.623	27059
473.701	25323
473.780	23004
473.858	21825
473.936	22369
474.014	21201
474.093	22611
474.171	23512
474.249	24324
474.327	21244
474.405	19585
474.484	19701
474.562	19039
474.640	18919
474.718	19092
474.796	19188
474.874	18829
474.952	18313
475.030	18266
475.108	17345
475.187	19259
475.265	18282
475.343	21614
475.421	23172
475.499	20052
475.577	19436
475.655	20424
475.733	24193
475.811	29796
475.889	27853
475.966	24191
476.044	18921
476.122	18147
476.200	20047
476.278	18837
476.356	16770
476.434	19011
476.512	18261
476.590	19866
476.667	19311
476.745	16702
476.823	17842
476.901	17216
476.979	17898
477.056	17597
477.134	17625
477.212	17486
477.290	17150
477.367	16632
477.445	16875
477.523	16532
477.601	16497
477.678	16840
477.756	17471
477.834	17662
477.911	16094
477.989	16138
478.066	14969
478.144	16356
478.222	18068
478.299	19776
478.377	19884
478.454	16261
478.532	14864
478.609	16607
478.687	16322
478.764	16147
478.842	15431
478.919	16654
478.997	15339
479.074	14545
479.152	15163
479.229	16692
479.307	13817
479.384	14499
479.461	14429
479.539	15021
479.616	15964
479.694	14475
479.771	14417
479.848	16118
479.926	15862
480.003	16281
480.080	14586
480.157	14733
480.235	14244
480.312	14885
480.389	14033
480.467	16933
480.544	18708
480.621	17088
480.698	16912
480.775	18172
480.853	15945
480.930	14271
481.007	14742
481.084	14708
481.161	16713
481.238	15726
481.315	14053
481.392	13720
481.470	14966
481.547	14364
481.624	14985
481.701	14846
481.778	13766
481.855	16957
481.932	17217
482.009	23331
482.086	19976
482.163	19667
482.240	23981
482.317	26261
482.393	21881
482.470	19032
482.547	17619
482.624	17217
482.701	16680
482.778	15979
482.855	14578
482.932	16936
483.009	16293
483.085	19533
483.162	22478
483.239	22363
483.316	23491
483.393	22666
483.469	19546
483.546	17312
483.623	16483
483.699	14861
483.776	15495
483.853	16050
483.930	18296
484.006	28845
484.083	45170
484.160	58899
484.236	105286
484.313	79134
484.389	59988
484.466	53922
484.543	56321
484.619	63498
484.696	65214
484.772	56841
484.849	50826
484.925	47482
485.002	46900
485.078	46830
485.155	46977
485.231	43049
485.308	42895
485.384	42421
485.461	44039
485.537	47279
485.614	48387
485.690	39768
485.766	39146
485.843	40203
485.919	42769
485.995	43304
486.072	37509
486.148	37456
486.224	36813
486.301	37790
486.377	38436
486.453	41258
486.530	44066
486.606	57968
486.682	63571
486.758	56564
486.835	53289
486.911	49013
486.987	55565
487.063	57446
487.139	63934
487.215	56742
487.292	47900
487.368	48071
487.444	55255
487.520	69194
487.596	93059
487.672	199336
487.748	552136
487.824	852649
487.900	284193
487.976	87431
488.052	59322
488.128	55639
488.204	47282
488.280	40702
488.356	41485
488.432	48004
488.508	54511
488.584	38420
488.660	34959
488.736	36455
488.812	35371
488.888	41481
488.964	45318
489.039	55893
489.115	68705
489.191	50018
489.267	34352
489.343	33359
489.418	31336
489.494	33992
489.570	30299
489.646	32445
489.722	30901
489.797	33054
489.873	34677
489.949	43566
490.024	41492
490.100	29928
490.176	30225
490.251	30259
490.327	33965
490.403	27314
490.478	30459
490.554	26664
490.629	27647
490.705	25236
490.781	28042
490.856	25354
490.932	29197
491.007	26088
491.083	28294
491.158	24700
491.234	26872
491.309	31795
491.385	33079
491.460	24493
491.536	23578
491.611	23949
491.686	23248
491.762	28095
491.837	33229
491.913	48429
491.988	54245
492.063	68465
492.139	28024
492.214	25719
492.289	21507
492.365	20211
492.440	23594
492.515	19657
492.590	22949
492.666	18804
492.741	21858
492.816	24095
492.891	19096
492.967	19537
493.042	17021
493.117	19671
493.192	18063
493.267	19198
493.342	21189
493.418	19581
493.493	19208
493.568	15841
493.643	17820
493.718	19748
493.793	18825
493.868	24270
493.943	17628
494.018	18573
494.093	16197
494.168	16676
494.243	15912
494.318	15546
494.393	15641
494.468	16136
494.543	14474
494.618	16869
494.693	16450
494.768	14701
494.842	16524
494.917	14245
494.992	15902
495.067	14626
495.142	13958
495.217	15890
495.292	13271
495.366	16284
495.441	16578
495.516	17782
495.591	22384
495.665	49000
495.740	97679
495.815	46710
495.890	16489
495.964	13871
496.039	15871
496.114	14618
496.188	14502
496.263	16456
496.338	13658
496.412	14833
496.487	15937
496.561	14715
496.636	16735
496.710	15556
496.785	14173
496.860	16784
496.934	13967
497.009	13176
497.083	14206
497.158	13079
497.232	14752
497.307	16440
497.381	14307
497.455	14036
497.530	17313
497.604	14724
497.679	13473
497.753	18151
497.827	20121
497.902	16605
497.976	22674
498.050	51389
498.125	162843
498.199	160919
498.273	24960
498.348	16635
498.422	16092
498.496	16301
498.570	14493
498.645	13731
498.719	14270
498.793	14630
498.867	20352
498.941	30012
499.016	69464
499.090	173312
499.164	62395
499.238	15073
499.312	13223
499.386	16634
499.460	15781
499.534	12940
499.609	15091
499.683	18274
499.757	18684
499.831	36739
499.905	112221
499.979	102480
500.053	20081
500.127	20821
500.201	17396
500.275	13305
500.349	13405
500.422	14861
500.496	17571
500.570	32590
500.644	64956
500.718	112112
500.792	30085
500.866	14537
500.940	16227
501.013	15121
501.087	14446
501.161	20131
501.235	25379
501.309	39769
501.382	94654
501.456	82452
501.530	23393
501.603	33438
501.677	18760
501.751	12298
501.825	15358
501.898	20718
501.972	41364
502.046	27231
502.119	13704
502.193	22799
502.266	42293
502.340	23777
502.413	22733
502.487	36231
502.561	22851
502.634	13642
502.708	14357
502.781	13432
502.855	11766
502.928	10905
503.002	11047
503.075	11411
503.149	11840
503.222	11938
503.295	12118
503.369	13671
503.442	16176
503.516	34396
503.589	67286
503.662	47751
503.736	25374
503.809	44439
503.882	47588
503.956	75225
504.029	130202
504.102	301530
504.175	466642
504.249	173213
504.322	55786
504.395	30709
504.468	21350
504.542	17178
504.615	14747
504.688	13259
504.761	11801
504.834	13211
504.907	14337
504.980	17355
505.053	13144
505.127	14726
505.200	15549
505.273	12785
505.346	9978
505.419	10711
505.492	10201
505.565	10299
505.638	9439
505.711	9636
505.784	9519
505.857	7949
505.930	9570
506.003	8117
506.076	10163
506.149	9802
506.221	10754
506.294	11195
506.367	19719
506.440	51614
506.513	29326
506.586	9984
506.659	9283
506.731	8759
506.804	8072
506.877	10675
506.950	9904
507.022	8284
507.095	8294
507.168	10477
507.241	8424
507.313	7937
507.386	8654
507.459	9686
507.531	9106
507.604	8362
507.677	8338
507.749	8052
507.822	12011
507.894	25964
507.967	36203
508.040	24802
508.112	19755
508.185	17461
508.257	15637
508.330	18413
508.402	16006
508.475	16130
508.547	15951
508.620	15242
508.692	17559
508.765	15325
508.837	14600
508.909	14395
508.982	13621
509.054	15560
509.127	13635
509.199	13240
509.271	13232
509.344	12296
509.416	13487
509.488	13376
509.560	13195
509.633	14069
509.705	13647
509.777	13700
509.849	15537
509.922	14100
509.994	12533
510.066	13961
510.138	19608
510.210	37528
510.283	34645
510.355	25668
510.427	22820
510.499	20972
510.571	19460
510.643	20566
510.715	23446
510.787	21713
510.859	19486
510.931	20193
511.003	22505
511.076	21670
511.148	18139
511.219	17682
511.291	20287
511.363	20227
511.435	18318
511.507	17607
511.579	18421
511.651	17036
511.723	15906
511.795	16343
511.867	15786
511.939	17090
512.010	20180
512.082	18477
512.154	16462
512.226	18530
512.298	27696
512.369	40223
512.441	29384
512.513	25755
512.585	22980
512.656	22494
512.728	21680
512.800	19889
512.871	21081
512.943	20266
513.015	19556
513.086	20280
513.158	20778
513.230	20312
513.301	21699
513.373	22506
513.444	19464
513.516	17948
513.588	17699
513.659	18509
513.731	20068
513.802	18094
513.874	24359
513.945	30989
514.016	19878
514.088	17923
514.159	19543
514.231	22108
514.302	33807
514.374	27781
514.445	24577
514.516	27072
514.588	22281
514.659	21423
514.730	25312
514.802	21970
514.873	18703
514.944	19594
515.016	19954
515.087	20403
515.158	21133
515.229	23079
515.301	17148
515.372	19275
515.443	16796
515.514	18073
515.585	16526
515.656	16926
515.728	17458
515.799	17180
515.870	16972
515.941	17688
516.012	19565
516.083	24685
516.154	25616
516.225	24302
516.296	22792
516.367	20293
516.438	19458
516.509	20988
516.580	25710
516.651	40680
516.722	95103
516.793	64959
516.864	22683
516.935	22874
517.006	22537
517.077	26557
517.148	43361
517.219	76352
517.289	121195
517.360	66394
517.431	31582
517.502	19178
517.573	19153
517.643	21371
517.714	23514
517.785	24709
517.856	20921
517.926	22999
517.997	22062
518.068	23412
518.138	24941
518.209	31736
518.280	63601
518.350	169501
518.421	97819
518.492	36553
518.562	41042
518.633	57286
518.703	96743
518.774	215093
518.845	552328
518.915	573233
518.986	155718
519.056	61317
519.127	51123
519.197	55485
519.268	73648
519.338	49996
519.408	24616
519.479	25771
519.549	21533
519.620	20137
519.690	17108
519.760	18288
519.831	17579
519.901	16268
519.971	15377
520.042	16106
520.112	15983
520.182	17229
520.253	18392
520.323	16413
520.393	17258
520.463	19090
520.534	14423
520.604	19213
520.674	16522
520.744	15513
520.814	19793
520.885	21317
520.955	28629
521.025	69457
521.095	34953
521.165	14745
521.235	14469
521.305	14171
521.375	14978
521.445	14524
521.515	16959
521.585	18419
521.655	16119
521.725	16286
521.795	16202
521.865	14510
521.935	16831
522.005	15578
522.075	13054
522.145	14007
522.215	14164
522.285	16144
522.355	17868
522.424	23189
522.494	21634
522.564	18252
522.634	26384
522.704	54584
522.774	29008
522.843	13768
522.913	12667
522.983	15371
523.053	14320
523.122	13903
523.192	16153
523.262	30179
523.331	31553
523.401	15147
523.471	13333
523.540	14096
523.610	12458
523.680	12878
523.749	13212
523.819	14420
523.888	13193
523.958	13955
524.027	14058
524.097	14658
524.166	13525
524.236	14094
524.305	13712
524.375	13468
524.444	13077
524.514	14735
524.583	15034
524.653	15278
524.722	16228
524.791	14173
524.861	15098
524.930	14078
524.999	15356
525.069	15869
525.138	14773
525.207	15719
525.277	15912
525.346	16174
525.415	15673
525.484	17189
525.554	17492
525.623	19885
525.692	21136
525.761	25326
525.830	31598
525.900	47767
525.969	84409
526.038	180555
526.107	374416
526.176	1016341
526.245	881755
526.314	259001
526.383	493194
526.452	772230
526.522	921301
526.591	962747
526.660	153455
526.729	75499
526.797	94397
526.867	178277
526.935	519510
527.004	1428233
527.073	1021784
527.142	125120
527.211	43107
527.280	32182
527.349	25803
527.418	19759
527.487	17741
527.555	16569
527.624	15873
527.693	14606
527.762	14418
527.831	14689
527.899	14539
527.968	13353
528.037	11964
528.106	14163
528.174	16973
528.243	15396
528.312	16388
528.380	18972
528.449	11709
528.518	12518
528.586	10079
528.655	11396
528.723	10600
528.792	11106
528.861	10677
528.929	10698
528.998	11103
529.066	10478
529.135	11236
529.203	11201
529.272	10241
529.340	12876
529.409	12399
529.477	11509
529.545	10967
529.614	13684
529.682	13648
529.751	13246
529.819	14825
529.887	14805
529.956	12651
530.024	13234
530.092	11445
530.161	12755
530.229	14640
530.297	13933
530.365	12225
530.434	12726
530.502	12445
530.570	12237
530.638	10586
530.707	13078
530.775	13775
530.843	12588
530.911	12000
530.979	13126
531.047	12625
531.115	13885
531.183	11459
531.252	12891
531.320	11653
531.388	12045
531.456	12613
531.524	13417
531.592	14212
531.660	14372
531.728	12964
531.796	13058
531.864	12384
531.932	12598
532.000	12292
532.067	14276
532.135	14500
532.203	15961
532.271	17228
532.339	19402
532.407	29148
532.475	24617
532.542	17945
532.610	19351
532.678	25241
532.746	52580
532.814	114902
532.881	40390
532.949	16664
533.017	15928
533.084	15627
533.152	14785
533.220	14951
533.287	14962
533.355	14994
533.423	14982
533.490	14692
533.558	15534
533.625	17308
533.693	18403
533.761	17288
533.828	17638
533.896	14903
533.963	20239
534.031	23275
534.098	29377
534.166	26106
534.233	21961
534.300	23947
534.368	23409
534.435	22598
534.503	24114
534.570	25107
534.637	30869
534.705	39317
534.772	58375
534.840	118865
534.907	419085
534.974	616404
535.041	85978
535.109	29626
535.176	24901
535.243	23092
535.310	22980
535.378	20710
535.445	21747
535.512	22983
535.579	21814
535.646	21731
535.714	24428
535.781	29904
535.848	27403
535.915	25737
535.982	24071
536.049	23288
536.116	24923
536.183	22891
536.250	22128
536.317	22998
536.384	24980
536.451	26649
536.518	27799
536.585	24315
536.652	27139
536.719	28124
536.786	26188
536.853	24231
536.920	28315
536.987	32539
537.053	34742
537.120	66768
537.187	69837
537.254	28098
537.321	26344
537.388	26239
537.454	25019
537.521	24965
537.588	25520
537.654	29388
537.721	33722
537.788	31609
537.855	27723
537.921	27237
537.988	27547
538.055	26003
538.121	24790
538.188	23897
538.254	25381
538.321	31440
538.388	29143
538.454	28513
538.521	29801
538.587	29221
538.654	28358
538.720	26390
538.787	27338
538.853	26794
538.920	27255
538.986	25287
539.053	24665
539.119	25425
539.185	26829
539.252	27271
539.318	31039
539.385	32485
539.451	34682
539.517	33082
539.583	33305
539.650	37020
539.716	60318
539.782	34960
539.849	27074
539.915	26988
539.981	26791
540.047	27842
540.114	26737
540.180	27901
540.246	30215
540.312	32154
540.378	35665
540.444	38979
540.510	38721
540.576	64982
540.643	38954
540.709	27634
540.775	28592
540.841	26906
540.907	28075
540.973	32619
541.039	32934
541.105	32756
541.171	30496
541.237	31415
541.303	31172
541.369	30840
541.435	32429
541.500	34840
541.566	29595
541.632	25644
541.698	27171
541.764	27945
541.830	27838
541.896	26888
541.961	27831
542.027	28677
542.093	29583
542.159	31981
542.224	31132
542.290	33726
542.356	36261
542.421	35363
542.487	28342
542.553	27661
542.618	29163
542.684	28535
542.750	28836
542.815	30118
542.881	35722
542.947	55934
543.012	54603
543.078	27831
543.143	25995
543.209	28446
543.274	28842
543.340	30491
543.405	36366
543.471	47893
543.536	32237
543.602	29448
543.667	28803
543.732	29053
543.798	28672
543.863	31511
543.928	29306
543.994	28956
544.059	29540
544.124	29945
544.190	31231
544.255	30979
544.320	30803
544.386	31578
544.451	33585
544.516	34335
544.581	36143
544.646	49607
544.712	66383
544.777	37240
544.842	32980
544.907	33059
544.972	33836
545.037	34216
545.102	34436
545.168	35698
545.233	36796
545.298	37082
545.363	39863
545.428	42330
545.493	45301
545.558	59427
545.623	45289
545.688	38029
545.753	39000
545.818	40067
545.883	43480
545.947	44644
546.012	44697
546.077	45508
546.142	49324
546.207	48585
546.272	52441
546.337	53876
546.401	54834
546.466	58440
546.531	58159
546.596	61192
546.661	63926
546.725	65756
546.790	68665
546.855	72902
546.919	81373
546.984	91114
547.049	96141
547.113	108412
547.178	122083
547.243	137852
547.307	158389
547.372	176770
547.436	179254
547.501	186516
547.565	200094
547.630	183848
547.695	175415
547.759	177132
547.823	179697
547.888	180367
547.952	187429
548.017	192186
548.081	197852
548.146	196705
548.210	201863
548.274	216716
548.339	213349
548.403	192167
548.468	181735
548.532	177885
548.596	183931
548.660	186861
548.725	202125
548.789	220269
548.853	215072
548.917	202063
548.982	198102
549.046	180444
549.110	164141
549.174	166240
549.238	190591
549.303	212640
549.367	219389
549.431	208717
549.495	196077
549.559	196882
549.623	222525
549.687	253650
549.751	247862
549.815	285862
549.879	296813
549.943	282910
550.007	292882
550.071	292298
550.135	265910
550.199	247190
550.263	243861
550.327	231300
550.391	234171
550.455	259656
550.519	277882
550.582	293848
550.646	330841
550.710	340873
550.774	331519
550.838	335400
550.901	345065
550.965	367013
551.029	382486
551.093	412861
551.156	448902
551.220	505175
551.284	580667
551.347	460584
551.411	377570
551.475	360109
551.538	360900
551.602	342296
551.666	320223
551.729	302202
551.793	290547
551.856	285535
551.920	280720
551.983	283361
552.047	280815
552.110	283679
552.174	281543
552.237	290765
552.301	272278
552.364	258324
552.428	252860
552.491	257696
552.554	266231
552.618	260475
552.681	268890
552.745	258784
552.808	262515
552.871	276008
552.934	272964
552.998	264210
553.061	258948
553.124	250544
553.187	243539
553.251	256428
553.314	256392
553.377	259522
553.440	273226
553.503	278773
553.567	279700
553.630	276582
553.693	277319
553.756	276949
553.819	272585
553.882	262410
553.945	263619
554.008	265047
554.071	265390
554.134	271391
554.197	255136
554.260	248140
554.323	252386
554.386	256095
554.449	265308
554.512	267564
554.575	257365
554.638	252384
554.701	251454
554.764	248687
554.827	238644
554.889	232677
554.952	219558
555.015	216558
555.078	216818
555.141	221427
555.203	218287
555.266	217065
555.329	214642
555.391	206184
555.454	204358
555.517	198750
555.580	191421
555.642	184916
555.705	182171
555.768	181721
555.830	176366
555.893	166678
555.955	162584
556.018	160024
556.080	161310
556.143	165402
556.206	164972
556.268	159455
556.330	155621
556.393	153146
556.455	147193
556.518	146697
556.580	142359
556.643	134625
556.705	132493
556.767	131109
556.830	129773
556.892	127536
556.955	126489
557.017	122566
557.079	123405
557.142	117490
557.204	116782
557.266	120467
557.328	113643
557.391	100832
557.453	101160
557.515	98114
557.577	99454
557.639	100717
557.701	97773
557.764	97670
557.826	98546
557.888	105018
557.950	111399
558.012	131812
558.074	172114
558.136	293248
558.198	711108
558.260	327409
558.322	104058
558.384	95967
558.446	100317
558.508	108677
558.570	130044
558.632	167732
558.694	242615
558.756	387300
558.818	814401
558.880	1831989
558.942	895280
559.003	721383
559.065	429083
559.127	133734
559.189	133179
559.251	169199
559.312	254277
559.374	464808
559.436	1294880
559.498	853257
559.559	171790
559.621	139039
559.683	179696
559.744	279063
559.806	661584
559.868	1149843
559.929	312151
559.991	172339
560.052	249510
560.114	655608
560.176	542463
560.237	355450
560.299	667470
560.360	187632
560.422	60896
560.483	52386
560.545	50332
560.606	48498
560.667	47633
560.729	45857
560.790	43725
560.852	41594
560.913	42200
560.974	41761
561.036	41125
561.097	40937
561.158	40455
561.220	40869
561.281	39090
561.342	38633
561.403	39519
561.465	39967
561.526	46864
561.587	52244
561.648	37888
561.709	35849
561.771	34524
561.832	34522
561.893	33106
561.954	35050
562.015	33647
562.076	33039
562.137	32337
562.198	32269
562.259	33375
562.320	32832
562.381	34085
562.442	33963
562.503	33488
562.564	31722
562.625	29715
562.686	30238
562.747	32560
562.808	30311
562.869	30661
562.930	29933
562.991	30053
563.051	30181
563.112	29182
563.173	28456
563.234	27289
563.294	28238
563.355	27139
563.416	28351
563.477	27675
563.537	27602
563.598	27834
563.659	26895
563.720	27228
563.780	27114
563.841	28346
563.901	27493
563.962	26160
564.023	25920
564.083	26422
564.144	27216
564.204	26901
564.265	26067
564.325	26694
564.386	29492
564.446	29149
564.507	25983
564.567	25584
564.628	25436
564.688	24633
564.749	25434
564.809	25503
564.869	26789
564.930	24383
564.990	25334
565.050	25342
565.111	24386
565.171	24419
565.231	24489
565.292	25446
565.352	24358
565.412	25199
565.472	25186
565.532	25243
565.593	24453
565.653	24794
565.713	24619
565.773	26138
565.833	26753
565.893	28508
565.953	24351
566.013	24282
566.074	24712
566.134	24733
566.194	25938
566.254	27103
566.314	25293
566.374	23437
566.434	22549
566.494	23417
566.554	24211
566.614	24596
566.673	24143
566.733	25202
566.793	25564
566.853	25927
566.913	24580
566.973	24442
567.033	26396
567.092	26467
567.152	25211
567.212	24945
567.272	25009
567.331	24873
567.391	25212
567.451	26384
567.511	26930
567.570	27089
567.630	25394
567.690	25263
567.749	24868
567.809	25082
567.868	25432
567.928	24569
567.988	25008
568.047	25659
568.107	25126
568.166	26448
568.226	27318
568.285	28688
568.345	27795
568.404	26873
568.464	26053
568.523	25167
568.582	25962
568.642	27234
568.701	27227
568.761	27369
568.820	30555
568.879	31023
568.939	28336
568.998	27151
569.057	26473
569.116	25472
569.176	24633
569.235	24383
569.294	24590
569.353	24603
569.413	23117
569.472	23876
569.531	23661
569.590	24180
569.649	24805
569.708	23835
569.767	23763
569.827	26646
569.886	25521
569.945	23299
570.004	23906
570.063	23743
570.122	24401
570.181	26034
570.240	24971
570.299	26660
570.358	27170
570.417	25988
570.475	24658
570.534	25638
570.593	24708
570.652	25478
570.711	26372
570.770	25910
570.829	24934
570.887	24719
570.946	25321
571.005	25242
571.064	24181
571.122	24281
571.181	24852
571.240	24610
571.299	23438
571.357	23600
571.416	23458
571.475	24058
571.533	24610
571.592	25817
571.650	26340
571.709	25565
571.768	28230
571.826	29408
571.885	26754
571.943	25370
572.002	23604
572.060	24316
572.119	23026
572.177	22923
572.236	23053
572.294	24678
572.352	23898
572.411	25382
572.469	23950
572.528	23009
572.586	23493
572.644	24564
572.703	26728
572.761	24064
572.819	22506
572.877	21337
572.936	21642
572.994	20505
573.052	21847
573.110	22104
573.169	23563
573.227	23486
573.285	22626
573.343	22470
573.401	22166
573.459	23359
573.517	22331
573.576	24246
573.634	22493
573.692	22931
573.750	23936
573.808	22183
573.866	21129
573.924	22814
573.982	22095
574.040	21583
574.098	21668
574.155	20681
574.213	21510
574.271	22359
574.329	23642
574.387	22268
574.445	20248
574.503	19589
574.560	20174
574.618	19773
574.676	20660
574.734	20541
574.792	19279
574.849	19114
574.907	17860
574.965	17998
575.022	16422
575.080	17106
575.138	17334
575.195	17234
575.253	17930
575.311	17078
575.368	17262
575.426	16966
575.483	17853
575.541	17507
575.598	17859
575.656	18132
575.713	18001
575.771	18617
575.828	17848
575.886	16411
575.943	17649
576.001	16897
576.058	16580
576.115	17332
576.173	16953
576.230	19509
576.287	18784
576.345	17926
576.402	18448
576.459	19056
576.517	17754
576.574	18060
576.631	17016
576.688	16964
576.746	16135
576.803	15683
576.860	16351
576.917	17049
576.974	16402
577.031	16960
577.089	16084
577.146	16036
577.203	15478
577.260	16153
577.317	15579
577.374	16351
577.431	15260
577.488	14995
577.545	15502
577.602	16595
577.659	15669
577.716	15596
577.773	15604
577.830	15234
577.886	15242
577.943	15138
578.000	16003
578.057	16093
578.114	13983
578.171	15298
578.227	14207
578.284	15059
578.341	15789
578.398	15468
578.454	15414
578.511	14943
578.568	16655
578.625	16381
578.681	15939
578.738	15238
578.794	15339
578.851	15129
578.908	16232
578.964	16462
579.021	16587
579.077	16285
579.134	16110
579.190	16152
579.247	16081
579.303	15541
579.360	15109
579.416	15967
579.473	14934
579.529	14992
579.586	15469
579.642	15449
579.698	15327
579.755	15640
579.811	15909
579.867	15323
579.924	16110
579.980	14325
580.036	15188
580.093	16018
580.149	15870
580.205	15415
580.261	16790
580.317	17811
580.374	17626
580.430	18209
580.486	17252
580.542	16093
580.598	16735
580.619	16976
580.654	17413
580.692	16890
580.710	16656
580.765	16326
580.767	16329
580.823	17236
580.838	17183
580.879	17111
580.911	16896
580.935	16755
580.984	16802
580.991	16828
581.047	16832
581.057	16913
581.103	17293
581.130	16587
581.159	15892
581.203	16360
581.215	16499
581.270	15660
581.276	15659
581.326	15735
581.349	16234
581.382	16959
581.422	16164
581.438	15861
581.494	15703
581.494	15693
581.550	15428
581.567	15717
581.606	16385
581.640	16798
581.661	17037
581.713	16668
581.717	16646
581.773	17117
581.786	16817
581.829	15903
581.859	16444
581.885	16927
581.932	16887
581.940	16869
581.996	16292
582.004	16345
582.052	16679
582.077	16360
582.107	16064
582.150	16165
582.163	16174
582.219	16445
582.223	16377
582.274	15491
582.296	15542
582.330	15770
582.368	16372
582.386	16618
582.441	17396
582.441	17399
582.497	17030
582.514	16853
582.552	16488
582.587	16125
582.608	15933
582.659	16242
582.663	16254
582.719	16584
582.732	16744
582.774	17316
582.805	17392
582.830	17494
582.877	17343
582.885	17319
582.941	17270
582.950	17235
582.996	16987
583.023	17414
583.052	17923
583.095	16990
583.107	16741
583.162	17027
583.168	17149
583.218	18133
583.240	17643
583.273	16927
583.313	16667
583.328	16621
583.384	17071
583.385	17069
583.439	16916
583.458	17093
583.494	17305
583.531	17101
583.549	17074
583.603	17188
583.605	17196
583.660	17180
583.676	17237
583.715	17268
583.748	17561
583.770	17734
583.820	17746
583.825	17768
583.881	17448
583.893	17584
583.936	17802
583.965	17719
583.991	17823
584.038	18059
584.046	18041
584.101	17527
584.110	17584
584.156	18000
584.183	17954
584.211	18035
584.255	18675
584.266	18802
584.321	18313
584.328	18398
584.376	18895
584.400	18758
584.431	18815
584.472	19116
584.486	19186
584.541	19478
584.545	19483
584.596	19596
584.617	19759
584.651	19986
584.689	20585
584.706	20920
584.761	20909
584.762	20914
584.816	21507
584.834	21485
584.871	21895
584.906	22604
584.926	22793
584.978	22785
584.980	22814
585.035	24983
585.051	25502
585.090	26991
585.123	27951
585.145	28667
585.195	31464
585.200	31809
585.254	35915
585.267	37372
585.309	42490
585.340	47083
585.364	51033
585.412	63492
585.419	65429
585.473	87442
585.484	93467
585.528	121541
585.556	145262
585.583	180091
585.628	253187
585.637	284537
585.692	574721
585.700	640529
585.747	1031365
585.772	977748
585.801	689876
585.845	300538
585.856	233368
585.910	92132
585.917	78339
585.965	57620
585.989	49494
586.019	44699
586.061	39834
586.074	38863
586.128	35442
586.133	35224
586.183	34601
586.205	34355
586.237	33931
586.277	33183
586.292	33097
586.346	32787
586.349	32777
586.401	32552
586.421	32671
586.455	33522
586.493	33684
586.509	33711
586.564	34438
586.565	34498
586.618	40194
586.637	41074
586.672	42412
586.709	45204
586.727	47171
586.781	53805
586.781	53833
586.835	44768
586.853	42731
586.889	38252
586.925	34761
586.944	34072
586.996	33357
586.998	33393
587.052	33057
587.068	33305
587.106	33893
587.140	34134
587.161	34260
587.212	34062
587.215	34120
587.269	35218
587.284	35414
587.323	35584
587.356	36230
587.377	37001
587.427	37416
587.431	37400
587.485	38202
587.499	38020
587.539	38401
587.571	39197
587.593	39892
587.643	41264
587.648	41439
587.702	42581
587.715	42884
587.755	43791
587.786	44155
587.810	44146
587.858	43719
587.864	43788
587.917	45059
587.930	45125
587.971	45647
588.001	46311
588.025	46755
588.073	46697
588.079	46729
588.133	47036
588.145	47083
588.187	48375
588.217	49275
588.241	50450
588.288	52075
588.295	52381
588.348	55689
588.360	56140
588.402	58717
588.431	60484
588.456	61506
588.503	64456
588.510	65379
588.564	72839
588.575	74537
588.617	82191
588.646	88596
588.671	94452
588.718	108044
588.725	111381
588.778	141919
588.789	148669
588.832	201748
588.861	244434
588.886	329420
588.932	525883
588.939	558572
588.993	804450
589.004	822465
589.047	590434
589.075	438051
589.100	322891
589.147	156414
589.154	150512
589.207	114690
589.218	108091
589.261	104370
589.290	102855
589.314	105739
589.361	114282
589.368	117589
589.421	146158
589.433	153297
589.475	229919
589.504	295990
589.528	403861
589.576	638849
589.582	639846
589.635	525912
589.647	498194
589.689	275012
589.718	142074
589.742	119103
589.790	79708
589.795	78582
589.849	68212
589.861	65904
589.902	64743
589.932	63740
589.955	62094
590.004	58051
590.009	57862
590.062	55205
590.075	54391
590.115	53046
590.146	52151
590.168	52633
590.218	53292
590.222	53362
590.275	53683
590.289	53538
590.328	53903
590.360	54049
590.381	54092
590.431	54099
590.435	54214
590.488	54637
590.503	54654
590.541	55105
590.574	55509
590.594	55927
590.645	56375
590.647	56508
590.700	57832
590.716	58075
590.753	59017
590.787	59904
590.806	60633
590.859	61967
590.859	62082
590.912	62856
590.930	62988
590.965	64240
591.001	65300
591.018	65375
591.071	65008
591.072	64885
591.124	63448
591.143	62818
591.177	63012
591.214	63006
591.230	63644
591.283	65343
591.285	65294
591.336	65832
591.356	65936
591.389	65923
591.427	65441
591.442	65169
591.495	63785
591.498	63580
591.547	63654
591.569	63485
591.600	64468
591.640	65609
591.653	65871
591.706	66408
591.711	66347
591.759	67346
591.782	67702
591.811	69564
591.853	72055
591.864	72475
591.917	73705
591.924	73739
591.969	72561
591.995	71701
592.022	72249
592.066	72880
592.075	73213
592.127	74426
592.137	74511
592.180	76608
592.208	77736
592.233	78291
592.279	78951
592.285	79314
592.338	81080
592.350	81330
592.390	81021
592.421	80499
592.443	80916
592.491	81359
592.495	81736
592.548	84696
592.562	85340
592.600	84729
592.633	83887
592.653	84074
592.704	83662
592.705	84166
592.775	85371
592.846	86658
592.916	89372
592.987	89030
593.058	89800
593.128	91223
593.199	90922
593.270	91662
593.341	91560
593.411	93029
593.482	96623
593.553	101321
593.623	100867
593.694	101957
593.764	105887
593.835	105180
593.906	106185
593.976	106735
594.047	110022
594.117	114359
594.188	119530
594.258	118155
594.329	116321
594.399	118671
594.470	122712
594.540	125650
594.611	129449
594.681	130504
594.751	129363
594.822	132733
594.892	137246
594.963	140732
595.033	143796
595.103	150430
595.174	149547
595.244	154769
595.314	160009
595.384	160696
595.455	163593
595.525	169587
595.595	174625
595.665	180539
595.736	172952
595.806	174280
595.876	177057
595.946	177062
596.016	186644
596.087	191604
596.157	195587
596.227	192379
596.297	200286
596.367	212171
596.437	224017
596.507	229148
596.577	227212
596.647	230929
596.717	240866
596.787	249642
596.857	247958
596.927	249812
596.997	251595
597.067	252177
597.137	256754
597.207	258179
597.277	261216
597.347	255728
597.417	244579
597.487	241545
597.557	244855
597.626	251986
597.696	257692
597.766	256510
597.836	250737
597.906	234321
597.975	224973
598.045	228067
598.115	235164
598.185	247109
598.254	273937
598.324	300759
598.394	311388
598.464	306901
598.533	298738
598.603	287316
598.672	272009
598.742	275283
598.812	276102
598.881	283421
598.951	284589
599.020	284884
599.090	293800
599.159	305342
599.229	294130
599.299	284270
599.368	288602
599.437	291222
599.507	274676
599.576	256721
599.646	254006
599.715	248007
599.785	248459
599.854	243624
599.924	238574
599.993	235869
600.062	238218
600.132	246163
600.201	253561
600.270	285132
600.340	318021
600.409	313259
600.478	309225
600.547	310009
600.617	307718
600.686	247030
600.755	216001
600.824	204371
600.894	195509
600.963	194687
601.032	196215
601.101	190734
601.170	179041
601.239	175840
601.308	172731
601.378	174289
601.447	174286
601.516	174635
601.585	175509
601.654	178700
601.723	180129
601.792	181629
601.861	187399
601.930	193631
601.999	197936
602.068	196965
602.137	198750
602.206	200780
602.275	204019
602.343	208368
602.412	209992
602.481	209745
602.550	211023
602.619	214490
602.688	220155
602.756	221460
602.825	222944
602.894	228033
602.963	234041
603.032	235545
603.100	239545
603.169	237411
603.238	239179
603.307	242459
603.375	244420
603.444	247953
603.513	250568
603.581	254119
603.650	258884
603.719	255775
603.787	257325
603.856	266065
603.924	272381
603.993	280987
604.061	288312
604.130	303091
604.198	309593
604.267	314980
604.335	320319
604.404	322585
604.472	330488
604.541	330042
604.609	336115
604.678	337873
604.746	337087
604.815	345887
604.883	353094
604.951	353971
605.020	355980
605.088	366952
605.156	370392
605.225	376410
605.293	381743
605.361	377426
605.429	383887
605.498	387609
605.566	397178
605.634	410011
605.702	427963
605.771	442637
605.839	446993
605.907	443131
605.975	429907
606.043	414014
606.111	414919
606.180	414374
606.248	409668
606.316	406399
606.384	405254
606.452	405813
606.520	414002
606.588	427159
606.656	434018
606.724	431553
606.792	410832
606.860	379195
606.928	344398
606.996	324611
607.064	315755
607.132	320425
607.200	333987
607.267	351840
607.335	353843
607.403	368963
607.471	364537
607.539	345732
607.607	354479
607.674	320342
607.742	308069
607.810	308833
607.878	305943
607.946	311594
608.013	322794
608.081	333756
608.149	335890
608.216	340494
608.284	359066
608.352	355992
608.419	360416
608.487	347300
608.555	340193
608.622	351222
608.690	362737
608.757	396612
608.825	419933
608.893	410641
608.960	398076
609.028	375852
609.095	369371
609.163	372484
609.230	348356
609.298	308177
609.365	314206
609.432	336818
609.500	360690
609.567	406168
609.635	458193
609.702	500157
609.769	491747
609.837	425923
609.904	335029
609.971	332601
610.039	353486
610.106	403961
610.173	577502
610.241	1140696
610.308	1272348
610.375	483385
610.442	371269
610.509	349504
610.577	341623
610.644	344007
610.711	355233
610.778	366711
610.845	374527
610.912	396987
610.980	415980
611.047	420333
611.114	414182
611.181	404050
611.248	396834
611.315	408453
611.382	430309
611.449	440049
611.516	448692
611.583	444951
611.650	445354
611.717	451047
611.784	456860
611.851	468644
611.918	488194
611.984	526381
612.051	629805
612.118	897289
612.185	1691874
612.252	2041193
612.319	826551
612.386	594899
612.452	549256
612.519	511587
612.586	496462
612.653	499379
612.719	514032
612.786	512878
612.853	482296
612.919	455792
612.986	463898
613.053	450101
613.120	423686
613.186	402984
613.253	403624
613.319	403607
613.386	405960
613.453	409044
613.519	417354
613.586	409578
613.652	413642
613.719	411367
613.785	411041
613.852	420506
613.918	418404
613.985	416289
614.051	431152
614.118	433692
614.184	421160
614.250	409951
614.317	424306
614.383	418095
614.449	426711
614.516	425012
614.582	425241
614.648	423479
614.715	416322
614.781	413060
614.847	403689
614.914	408373
614.980	395652
615.046	392833
615.112	401417
615.179	409322
615.245	408954
615.311	407865
615.377	407536
615.443	417281
615.509	415381
615.575	427791
615.642	431956
615.708	432738
615.774	448793
615.840	468852
615.906	488077
615.972	533229
616.038	660687
616.104	1019689
616.170	1838477
616.236	2472670
616.302	1130801
616.368	746450
616.434	601637
616.500	502857
616.565	519203
616.631	633003
616.697	614338
616.763	546725
616.829	663839
616.895	1097372
616.961	1382187
617.026	787652
617.092	478084
617.158	433758
617.224	425259
617.289	402101
617.355	378546
617.421	372499
617.487	372272
617.552	357827
617.618	349495
617.684	348980
617.749	352907
617.815	344034
617.880	331356
617.946	330481
618.012	333392
618.077	345263
618.143	335778
618.208	327421
618.274	345989
618.339	361859
618.405	322241
618.470	292926
618.536	301219
618.601	295882
618.667	286562
618.732	268202
618.798	262545
618.863	260317
618.928	258414
618.994	256218
619.059	257985
619.124	263019
619.190	263887
619.255	257352
619.320	255489
619.386	259833
619.451	257955
619.516	250960
619.581	249034
619.647	257638
619.712	260999
619.777	249914
619.842	247423
619.907	252924
619.972	257407
620.038	261152
620.103	251443
620.168	249844
620.233	254802
620.298	255626
620.363	256849
620.428	263096
620.493	267805
620.558	274604
620.623	275276
620.688	278898
620.753	270567
620.818	276991
620.883	279906
620.948	279384
621.013	275810
621.078	274008
621.143	272842
621.207	279069
621.272	273756
621.337	267924
621.402	262470
621.467	263744
621.532	262000
621.596	264858
621.661	259773
621.726	252908
621.791	254586
621.855	257215
621.920	254044
621.985	257310
622.049	259183
622.114	261606
622.179	262278
622.243	267768
622.308	276451
622.373	283970
622.437	288246
622.502	270259
622.566	264039
622.631	262496
622.695	266933
622.760	267135
622.824	265988
622.889	267191
622.953	268957
623.018	276993
623.082	293054
623.147	281809
623.211	276955
623.276	273701
623.340	270851
623.404	256905
623.469	258135
623.533	258699
623.597	258283
623.662	253154
623.726	245808
623.790	226989
623.854	219985
623.919	219341
623.983	223808
624.047	228187
624.111	226951
624.176	231659
624.240	233423
624.304	241391
624.368	238995
624.432	230810
624.496	235478
624.560	246165
624.625	255367
624.689	249564
624.753	256835
624.817	256323
624.881	243571
624.945	232001
625.009	214201
625.073	215816
625.137	221062
625.201	233007
625.265	239306
625.329	227406
625.393	225064
625.456	228743
625.520	230817
625.584	236362
625.648	241653
625.712	246469
625.776	253799
625.839	249742
625.903	220964
625.967	188379
626.031	194238
626.095	222155
626.158	237281
626.222	189039
626.286	166168
626.349	159191
626.413	151687
626.477	145922
626.540	149022
626.604	149557
626.668	146199
626.731	143651
626.795	142152
626.858	144120
626.922	142524
626.986	140301
627.049	138729
627.113	143105
627.176	143544
627.240	137192
627.303	138026
627.366	136613
627.430	136349
627.493	139782
627.557	135869
627.620	136288
627.684	139556
627.747	144691
627.810	139003
627.874	124063
627.937	118354
628.000	120153
628.064	119746
628.127	112318
628.190	104342
628.253	103472
628.317	99682
628.380	95306
628.443	92694
628.506	92138
628.569	89686
628.632	84544
628.696	84930
628.759	84274
628.822	82654
628.885	81445
628.948	79121
629.011	78514
629.074	76165
629.137	73673
629.200	71630
629.263	71810
629.326	69886
629.389	71041
629.452	69716
629.515	68437
629.578	68768
629.641	69373
629.704	69961
629.767	69951
629.830	67185
629.892	65673
629.955	64401
630.018	66017
630.081	65519
630.144	67201
630.207	65823
630.269	65578
630.332	62596
630.395	62565
630.458	62191
630.520	59519
630.583	60295
630.646	60696
630.708	61438
630.771	61660
630.834	64127
630.896	64616
630.959	63282
631.021	62744
631.084	62369
631.146	62020
631.209	64033
631.272	61999
631.334	62837
631.397	64049
631.459	64293
631.522	65329
631.584	67621
631.646	71346
631.709	73436
631.771	75383
631.834	74806
631.896	70838
631.958	66683
632.021	64042
632.083	61616
632.145	61898
632.208	60866
632.270	60855
632.332	60101
632.395	58864
632.457	59292
632.519	58127
632.581	57960
632.643	57115
632.706	58596
632.768	57735
632.830	58599
632.892	57379
632.954	60537
633.016	60168
633.078	60568
633.141	60463
633.203	59145
633.265	58935
633.327	56831
633.389	58963
633.451	60123
633.513	58480
633.575	59359
633.637	59274
633.698	60962
633.760	62433
633.822	64026
633.884	65661
633.946	65211
634.008	68002
634.070	69180
634.132	71594
634.193	77165
634.255	82360
634.317	87397
634.379	87292
634.441	80960
634.502	73055
634.564	67926
634.626	62468
634.687	60633
634.749	58283
634.811	56387
634.873	56412
634.934	56921
634.996	56082
635.057	55601
635.119	56945
635.181	59023
635.242	57944
635.304	56429
635.365	57883
635.427	57428
635.488	57966
635.550	56776
635.611	57431
635.673	56906
635.734	60168
635.796	62407
635.857	68113
635.918	70173
635.980	76871
636.041	81559
636.102	87098
636.164	91898
636.225	88056
636.286	80963
636.348	71828
636.409	64166
636.470	60205
636.531	57506
636.593	56128
636.654	55191
636.715	52577
636.776	50953
636.838	50672
636.899	49616
636.960	50106
637.021	49019
637.082	49007
637.143	47153
637.204	46312
637.265	45628
637.326	47239
637.387	48581
637.448	47642
637.509	46858
637.570	47910
637.631	47174
637.692	45539
637.753	45389
637.814	44677
637.875	44169
637.936	45891
637.997	44859
638.058	43750
638.119	44788
638.179	44778
638.240	44360
638.301	42928
638.362	44266
638.423	41820
638.483	41414
638.544	42726
638.605	40798
638.666	40167
638.726	40962
638.787	41037
638.848	41180
638.908	41742
638.969	40991
639.030	39116
639.090	38904
639.151	38596
639.211	40245
639.272	41179
639.332	42231
639.393	42434
639.453	41826
639.514	45162
639.574	40805
639.635	37691
639.695	36031
639.756	36673
639.816	38079
639.877	36347
639.937	37933
639.997	40242
640.058	38135
640.118	36326
640.178	36136
640.239	36283
640.299	36537
640.359	36721
640.420	38555
640.480	41276
640.540	46678
640.600	50654
640.661	44654
640.721	39956
640.781	42600
640.841	37334
640.901	36480
640.961	36410
641.021	37750
641.082	40771
641.142	40491
641.202	38333
641.262	33529
641.322	35480
641.382	34135
641.442	34322
641.502	34621
641.562	34095
641.622	34602
641.682	36182
641.742	40677
641.802	42328
641.861	35766
641.921	34526
641.981	33743
642.041	32067
642.101	32165
642.161	33103
642.221	32291
642.280	31497
642.340	31603
642.400	32228
642.460	33260
642.519	33194
642.579	33559
642.639	33192
642.698	32161
642.758	34732
642.818	33384
642.877	33999
642.937	34917
642.997	33124
643.056	34467
643.116	33953
643.175	33603
643.235	34384
643.294	35380
643.354	36830
643.414	39372
643.473	43397
643.532	51169
643.592	62907
643.651	85099
643.711	129354
643.770	219936
643.830	423194
643.889	1071356
643.948	828917
644.008	155752
644.067	70842
644.126	53655
644.186	44849
644.245	39658
644.304	35597
644.363	35139
644.423	33983
644.482	33976
644.541	34446
644.600	37072
644.659	42812
644.719	50203
644.778	66824
644.837	100334
644.896	174470
644.955	415557
645.014	404430
645.073	75000
645.132	44760
645.191	39971
645.250	36746
645.309	37635
645.368	40485
645.427	48379
645.486	64598
645.545	138921
645.604	97885
645.663	36595
645.722	33838
645.781	35570
645.840	38284
645.898	44140
645.957	56039
646.016	78078
646.075	121605
646.134	210261
646.192	418052
646.251	1008954
646.310	496253
646.369	96285
646.427	59610
646.486	53532
646.545	39153
646.603	34570
646.662	33187
646.721	30232
646.779	32052
646.838	30517
646.896	36183
646.955	44952
647.014	64952
647.072	105804
647.131	249336
647.189	352335
647.248	64682
647.306	31891
647.365	28482
647.423	26101
647.481	26045
647.540	24518
647.598	24669
647.657	23920
647.715	24145
647.773	21840
647.832	22435
647.890	20463
647.948	21802
648.007	21336
648.065	20535
648.123	20425
648.181	20960
648.240	19253
648.298	19424
648.356	19500
648.414	19857
648.472	19766
648.531	19419
648.589	19102
648.647	19258
648.705	18652
648.763	19515
648.821	20323
648.879	20813
648.937	22824
648.995	25676
649.053	32036
649.111	41798
649.169	61657
649.227	101177
649.285	179702
649.343	460943
649.401	654156
649.459	122405
649.516	46249
649.574	30420
649.632	29445
649.690	30003
649.748	34581
649.806	46498
649.863	76932
649.921	166311
649.979	304942
650.037	68328
650.094	22730
650.152	19734
650.210	18600
650.268	17538
650.325	16494
650.383	15123
650.440	14832
650.498	14898
650.556	14607
650.613	15079
650.671	15064
650.728	15198
650.786	16075
650.843	18397
650.901	21085
650.958	14099
651.016	13388
651.073	13106
651.131	12976
651.188	12469
651.246	12659
651.303	11517
651.360	13164
651.418	12369
651.475	12923
651.532	10959
651.590	11899
651.647	11244
651.704	11957
651.762	11573
651.819	12601
651.876	11624
651.933	11315
651.990	11660
652.048	10601
652.105	10574
652.162	11284
652.219	10527
652.276	11222
652.333	11096
652.390	10444
652.448	10702
652.505	9946
652.562	11214
652.619	10392
652.676	10797
652.733	10739
652.790	10362
652.847	9371
652.904	10732
652.961	9759
653.017	9987
653.074	9830
653.131	9708
653.188	9297
653.245	10030
653.302	9034
653.359	9734
653.415	10021
653.472	9317
653.529	9377
653.586	9735
653.642	9200
653.699	9871
653.756	9857
653.813	9221
653.869	9357
653.926	9294
653.983	9208
654.039	9611
654.096	9567
654.152	9852
654.209	8380
654.266	9043
654.322	7919
654.379	9472
654.435	9439
654.492	9347
654.548	10009
654.605	9742
654.661	10378
654.717	8422
654.774	9642
654.830	9419
654.887	9248
654.943	9381
655.000	9331
655.056	9044
655.112	9045
655.168	8666
655.225	10160
655.281	9699
655.337	8702
655.394	9451
655.450	9096
655.506	8705
655.562	9096
655.618	10517
655.675	8753
655.731	8749
655.787	7760
655.843	9356
655.899	8332
655.955	9466
656.011	8937
656.067	7524
656.123	9257
656.179	8284
656.235	8801
656.291	8431
656.347	10055
656.403	8598
656.459	8713
656.515	8873
656.571	8729
656.627	8416
656.683	8446
656.739	9068
656.795	8376
656.850	8970
656.906	8615
656.962	9024
657.018	8916
657.074	10816
657.129	13264
657.185	17743
657.241	32460
657.297	48047
657.352	14462
657.408	7906
657.464	8862
657.519	7599
657.575	7458
657.630	7844
657.686	8389
657.742	7551
657.797	7636
657.853	6990
657.908	9270
657.964	6940
658.019	7135
658.075	7385
658.130	7398
658.186	6649
658.241	6607
658.297	6688
658.352	6569
658.407	7734
658.463	6003
658.518	6636
658.573	6934
658.629	6613
658.684	6348
658.739	6924
658.795	7179
658.850	7081
658.905	6667
658.960	7016
659.016	6565
659.071	5880
659.126	6976
659.181	6583
659.236	6878
659.291	8482
659.346	6593
659.401	7377
659.457	7103
659.512	6783
659.567	7635
659.622	6958
659.677	6834
659.732	6512
659.787	5739
659.842	6457
659.897	6913
659.952	6753
660.007	6437
660.061	6736
660.116	6192
660.171	6952
660.226	6575
660.281	7066
660.336	5587
660.391	6121
660.445	6595
660.500	6749
660.555	5815
660.610	4994
660.664	7166
660.719	5771
660.774	5691
660.828	5894
660.883	6374
660.938	5970
660.992	5364
661.047	6158
661.101	6398
661.156	5365
661.211	6069
661.265	5630
661.320	5598
661.374	5592
661.429	5852
661.483	5725
661.538	5514
661.592	5597
661.647	5606
661.701	6669
661.755	5645
661.810	5920
661.864	5104
661.919	5907
661.973	6010
662.027	5889
662.081	6092
662.136	4816
662.190	6517
662.244	6131
662.299	6271
662.353	6608
662.407	5296
662.461	5603
662.515	5186
662.569	5078
662.624	6009
662.678	4772
662.732	5847
662.786	5948
662.840	6432
662.894	6736
662.948	5645
663.002	5109
663.056	5312
663.110	5145
663.164	5925
663.218	6224
663.272	5922
663.326	6349
663.380	5663
663.434	5190
663.488	5088
663.542	5562
663.595	6218
663.649	5107
663.703	5205
663.757	5733
663.811	4941
663.864	5995
663.918	6138
663.972	5354
664.026	6309
664.079	5796
664.133	6286
664.187	6410
664.240	5715
664.294	5613
664.348	5767
664.401	5315
664.455	6156
664.508	4911
664.562	5354
664.615	5125
664.669	5338
664.722	5618
664.776	5469
664.829	5824
664.883	5668
664.936	4842
664.990	5853
665.043	4991
665.097	5344
665.150	5912
665.203	5677
665.257	5685
665.310	5633
665.363	6466
665.417	5340
665.470	6396
665.523	6294
665.576	5927
665.630	6754
665.683	5915
665.736	6338
665.789	7074
665.842	6060
665.895	5253
665.949	5235
666.002	4773
666.055	5931
666.108	5880
666.161	6222
666.214	7112
666.267	6535
666.320	4870
666.373	6313
666.426	6444
666.479	5756
666.532	6248
666.585	6576
666.638	6426
666.691	6643
666.744	6068
666.796	5303
666.849	6302
666.902	7036
666.955	6071
667.008	5452
667.060	6226
667.113	5494
667.166	5906
667.219	7135
667.271	7064
667.324	6768
667.377	5528
667.430	6384
667.482	5859
667.535	7060
667.587	5670
667.640	6151
667.693	6084
667.745	7011
667.798	8235
667.850	7282
667.903	6083
667.955	6584
668.008	5824
668.060	6403
668.113	6009
668.165	6279
668.218	5355
668.270	6446
668.322	5971
668.375	5700
668.427	6201
668.479	5515
668.532	5918
668.584	6111
668.636	6120
668.689	5659
668.741	5619
668.793	6051
668.845	4593
668.898	6726
668.950	5811
669.002	6833
669.054	5751
669.106	5092
669.158	6219
669.211	6249
669.263	5634
669.315	5960
669.367	5879
669.419	5676
669.471	6639
669.523	7196
669.575	7856
669.627	8065
669.679	5933
669.731	5903
669.783	6172
669.835	6690
669.886	6477
669.938	5390
669.990	5597
670.042	6152
670.094	5265
670.146	5153
670.197	5214
670.249	6060
670.301	5611
670.353	6137
670.404	6757
670.456	6644
670.508	8645
670.560	11857
670.611	15334
670.663	23510
670.715	39591
670.766	96837
670.818	78262
670.869	15208
670.921	7786
670.972	7716
671.024	6595
671.075	6183
671.127	5264
671.178	4998
671.230	6780
671.281	7201
671.333	7955
671.384	8272
671.436	10689
671.487	15334
671.538	20664
671.590	30746
671.641	47999
671.692	78523
671.744	162275
671.795	219626
671.846	89613
671.897	32948
671.949	17343
672.000	13496
672.051	10330
672.102	8703
672.153	6158
672.204	6386
672.256	6481
672.307	6054
672.358	5524
672.409	5768
672.460	5594
672.511	4325
672.562	4387
672.613	4440
672.664	4475
672.715	4372
672.766	4694
672.817	4604
672.868	3566
672.919	3824
672.970	3221
673.021	4846
673.071	3798
673.122	4668
673.173	3551
673.224	4411
673.275	4439
673.326	3871
673.376	4065
673.427	2831
673.478	3913
673.528	4322
673.579	3467
673.630	3606
673.680	4916
673.731	4211
673.782	3601
673.832	3776
673.883	3659
673.934	2976
673.984	3637
674.035	4101
674.085	4150
674.136	4395
674.186	4013
674.237	3940
674.287	4060
674.338	5180
674.388	3924
674.438	4365
674.489	5135
674.539	4317
674.589	4761
674.640	4632
674.690	4573
674.740	4490
674.791	4075
674.841	4705
674.891	4122
674.942	3497
674.992	2817
675.042	3164
675.092	3432
675.142	3829
675.193	2299
675.243	4105
675.293	4353
675.343	3717
675.393	3998
675.443	3666
675.493	3761
675.543	3062
675.593	3804
675.643	3384
675.693	3555
675.743	3120
675.793	3327
675.843	2696
675.893	2852
675.943	3467
675.993	3231
676.043	3111
676.093	3119
676.142	2801
676.192	3176
676.242	2565
676.292	3148
676.341	2368
676.391	3407
676.441	3281
676.491	2896
676.540	2600
676.590	3571
676.640	2399
676.689	2825
676.739	3224
676.789	2312
676.838	1903
676.888	2776
676.937	2692
676.987	2505
677.037	2467
677.086	2824
677.136	2176
677.185	2063
677.235	3071
677.284	2398
677.333	2511
677.383	2512
677.432	2713
677.482	2313
677.531	2876
677.580	2245
677.630	2044
677.679	2657
677.728	2144
677.778	2426
677.827	2580
677.876	2470
677.925	2681
677.975	2995
678.024	2399
678.073	2745
678.122	2464
678.171	3145
678.220	3160
678.269	3619
678.319	3974
678.368	3887
678.417	4351
678.466	3288
678.515	2756
678.564	2051
678.613	2115
678.662	1807
678.711	2450
678.760	2500
678.809	2760
678.857	2803
678.906	3012
678.955	2943
679.004	2124
679.053	1458
679.102	1368
679.151	2889
679.199	3094
679.248	1589
679.297	2170
679.346	2580
679.394	2006
679.443	2224
679.492	2545
679.540	1855
679.589	2310
679.638	2741
679.686	2730
679.735	2954
679.784	2890
679.832	4452
679.881	4060
679.929	2078
679.978	1973
680.026	1546
680.075	2458
680.123	2423
680.172	2088
680.220	1356
680.268	2219
680.317	2280
680.365	1512
680.414	1719
680.462	2034
680.510	1867
680.559	1608
680.607	2500
680.655	1985
680.703	2419
680.752	1948
680.800	1817
680.848	1350
680.896	1311
680.945	2127
680.993	2421
681.041	1934
681.089	2037
681.137	1993
681.185	1609
681.233	1571
681.258	1590
681.281	1580
681.329	2074
681.377	712
681.380	823
681.425	2342
681.473	2418
681.502	2096
681.521	1829
681.569	2256
681.617	3116
681.624	3168
681.665	3275
681.713	2904
681.745	2581
681.761	2387
681.809	2763
681.857	2775
681.867	2891
681.904	3193
681.952	3718
681.989	3344
682.000	3187
682.048	2875
682.096	3103
682.111	2892
682.143	2381
682.191	2829
682.233	3529
682.239	3599
682.286	3029
682.334	3009
682.354	3086
682.382	3140
682.430	3418
682.476	3644
682.477	3620
682.525	3761
682.572	3026
682.598	2855
682.620	2729
682.667	4012
682.715	4122
682.720	4146
682.763	4018
682.810	4606
682.841	4385
682.857	4227
682.905	4083
682.952	4255
682.963	4130
683.000	3583
683.047	3618
683.085	4276
683.095	4448
683.142	3900
683.190	4576
683.206	4483
683.237	4209
683.284	4874
683.328	4465
683.332	4406
683.379	3984
683.426	4498
683.449	4469
683.473	4408
683.521	4396
683.568	4066
683.571	4141
683.615	4907
683.662	4625
683.693	4774
683.709	4777
683.757	4373
683.804	4430
683.814	4519
683.851	4752
683.898	4723
683.936	4674
683.945	4660
683.992	5486
684.039	4478
684.057	4597
684.086	4701
684.133	4793
684.179	5213
684.180	5207
684.227	4765
684.274	5056
684.300	4934
684.321	4819
684.368	5256
684.415	5381
684.422	5380
684.462	5356
684.509	5316
684.543	5692
684.556	5830
684.603	5970
684.649	5695
684.665	5848
684.696	5946
684.743	6395
684.786	5815
684.790	5761
684.837	5906
684.883	5724
684.908	5827
684.930	5868
684.977	6200
685.023	6719
685.029	6725
685.070	6807
685.117	7126
685.150	6957
685.164	6805
685.210	6222
685.257	7045
685.272	6936
685.303	6782
685.350	6956
685.393	6974
685.396	6952
685.443	6929
685.490	7053
685.514	7005
685.536	7002
685.583	6654
685.629	6999
685.636	7007
685.675	6963
685.722	7282
685.757	7184
685.768	7149
685.815	6587
685.861	6820
685.878	6891
685.908	6988
685.954	7165
686.000	7111
686.000	7104
686.047	7581
686.093	7975
686.121	8239
686.139	8345
686.185	8092
686.232	7493
686.242	7535
686.278	7693
686.324	8120
686.363	7848
686.370	7780
686.416	7924
686.463	8234
686.484	7859
686.509	7451
686.555	7437
686.601	7426
686.606	7444
686.647	7642
686.693	7801
686.727	7945
686.739	7997
686.785	7887
686.831	7515
686.848	7965
686.877	8696
686.923	8284
686.969	8677
686.969	8679
687.015	8662
687.061	8911
687.090	9220
687.107	9328
687.153	8837
687.199	8815
687.211	8947
687.245	9299
687.291	8656
687.332	8898
687.336	8927
687.382	8785
687.428	9046
687.453	9136
687.474	9170
687.520	8943
687.565	9017
687.574	8999
687.611	9026
687.657	9124
687.695	9659
687.702	9774
687.748	9676
687.794	9854
687.816	10024
687.839	9983
687.885	9434
687.931	9310
687.937	9274
687.976	9429
688.022	9676
688.058	9816
688.067	9847
688.113	9907
688.158	9992
688.179	9980
688.204	9834
688.249	9694
688.295	9517
688.300	9549
688.340	10209
688.386	10913
688.421	10382
688.431	10174
688.477	10082
688.522	10481
688.542	10492
688.567	10724
688.613	10757
688.658	11280
688.663	11309
688.703	11340
688.749	10706
688.784	11180
688.794	11258
688.839	10678
688.884	10415
688.905	10386
688.930	10624
688.975	10853
689.020	11170
689.026	11158
689.065	10871
689.110	10249
689.146	10298
689.155	10356
689.201	10681
689.246	10580
689.267	10446
689.291	10332
689.336	10589
689.381	10546
689.388	10555
689.426	10880
689.471	11243
689.509	11367
689.516	11343
689.561	11387
689.606	11234
689.630	11043
689.651	10951
689.696	11171
689.741	10966
689.750	11022
689.785	11254
689.830	11266
689.871	10989
689.875	10996
689.920	11191
689.965	11488
689.992	11727
690.010	11851
690.054	11763
690.099	11633
690.112	11617
690.144	11569
690.189	11897
690.233	11512
690.233	11523
690.278	10813
690.323	10697
690.354	10197
690.367	10263
690.412	11190
690.457	11852
690.474	11956
690.501	11690
690.546	11357
690.590	11001
690.595	10942
690.635	11062
690.680	11000
690.716	11436
690.724	11470
690.769	11153
690.813	10934
690.836	10662
690.857	10736
690.902	11313
690.946	11716
690.957	11733
690.991	11574
691.035	11567
691.077	11727
691.080	11773
691.124	12105
691.168	12578
691.198	12323
691.213	12069
691.257	12218
691.301	12251
691.318	12153
691.346	12160
691.390	11990
691.434	12116
691.439	12083
691.478	11949
691.522	12258
691.559	12277
691.567	12379
691.611	12758
691.655	13339
691.680	13438
691.699	13322
691.743	13250
691.787	13011
691.800	12924
691.831	13116
691.875	13501
691.919	13773
691.921	13755
691.964	13443
692.008	13234
692.041	12985
692.052	12972
692.096	12905
692.139	13126
692.162	13050
692.183	12999
692.227	12550
692.271	12623
692.282	12572
692.315	12568
692.359	12474
692.402	12381
692.403	12406
692.447	12524
692.490	12446
692.523	12758
692.534	12847
692.578	12354
692.622	12177
692.643	12055
692.666	12143
692.709	12314
692.753	12359
692.763	12391
692.797	12526
692.840	12661
692.884	12639
692.884	12663
692.928	12635
692.971	12538
693.004	12340
693.015	12338
693.059	12563
693.102	12574
693.124	12533
693.146	12529
693.189	12472
693.233	12335
693.245	12301
693.276	12514
693.320	13170
693.363	13369
693.365	13355
693.407	13189
693.450	12787
693.485	12551
693.493	12624
693.537	12624
693.580	13005
693.605	13049
693.624	13023
693.667	12868
693.710	12680
693.725	12752
693.753	12973
693.797	12908
693.840	12880
693.845	12858
693.883	12971
693.926	12872
693.966	12822
693.970	12856
694.013	12917
694.056	13246
694.086	13063
694.099	12978
694.142	13100
694.185	13173
694.206	13003
694.229	12995
694.272	13310
694.315	13330
694.326	13351
694.358	13344
694.401	13174
694.444	13087
694.446	13065
694.487	13612
694.530	13745
694.566	13866
694.573	13861
694.616	13794
694.659	13380
694.686	13353
694.702	13531
694.745	13796
694.787	14009
694.806	14070
694.830	13962
694.873	13771
694.916	13535
694.926	13480
694.959	13665
695.002	13554
695.044	13754
695.046	13728
695.087	14088
695.130	14275
695.166	14456
695.172	14495
695.215	14509
695.258	14617
695.286	14550
695.301	14647
695.343	14979
695.386	15230
695.406	15319
695.428	15426
695.471	15548
695.514	15744
695.526	15780
695.556	16921
695.599	18409
695.641	20152
695.646	20232
695.684	19912
695.726	19947
695.766	19858
695.769	19878
695.811	19460
695.854	18930
695.886	18567
695.896	18538
695.938	18062
695.981	18040
696.005	17741
696.023	18032
696.065	18839
696.108	19534
696.125	19792
696.150	20123
696.192	20595
696.235	21073
696.245	21145
696.277	21179
696.319	21151
696.361	21096
696.365	21038
696.404	21423
696.446	21754
696.485	22171
696.488	22192
696.530	21611
696.572	21024
696.604	20506
696.614	20645
696.656	21182
696.698	21628
696.724	21865
696.740	21781
696.783	21222
696.825	21008
696.844	20744
696.867	20985
696.909	21418
696.951	21797
696.964	21878
696.992	21808
697.034	21546
697.076	21388
697.083	21300
697.118	21749
697.160	22314
697.202	22752
697.203	22705
697.244	22650
697.286	22758
697.323	22659
697.327	22710
697.369	22646
697.411	22661
697.442	22607
697.453	22725
697.494	22943
697.536	23107
697.562	23223
697.578	23193
697.620	22896
697.661	22603
697.682	22388
697.703	22698
697.744	23201
697.786	23805
697.801	23917
697.828	24273
697.869	24815
697.911	25281
697.921	25345
697.952	25220
697.994	24917
698.035	24691
698.040	24589
698.077	24465
698.118	24346
698.160	24145
698.160	24081
698.201	24395
698.243	24603
698.279	24756
698.284	24911
698.325	25796
698.367	26585
698.399	27183
698.408	27216
698.449	27019
698.491	26838
698.518	26628
698.532	26797
698.573	27156
698.614	27471
698.638	27580
698.656	27708
698.697	27864
698.738	28000
698.757	27994
698.779	28055
698.820	28045
698.862	28019
698.877	27940
698.903	28064
698.944	28139
698.985	28227
698.996	28179
699.026	28191
699.067	28105
699.116	27932
699.235	27313
699.354	26420
699.474	27638
699.593	26108
699.713	25212
699.832	26451
699.951	26750
700.070	27422
700.190	25669
700.309	24552
700.428	23950
700.547	25110
700.667	23239
700.786	23966
700.905	23754
701.024	22537
701.143	22926
701.262	21709
701.381	24143
701.500	24101
701.619	24327
701.738	23537
701.857	23249
701.976	22262
702.095	21755
702.214	24878
702.333	23113
702.452	23666
702.571	23487
702.690	24733
702.809	23515
702.928	22789
703.047	22211
703.165	21622
703.284	22038
703.403	20803
703.522	22411
703.640	19761
703.759	20849
703.878	21078
703.997	21725
704.115	21142
704.234	20375
704.353	20911
704.471	19937
704.590	19130
704.708	18809
704.827	18148
704.946	19142
705.064	18656
705.183	19698
705.301	18955
705.420	20574
705.538	19795
705.656	19049
705.775	16302
705.893	18028
706.012	19133
706.130	18338
706.249	19046
706.367	18663
706.485	18098
706.604	17131
706.722	16840
706.840	18078
706.958	19157
707.077	18448
707.195	17538
707.313	17401
707.431	17170
707.549	16249
707.668	16212
707.786	15977
707.904	17178
708.022	15749
708.140	18064
708.258	16341
708.376	17267
708.494	15878
708.612	16601
708.730	18399
708.848	18043
708.966	17951
709.084	17633
709.202	17852
709.320	16962
709.438	16535
709.556	16795
709.674	17057
709.791	15747
709.909	15351
710.027	15153
710.145	15318
710.263	14820
710.380	15520
710.498	16306
710.616	14280
710.733	14976
710.851	13912
710.969	14651
711.086	13815
711.204	14619
711.322	14811
711.439	14946
711.557	14297
711.674	14417
711.792	13190
711.909	14704
712.027	13755
712.144	13642
712.262	12742
712.379	13737
712.497	14935
712.614	16067
712.732	15230
712.849	15404
712.966	13550
713.084	16727
713.201	14957
713.318	13875
713.436	15139
713.553	15480
713.670	15794
713.787	16124
713.905	15437
714.022	15216
714.139	15355
714.256	19169
714.373	23387
714.490	37932
714.608	79783
714.725	286951
714.842	895459
714.959	220643
715.076	34088
715.193	21610
715.310	19704
715.427	15572
715.544	14476
715.661	15150
715.778	13718
715.895	14738
716.011	13987
716.128	14242
716.245	13572
716.362	14306
716.479	12556
716.596	11909
716.713	12402
716.829	12875
716.946	11744
717.063	11744
717.180	11175
717.296	11455
717.413	11160
717.530	10871
717.646	10714
717.763	11172
717.880	10556
717.996	10575
718.113	10491
718.229	10535
718.346	9621
718.462	10415
718.579	10542
718.695	12183
718.812	11849
718.928	10676
719.045	11043
719.161	9492
719.277	10865
719.394	10776
719.510	10696
719.626	11677
719.743	13683
719.859	19168
719.975	34337
720.092	98541
720.208	416508
720.324	268369
720.440	24230
720.557	14986
720.673	12536
720.789	12892
720.905	12893
721.021	14977
721.137	9840
721.253	10273
721.369	8599
721.486	10029
721.602	9429
721.718	9268
721.834	8152
721.950	8998
722.066	8267
722.181	8655
722.297	7920
722.413	8769
722.529	9475
722.645	8957
722.761	7457
722.877	8395
722.993	7540
723.108	11007
723.224	11900
723.340	8839
723.456	7386
723.571	8066
723.687	7393
723.803	7241
723.918	8329
724.034	8104
724.150	6833
724.265	8004
724.381	7216
724.497	8938
724.612	7978
724.728	7634
724.843	6695
724.959	6661
725.074	7417
725.190	10088
725.305	8159
725.421	8443
725.536	7146
725.651	7109
725.767	7206
725.882	6876
725.997	6558
726.113	6485
726.228	7083
726.343	7162
726.459	6198
726.574	6924
726.689	6713
726.804	7040
726.920	6737
727.035	6916
727.150	6763
727.265	6925
727.380	6032
727.495	6906
727.610	6822
727.725	6958
727.841	6501
727.956	7403
728.071	6857
728.186	6471
728.301	5808
728.416	6529
728.531	6868
728.645	6610
728.760	5788
728.875	7437
728.990	6480
729.105	5860
729.220	6650
729.335	6695
729.449	6812
729.564	6484
729.679	5590
729.794	6913
729.908	6875
730.023	6554
730.138	6108
730.253	7423
730.367	6242
730.482	6326
730.596	5596
730.711	6865
730.826	7864
730.940	8839
731.055	8268
731.169	8241
731.284	7800
731.398	8852
731.513	9091
731.627	8527
731.742	10502
731.856	13114
731.970	13481
732.085	15063
732.199	20480
732.313	32998
732.428	68724
732.542	224535
732.656	440376
732.771	95833
732.885	27735
732.999	20925
733.113	19638
733.227	19726
733.342	18987
733.456	17350
733.570	16656
733.684	15392
733.798	16006
733.912	15205
734.026	15625
734.140	14956
734.254	14725
734.368	14910
734.482	14951
734.596	15476
734.710	13719
734.824	14926
734.938	13166
735.052	14864
735.166	13905
735.280	13794
735.393	13167
735.507	13676
735.621	13746
735.735	13576
735.849	13389
735.962	12943
736.076	12581
736.190	13690
736.303	12903
736.417	13964
736.531	12296
736.644	13079
736.758	11661
736.872	12452
736.985	12786
737.099	12430
737.212	11212
737.326	12408
737.439	11301
737.553	12876
737.666	10626
737.780	11759
737.893	11282
738.007	11732
738.120	11237
738.233	11582
738.347	11036
738.460	11420
738.573	11116
738.687	11630
738.800	10655
738.913	11918
739.026	11705
739.140	10493
739.253	9716
739.366	9717
739.479	9456
739.592	10678
739.705	9863
739.818	11023
739.932	10702
740.045	9119
740.158	10017
740.271	9639
740.384	10343
740.497	9695
740.610	9217
740.723	10093
740.836	8785
740.949	9986
741.062	9601
741.174	10487
741.287	8594
741.400	9855
741.513	8922
741.626	9005
741.739	8781
741.851	9791
741.964	8716
742.077	9921
742.189	8077
742.302	8656
742.415	9371
742.527	7783
742.640	8959
742.753	8130
742.865	7509
742.978	8997
743.090	7075
743.203	8369
743.316	8139
743.428	7640
743.541	8575
743.653	8145
743.766	7481
743.878	8871
743.990	7910
744.103	8908
744.215	7799
744.327	7360
744.440	9154
744.552	9161
744.664	7831
744.777	8707
744.889	8443
745.001	7219
745.113	7466
745.226	7900
745.338	6583
745.450	7549
745.562	7582
745.674	8113
745.786	7353
745.898	8724
746.010	7127
746.122	7125
746.234	7190
746.347	7607
746.459	7408
746.570	6472
746.682	6407
746.794	8507
746.906	7245
747.018	7325
747.130	7314
747.242	6830
747.354	6097
747.466	7469
747.577	6294
747.689	6452
747.801	6573
747.913	6826
748.024	6593
748.136	6629
748.248	6389
748.359	7007
748.471	6263
748.583	7151
748.694	5271
748.806	6445
748.918	6000
749.029	6447
749.141	6333
749.252	6860
749.364	5506
749.475	6449
749.587	6366
749.698	6066
749.809	6211
749.921	6204
750.032	5281
750.144	5118
750.255	5557
750.366	5469
750.478	6458
750.589	5859
750.700	4984
750.811	5967
750.923	5197
751.034	5865
751.145	7963
751.256	6963
751.367	4532
751.479	4499
751.590	4527
751.701	6023
751.812	4958
751.923	4865
752.034	5715
752.145	6317
752.256	4997
752.367	5031
752.478	4940
752.589	4716
752.700	5022
752.811	5253
752.922	5553
753.032	5807
753.143	4762
753.254	5306
753.365	5393
753.476	5766
753.586	5403
753.697	4643
753.808	4348
753.919	4519
754.029	3759
754.140	5132
754.251	4130
754.361	4547
754.472	4865
754.582	5244
754.693	4053
754.804	5021
754.914	4676
755.025	4398
755.135	4698
755.246	5096
755.356	4764
755.466	5136
755.577	4094
755.687	4778
755.798	4567
755.908	4593
756.018	4392
756.129	4663
756.239	4327
756.349	4665
756.460	4267
756.570	5363
756.680	4634
756.790	4493
756.900	4930
757.011	3897
757.121	3943
757.231	4205
757.341	3401
757.451	3946
757.561	3386
757.671	4455
757.781	4361
757.891	4411
758.001	3619
758.111	4759
758.221	5096
758.331	4260
758.441	4725
758.551	4631
758.661	5803
758.771	5818
758.880	4679
758.990	4543
759.100	4038
759.210	3839
759.320	5032
759.429	4802
759.539	4795
759.649	5220
759.758	6577
759.868	7756
759.978	6144
760.087	7581
760.197	7624
760.307	7320
760.416	5987
760.526	6701
760.635	5616
760.745	6498
760.854	7673
760.964	8850
761.073	8060
761.182	7560
761.292	7329
761.401	5561
761.511	5447
761.620	4341
761.729	4516
761.839	4257
761.948	3855
762.057	4647
762.166	4434
762.276	4160
762.385	3245
762.494	3323
762.603	4309
762.712	4161
762.822	3803
762.931	4030
763.040	3191
763.149	3270
763.258	4217
763.367	3477
763.476	3805
763.585	4028
763.694	3232
763.803	3398
763.912	3290
764.021	3335
764.130	3368
764.238	3391
764.347	4155
764.456	4336
764.565	3742
764.674	2438
764.783	2977
764.891	3356
765.000	3038
765.109	3067
765.217	3251
765.326	3580
765.435	4035
765.543	4008
765.652	3128
765.761	3955
765.869	3330
765.978	4850
766.086	4838
766.195	9312
766.303	16445
766.412	56056
766.520	154357
766.629	43646
766.737	7383
766.846	5167
766.954	4018
767.062	4696
767.171	3090
767.279	4349
767.387	3209
767.496	4091
767.604	2768
767.712	3039
767.820	3357
767.928	3224
768.037	2895
768.145	3305
768.253	3297
768.361	3373
768.469	3790
768.577	3255
768.685	3518
768.793	4009
768.901	3970
769.009	3748
769.117	2300
769.225	3375
769.333	4707
769.441	4184
769.549	5794
769.657	7946
769.765	17902
769.873	72472
769.981	79974
770.088	9677
770.196	4299
770.304	4629
770.412	4115
770.519	4513
770.627	4334
770.735	4043
770.842	3140
770.950	4221
771.058	3778
771.165	5184
771.273	6016
771.380	6093
771.488	7254
771.595	10332
771.703	9034
771.810	8641
771.918	7216
772.025	8986
772.133	11433
772.240	11771
772.348	10639
772.455	11914
772.562	10632
772.670	10642
772.777	10209
772.884	11239
772.991	10400
773.099	10091
773.206	10400
773.313	10292
773.420	9706
773.528	10223
773.635	9040
773.742	10260
773.849	9485
773.956	10577
774.063	9034
774.170	10468
774.277	9589
774.384	9743
774.491	8661
774.598	8970
774.705	8546
774.812	8516
774.919	9338
775.026	9340
775.133	8682
775.239	10428
775.346	8437
775.453	8435
775.560	9276
775.667	8801
775.773	9062
775.880	7608
775.987	8361
776.093	8425
776.200	9199
776.307	8218
776.413	6561
776.520	8244
776.627	9929
776.733	6892
776.840	7426
776.946	7642
777.053	8926
777.159	6776
777.266	7651
777.372	7803
777.478	7891
777.585	9347
777.691	7298
777.798	7656
777.904	8441
778.010	6679
778.117	8508
778.223	7665
778.329	7041
778.435	7332
778.542	7228
778.648	7422
778.754	6407
778.860	6754
778.966	7394
779.072	6682
779.178	7073
779.284	6604
779.391	5315
779.497	7087
779.603	7558
779.708	6638
779.815	6442
779.920	6585
780.026	6594
780.132	6516
780.238	6739
780.344	5656
780.450	6805
780.556	6959
780.661	4893
780.767	7309
780.873	6122
780.979	5494
781.085	5478
781.190	6471
781.296	5013
781.402	5974
781.507	5226
781.613	5597
781.719	4472
781.824	6629
781.930	6901
782.035	4720
782.141	6396
782.246	5878
782.352	4351
782.457	5521
782.563	5511
782.668	5905
782.773	5880
782.879	4731
782.984	4970
783.090	5559
783.195	4858
783.300	6908
783.405	6094
783.511	5800
783.616	4514
783.721	4849
783.826	5316
783.932	5271
784.037	5123
784.142	6172
784.247	5767
784.352	4747
784.457	4900
784.562	4726
784.667	6070
784.772	5150
784.877	3482
784.982	5007
785.087	6122
785.192	4701
785.297	3662
785.402	5330
785.507	4880
785.611	5105
785.716	4628
785.821	3777
785.926	4281
786.031	4216
786.135	3277
786.240	5002
786.345	4543
786.450	4885
786.554	4001
786.659	4385
786.763	3851
786.868	4660
786.973	4286
787.077	4413
787.182	3899
787.286	3618
787.391	4731
787.495	4422
787.600	2780
787.704	3403
787.809	3480
787.913	4194
788.017	3659
788.122	4284
788.226	3725
788.330	2909
788.435	2637
788.539	4454
788.643	3210
788.747	3249
788.852	3138
788.956	4177
789.060	3251
789.164	4570
789.268	3756
789.372	3487
789.476	3126
789.580	3507
789.684	2931
789.788	3480
789.892	3953
789.996	3893
790.100	2313
790.204	3323
790.308	4125
790.412	3963
790.516	2714
790.620	2521
790.724	4344
790.828	4496
790.931	2588
791.035	2561
791.139	2651
791.242	2944
791.346	3117
791.450	3097
791.554	3518
791.657	2193
791.761	2955
791.864	3288
791.968	2953
792.072	3825
792.175	2727
792.279	2781
792.382	3214
792.486	2715
792.589	2281
792.693	3199
792.796	2396
792.899	3285
793.003	3080
793.106	2703
793.209	2534
793.313	2834
793.416	1936
793.519	2573
793.623	2455
793.726	3887
793.829	2017
793.932	1789
794.035	1881
794.138	2977
794.242	2545
794.345	3139
794.448	1976
794.551	2293
794.654	3270
794.757	3007
794.860	2587
794.963	2148
795.066	2708
795.169	2861
795.272	1916
795.375	2954
795.477	2732
795.580	2351
795.683	1636
795.786	2870
795.889	2500
795.991	2418
796.094	2225
796.197	2413
796.300	2521
796.402	3499
796.505	3037
796.608	2553
796.710	2468
796.813	1875
796.915	3014
797.018	3420
797.120	1793
797.223	2911
797.326	2954
797.428	2983
797.530	1627
797.633	1727
797.735	2008
797.838	2630
797.940	2273
798.042	2835
798.145	2686
798.247	1751
798.349	1434
798.452	2130
798.554	1832
798.656	2755
798.758	3191
798.860	3107
798.962	2050
799.065	2587
799.167	1162
799.269	2491
799.371	1955
799.473	3284
799.575	3347
799.677	2411
799.779	1953
799.881	1644
799.983	2666
800.085	2748
800.187	1781
800.289	2136
800.390	2285
800.492	2087
800.594	2580
800.696	2241
800.798	1284
800.899	1274
801.001	2156
801.103	2344
801.205	2054
801.306	2001
801.408	1466
801.509	2778
801.611	1799
801.713	2467
801.814	1605
801.916	1811
802.017	1630
802.119	1738
802.220	1382
802.322	1520
802.423	2590
802.525	1845
802.626	1420
802.727	1717
802.829	1487
802.930	889
803.031	2240
803.133	1989
803.234	1292
803.335	1917
803.436	2037
803.538	1954
803.639	1391
803.740	917
803.841	1253
803.942	2800
804.043	1772
804.144	2133
804.245	1342
804.346	1944
804.447	1150
804.548	1389
804.649	2099
804.750	1400
804.851	875
804.952	1958
805.053	2273
805.154	1432
805.255	1276
805.355	1339
805.456	1796
805.557	2078
805.658	899
805.758	1863
805.859	1725
805.960	1211
806.061	1442
806.161	1390
806.262	1322
806.362	1401
806.463	659
806.564	2233
806.664	1168
806.765	192
806.865	1172
806.966	1453
807.066	999
807.166	1656
807.267	1466
807.367	1398
807.468	2143
807.568	1233
807.668	1319
807.769	1849
807.869	1371
807.969	1074
808.069	1804
808.170	1307
808.270	604
808.370	1236
808.470	1960
808.570	942
808.670	2052
808.770	866
808.870	-38
808.970	1498
809.070	754
809.170	920
809.271	864
809.370	1627
809.470	832
809.570	1166
809.670	700
809.770	1236
809.870	1780
809.970	1305
810.070	955
810.169	1704
810.269	-2
810.369	1487
810.469	819
810.568	761
810.668	1426
810.768	1203
810.867	1129
810.967	909
811.066	1539
811.166	799
811.265	2001
811.365	1159
811.464	1055
811.564	1834
811.663	1521
811.763	1769
811.862	1494
811.962	1475
812.061	821
812.160	1438
812.260	1070
812.359	1027
812.458	178
812.557	1725
812.657	746
812.756	1268
812.855	680
812.954	689
813.053	1189
813.153	686
813.252	765
813.351	1133
813.450	899
813.549	1653
813.648	911
813.747	1224
813.846	1735
813.945	2083
814.044	1529
814.143	1591
814.242	831
814.341	1149
814.439	1224
814.538	2021
814.637	1619
814.736	1858
814.835	2482
814.933	1913
815.032	1802
815.131	1890
815.229	4174
815.328	8075
815.427	7327
815.525	6091
815.624	5762
815.722	5179
815.821	5963
815.919	5534
816.018	5715
816.116	5489
816.215	5414
816.313	6767
816.412	6157
816.510	7755
816.609	7560
816.707	8213
816.805	7885
816.904	7323
817.002	8988
817.100	7861
817.198	7979
817.296	8437
817.395	7554
817.493	8038
817.591	6772
817.689	7082
817.787	6880
817.885	7675
817.983	6959
818.081	8281
818.179	10749
818.277	19717
818.375	32955
818.473	16635
818.571	7475
818.669	6624
818.767	7086
818.865	7291
818.963	5931
819.061	6070
819.158	7576
819.256	10909
819.354	16919
819.452	34068
819.549	52188
819.647	20604
819.745	8512
819.842	5735
819.940	6249
820.038	6562
820.135	5278
820.233	5692
820.330	5557
820.428	5703
820.525	6269
820.623	6123
820.720	4699
820.818	5924
820.915	5594
821.012	4691
821.110	4224
821.207	5839
821.304	4554
821.402	5253
821.499	5816
821.596	4547
821.693	3988
821.791	5506
821.888	5713
821.985	5768
822.082	5102
822.179	4107
822.276	5492
822.373	5140
822.470	3078
822.567	4628
822.664	4214
822.761	3993
822.858	4415
822.955	4628
823.052	3856
823.149	4121
823.246	4883
823.343	4936
823.440	3654
823.536	3288
823.633	4374
823.730	4214
823.827	3286
823.923	4819
824.020	3475
824.117	4471
824.213	4251
824.310	5105
824.407	3361
824.503	3835
824.600	4376
824.696	2985
824.793	4417
824.889	4618
824.986	4510
825.082	3473
825.179	3098
825.275	3997
825.371	4944
825.468	4913
825.564	1564
825.660	2836
825.757	5845
825.853	4875
825.949	3377
826.045	2832
826.142	2690
826.238	5272
826.334	3277
826.430	3743
826.526	2739
826.622	2317
826.718	2470
826.814	4919
826.910	5257
827.006	2575
827.102	1750
827.198	3273
827.294	4425
827.390	3820
827.486	3808
827.582	2326
827.678	2146
827.774	4051
827.869	2931
827.965	2860
828.061	1680
828.157	3698
828.252	3702
828.348	3516
828.444	3342
828.539	2332
828.635	3230
828.731	3485
828.826	2220
828.922	3677
829.017	3701
829.113	4116
829.208	2770
829.304	2825
829.399	3903
829.495	4127
829.590	2844
829.685	2842
829.781	3531
829.876	4438
829.971	2112
830.066	1065
830.162	1900
830.257	4334
830.352	5127
830.447	3089
830.543	1601
830.638	1899
830.733	3963
830.828	3402
830.923	3503
831.018	2634
831.113	3179
831.208	3371
831.303	1670
831.398	1605
831.493	1210
831.588	2968
831.683	3072
831.778	2172
831.873	2677
831.967	3049
832.062	2685
832.157	2767
832.252	2875
832.346	2609
832.441	2323
832.536	3504
832.631	3062
832.725	4361
832.820	2059
832.914	3154
833.009	2257
833.104	2130
833.198	2250
833.293	2535
833.387	2549
833.482	3111
833.576	1606
833.670	2087
833.765	1680
833.859	3171
833.954	3080
834.048	2790
834.142	1676
834.237	1739
834.331	1959
834.425	2777
834.519	2313
834.613	2456
834.708	630
834.802	987
834.896	1686
834.990	2039
835.084	2019
835.178	1438
835.272	1505
835.366	2513
835.460	2726
835.554	2878
835.648	1560
835.742	1261
835.836	1020
835.930	1106
836.024	3166
836.117	2843
836.211	1216
836.305	1774
836.399	1700
836.493	1876
836.586	2299
836.680	1698
836.774	1220
836.867	1811
836.961	763
837.055	1412
837.148	553
837.242	1643
837.335	1389
837.429	2335
837.522	407
837.616	1426
837.709	1890
837.803	2078
837.896	1685
837.989	2397
838.083	1716
838.176	838
838.269	1239
838.363	1475
838.456	668
838.549	2131
838.642	1970
838.735	1813
838.829	2101
838.922	1665
839.015	1680
839.108	1565
839.201	1323
839.294	1567
839.387	1596
839.480	1231
839.573	1201
839.666	1262
839.759	1054
839.852	1696
839.945	880
840.038	1052
840.131	1571
840.223	520
840.316	1337
840.409	1918
840.502	931
840.594	2723
840.687	1416
840.780	1420
840.873	723
840.965	636
841.058	1066
841.150	1875
841.243	1057
841.336	1230
841.428	992
841.521	783
841.613	899
841.706	1863
841.798	1264
841.890	1058
841.983	1379
842.075	1383
842.167	488
842.260	1069
842.352	1884
842.444	1668
842.537	1634
842.629	1635
842.721	1331
842.813	776
842.905	761
842.997	1727
843.090	973
843.182	1531
843.274	662
843.366	2207
843.458	1990
843.550	4023
843.642	2184
843.734	1998
843.826	666
843.918	1222
844.009	239
844.101	716
844.193	759
844.285	1017
844.377	522
844.469	1397
844.560	418
844.652	234
844.744	-18
844.835	1681
844.927	475
845.019	1407
845.110	1242
845.202	1181
845.293	988
845.385	841
845.476	1080
845.568	1270
845.659	1014
845.751	1147
845.842	1282
845.934	897
846.025	542
846.116	1087
846.208	836
846.299	35
846.390	267
846.482	843
846.573	736
846.664	1127
846.755	660
846.846	1172
846.937	426
847.029	1134
847.120	476
847.211	-145
847.302	1110
847.393	288
847.484	1442
847.575	-35
847.666	494
847.757	1182
847.847	-203
847.938	1430
848.029	590
848.120	1750
848.211	-210
848.302	512
848.392	-103
848.483	894
848.574	590
848.664	1493
848.755	1078
848.846	913
848.936	-52
849.027	795
849.118	739
849.208	1220
849.299	1781
849.389	3267
849.480	5910
849.570	13582
849.661	22755
849.751	47543
849.841	52481
849.932	11735
850.022	991
850.112	1936
850.203	1395
850.293	625
850.383	278
850.474	775
850.564	1139
850.654	529
850.744	719
850.834	164
850.924	556
851.014	1558
851.104	1027
851.194	1327
851.284	265
851.374	967
851.464	1233
851.554	1166
851.644	651
851.734	1392
851.824	932
851.914	1247
852.004	1649
852.094	628
852.183	639
852.273	1351
852.363	-7
852.452	1153
852.542	793
852.632	1258
852.721	583
852.811	594
852.901	796
852.990	1264
853.080	1822
853.169	930
853.259	1436
853.348	1471
853.438	1911
853.527	2450
853.617	4351
853.706	8008
853.795	14229
853.885	27871
853.974	58532
854.063	94059
854.152	180557
854.242	182407
854.331	49496
854.420	11855
854.509	6001
854.598	5250
854.687	4085
854.777	2756
854.866	2027
854.955	1380
855.044	581
855.133	1775
855.222	1135
855.311	1528
855.400	654
855.488	935
855.577	341
855.666	1118
855.755	1066
855.844	945
855.933	765
856.021	891
856.110	719
856.199	564
856.288	38
856.376	491
856.465	497
856.554	1561
856.642	297
856.731	1550
856.819	696
856.908	1030
856.996	506
857.085	1113
857.173	998
857.262	20
857.350	1044
857.438	669
857.527	296
857.615	255
857.703	634
857.792	1225
857.880	474
857.968	4
858.056	331
858.145	916
858.233	890
858.321	311
858.409	-82
858.497	410
858.585	279
858.673	164
858.761	230
858.849	612
858.937	529
859.025	502
859.113	609
859.201	257
859.289	1130
859.377	1260
859.465	729
859.552	336
859.640	42
859.728	226
859.816	76
859.903	1153
859.991	157
860.079	351
860.166	-283
860.254	199
860.342	501
860.429	911
860.517	271
860.604	463
860.692	145
860.779	574
860.867	-132
860.954	1245
861.042	-168
861.129	1161
861.216	501
861.304	586
861.391	147
861.478	681
861.565	449
861.653	934
861.740	-151
861.827	328
861.914	-38
862.001	642
862.089	763
862.176	1101
862.263	411
862.350	-77
862.437	655
862.524	577
862.611	401
862.698	1330
862.785	1034
862.871	1521
862.958	559
863.045	532
863.132	959
863.219	979
863.306	359
863.392	767
863.479	262
863.566	1134
863.652	1033
863.739	1692
863.826	1129
863.912	1286
863.999	850
864.086	1988
864.172	276
864.259	1563
864.345	815
864.432	1523
864.518	1401
864.604	746
864.691	1668
864.777	1927
864.863	1914
864.950	3007
865.036	4163
865.122	5785
865.209	9110
865.295	8117
865.381	7610
865.467	7580
865.553	7341
865.639	9295
865.726	12726
865.812	19894
865.898	34883
865.984	56790
866.070	76921
866.156	142948
866.242	101798
866.328	26302
866.414	10689
866.499	8146
866.585	7012
866.671	7655
866.757	6485
866.843	7254
866.928	6253
867.014	6240
867.100	6102
867.186	6081
867.271	5896
867.357	5833
867.442	5333
867.528	5724
867.614	6371
867.699	6082
867.785	5451
867.870	5459
867.956	5376
868.041	5838
868.127	4979
868.212	5388
868.297	5340
868.383	4699
868.468	5659
868.553	5671
868.639	5824
868.724	6145
868.809	7263
868.894	6688
868.979	4743
869.065	5571
869.150	4231
869.235	4530
869.320	5109
869.405	4743
869.490	4177
869.575	5234
869.660	4096
869.745	3837
869.830	5187
869.915	4876
870.000	4067
870.085	4381
870.169	4033
870.254	5005
870.339	4298
870.424	2602
870.509	3700
870.593	5383
870.678	5141
870.763	4903
870.847	3933
870.932	3741
871.016	5688
871.101	4446
871.186	3465
871.270	5781
871.355	5044
871.439	3588
871.523	3302
871.608	4111
871.692	2866
871.777	3303
871.861	4575
871.945	4717
872.030	3910
872.114	4025
872.198	4418
872.282	3418
872.367	3436
872.451	3840
872.535	3272
872.619	3640
872.703	3505
872.787	3823
872.871	4484
872.955	4284
873.039	2555
873.123	2890
873.207	4209
873.291	2974
873.375	2266
873.459	3346
873.543	3313
873.627	3868
873.711	2995
873.794	3540
873.878	3632
873.962	2875
874.045	1742
874.129	2985
874.137	2944
874.213	2539
874.245	3000
874.296	3746
874.352	2985
874.380	2616
874.460	3060
874.464	3077
874.547	2687
874.568	2864
874.631	3400
874.676	3506
874.714	3574
874.784	4104
874.798	4211
874.881	3990
874.892	3689
874.965	1643
874.999	1900
875.048	2275
875.107	3625
875.131	4134
875.215	3095
875.215	3094
875.298	2132
875.323	2253
875.381	2625
875.430	2879
875.465	3028
875.538	4102
875.548	4224
875.631	2948
875.646	2716
875.714	1722
875.753	1505
875.798	1349
875.861	2359
875.881	2638
875.964	3120
875.968	3082
876.047	2346
876.076	2517
876.130	2877
876.183	2547
876.213	2422
876.291	3974
876.296	4063
876.379	2609
876.398	2727
876.462	3127
876.506	2731
876.545	2494
876.613	2384
876.628	2343
876.711	2739
876.721	2834
876.794	3531
876.828	3403
876.877	3132
876.935	3032
876.960	3028
877.043	2673
877.043	2672
877.125	2686
877.150	2881
877.208	3290
877.258	3785
877.291	4007
877.365	2425
877.374	2279
877.456	3501
877.472	3312
877.539	2399
877.579	2816
877.622	3309
877.687	4099
877.704	4258
877.787	3583
877.794	3508
877.869	3329
877.901	3953
877.952	4363
878.008	3104
878.034	2597
878.115	2243
878.117	2241
878.199	2768
878.222	2770
878.282	3112
878.329	3315
878.364	3279
878.437	3978
878.447	4050
878.529	2796
878.544	2785
878.611	2760
878.651	2217
878.694	2014
878.758	3499
878.776	3824
878.858	3273
878.865	3323
878.941	3666
878.972	3201
879.023	2438
879.078	2535
879.105	2779
879.185	3588
879.187	3598
879.269	2780
879.292	2695
879.351	2843
879.399	3499
879.433	3580
879.506	2509
879.516	2461
879.598	3142
879.613	3028
879.680	2268
879.720	2465
879.762	2813
879.827	2879
879.844	2842
879.926	2757
879.933	2722
880.007	2785
880.040	2940
880.089	2835
880.147	2370
880.171	2428
880.253	3540
880.254	3537
880.335	2814
880.360	2703
880.417	3265
880.467	4038
880.499	4192
880.574	4424
880.580	4486
880.662	4132
880.680	4273
880.744	3761
880.787	2769
880.825	2337
880.893	2598
880.907	2723
880.989	3231
881.000	3245
881.070	3163
881.106	3333
881.152	3395
881.213	3054
881.233	2881
881.315	1921
881.319	1945
881.396	3052
881.426	2888
881.478	2699
881.532	3080
881.559	3125
881.639	3438
881.641	3449
881.722	3260
881.745	3008
881.803	2507
881.852	2705
881.885	2917
881.958	3133
881.966	3112
882.047	2841
882.064	2750
882.129	2914
882.171	3092
882.210	2964
882.277	2294
882.291	2268
882.372	2828
882.383	2887
882.454	3662
882.489	4094
882.535	4232
882.596	4114
882.616	4016
882.697	3411
882.702	3374
882.778	2963
882.808	2800
882.859	2639
882.914	2592
882.940	2608
883.020	2697
883.021	2707
883.102	3075
883.127	3320
883.183	4210
883.233	4903
883.264	4735
883.339	3769
883.345	3668
883.426	2078
883.445	1826
883.507	1879
883.551	2032
883.587	2522
883.657	3379
883.668	3461
883.749	3960
883.763	3984
883.830	3661
883.869	3390
883.910	2646
883.975	1685
883.991	1870
884.072	2958
884.081	3096
884.152	3724
884.187	3683
884.233	4244
884.292	5666
884.314	5423
884.394	3180
884.398	3092
884.475	2210
884.504	1850
884.555	2048
884.610	2487
884.636	2706
884.716	3085
884.716	3096
884.797	3794
884.821	3941
884.877	4389
884.927	4642
884.958	4050
885.033	2677
885.038	2667
885.118	2346
885.139	2240
885.199	1955
885.244	1994
885.279	2508
885.350	3400
885.359	3586
885.439	5153
885.456	5445
885.520	5101
885.561	4651
885.600	3647
885.667	2039
885.680	2204
885.760	3746
885.773	3866
885.840	2883
885.878	2452
885.920	2439
885.984	2379
886.000	2599
886.080	3827
886.089	3934
886.160	3629
886.195	3535
886.240	3738
886.300	3704
886.320	3706
886.400	4002
886.406	3994
886.480	2984
886.511	2624
886.560	2882
886.616	3047
886.640	3072
886.720	3431
886.722	3426
886.800	3578
886.827	3637
886.879	3250
886.932	2805
886.959	3150
887.038	4252
887.039	4261
887.119	4122
887.143	4080
887.198	3761
887.248	3491
887.278	3440
887.354	3233
887.358	3281
887.437	4091
887.459	4321
887.517	4233
887.564	4089
887.596	4043
887.669	3973
887.676	3881
887.755	2466
887.774	2150
887.835	2371
887.880	2555
887.914	2721
887.985	2935
887.994	3066
888.073	4250
888.090	4503
888.153	5445
888.195	5895
888.232	5305
888.300	4347
888.311	4147
888.391	2597
888.405	2307
888.470	2827
888.510	3160
888.549	2974
888.615	2661
888.628	2900
888.708	4257
888.720	4460
888.787	4184
888.825	3981
888.866	3554
888.930	2928
888.945	2924
889.024	2861
889.035	2847
889.103	4502
889.140	5324
889.182	4562
889.245	3482
889.261	3608
889.340	4147
889.349	4197
889.419	3746
889.454	3504
889.498	3715
889.559	4004
889.577	3966
889.656	3751
889.664	3723
889.735	4864
889.768	5383
889.814	4612
889.873	3561
889.978	3328
890.083	3949
890.187	3210
890.292	3845
890.397	3842
890.501	3898
890.606	4091
890.710	2879
890.815	4726
890.919	3761
891.024	4421
891.128	2784
891.233	3749
891.337	3910
891.442	5049
891.546	3597
891.650	4497
891.755	2415
891.859	3734
891.963	4338
892.068	4118
892.172	4015
892.276	2405
892.380	2802
892.484	4234
892.589	4737
892.693	4240
892.797	2966
892.901	2401
893.005	3149
893.109	4521
893.213	5090
893.317	3797
893.421	2684
893.525	2139
893.629	2715
893.733	4582
893.837	3540
893.941	3492
894.045	2660
894.148	1938
894.252	2543
894.356	3446
894.460	5615
894.564	3934
894.667	3286
894.771	2992
894.875	1854
894.978	2575
895.082	3460
895.186	4487
895.289	3431
895.393	3208
895.496	4377
895.600	4685
895.703	1349
895.807	3528
895.910	2556
896.014	3467
896.117	2877
896.221	3270
896.324	3192
896.427	2755
896.531	1967
896.634	3591
896.737	2531
896.840	2938
896.944	3984
897.047	5398
897.150	2938
897.253	2234
897.356	1802
897.460	2184
897.563	1834
897.666	2793
897.769	4296
897.872	2601
897.975	1497
898.078	2928
898.181	2357
898.284	3029
898.387	3137
898.490	4429
898.593	3563
898.695	2273
898.798	2505
898.901	2066
899.004	3256
899.107	3214
899.209	2537
899.312	5038
899.415	3314
899.518	2691
899.620	1074
899.723	2821
899.826	2736
899.928	3116
900.031	1834
900.133	4308
900.236	3132
900.338	1907
900.441	1850
900.543	2703
900.646	2841
900.748	3031
900.851	3426
900.953	4103
901.055	1816
901.158	2130
901.260	2935
901.362	1822
901.465	2473
901.567	2393
901.669	3556
901.771	2005
901.873	2892
901.976	2340
902.078	3331
902.180	2189
902.282	2081
902.384	1977
902.486	3576
902.588	3838
902.690	1618
902.792	2766
902.894	1480
902.996	3458
903.098	3127
903.200	2871
903.302	1177
903.404	1489
903.505	2338
903.607	2923
903.709	3073
903.811	3971
903.913	2874
904.014	2179
904.116	1923
904.218	2595
904.319	2368
904.421	3302
904.523	3519
904.624	1989
904.726	1811
904.827	1748
904.929	1925
905.030	2005
905.132	2584
905.233	3715
905.335	2265
905.436	2096
905.537	1477
905.639	2503
905.740	2587
905.841	3891
905.943	2682
906.044	2580
906.145	1593
906.247	1695
906.348	2226
906.449	3006
906.550	2809
906.651	2570
906.752	1502
906.854	1560
906.955	1847
907.056	3048
907.157	2474
907.258	4433
907.359	1932
907.460	2319
907.561	1172
907.662	1597
907.762	1716
907.863	2703
907.964	3045
908.065	2751
908.166	2669
908.267	2890
908.367	1700
908.468	1846
908.569	1792
908.670	2502
908.770	3024
908.871	3269
908.971	2856
909.072	2324
909.173	1765
909.273	2349
909.374	2664
909.474	2543
909.575	2232
909.675	2256
909.776	2389
909.876	2724
909.977	1701
910.077	2730
910.177	2770
910.278	3324
910.378	1334
910.478	2026
910.579	2149
910.679	3022
910.779	2754
910.879	3373
910.980	1952
911.080	2956
911.180	1880
911.280	2189
911.380	1414
911.480	1958
911.580	2084
911.680	2589
911.780	1825
911.880	3609
911.980	1760
912.080	2471
912.180	2977
912.280	2260
912.380	2312
912.480	1686
912.580	1834
912.679	1919
912.779	2285
912.879	2507
912.979	1884
913.078	2247
913.178	1316
913.278	1377
913.377	1813
913.477	1784
913.577	1940
913.676	2483
913.776	2551
913.875	2638
913.975	1989
914.074	2044
914.174	2933
914.273	2677
914.373	1636
914.472	2485
914.572	1607
914.671	2110
914.770	2244
914.870	1440
914.969	1789
915.068	2730
915.167	1729
915.267	2267
915.366	1865
915.465	2190
915.564	2500
915.663	2945
915.763	2375
915.862	2705
915.961	3545
916.060	2069
916.159	1754
916.258	1402
916.357	1891
916.456	1901
916.555	1576
916.654	2379
916.752	3106
916.851	4181
916.950	2321
917.049	1768
917.148	2497
917.247	2587
917.345	1479
917.444	1489
917.543	1711
917.642	2012
917.740	2321
917.839	3499
917.937	4283
918.036	3882
918.135	2480
918.233	2429
918.332	2533
918.430	1754
918.529	2192
918.627	2790
918.726	3194
918.824	2149
918.923	1473
919.021	2532
919.119	2172
919.218	2631
919.316	2336
919.414	2773
919.512	3191
919.611	3969
919.709	2798
919.807	3672
919.905	3784
920.003	3985
920.102	3675
920.200	4226
920.298	3589
920.396	4347
920.494	3633
920.592	2529
920.690	3189
920.788	2830
920.886	3510
920.984	4282
921.082	4169
921.180	5285
921.277	3235
921.375	4729
921.473	5900
921.571	7044
921.669	5942
921.766	6340
921.864	6069
921.962	6754
922.060	5297
922.157	5644
922.255	6093
922.352	6105
922.450	6622
922.548	6995
922.645	6873
922.743	9565
922.840	12872
922.938	18294
923.035	15855
923.133	14910
923.230	15569
923.327	19720
923.425	18355
923.522	18335
923.619	17723
923.717	16218
923.814	15103
923.911	14827
924.008	15875
924.106	15609
924.203	13989
924.300	15520
924.397	14267
924.494	14763
924.591	14278
924.688	14025
924.786	14812
924.883	14518
924.979	14249
925.077	14582
925.173	13324
925.270	13567
925.367	13393
925.464	15562
925.561	14757
925.658	16463
925.755	14157
925.852	15654
925.948	15136
926.045	14529
926.142	13721
926.239	15249
926.335	12232
926.432	12334
926.529	13770
926.625	15193
926.722	13340
926.818	11971
926.915	14361
927.011	13265
927.108	12434
927.204	14275
927.301	10828
927.397	13385
927.494	14989
927.590	12153
927.687	9622
927.783	14945
927.879	15623
927.976	13176
928.072	11119
928.168	12679
928.264	12793
928.361	12014
928.457	14177
928.553	13038
928.649	10909
928.745	14064
928.841	11520
928.937	11066
929.033	12722
929.129	10698
929.225	13531
929.321	12681
929.417	9173
929.513	13612
929.609	12002
929.705	10232
929.801	12425
929.897	11609
929.993	9988
930.089	11631
930.184	10494
930.280	11331
930.376	13109
930.471	12788
930.567	8704
930.663	10400
930.758	9677
930.854	11080
930.950	10166
931.045	10106
931.141	9876
931.236	12753
931.332	12061
931.427	9188
931.523	12037
931.618	12058
931.714	8635
931.809	9026
931.905	11509
932.000	9652
932.095	7058
932.191	10893
932.286	13205
932.381	12144
932.476	7612
932.572	9969
932.667	10123
932.762	8660
932.857	9591
932.952	11423
933.047	10884
933.142	7718
933.237	8704
933.332	11278
933.427	10889
933.522	10677
933.617	8438
933.712	8430
933.807	10769
933.902	11412
933.997	12333
934.092	9622
934.187	7768
934.282	10093
934.376	9503
934.471	11029
934.566	9355
934.661	8175
934.755	9635
934.850	10671
934.945	9058
935.039	7945
935.134	7238
935.228	7326
935.323	11973
935.417	10707
935.512	6295
935.606	6176
935.701	8528
935.795	10090
935.890	9630
935.984	8365
936.079	6261
936.173	7826
936.267	8192
936.362	6769
936.456	7743
936.550	10314
936.644	9012
936.738	7323
936.833	6304
936.927	5799
937.021	6649
937.115	8333
937.209	9009
937.303	8625
937.397	6128
937.491	6808
937.585	8785
937.679	9938
937.773	6781
937.867	6780
937.961	5580
938.055	8572
938.149	9505
938.243	6327
938.337	5357
938.430	6557
938.524	8603
938.618	8957
938.712	6483
938.805	6459
938.899	7944
938.993	9214
939.086	7052
939.180	4636
939.274	4724
939.367	7251
939.461	8873
939.554	6834
939.648	5630
939.741	6753
939.835	6601
939.928	9496
940.022	9026
940.115	7404
940.208	6553
940.302	8980
940.395	10607
940.488	6869
940.582	6186
940.675	5459
940.768	5348
940.861	7197
940.954	8347
941.048	6412
941.141	4557
941.234	5599
941.327	6452
941.420	7490
941.513	8033
941.606	7321
941.699	5609
941.792	7359
941.885	7463
941.978	6311
942.071	7179
942.164	5830
942.257	5551
942.349	6599
942.442	6133
942.535	5785
942.628	4986
942.721	5743
942.813	6431
942.906	7094
942.999	6094
943.091	5245
943.184	5272
943.277	6457
943.369	5016
943.462	4450
943.554	4244
943.647	5546
943.739	6081
943.832	7547
943.924	4268
944.017	3907
944.109	4024
944.201	5372
944.294	4816
944.386	5681
944.478	4765
944.571	4081
944.663	3993
944.755	5371
944.847	5828
944.940	6339
945.032	3729
945.124	4033
945.216	4808
945.308	5648
945.400	5037
945.492	4977
945.584	6085
945.676	7675
945.768	6975
945.860	5782
945.952	6986
946.044	5911
946.136	4383
946.228	4709
946.320	4355
946.412	5068
946.503	6531
946.595	6798
946.687	4300
946.779	3845
946.870	3529
946.962	4957
947.054	4306
947.145	5308
947.237	4719
947.329	4078
947.420	5060
947.512	4832
947.603	3219
947.695	4001
947.786	4464
947.878	3680
947.969	5113
948.061	5367
948.152	5817
948.243	3324
948.335	2042
948.426	3376
948.517	4130
948.609	5844
948.700	4262
948.791	5015
948.882	3589
948.973	3530
949.065	4001
949.156	4956
949.247	3486
949.338	4581
949.429	3146
949.520	3536
949.611	3771
949.702	5118
949.793	3898
949.884	4530
949.975	3786
950.066	3668
950.157	2747
950.247	2824
950.338	3663
950.429	2820
950.520	4070
950.611	3247
950.701	3386
950.792	5884
950.883	5333
950.973	4697
951.064	4314
951.155	5118
951.245	4152
951.336	5151
951.427	4970
951.517	5273
951.608	4236
951.698	4569
951.788	3340
951.879	3300
951.969	2768
952.060	3327
952.150	3577
952.240	4733
952.331	4207
952.421	5100
952.511	3570
952.602	2777
952.692	2658
952.782	3325
952.872	2624
952.962	4012
953.052	3924
953.143	2740
953.233	3295
953.323	3368
953.413	3788
953.503	4670
953.593	3979
953.683	4446
953.773	2689
953.863	2913
953.953	2745
954.042	3856
954.132	4475
954.222	4070
954.312	3798
954.402	3074
954.492	2987
954.581	3705
954.671	4242
954.761	3616
954.850	3763
954.940	3149
955.030	1759
955.119	2629
955.209	2717
955.298	2857
955.388	4532
955.477	4758
955.567	2023
955.656	2117
955.746	3053
955.835	4623
955.925	2323
956.014	4118
956.103	4692
956.193	5024
956.282	5092
956.371	4286
956.461	2527
956.550	3804
956.639	3296
956.728	3908
956.817	2740
956.906	3170
956.995	4003
957.085	3307
957.174	2962
957.263	2679
957.352	2149
957.441	3366
957.530	2866
957.619	2518
957.708	3003
957.796	2985
957.885	3550
957.974	3112
958.063	3063
958.152	2296
958.241	2308
958.329	2671
958.418	2343
958.507	2455
958.596	3156
958.684	3544
958.773	3882
958.861	2171
958.950	1699
959.039	2590
959.127	1852
959.216	3869
959.304	2582
959.393	2699
959.481	2445
959.570	3324
959.658	2185
959.746	2384
959.835	1750
959.923	3348
960.011	2094
960.100	2611
960.188	3870
960.276	3723
960.365	2939
960.453	2860
960.541	1681
960.629	2488
960.717	2463
960.805	1622
960.893	1155
960.981	3261
961.069	3881
961.158	3995
961.245	5054
961.333	4730
961.421	2920
961.509	3869
961.597	2656
961.685	2302
961.773	2934
961.861	3958
961.949	4056
962.036	3030
962.124	2772
962.212	1700
962.299	2838
962.387	2913
962.475	2520
962.562	2606
962.650	2707
962.738	2692
962.825	1923
962.913	2299
963.000	2829
963.088	3335
963.175	2789
963.263	2954
963.350	2543
963.438	3588
963.525	1648
963.612	2579
963.700	1655
963.787	4457
963.874	5668
963.962	3661
964.049	2402
964.136	2261
964.223	2148
964.310	2248
964.398	2400
964.485	2663
964.572	2364
964.659	3273
964.746	2975
964.833	2447
964.920	2553
965.007	2251
965.094	2572
965.181	3670
965.268	3818
965.355	2940
965.441	2642
965.528	3113
965.615	2567
965.702	2936
965.789	2647
965.875	3015
965.962	3327
966.049	2926
966.136	4055
966.222	4003
966.309	3877
966.395	3566
966.482	3722
966.569	3318
966.655	3270
966.742	3590
966.828	2528
966.915	2473
967.001	2271
967.087	1896
967.174	2359
967.260	3317
967.347	2646
967.433	3012
967.519	3589
967.605	4323
967.692	3490
967.778	2667
967.864	2189
967.950	2954
968.036	3122
968.123	3335
968.209	2763
968.295	3098
968.381	2359
968.467	2596
968.553	1894
968.639	3305
968.725	2340
968.811	4236
968.897	4519
968.983	3391
969.069	2804
969.154	2615
969.240	2726
969.326	2708
969.412	2182
969.497	2206
969.583	2576
969.669	3251
969.755	3156
969.840	3757
969.926	3947
970.012	5731
970.097	7269
970.183	7553
970.268	5120
970.354	3426
970.439	3534
970.525	3705
970.610	3332
970.696	3167
970.781	2946
970.866	1660
970.952	2208
971.037	2701
971.122	2355
971.208	2941
971.293	1887
971.378	3129
971.463	2062
971.549	2546
971.634	1792
971.719	2424
971.804	2314
971.889	3090
971.974	2638
972.059	2281
972.144	2353
972.229	3136
972.314	2407
972.399	3552
972.484	2448
972.569	2920
972.654	1511
972.739	3001
972.824	2627
972.908	3348
972.993	2135
973.078	2722
973.163	2340
973.247	2337
973.332	2339
973.417	3628
973.501	1955
973.586	2983
973.671	2144
973.755	2979
973.840	2672
973.924	3256
974.009	3799
974.093	3763
974.178	4258
974.262	3246
974.346	3214
974.431	3242
974.515	2453
974.600	2894
974.684	2901
974.768	3086
974.852	2486
974.937	2336
975.021	2780
975.105	2779
975.189	2321
975.273	2467
975.358	2872
975.442	2087
975.526	2316
975.610	2223
975.694	1737
975.778	2977
975.862	2158
975.946	1848
976.030	3222
976.114	2410
976.198	2681
976.281	2267
976.365	2479
976.449	2697
976.533	2085
976.617	2044
976.700	1870
976.784	2254
976.868	1162
976.951	2760
977.035	1915
977.119	2430
977.202	2283
977.286	2871
977.369	2731
977.453	4442
977.536	4798
977.620	4438
977.703	3553
977.787	3352
977.870	3997
977.953	3459
978.037	2791
978.120	3430
978.203	2117
978.287	3903
978.370	3400
978.453	2462
978.536	1759
978.620	3180
978.703	2886
978.786	3051
978.869	2817
978.952	2285
979.035	3635
979.118	2501
979.201	2199
979.284	2498
979.367	3039
979.450	2486
979.533	2683
979.616	2835
979.699	1959
979.782	1757
979.865	2551
979.948	2814
980.030	2158
980.113	2755
980.196	2394
980.279	2438
980.361	2960
980.444	2149
980.526	2814
980.609	3827
980.692	5275
980.774	5732
980.857	3706
980.939	3517
981.022	2412
981.104	3730
981.187	3126
981.269	3340
981.352	2885
981.434	3129
981.516	2729
981.599	3523
981.681	2522
981.763	4046
981.846	2475
981.928	3129
982.010	3042
982.092	2551
982.174	2559
982.256	2894
982.339	2074
982.421	2336
982.503	2786
982.585	3079
982.667	2241
982.749	3655
982.831	2442
982.913	2941
982.995	2985
983.077	2417
983.158	3233
983.240	2832
983.322	2853
983.404	4825
983.486	4711
983.568	5006
983.649	3652
983.731	4458
983.813	4084
983.894	4291
983.976	2852
984.058	4249
984.139	3901
984.221	3176
984.302	3632
984.384	3676
984.465	2991
984.547	3770
984.628	3551
984.710	3541
984.791	3284
984.872	3388
984.954	3274
985.035	3302
985.116	3044
985.198	3691
985.279	3539
985.360	3602
985.441	2705
985.522	4198
985.604	3634
985.685	2590
985.766	3694
985.847	4082
985.928	3294
986.009	4045
986.090	2407
986.171	3432
986.252	2781
986.333	4097
986.414	2795
986.495	3949
986.576	3448
986.656	3174
986.737	3977
986.818	4127
986.899	3174
986.980	3958
987.060	3739
987.141	4223
987.222	4256
987.302	4916
987.383	5140
987.464	5202
987.544	5408
987.625	5345
987.705	4094
987.786	5496
987.866	4433
987.947	5173
988.027	4052
988.108	5053
988.188	4359
988.268	4197
988.349	4113
988.429	4516
988.509	4314
988.589	4276
988.670	3414
988.750	5238
988.830	4510
988.910	4318
988.990	4182
989.070	3370
989.151	3301
989.231	3727
989.311	3394
989.391	3872
989.471	3134
989.551	3377
989.631	3398
989.711	3680
989.791	4204
989.870	3321
989.950	4134
990.030	3192
990.110	4368
990.190	3198
990.269	2821
990.349	3042
990.429	3248
990.509	3751
990.588	2658
990.668	2935
990.747	3682
990.827	3505
990.907	2611
990.986	4272
991.066	3622
991.145	3674
991.225	2651
991.304	3554
991.383	3414
991.463	3589
991.542	2943
991.622	3392
991.701	2580
991.780	2955
991.859	2285
991.939	2543
992.018	2669
992.097	3285
992.176	2332
992.256	1809
992.335	2154
992.414	3772
992.493	2819
992.572	2222
992.651	2714
992.730	2783
992.809	2691
992.888	1874
992.967	1745
993.046	2825
993.125	2038
993.203	2439
993.282	2443
993.361	2835
993.440	2865
993.519	2589
993.597	2581
993.676	2544
993.755	2870
993.834	2279
993.912	1231
993.991	3019
994.069	1423
994.148	2161
994.226	2432
994.305	2307
994.384	3468
994.462	3171
994.540	2713
994.619	2621
994.697	1946
994.776	2255
994.854	1848
994.932	2527
995.011	1828
995.089	1458
995.167	1234
995.245	2693
995.324	1638
995.402	3074
995.480	3063
995.558	1973
995.636	1129
995.714	2150
995.792	2548
995.870	2493
995.948	1203
996.026	2313
996.104	1863
996.182	2002
996.260	1638
996.338	2292
996.416	1485
996.494	2883
996.572	1987
996.649	2642
996.727	1797
996.805	2383
996.883	1535
996.960	2316
997.038	2002
997.116	2771
997.193	1486
997.271	1832
997.348	637
997.426	1570
997.504	1241
997.581	2469
997.658	2617
997.736	1086
997.813	888
997.891	2624
997.968	901
998.046	1546
998.123	1185
998.200	2306
998.277	1467
998.355	2764
998.432	730
998.509	1349
998.586	1943
998.663	1546
998.741	1253
998.818	1285
998.895	1524
998.972	2173
999.049	938
999.126	1677
999.203	1143
999.280	1641
999.357	801
999.434	1338
999.511	1705
999.587	1498
999.664	755
999.741	787
999.818	1181
999.895	1422
999.971	1467
1000.048	1346
1000.125	2162
1000.202	843
1000.278	1277
1000.355	1169
1000.431	694
1000.508	881
1000.584	574
1000.661	807
1000.738	1045
1000.814	1282
1000.890	538
1000.967	1256
1001.043	1212
1001.120	1262
1001.196	546
1001.272	1306
1001.349	711
1001.425	1119
1001.501	699
1001.577	1448
1001.654	1908
1001.730	1410
1001.806	682
1001.882	353
1001.958	1821
1002.034	1736
1002.110	561
1002.186	707
1002.262	187
1002.338	162
1002.414	1060
1002.490	935
1002.566	27
1002.642	588
1002.718	556
1002.794	1189
1002.870	410
1002.945	1363
1003.021	1101
1003.097	726
1003.173	1219
1003.248	826
1003.324	743
1003.400	1648
1003.475	474
1003.551	1362
1003.626	677
1003.702	815
1003.777	120
1003.853	631
1003.928	-169
1004.004	1344
1004.079	733
1004.155	503
1004.230	-677
1004.305	1043
1004.381	785
1004.456	1359
1004.531	-44
1004.607	712
1004.682	108
1004.757	321
1004.832	860
1004.907	600
1004.982	451
1005.057	934
1005.133	636
1005.208	728
1005.283	181
1005.358	872
1005.433	-36
1005.508	411
1005.583	388
1005.657	-285
1005.732	608
1005.807	-103
1005.882	469
1005.957	343
1006.032	-458
1006.106	-23
1006.181	503
1006.256	858
1006.331	183
1006.405	724
1006.480	278
1006.554	609
1006.629	606
1006.704	557
1006.778	-258
1006.853	492
1006.927	205
1007.002	511
1007.076	38
1007.150	989
1007.225	-118
1007.299	1108
1007.373	-633
1007.448	810
1007.522	398
1007.596	132
1007.671	-633
1007.745	479
1007.819	-550
1007.893	133
1007.967	-198
1008.041	254
1008.115	-462
1008.190	139
1008.264	600
1008.338	-24
1008.412	197
1008.486	171
1008.560	-702
1008.633	-466
1008.707	418
1008.781	501
1008.855	71
1008.929	-327
1009.003	-434
1009.076	-143
1009.150	-490
1009.224	466
1009.298	-273
1009.371	-162
1009.445	-108
1009.519	497
1009.592	-1693
1009.666	41
1009.739	-191
1009.813	272
1009.886	-92
1009.960	-393
1010.033	54
1010.107	518
1010.180	-982
1010.253	572
1010.327	-457
1010.400	458
1010.473	-217
1010.547	-214
1010.620	-715
1010.693	481
1010.766	-1043
1010.840	647
1010.913	400
1010.986	-781
1011.059	-396
1011.132	83
1011.205	69
1011.278	-898
1011.351	344
1011.424	260
1011.497	-591
1011.570	-115
1011.643	-972
1011.716	-65
1011.789	-659
1011.862	593
1011.934	-1207
1012.007	-773
1012.080	-495
1012.153	-292
1012.225	-411
1012.298	-317
1012.371	-775
1012.443	-627
1012.516	-923
1012.588	-319
1012.661	701
1012.733	-966
1012.806	334
1012.879	365
1012.951	-459
1013.023	-874
1013.096	-1127
1013.168	-14
1013.241	-1142
1013.313	-19
1013.385	-792
1013.458	-648
1013.530	526
1013.602	-987
1013.674	-24
1013.746	-404
1013.819	-1178
1013.891	169
1013.963	-641
1014.035	-615
1014.107	-750
1014.179	-213
1014.251	-148
1014.323	68
1014.395	-745
1014.467	-791
1014.539	-469
1014.611	-713
1014.683	-512
1014.754	-782
1014.826	-542
1014.898	-527
1014.970	-1494
1015.042	1171
1015.113	-1225
1015.185	324
1015.257	-1574
1015.328	-933
1015.400	-961
1015.471	-390
1015.543	-699
1015.615	96
1015.686	-955
1015.757	317
1015.829	-1055
1015.901	-965
1015.972	-140
1016.043	-806
1016.115	-1337
1016.186	-443
1016.257	-659
1016.328	-480
1016.400	-673
1016.471	-518
1016.542	-234
1016.613	-266
1016.685	-336
1016.756	-149
1016.827	-1293
1016.898	-1319
1016.969	83
1017.040	-319
1017.111	-984
1017.182	-954
1017.253	-955
1017.324	-961
1017.395	-827
1017.466	-783
1017.537	-735
1017.608	-478
1017.678	-640
1017.749	-956
1017.820	-903
1017.891	-924
1017.961	-1306
1018.032	-280
1018.103	-972
1018.173	-502
1018.244	-872
1018.315	-1342
1018.385	-655
1018.456	-408
1018.526	-1188
1018.597	-865
1018.667	-1295
1018.738	-662
1018.808	-942
1018.878	-556
1018.949	-441
1019.019	-535
1019.089	-1282
1019.160	-552
1019.230	-1379
1019.300	-74
1019.371	-1099
1019.441	-323
1019.511	-680
1019.581	-1122
1019.651	-1042
1019.721	-1285
1019.791	-982
1019.861	-387
1019.931	-605
1020.001	-1541
1020.071	-612
1020.141	-863
1020.211	-227
1020.281	-811
1020.351	-1149
1020.421	-974
1020.491	-951
1020.560	-112
1020.630	-722
1020.700	-642
1020.770	-762
1020.839	-245
1020.909	-611
1020.979	-1085
1021.048	-844
1021.118	-1056
1021.187	-919
1021.257	-304
1021.326	-594
1021.396	-792
1021.465	-1000
1021.535	-808
1021.604	-1121
1021.674	-503
1021.743	-1026
1021.812	-782
1021.882	-1118
1021.951	-312
1022.020	-412
1022.089	-444
1022.159	-914
1022.228	-622
1022.297	-908
1022.366	-898
1022.435	-913
1022.504	-1096
1022.573	-355
1022.642	-742
1022.711	-946
1022.781	-253
1022.849	-868
1022.918	-1428
1022.987	-1140
1023.056	-665
1023.125	-137
1023.194	14
1023.263	-110
1023.331	-972
1023.400	-1133
1023.469	-1247
1023.538	-666
1023.606	-595
1023.675	-1306
1023.744	-1491
1023.812	-316
1023.881	-927
1023.949	-651
1024.018	-1219
1024.086	-1151
1024.155	-174
1024.223	-1078
1024.292	-673
1024.360	-870
1024.429	-95
1024.497	-1625
1024.565	-672
1024.634	-1179
1024.702	237
1024.770	-985
1024.838	-854
1024.907	-131
1024.975	-1166
1025.043	-1028
1025.111	-1373
1025.179	-797
1025.247	-1264
1025.315	-217
1025.383	-504
1025.451	-630
1025.519	-994
1025.587	-190
1025.655	16
1025.723	-829
1025.791	-613
1025.859	-288
1025.927	-80
1025.995	-1484
1026.062	131
1026.130	-1128
1026.198	-1047
1026.266	-759
1026.333	-800
1026.401	-1132
1026.469	-260
1026.536	-584
1026.604	141
1026.671	-1469
1026.739	-345
1026.806	-620
1026.874	-460
1026.941	-552
1027.009	-562
1027.076	-1190
1027.144	-663
1027.211	-615
1027.278	-434
1027.345	-962
1027.413	-244
1027.480	-559
1027.547	206
1027.614	-602
1027.682	-1228
1027.749	-1122
1027.816	-227
1027.883	-647
1027.950	-868
1028.017	-1186
1028.084	-504
1028.151	-711
1028.218	-798
1028.285	-1149
1028.352	-998
1028.419	-51
1028.486	-861
1028.553	-550
1028.619	-866
1028.686	-629
1028.753	-1251
1028.820	-897
1028.886	-760
1028.953	-895
1029.020	-781
1029.086	-1144
1029.153	-996
1029.220	-602
1029.286	-700
1029.353	-963
1029.419	-1435
1029.486	-1083
1029.552	-614
1029.619	-1235
1029.685	-395
1029.751	-1189
1029.818	-1054
1029.884	-953
1029.951	295
1030.017	-986
1030.083	-368
1030.149	-596
1030.216	-1286
1030.282	-1215
1030.348	-1024
1030.414	-948
1030.480	-531
1030.546	-372
1030.612	-710
1030.678	-1125
1030.744	-183
1030.810	-1899
1030.876	-1466
1030.942	-1545
1031.008	-156
1031.074	-1170
1031.140	-865
1031.206	-799
1031.272	-748
1031.337	-966
1031.403	-1149
1031.469	-1696
1031.534	-1092
1031.600	-483
1031.666	-1189
1031.731	-863
1031.797	-841
1031.863	-784
1031.928	-401
1031.994	-754
1032.059	-317
1032.125	-1216
1032.190	-572
1032.256	-993
1032.321	-1308
1032.386	-990
1032.452	-240
1032.517	-1532
1032.582	-107
1032.647	-945
1032.713	-831
1032.778	-1701
1032.843	-1155
1032.908	-1362
1032.974	-1041
1033.039	-1440
1033.104	-982
1033.169	-601
1033.234	-899
1033.299	-475
1033.364	-407
1033.429	-569
1033.494	-1196
1033.559	-1181
1033.624	-273
1033.688	-418
1033.753	-407
1033.818	-1260
1033.883	-218
1033.948	-1026
1034.013	-618
1034.077	-645
1034.142	500
1034.207	692
1034.271	2245
1034.336	3537
1034.400	5553
1034.465	2615
1034.530	761
1034.594	-672
1034.658	-150
1034.723	-1085
1034.787	-1413
1034.852	-1774
1034.916	-774
1034.981	-590
1035.045	-177
1035.109	-1482
1035.173	-861
1035.238	-1149
1035.302	-527
1035.366	-1279
1035.430	-777
1035.495	-901
1035.559	-427
1035.623	-1698
1035.687	-789
1035.751	-1281
1035.815	-992
1035.879	-1236
1035.943	-1553
1036.007	-1585
1036.071	-1156
1036.135	-1174
1036.198	-950
1036.262	-1190
1036.326	-476
1036.390	-1543
1036.454	-962
1036.517	-1392
1036.581	-1448
1036.645	-914
1036.709	-1024
1036.772	-1426
1036.836	-1471
1036.900	-1908
1036.963	-1229
1037.026	-759
1037.090	-1093
1037.154	-1660
1037.217	-1143
1037.280	-1357
1037.344	-1035
1037.407	-2257
1037.471	-999
1037.534	-1351
1037.597	-596
1037.661	-1850
1037.724	-1187
1037.787	-2267
1037.850	-835
1037.913	-1708
1037.977	-912
1038.040	-1248
1038.103	-1441
1038.166	-1902
1038.229	-1434
1038.292	-1726
1038.355	-1394
1038.418	-1848
1038.481	-1498
1038.544	-1519
1038.607	-1225
1038.670	-1438
1038.732	-1176
1038.795	-1700
1038.858	-721
1038.921	-1072
1038.984	-1236
1039.046	-1627
1039.109	-1949
1039.172	-1375
1039.234	-1596
1039.297	-1535
1039.360	-1006
1039.422	-1187
1039.485	-198
1039.547	-1782
1039.610	-437
1039.672	-1541
1039.734	-1483
1039.797	-1122
1039.859	-565
1039.922	-1851
1039.984	-1558
1040.046	-1542
1040.109	-1648
1040.171	-2105
1040.233	-1164
1040.295	-1472
1040.358	-1713
1040.420	-1650
1040.482	-1148
1040.544	-1811
1040.606	-1322
1040.668	-1402
1040.730	-832
1040.792	-1009
1040.854	-1510
1040.916	-1372
1040.978	-1807
1041.040	-1931
1041.102	-1572
1041.164	-1719
1041.225	-1249
1041.287	-2506
1041.349	-1731
1041.411	-1297
1041.472	-2072
1041.534	-1059
1041.596	-1863
1041.657	-1436
1041.719	-1607
1041.781	-2042
1041.842	-1689
1041.904	-1238
1041.965	-793
1042.027	-1784
1042.088	-1388
1042.150	-1931
1042.211	-1993
1042.272	-1264
1042.334	-2123
1042.395	-1653
1042.456	-1837
1042.518	-2082
1042.579	-1283
1042.640	-2118
1042.701	-1607
1042.763	-2278
1042.824	-2451
1042.885	-2122
1042.946	-1739
1043.007	-2252
1043.068	-1979
1043.129	-2083
1043.190	-1500
1043.251	-1735
1043.312	-1592
1043.373	-2295
1043.434	-1351
1043.495	-2028
1043.556	-1432
1043.616	-1366
1043.677	-2051
1043.738	-2324
1043.799	-1588
1043.859	-2423
1043.920	-1621
1043.981	-2309
1044.041	-1434
1044.102	-1677
1044.162	-1290
1044.223	-1867
1044.284	-2344
1044.344	-2087
1044.405	-2436
1044.465	-1244
1044.525	-1643
1044.586	-2280
1044.646	-1688
1044.707	-1711
1044.767	-1155
1044.827	-1604
1044.887	-1214
1044.948	-1343
1045.008	-1570
1045.068	-1726
1045.128	-1425
1045.188	-1780
1045.249	-1640
1045.309	-1789
1045.369	-1876
1045.429	-1374
1045.489	-932
1045.549	-1693
1045.609	-1638
1045.669	-1839
1045.729	-1028
1045.789	-1842
1045.848	-1575
1045.908	-1440
1045.968	-1507
1046.028	-1500
1046.088	-1330
1046.147	-1794
1046.207	-1512
1046.267	-726
1046.326	-521
1046.386	-1722
1046.446	-2185
1046.505	-830
1046.565	-1429
1046.624	-806
1046.684	-823
1046.743	-256
1046.803	-868
1046.862	-1009
1046.922	0
