'Start Wavelength	183.907
'End Wavelength	1046.922
'Gate Delay	5.000
'Gate Width (ms)	1.050
'Laser Output Level	0.000
'X Position	0.000
'Y Position	0.000
'Z Position	0.000
'Grid Point Number	1.000
'Shot Number	100.000
183.907	224.000
183.977	-246.000
184.047	17
184.116	298
184.186	317
184.256	182
184.325	-795
184.395	-24
184.465	-137
184.534	205
184.604	334
184.674	-177
184.743	342
184.813	-139
184.883	113
184.952	766
185.022	186
185.092	132
185.161	-178
185.231	-99
185.301	-231
185.370	587
185.440	-80
185.509	-287
185.579	129
185.649	418
185.718	-211
185.788	621
185.857	-635
185.927	137
185.996	-703
186.066	700
186.136	-430
186.205	344
186.275	11
186.344	519
186.414	-376
186.483	296
186.553	259
186.622	55
186.692	-574
186.761	199
186.831	-309
186.900	885
186.970	125
187.039	786
187.109	218
187.178	302
187.248	62
187.317	-218
187.387	409
187.456	832
187.526	364
187.595	415
187.664	183
187.734	731
187.803	-327
187.873	315
187.942	-148
188.012	321
188.081	134
188.150	383
188.220	-98
188.289	218
188.358	-280
188.428	327
188.497	42
188.567	1189
188.636	-33
188.705	229
188.775	382
188.844	204
188.913	-21
188.983	90
189.052	-404
189.121	592
189.191	-389
189.260	281
189.329	412
189.399	156
189.468	247
189.537	-152
189.606	221
189.676	623
189.745	439
189.814	636
189.883	-561
189.953	233
190.022	700
190.091	1339
190.161	1248
190.230	331
190.299	31
190.368	861
190.437	-226
190.507	454
190.576	178
190.645	669
190.714	79
190.783	215
190.853	530
190.922	817
190.991	76
191.060	-38
191.129	-13
191.198	138
191.268	-343
191.337	463
191.406	100
191.475	474
191.544	326
191.613	352
191.682	-7
191.752	31
191.821	118
191.890	-109
191.959	-453
192.028	361
192.097	481
192.166	587
192.235	-97
192.304	449
192.373	121
192.442	312
192.511	-195
192.580	1408
192.650	306
192.719	906
192.788	-261
192.857	174
192.926	150
192.995	161
193.064	629
193.133	680
193.202	517
193.271	1147
193.340	86
193.409	860
193.478	-368
193.547	1369
193.615	674
193.684	1078
193.753	10
193.822	452
193.891	356
193.960	111
194.029	-266
194.098	-165
194.167	-384
194.236	315
194.305	-191
194.374	-388
194.443	-422
194.512	64
194.580	-5
194.649	702
194.718	-306
194.787	-226
194.856	-408
194.925	493
194.994	349
195.062	155
195.131	-330
195.200	292
195.269	273
195.338	586
195.407	538
195.475	859
195.544	358
195.613	-205
195.682	811
195.751	585
195.819	268
195.888	58
195.957	1037
196.026	185
196.094	919
196.163	1042
196.232	-470
196.301	209
196.369	590
196.438	315
196.507	333
196.576	211
196.644	127
196.713	233
196.782	-564
196.850	542
196.919	330
196.988	818
197.056	-324
197.125	681
197.194	-36
197.262	583
197.331	-27
197.400	457
197.468	132
197.537	1155
197.606	727
197.674	1405
197.743	575
197.812	1058
197.880	1280
197.949	1409
198.017	1192
198.086	225
198.155	100
198.223	1372
198.292	957
198.360	419
198.429	445
198.497	422
198.566	1656
198.635	1169
198.703	270
198.772	1189
198.840	2254
198.909	1043
198.977	505
199.046	252
199.114	902
199.183	657
199.251	470
199.320	441
199.388	201
199.457	216
199.525	-466
199.594	1039
199.662	299
199.731	296
199.799	-284
199.867	1009
199.936	-45
200.004	685
200.073	435
200.141	-100
200.210	-634
200.278	23
200.346	787
200.415	479
200.483	106
200.552	932
200.620	-51
200.688	-234
200.757	-200
200.825	-159
200.893	56
200.962	134
201.030	-529
201.098	618
201.167	167
201.235	494
201.303	297
201.372	236
201.440	119
201.508	57
201.577	44
201.645	201
201.713	585
201.781	1060
201.850	621
201.918	147
201.986	99
202.055	1183
202.123	1028
202.191	246
202.259	76
202.327	-66
202.396	-110
202.464	-44
202.532	582
202.600	2476
202.669	271
202.737	821
202.805	29
202.873	805
202.941	355
203.009	170
203.078	538
203.146	672
203.214	-512
203.282	478
203.350	196
203.418	-272
203.487	-453
203.555	550
203.623	799
203.691	-389
203.759	-159
203.827	618
203.895	-154
203.963	-378
204.031	-726
204.099	140
204.168	477
204.236	-65
204.304	19
204.372	334
204.440	-26
204.508	723
204.576	521
204.644	509
204.712	0
204.780	-542
204.848	-212
204.916	590
204.984	377
205.052	116
205.120	237
205.188	376
205.256	51
205.324	1097
205.392	-73
205.460	961
205.528	532
205.596	520
205.664	-307
205.732	117
205.799	2023
205.867	1195
205.935	195
206.003	816
206.071	547
206.139	239
206.207	105
206.275	159
206.343	51
206.411	342
206.478	-211
206.546	708
206.614	89
206.682	317
206.750	-487
206.818	294
206.885	-105
206.953	196
207.021	321
207.089	217
207.157	496
207.225	67
207.292	-83
207.360	496
207.428	-52
207.496	389
207.563	-128
207.631	-66
207.699	67
207.767	330
207.834	-66
207.902	577
207.970	-60
208.038	217
208.105	-311
208.173	1104
208.241	135
208.309	1081
208.376	1432
208.444	1573
208.512	233
208.579	532
208.647	352
208.715	966
208.782	282
208.850	398
208.918	511
208.985	664
209.053	22
209.120	346
209.188	750
209.256	272
209.323	382
209.391	924
209.459	80
209.526	185
209.594	436
209.661	1014
209.729	312
209.796	674
209.864	-348
209.932	750
209.999	370
210.067	728
210.134	299
210.202	1423
210.269	-10
210.337	392
210.404	89
210.472	616
210.539	980
210.607	263
210.674	34
210.742	626
210.809	308
210.877	972
210.944	584
211.012	1055
211.079	300
211.146	370
211.214	133
211.281	538
211.349	378
211.416	474
211.484	1110
211.551	514
211.618	75
211.686	547
211.753	572
211.821	301
211.888	540
211.955	962
212.023	-2
212.090	166
212.157	662
212.225	1094
212.292	1695
212.359	5282
212.427	6470
212.494	1877
212.561	1048
212.629	1244
212.696	-180
212.763	924
212.831	232
212.898	611
212.965	106
213.032	718
213.100	581
213.167	707
213.234	494
213.301	402
213.369	-427
213.436	404
213.503	103
213.570	720
213.638	558
213.705	344
213.772	-19
213.839	826
213.906	-174
213.973	716
214.041	364
214.108	1056
214.175	277
214.242	774
214.309	166
214.376	995
214.444	174
214.511	618
214.578	254
214.645	1197
214.712	240
214.779	79
214.846	94
214.913	1086
214.980	691
215.048	891
215.115	962
215.182	1075
215.249	483
215.316	1142
215.383	6
215.450	569
215.517	646
215.584	298
215.651	253
215.718	794
215.785	606
215.852	294
215.919	804
215.986	1192
216.053	453
216.120	427
216.187	918
216.254	741
216.321	67
216.388	440
216.455	358
216.522	633
216.589	1070
216.656	2218
216.722	500
216.789	1124
216.856	1157
216.923	900
216.990	764
217.057	784
217.124	740
217.191	1320
217.258	824
217.324	1601
217.391	1294
217.458	728
217.525	835
217.592	313
217.659	420
217.725	1332
217.792	1120
217.859	1206
217.926	81
217.993	688
218.059	1056
218.126	448
218.193	-41
218.260	426
218.327	225
218.393	80
218.460	-226
218.527	299
218.594	512
218.660	1264
218.727	214
218.794	327
218.860	68
218.927	366
218.994	72
219.061	143
219.127	510
219.194	973
219.261	391
219.327	124
219.394	225
219.461	-496
219.527	240
219.594	1559
219.661	-43
219.727	602
219.794	105
219.860	761
219.927	116
219.994	1672
220.060	1330
220.127	732
220.193	417
220.260	657
220.326	598
220.393	2230
220.460	1589
220.526	821
220.593	1082
220.659	137
220.726	2180
220.792	4268
220.859	1492
220.925	2951
220.992	4714
221.058	6602
221.125	5345
221.191	3296
221.258	434
221.324	758
221.391	502
221.457	849
221.524	633
221.590	2114
221.657	6169
221.723	2945
221.789	4350
221.856	1909
221.922	1004
221.989	247
222.055	218
222.121	330
222.188	251
222.254	750
222.321	-109
222.387	235
222.453	242
222.520	872
222.586	-658
222.652	488
222.719	316
222.785	-45
222.851	-462
222.918	869
222.984	-535
223.050	730
223.116	-764
223.183	334
223.249	338
223.315	714
223.382	-43
223.448	799
223.514	421
223.580	186
223.647	-204
223.713	98
223.779	-193
223.845	566
223.911	178
223.978	635
224.044	-321
224.110	428
224.176	350
224.242	491
224.309	-356
224.375	87
224.441	-16
224.507	12
224.573	-35
224.639	155
224.705	-192
224.772	142
224.838	459
224.904	551
224.970	-309
225.036	385
225.102	-229
225.168	705
225.234	811
225.300	700
225.366	-138
225.432	436
225.499	451
225.565	504
225.631	-199
225.697	842
225.763	424
225.829	229
225.895	609
225.961	1368
226.027	422
226.093	885
226.159	522
226.225	1241
226.291	5080
226.357	5037
226.423	2061
226.489	1498
226.554	1104
226.620	1334
226.686	1474
226.752	2243
226.818	4109
226.884	10283
226.950	3711
227.016	1652
227.082	651
227.148	747
227.214	1048
227.279	394
227.345	597
227.411	980
227.477	1199
227.543	2292
227.609	1720
227.674	361
227.740	311
227.806	1373
227.872	34
227.938	480
228.003	779
228.069	963
228.135	122
228.201	537
228.267	943
228.332	757
228.398	576
228.464	711
228.530	204
228.595	784
228.661	224
228.727	671
228.792	878
228.858	284
228.924	795
228.990	803
229.055	338
229.121	1168
229.187	779
229.252	507
229.318	357
229.384	629
229.449	530
229.515	-351
229.581	194
229.646	1032
229.712	698
229.777	2701
229.843	1253
229.909	1036
229.974	1059
230.040	418
230.105	341
230.171	955
230.236	1466
230.302	1944
230.368	432
230.433	699
230.499	318
230.564	161
230.630	144
230.695	657
230.761	553
230.826	694
230.892	1327
230.957	4
231.023	339
231.088	164
231.154	711
231.219	713
231.284	773
231.350	108
231.415	140
231.481	211
231.546	209
231.612	348
231.677	-380
231.742	635
231.808	-171
231.873	497
231.939	44
232.004	1491
232.069	171
232.135	303
232.200	-132
232.265	698
232.331	50
232.396	449
232.461	37
232.527	359
232.592	443
232.657	656
232.723	1861
232.788	523
232.853	-415
232.918	254
232.984	-325
233.049	654
233.114	1497
233.179	766
233.245	3659
233.310	1179
233.375	521
233.440	716
233.506	152
233.571	613
233.636	941
233.701	939
233.766	2937
233.832	1369
233.897	699
233.962	227
234.027	52
234.092	-247
234.157	180
234.222	746
234.288	4579
234.353	7865
234.418	4230
234.483	1449
234.548	1247
234.613	603
234.678	537
234.743	3798
234.808	7685
234.873	2443
234.938	1339
235.004	988
235.069	799
235.134	1085
235.199	402
235.264	168
235.329	-162
235.394	500
235.459	1221
235.524	1234
235.589	367
235.654	-306
235.719	262
235.784	375
235.849	1794
235.913	3032
235.978	4990
236.043	3107
236.108	1328
236.173	1483
236.238	802
236.303	700
236.368	917
236.433	3639
236.498	2776
236.563	1186
236.627	5530
236.692	12427
236.757	4059
236.822	3432
236.887	2137
236.952	1658
237.017	1553
237.081	1691
237.146	1852
237.211	4580
237.276	18212
237.341	15284
237.405	5415
237.470	3055
237.535	1436
237.600	1381
237.664	1153
237.729	964
237.794	1726
237.859	2459
237.923	2034
237.988	1579
238.053	3413
238.118	3813
238.182	12305
238.247	5272
238.312	3106
238.376	1893
238.441	1715
238.506	1730
238.570	586
238.635	473
238.700	255
238.764	1402
238.829	6059
238.893	2943
238.958	1224
239.023	1060
239.087	196
239.152	1112
239.216	925
239.281	212
239.346	654
239.410	1167
239.475	3130
239.539	12749
239.604	3250
239.668	1625
239.733	749
239.797	2778
239.862	5593
239.926	5430
239.991	1793
240.055	830
240.120	1131
240.184	826
240.249	582
240.313	1056
240.378	1370
240.442	9527
240.507	5361
240.571	2694
240.635	5891
240.700	2608
240.764	1114
240.829	790
240.893	434
240.957	1875
241.022	7993
241.086	7123
241.151	1892
241.215	1076
241.279	4066
241.344	3553
241.408	1175
241.472	293
241.537	171
241.601	1013
241.665	146
241.730	1099
241.794	170
241.858	615
241.922	367
241.987	960
242.051	148
242.115	99
242.179	-76
242.244	-191
242.308	1098
242.372	1371
242.436	457
242.501	1157
242.565	-1
242.629	565
242.693	167
242.757	-71
242.822	59
242.886	1233
242.950	608
243.014	296
243.078	1397
243.142	748
243.206	555
243.271	1323
243.335	428
243.399	1872
243.463	16719
243.527	14700
243.591	3124
243.655	1411
243.719	691
243.783	1277
243.847	2560
243.911	2857
243.975	2986
244.040	942
244.104	1048
244.168	470
244.232	1698
244.296	2478
244.360	1861
244.424	1501
244.488	1382
244.552	1098
244.615	-297
244.679	712
244.743	780
244.807	491
244.871	430
244.935	480
244.999	80
245.063	1000
245.127	1043
245.191	1697
245.255	903
245.319	672
245.383	397
245.446	-12
245.510	615
245.574	1000
245.638	424
245.702	2066
245.766	2643
245.829	1113
245.893	1042
245.957	167
246.021	382
246.085	1066
246.149	1950
246.212	6836
246.276	5094
246.340	2206
246.404	1675
246.467	2668
246.531	1491
246.595	1943
246.659	1313
246.722	1801
246.786	1070
246.850	3473
246.913	1079
246.977	553
247.041	1342
247.104	831
247.168	1723
247.232	8385
247.295	8626
247.359	2154
247.423	1955
247.486	3102
247.550	1461
247.614	2448
247.677	1340
247.741	1344
247.804	975
247.868	1472
247.932	8227
247.995	6882
248.059	1047
248.122	1314
248.186	2237
248.249	6692
248.313	18792
248.376	13157
248.440	6251
248.503	1800
248.567	3208
248.630	4913
248.694	4261
248.757	11311
248.821	13376
248.884	6050
248.948	11733
249.011	14785
249.075	20796
249.138	10035
249.202	3561
249.265	4046
249.328	3525
249.392	2635
249.455	1839
249.519	1701
249.582	2895
249.645	4235
249.709	2220
249.772	2092
249.835	2015
249.899	2326
249.962	1847
250.025	3172
250.089	9751
250.152	5321
250.215	2921
250.279	2041
250.342	1772
250.405	2361
250.468	2170
250.532	3088
250.595	6622
250.658	38746
250.721	19664
250.785	6548
250.848	4025
250.911	2852
250.974	3034
251.038	9320
251.101	7669
251.164	4653
251.227	3870
251.290	3736
251.354	13031
251.417	40281
251.480	14461
251.543	31534
251.606	58789
251.669	17974
251.732	10801
251.795	14558
251.859	23649
251.922	33282
251.985	9317
252.048	4646
252.111	4298
252.174	4208
252.237	14483
252.300	16420
252.363	37746
252.426	35689
252.489	10587
252.552	6743
252.615	4036
252.678	9051
252.741	15228
252.804	35357
252.867	37647
252.930	17939
252.993	8430
253.056	6253
253.119	4209
253.182	4755
253.245	4873
253.308	4669
253.371	4067
253.434	3669
253.497	6416
253.559	9383
253.622	4967
253.685	7770
253.748	3784
253.811	3068
253.874	4523
253.937	3085
254.000	2773
254.062	10032
254.125	6647
254.188	7925
254.251	3582
254.314	3665
254.376	6111
254.439	4842
254.502	3578
254.565	11257
254.628	7416
254.690	5094
254.753	2502
254.816	2338
254.878	3641
254.941	10062
255.004	3466
255.067	1722
255.129	1455
255.192	925
255.255	433
255.317	1303
255.380	871
255.443	721
255.505	1324
255.568	444
255.631	904
255.693	1320
255.756	596
255.819	1436
255.881	513
255.944	884
256.006	726
256.069	866
256.132	67
256.194	4680
256.257	6115
256.319	4990
256.382	1850
256.444	1169
256.507	787
256.569	1085
256.632	1187
256.694	2680
256.757	11220
256.819	10654
256.882	2487
256.944	1451
257.007	2063
257.069	2198
257.132	1008
257.194	1254
257.257	501
257.319	534
257.381	280
257.444	8529
257.506	23825
257.569	15196
257.631	9263
257.693	3885
257.756	3054
257.818	2078
257.880	461
257.943	935
258.005	240
258.067	1173
258.130	415
258.192	2557
258.254	2953
258.317	1333
258.379	2077
258.441	6949
258.503	4189
258.566	17529
258.628	6359
258.690	1694
258.753	1806
258.815	2522
258.877	1077
258.939	1254
259.001	1086
259.064	856
259.126	2550
259.188	1799
259.250	1090
259.312	4681
259.375	7886
259.437	2088
259.499	526
259.561	1263
259.623	796
259.685	920
259.747	2164
259.809	18294
259.872	15598
259.934	31784
259.996	8762
260.058	2629
260.120	1315
260.182	1041
260.244	641
260.306	676
260.368	296
260.430	1075
260.492	3102
260.554	7125
260.616	4930
260.678	20371
260.740	8489
260.802	2830
260.864	2073
260.926	799
260.988	1490
261.050	1650
261.112	7435
261.174	22520
261.236	5476
261.298	3132
261.359	13036
261.421	5091
261.483	1839
261.545	1299
261.607	530
261.669	1831
261.731	9613
261.793	7182
261.854	1874
261.916	1729
261.978	1325
262.040	2051
262.102	1508
262.164	4680
262.225	1486
262.287	2184
262.349	3232
262.411	1707
262.472	1864
262.534	10876
262.596	5402
262.658	1765
262.719	960
262.781	6971
262.843	8509
262.904	3099
262.966	1799
263.028	4356
263.090	37800
263.151	26058
263.213	5985
263.275	3372
263.336	1403
263.398	1251
263.459	929
263.521	1767
263.583	2827
263.644	578
263.706	446
263.767	253
263.829	748
263.891	618
263.952	-607
264.014	165
264.075	1572
264.137	2009
264.198	252
264.260	217
264.321	62
264.383	3523
264.444	2917
264.506	849
264.567	35
264.629	3234
264.690	1849
264.752	118
264.813	411
264.875	-198
264.936	-212
264.998	115
265.059	127
265.120	386
265.182	2122
265.243	8824
265.305	2210
265.366	1267
265.427	374
265.489	1290
265.550	-495
265.611	497
265.673	-467
265.734	21
265.795	-532
265.857	-169
265.918	336
265.979	4695
266.040	14336
266.102	3663
266.163	2001
266.224	1519
266.286	674
266.347	602
266.408	213
266.469	342
266.530	271
266.592	903
266.653	2636
266.714	1709
266.775	-50
266.836	-380
266.898	238
266.959	607
267.020	-291
267.081	458
267.142	91
267.203	236
267.264	527
267.326	579
267.387	-501
267.448	315
267.509	-44
267.570	365
267.631	-647
267.692	-223
267.753	-432
267.814	458
267.875	3167
267.936	2088
267.997	128
268.058	602
268.119	-27
268.180	336
268.241	-625
268.302	605
268.363	153
268.424	832
268.485	314
268.546	-93
268.607	-711
268.668	-66
268.729	-525
268.790	442
268.851	959
268.912	3722
268.972	864
269.033	687
269.094	-569
269.155	-49
269.216	-452
269.277	36
269.338	564
269.398	383
269.459	-549
269.520	982
269.581	1579
269.642	640
269.702	83
269.763	-15
269.824	-725
269.885	830
269.945	741
270.006	196
270.067	102
270.128	-189
270.188	-297
270.249	541
270.310	128
270.370	264
270.431	-125
270.492	-555
270.553	-201
270.613	2827
270.674	2925
270.734	197
270.795	1045
270.856	980
270.916	-484
270.977	345
271.038	635
271.098	1072
271.159	1825
271.219	467
271.280	536
271.340	513
271.401	2242
271.462	2962
271.522	725
271.583	479
271.643	573
271.704	301
271.764	838
271.825	6013
271.885	22655
271.946	9228
272.006	4124
272.066	18170
272.127	8520
272.187	2501
272.248	1355
272.308	6122
272.369	11027
272.429	2706
272.489	2922
272.550	2228
272.610	2644
272.671	1332
272.731	4855
272.791	3502
272.852	1656
272.912	1311
272.972	123
273.033	1644
273.093	1567
273.153	1842
273.214	878
273.274	1986
273.334	13871
273.394	8615
273.455	3272
273.515	9529
273.575	7117
273.635	4066
273.696	14938
273.756	11201
273.816	3046
273.876	3489
273.936	18266
273.997	8878
274.057	2111
274.117	1994
274.177	8282
274.237	22686
274.297	13331
274.358	11530
274.418	10930
274.478	4341
274.538	2226
274.598	6303
274.658	19191
274.718	11233
274.778	3114
274.838	2702
274.898	19438
274.958	21600
275.018	17981
275.078	5568
275.138	3172
275.198	1635
275.258	601
275.318	2354
275.378	3300
275.438	2266
275.498	3490
275.558	22069
275.618	17009
275.678	6022
275.738	4546
275.798	2146
275.858	38
275.918	915
275.978	824
276.038	955
276.098	383
276.157	5545
276.217	4683
276.277	1952
276.337	571
276.397	1264
276.457	1256
276.517	918
276.576	707
276.636	1326
276.696	2189
276.756	4665
276.815	496
276.875	1677
276.935	1395
276.995	1168
277.055	515
277.114	275
277.174	3986
277.234	4815
277.293	1132
277.353	863
277.413	1678
277.472	873
277.532	644
277.592	2183
277.651	15066
277.711	7607
277.771	6200
277.830	17705
277.890	6269
277.950	25632
278.009	23555
278.069	6754
278.128	15502
278.188	7318
278.248	8522
278.307	16166
278.367	3476
278.426	2420
278.486	1442
278.545	1518
278.605	1777
278.664	1381
278.724	2309
278.783	14713
278.843	10335
278.902	2525
278.962	2551
279.021	2861
279.081	4925
279.140	2667
279.199	1344
279.259	2424
279.318	3184
279.378	4249
279.437	14422
279.496	59921
279.556	127776
279.615	38116
279.675	13824
279.734	10682
279.793	21582
279.853	15586
279.912	5205
279.971	4051
280.031	3693
280.090	12988
280.149	8524
280.208	30410
280.268	105376
280.327	33194
280.386	11204
280.445	9790
280.505	6081
280.564	3205
280.623	2613
280.682	5817
280.742	4052
280.801	1639
280.860	739
280.919	1134
280.978	419
281.037	966
281.097	974
281.156	1204
281.215	1207
281.274	3887
281.333	11969
281.392	2335
281.451	263
281.510	431
281.569	572
281.628	108
281.688	660
281.747	1092
281.806	439
281.865	721
281.924	733
281.983	546
282.042	311
282.101	794
282.160	204
282.219	332
282.278	2004
282.337	3815
282.396	614
282.454	835
282.513	3571
282.572	6117
282.631	727
282.690	944
282.749	326
282.808	1288
282.867	687
282.926	735
282.985	1017
283.043	568
283.102	867
283.161	915
283.220	7507
283.279	5153
283.338	558
283.396	1277
283.455	270
283.514	1353
283.573	2112
283.631	1981
283.690	1254
283.749	1205
283.808	2712
283.866	1357
283.925	440
283.984	1019
284.043	1371
284.101	1679
284.160	1707
284.219	2415
284.277	1625
284.336	5519
284.395	10592
284.453	4252
284.512	2243
284.570	3698
284.629	2571
284.688	2730
284.746	2271
284.805	3359
284.863	5371
284.922	5165
284.981	5155
285.039	8657
285.098	19287
285.156	80287
285.215	142013
285.273	73117
285.332	32202
285.390	18289
285.449	11380
285.507	7148
285.566	4856
285.624	3752
285.683	2033
285.741	2185
285.799	2594
285.858	2336
285.916	1601
285.975	1587
286.033	1325
286.091	1148
286.150	709
286.208	1092
286.267	862
286.325	1156
286.383	1888
286.442	1100
286.500	200
286.558	720
286.616	697
286.675	1802
286.733	753
286.791	834
286.850	1361
286.908	3154
286.966	2101
287.024	653
287.083	18
287.141	653
287.199	484
287.257	1381
287.315	427
287.374	2407
287.432	3114
287.490	775
287.548	1116
287.606	1065
287.664	608
287.723	2046
287.781	1512
287.839	698
287.897	765
287.955	1110
288.013	2163
288.071	10783
288.129	96805
288.187	89231
288.245	20907
288.303	8598
288.361	6198
288.419	4690
288.477	1945
288.535	829
288.593	608
288.651	653
288.709	-129
288.767	884
288.825	-129
288.883	527
288.941	221
288.999	350
289.057	89
289.115	368
289.173	15
289.231	652
289.289	-85
289.346	436
289.404	491
289.462	1888
289.520	714
289.578	151
289.636	-797
289.694	757
289.751	161
289.809	505
289.867	-298
289.925	206
289.983	-390
290.040	360
290.098	-390
290.156	-414
290.214	353
290.271	-357
290.329	8
290.387	-117
290.444	-749
290.502	-303
290.560	-129
290.617	-579
290.675	59
290.733	329
290.790	326
290.848	456
290.906	179
290.963	189
291.021	234
291.078	130
291.136	479
291.194	6737
291.251	4059
291.309	402
291.366	356
291.424	246
291.481	-131
291.539	161
291.596	-216
291.654	-866
291.711	-410
291.769	767
291.826	572
291.884	-50
291.941	-638
291.999	414
292.056	263
292.114	337
292.171	-1248
292.228	345
292.286	670
292.343	1821
292.401	1618
292.458	559
292.515	513
292.573	731
292.630	507
292.687	413
292.745	-129
292.802	1139
292.859	5368
292.917	8397
292.974	1397
293.031	799
293.089	88
293.146	676
293.203	-37
293.260	-152
293.318	1225
293.375	491
293.432	628
293.489	-406
293.546	-473
293.604	2357
293.661	15125
293.718	15133
293.775	4896
293.832	2543
293.889	2318
293.947	2134
294.004	550
294.061	2352
294.118	5121
294.175	8894
294.232	5488
294.289	1527
294.346	909
294.403	1163
294.460	1144
294.517	408
294.574	-193
294.631	-210
294.688	746
294.745	11757
294.802	22950
294.859	10757
294.916	5417
294.973	2770
295.030	2175
295.087	692
295.144	793
295.201	1208
295.258	-191
295.315	2248
295.372	14409
295.429	9898
295.486	2686
295.542	2438
295.599	9317
295.656	7693
295.713	12071
295.770	8307
295.827	1912
295.883	1342
295.940	1768
295.997	3140
296.054	72
296.111	371
296.167	1362
296.224	720
296.281	676
296.338	789
296.394	337
296.451	2383
296.508	8637
296.564	6409
296.621	8161
296.678	26939
296.734	13278
296.791	5665
296.848	2979
296.904	4729
296.961	9865
297.018	15374
297.074	5727
297.131	2833
297.187	2377
297.244	7282
297.301	33348
297.357	21133
297.414	5974
297.470	3380
297.527	1623
297.583	1469
297.640	1633
297.696	1583
297.753	360
297.809	508
297.866	-240
297.922	176
297.979	-217
298.035	776
298.092	3598
298.148	9669
298.204	3956
298.261	2953
298.317	16362
298.374	20392
298.430	6645
298.486	4509
298.543	3297
298.599	2862
298.656	2012
298.712	7830
298.768	10332
298.824	4885
298.881	1983
298.937	1920
298.993	1049
299.050	1619
299.106	631
299.162	918
299.218	685
299.275	612
299.331	1240
299.387	9772
299.443	25488
299.500	11447
299.556	4563
299.612	2124
299.668	2566
299.724	3063
299.780	1465
299.837	909
299.893	5907
299.949	15843
300.005	11512
300.061	23063
300.117	20931
300.173	7010
300.229	4416
300.285	5206
300.341	4159
300.397	1753
300.453	1264
300.510	1031
300.566	1022
300.622	2401
300.678	9198
300.734	11847
300.790	18169
300.845	14372
300.901	10325
300.957	13178
301.013	6211
301.069	2669
301.125	2216
301.181	1580
301.237	1827
301.293	1098
301.349	738
301.405	1200
301.461	-43
301.516	1515
301.572	1779
301.628	3595
301.684	3194
301.740	7400
301.796	6457
301.851	6381
301.907	7663
301.963	8479
302.019	38522
302.074	65816
302.130	38782
302.186	15313
302.242	7125
302.297	4260
302.353	6978
302.409	9975
302.464	5038
302.520	11146
302.576	22868
302.631	16357
302.687	6637
302.743	3477
302.798	2601
302.854	1452
302.910	1663
302.965	2903
303.021	3706
303.076	4427
303.132	5901
303.187	4898
303.243	2133
303.299	2001
303.354	391
303.410	963
303.465	919
303.521	1336
303.576	785
303.632	1672
303.687	11418
303.743	20654
303.798	10029
303.853	4371
303.909	1899
303.964	2505
304.020	3710
304.075	4531
304.130	4936
304.186	8746
304.241	8186
304.297	4818
304.352	3138
304.358	3014
304.407	2009
304.449	1990
304.463	1985
304.518	1631
304.539	1369
304.573	939
304.629	1998
304.630	2114
304.684	7323
304.720	17674
304.739	23052
304.794	16433
304.811	14153
304.850	8089
304.902	2829
304.905	2515
304.960	3023
304.992	2376
305.015	1928
305.071	1923
305.083	1740
305.126	1015
305.173	1002
305.181	1020
305.236	614
305.264	1160
305.292	1688
305.347	1730
305.354	1780
305.402	2067
305.445	1894
305.457	1859
305.512	2571
305.535	2549
305.567	2495
305.622	3023
305.626	3411
305.678	10485
305.716	18176
305.733	21421
305.788	17175
305.807	17420
305.843	16743
305.897	23623
305.898	23736
305.953	15553
305.988	11470
306.008	8485
306.063	4319
306.078	3574
306.118	2731
306.168	2162
306.173	2118
306.228	1252
306.259	1395
306.283	1548
306.338	1391
306.349	1617
306.393	2404
306.440	1974
306.448	1917
306.503	2123
306.530	2870
306.558	4479
306.613	10434
306.620	11224
306.668	15953
306.711	18882
306.723	19108
306.778	12273
306.801	10255
306.833	7201
306.888	3218
306.892	3068
306.943	2706
306.982	2233
306.997	2212
307.052	2270
307.072	2227
307.107	2133
307.162	3545
307.163	3567
307.217	6919
307.253	9331
307.272	10274
307.327	9613
307.343	9241
307.381	6533
307.434	4854
307.436	5041
307.491	13564
307.524	18679
307.546	20689
307.600	17737
307.614	16589
307.655	9646
307.704	4662
307.710	4610
307.765	5229
307.795	7813
307.819	11833
307.874	18473
307.885	18732
307.929	12493
307.975	7128
307.984	6866
308.038	7209
308.065	8504
308.093	13083
308.148	36930
308.156	41484
308.202	80921
308.246	92074
308.257	85464
308.312	44768
308.336	30491
308.366	24290
308.421	15565
308.426	14770
308.475	9264
308.517	5749
308.530	5216
308.585	4454
308.607	4063
308.639	4026
308.694	5549
308.697	5788
308.748	15076
308.787	21994
308.803	22870
308.857	18968
308.877	18111
308.912	13462
308.967	7329
308.967	7249
309.021	9560
309.058	11541
309.076	14165
309.130	24558
309.148	30213
309.185	52995
309.238	103583
309.239	104729
309.293	138255
309.328	144836
309.348	118908
309.402	51547
309.418	34159
309.457	23523
309.508	12866
309.511	12685
309.566	11708
309.598	12820
309.620	16455
309.674	28209
309.688	30311
309.729	30527
309.778	27659
309.783	26675
309.837	15529
309.868	10315
309.892	10956
309.946	14602
309.959	15915
310.001	24770
310.049	31435
310.055	30387
310.109	18937
310.139	12951
310.163	10107
310.218	5522
310.229	4656
310.272	4348
310.319	4122
310.326	4035
310.381	3689
310.409	3376
310.435	3217
310.489	3218
310.499	3233
310.543	3417
310.589	3295
310.598	3343
310.652	3990
310.679	4127
310.706	3417
310.760	2100
310.769	1895
310.814	1754
310.859	1703
310.868	1756
310.923	1979
310.948	2027
310.977	2260
311.031	3113
311.038	3194
311.085	3179
311.128	3039
311.139	2929
311.193	2592
311.218	2292
311.247	2011
311.301	1682
311.308	1623
311.356	1737
311.398	1980
311.410	1985
311.464	1893
311.488	1882
311.518	1929
311.572	1916
311.578	1931
311.626	2711
311.668	3296
311.680	3386
311.734	3763
311.758	3934
311.788	3897
311.842	3840
311.847	3826
311.896	4053
311.937	4303
311.950	4462
312.004	5098
312.027	5372
312.058	4519
312.112	2988
312.117	2834
312.165	2477
312.207	2173
312.297	2744
312.386	2719
312.476	2804
312.566	4687
312.656	3598
312.745	1683
312.835	2315
312.925	2217
313.015	2609
313.104	3570
313.194	2489
313.284	2320
313.374	2910
313.463	2691
313.553	2217
313.643	2432
313.732	1630
313.822	1338
313.912	2005
314.001	2706
314.091	3052
314.180	3820
314.270	3589
314.360	3971
314.449	4076
314.539	2104
314.628	1798
314.718	1598
314.808	4203
314.897	2678
314.987	1895
315.076	2580
315.166	4187
315.255	4922
315.345	2985
315.434	4187
315.524	3610
315.613	4855
315.703	4772
315.792	8626
315.881	29332
315.971	20935
316.060	7345
316.150	13746
316.239	16850
316.328	8984
316.418	2731
316.507	2394
316.597	3408
316.686	3373
316.775	4828
316.865	17515
316.954	6682
317.043	1924
317.133	2466
317.222	2012
317.311	1624
317.400	1729
317.490	2989
317.579	3557
317.668	3144
317.757	4987
317.847	14088
317.936	55476
318.025	34368
318.114	10787
318.203	8314
318.293	4818
318.382	8984
318.471	8237
318.560	10687
318.649	20299
318.738	9601
318.828	2202
318.917	4256
319.006	4801
319.095	15458
319.184	25297
319.273	21883
319.362	10108
319.451	3228
319.540	2950
319.629	5248
319.718	12143
319.807	4378
319.896	7435
319.985	30212
320.074	22112
320.163	4675
320.252	8421
320.341	6952
320.430	4200
320.519	4734
320.608	3916
320.697	3005
320.786	2848
320.875	3598
320.964	4651
321.053	7241
321.142	9202
321.230	13779
321.319	7853
321.408	17726
321.497	12796
321.586	8115
321.675	12656
321.764	16101
321.852	7056
321.941	9996
322.030	9119
322.119	6423
322.207	19010
322.296	24083
322.385	10114
322.474	9350
322.562	20099
322.651	19074
322.740	7799
322.829	15603
322.917	20833
323.006	14616
323.095	6701
323.183	5777
323.272	8835
323.361	15519
323.449	63978
323.538	39711
323.626	35783
323.715	48966
323.804	8930
323.892	35569
323.981	35337
324.069	6928
324.158	16387
324.246	34929
324.335	5828
324.424	7409
324.512	4591
324.601	3667
324.689	6782
324.778	18223
324.866	17152
324.954	6978
325.043	2623
325.131	6395
325.220	17712
325.308	23755
325.397	13112
325.485	11557
325.574	1855
325.662	2215
325.750	2460
325.839	2887
325.927	2802
326.015	2443
326.104	4845
326.192	14447
326.280	2701
326.369	1883
326.457	2665
326.545	4634
326.634	3890
326.722	1061
326.810	2044
326.898	2165
326.987	1645
327.075	4672
327.163	8197
327.251	6005
327.340	4676
327.428	9736
327.516	2769
327.604	2178
327.692	2856
327.781	2855
327.869	7124
327.957	5100
328.045	3245
328.133	2158
328.221	3205
328.309	3405
328.397	1701
328.485	2368
328.574	2708
328.662	9573
328.750	11217
328.838	6188
328.926	2207
329.014	2297
329.102	2135
329.190	5595
329.278	6251
329.366	1792
329.454	873
329.542	1375
329.630	1257
329.718	1199
329.806	2067
329.893	2073
329.981	2023
330.069	1909
330.157	4824
330.245	20653
330.333	16060
330.421	3286
330.509	2360
330.597	10939
330.684	13348
330.772	3727
330.860	3859
330.948	6081
331.036	3638
331.123	1761
331.211	1079
331.299	2100
331.387	2959
331.475	8983
331.562	4336
331.650	1919
331.738	1867
331.825	4973
331.913	2441
332.001	1633
332.089	2128
332.176	5871
332.264	17040
332.352	26041
332.439	4042
332.527	2216
332.614	2377
332.702	4556
332.790	2619
332.877	5790
332.965	22520
333.052	8435
333.140	3325
333.228	11799
333.315	4715
333.403	2627
333.490	8861
333.578	14437
333.665	11693
333.753	8734
333.840	2299
333.928	3047
334.015	8694
334.103	15439
334.190	45070
334.278	24830
334.365	5136
334.452	5297
334.540	3153
334.627	3429
334.715	4970
334.802	7514
334.889	55085
334.977	125703
335.064	17338
335.151	3694
335.239	3169
335.326	3569
335.413	10419
335.501	32045
335.588	5713
335.675	2784
335.762	2043
335.850	4915
335.937	3955
336.024	9701
336.111	64996
336.199	60799
336.286	6784
336.373	2988
336.460	1688
336.547	1486
336.635	2684
336.722	2798
336.809	2051
336.896	2436
336.983	7061
337.070	21040
337.157	41313
337.245	42474
337.332	63304
337.419	6585
337.506	2693
337.593	2130
337.680	4247
337.767	21053
337.854	10184
337.941	7723
338.028	15100
338.115	9251
338.202	3166
338.289	7499
338.376	48586
338.463	30543
338.550	9257
338.637	18945
338.724	6258
338.811	18959
338.898	5400
338.984	1742
339.071	2294
339.158	2646
339.245	5711
339.332	6563
339.419	5322
339.506	14313
339.593	2105
339.679	1529
339.766	833
339.853	2347
339.940	4512
340.027	2940
340.113	1212
340.200	2168
340.287	1828
340.374	1984
340.460	4619
340.547	3104
340.634	2262
340.720	10799
340.807	14450
340.894	2025
340.980	2056
341.067	2363
341.154	1204
341.240	1736
341.327	6903
341.414	3157
341.500	2803
341.587	1740
341.674	955
341.760	3205
341.847	5638
341.933	3018
342.020	936
342.106	333
342.193	1185
342.279	3685
342.366	2130
342.452	5045
342.539	2719
342.625	3827
342.712	13367
342.798	9082
342.885	2458
342.971	1178
343.058	1138
343.144	771
343.230	1841
343.317	1588
343.403	874
343.490	1504
343.576	735
343.662	923
343.749	1875
343.835	2136
343.921	3470
344.008	17724
344.094	90604
344.180	37666
344.267	5608
344.353	12515
344.439	30081
344.525	9880
344.612	3825
344.698	2060
344.784	2314
344.870	1560
344.957	865
345.043	2220
345.129	1222
345.215	3539
345.301	2244
345.387	2128
345.474	522
345.560	822
345.646	1614
345.732	1906
345.818	1204
345.904	2102
345.990	2231
346.076	1907
346.162	5715
346.249	4210
346.335	1000
346.421	1221
346.507	4265
346.593	26772
346.679	14581
346.765	1958
346.851	1250
346.937	1929
347.023	793
347.108	1679
347.194	783
347.280	1595
347.366	1834
347.452	5275
347.538	29709
347.624	31973
347.710	24671
347.796	6971
347.882	1358
347.967	1296
348.053	1966
348.139	1700
348.225	934
348.311	1811
348.397	850
348.482	1155
348.568	1395
348.654	1206
348.740	1173
348.825	2379
348.911	2270
348.997	8252
349.083	39133
349.168	13689
349.254	1352
349.340	1567
349.425	1207
349.511	1080
349.597	2261
349.682	3439
349.768	13718
349.854	13990
349.939	1328
350.025	1171
350.110	685
350.196	370
350.282	785
350.367	700
350.453	2445
350.538	6381
350.624	1689
350.709	2513
350.795	617
350.880	450
350.966	1387
351.051	2846
351.137	4669
351.222	997
351.308	1789
351.393	13593
351.479	6639
351.564	1361
351.649	1001
351.735	484
351.820	500
351.906	922
351.991	1856
352.076	5141
352.162	17067
352.247	5636
352.332	1306
352.418	2731
352.503	3510
352.588	12063
352.673	22791
352.759	5460
352.844	2143
352.929	1654
353.014	2952
353.100	2517
353.185	2238
353.270	4453
353.355	5701
353.441	2407
353.526	1353
353.611	3668
353.696	6508
353.781	2356
353.866	1995
353.952	1436
354.037	2704
354.122	9487
354.207	9002
354.292	5659
354.377	1001
354.462	2094
354.547	1557
354.632	2187
354.717	1619
354.802	4576
354.887	2739
354.972	1197
355.057	131
355.142	1150
355.227	685
355.312	2240
355.397	4797
355.482	13416
355.567	13670
355.652	5062
355.737	6738
355.822	12935
355.907	26655
355.991	3593
356.076	929
356.161	1576
356.246	445
356.331	1003
356.416	2365
356.501	22239
356.585	63098
356.670	11538
356.755	2739
356.840	2985
356.924	11570
357.009	84508
357.094	73191
357.179	7054
357.263	5682
357.348	3672
357.433	4373
357.517	3000
357.602	4225
357.687	2590
357.771	2472
357.856	6318
357.941	6943
358.025	8278
358.110	72777
358.195	83133
358.279	8890
358.364	2977
358.448	6574
358.533	30996
358.617	33743
358.702	25148
358.787	17535
358.871	4904
358.956	5197
359.040	2601
359.125	941
359.209	1212
359.294	2218
359.378	6683
359.462	4266
359.547	3726
359.631	2029
359.716	1374
359.800	698
359.885	1581
359.969	1396
360.053	1213
360.138	737
360.222	2701
360.306	3770
360.391	4645
360.475	3435
360.559	12151
360.644	12428
360.728	14094
360.812	8808
360.896	60523
360.981	38892
361.065	14050
361.149	3322
361.233	2523
361.318	1911
361.402	3241
361.486	2263
361.570	1349
361.654	2011
361.739	3817
361.823	19629
361.907	77764
361.991	23749
362.075	3396
362.159	8340
362.243	8909
362.327	4611
362.411	7940
362.495	6128
362.580	3136
362.664	1190
362.748	1718
362.832	1395
362.916	1529
363.000	6606
363.084	27810
363.168	85012
363.252	33786
363.336	4905
363.420	4945
363.503	13521
363.587	38037
363.671	8933
363.755	3128
363.839	4241
363.923	3068
364.007	2713
364.091	6461
364.175	5984
364.258	28535
364.342	36526
364.426	21896
364.510	21777
364.594	7977
364.677	5584
364.761	33284
364.845	63249
364.929	11072
365.013	8408
365.096	4763
365.180	8660
365.264	4718
365.347	31678
365.431	31559
365.515	4837
365.598	2578
365.682	1505
365.766	2040
365.849	4156
365.933	1711
366.017	2313
366.100	2449
366.184	910
366.267	1623
366.351	169
366.435	768
366.518	863
366.602	-26
366.685	721
366.769	1315
366.852	831
366.936	4743
367.019	4315
367.103	1915
367.186	3208
367.270	2072
367.353	900
367.436	323
367.520	1103
367.603	774
367.687	1387
367.770	5863
367.853	4100
367.937	5972
368.020	24872
368.104	9857
368.187	2833
368.270	5395
368.353	5235
368.437	5672
368.520	28220
368.603	28475
368.687	9828
368.770	29191
368.853	12837
368.936	3735
369.020	5372
369.103	2544
369.186	334
369.269	1078
369.352	1868
369.436	5687
369.519	3735
369.602	1833
369.685	815
369.768	1800
369.851	1386
369.934	1292
370.018	226
370.101	3798
370.184	4569
370.267	2216
370.350	3046
370.433	4659
370.516	13299
370.599	42640
370.682	19027
370.765	10532
370.848	14168
370.931	32184
371.014	24968
371.097	3141
371.180	1763
371.263	192
371.346	60
371.429	1402
371.511	319
371.594	1366
371.677	3708
371.760	5050
371.843	4207
371.926	12091
372.009	71418
372.091	43281
372.174	9163
372.257	30635
372.340	26476
372.423	6485
372.505	9201
372.588	5524
372.671	4403
372.754	27518
372.836	31689
372.919	7364
373.002	20670
373.085	12537
373.167	4086
373.250	8358
373.332	26958
373.415	34969
373.498	99793
373.580	72778
373.663	30298
373.746	94256
373.828	32105
373.911	6579
373.993	4271
374.076	11840
374.159	27694
374.241	9873
374.324	19157
374.406	28227
374.489	13587
374.571	72208
374.654	63934
374.736	11690
374.819	36179
374.901	65651
374.983	103075
375.066	32881
375.148	3738
375.231	7714
375.313	33556
375.395	20691
375.478	4086
375.560	1708
375.643	1974
375.725	6142
375.807	45220
375.890	83914
375.972	43644
376.054	15525
376.136	23498
376.219	21628
376.301	7013
376.383	47284
376.465	44002
376.548	9728
376.630	10242
376.712	32090
376.794	40206
376.877	4253
376.959	896
377.041	1746
377.123	2376
377.205	4916
377.287	853
377.369	921
377.452	710
377.534	573
377.616	683
377.698	1197
377.780	311
377.862	1322
377.944	817
378.026	-29
378.108	-127
378.190	7
378.272	217
378.354	482
378.436	-105
378.518	1463
378.600	5439
378.682	7582
378.764	10671
378.846	21753
378.928	4784
379.010	4341
379.091	2992
379.173	1008
379.255	347
379.337	1181
379.419	3515
379.501	21150
379.583	21579
379.664	2888
379.746	3549
379.828	11531
379.910	21598
379.991	28205
380.073	9307
380.155	1338
380.237	1057
380.318	539
380.400	476
380.482	2064
380.564	6241
380.645	4853
380.727	5315
380.809	3631
380.890	2516
380.972	1935
381.053	1109
381.135	1218
381.217	2534
381.298	14528
381.380	15589
381.461	5318
381.543	20946
381.624	74107
381.706	24497
381.787	5023
381.869	3841
381.951	7227
382.032	58117
382.113	88153
382.195	17325
382.276	5432
382.358	6469
382.439	29636
382.521	41722
382.602	77825
382.684	55658
382.765	36153
382.846	64173
382.928	77309
383.009	85102
383.090	24884
383.172	59930
383.253	228429
383.334	124871
383.416	55827
383.497	57392
383.578	15096
383.659	16619
383.741	46159
383.822	235239
383.903	276125
383.984	55767
384.066	60512
384.147	67917
384.228	18554
384.309	6403
384.390	6533
384.471	3627
384.553	3348
384.634	4227
384.715	5880
384.796	2966
384.877	2406
384.958	8320
385.039	25014
385.120	11816
385.201	3544
385.282	2764
385.363	3656
385.444	4037
385.525	4104
385.606	16350
385.687	38531
385.768	9975
385.849	4396
385.930	13383
386.011	64900
386.092	38176
386.173	4159
386.254	1928
386.335	2062
386.416	1125
386.496	4434
386.577	17915
386.658	10704
386.739	3221
386.820	2561
386.901	2307
386.981	1677
387.062	1547
387.143	2119
387.224	9548
387.304	22993
387.385	7975
387.466	3293
387.547	2948
387.627	2963
387.708	2847
387.789	15782
387.869	47461
387.950	24705
388.031	2567
388.111	857
388.192	2677
388.273	6515
388.353	6112
388.434	2614
388.514	2990
388.595	17435
388.676	54154
388.756	29715
388.837	13089
388.917	15569
388.998	2946
389.078	1675
389.159	497
389.239	1416
389.320	1390
389.400	2161
389.480	2551
389.561	13879
389.641	16775
389.722	2109
389.802	2862
389.883	3735
389.963	16813
390.043	24773
390.124	8674
390.204	2890
390.284	13480
390.365	19356
390.445	8075
390.525	28534
390.605	55535
390.686	19522
390.766	4792
390.846	1725
390.927	1361
391.007	1085
391.087	1262
391.167	1467
391.247	1668
391.328	2208
391.408	5969
391.488	4153
391.568	862
391.648	1293
391.728	3237
391.808	3246
391.888	2626
391.969	4058
392.049	16540
392.129	10773
392.209	4284
392.289	16181
392.369	20408
392.449	8078
392.529	7029
392.609	5399
392.689	4974
392.769	13364
392.849	27662
392.929	11467
393.009	21496
393.089	37293
393.169	20451
393.248	39686
393.328	197365
393.408	516511
393.488	228037
393.568	41291
393.648	15488
393.728	9714
393.807	6179
393.887	5088
393.967	4229
394.047	4340
394.127	3944
394.206	5649
394.286	11255
394.366	67626
394.446	200403
394.525	75486
394.605	9700
394.685	5066
394.764	7287
394.844	16070
394.924	21641
395.003	7299
395.083	3485
395.163	3753
395.242	2816
395.322	2789
395.402	1708
395.481	3132
395.561	4169
395.640	16873
395.720	23672
395.799	19178
395.879	31097
395.958	11957
396.038	15022
396.117	89675
396.197	255503
396.276	104894
396.356	19817
396.435	11234
396.515	9164
396.594	8313
396.673	14638
396.753	36961
396.832	213914
396.912	381691
396.991	117716
397.070	21825
397.150	8294
397.229	6215
397.308	3625
397.388	8078
397.467	7065
397.546	2518
397.625	581
397.705	2790
397.784	2593
397.863	1993
397.942	1375
398.022	133
398.101	1307
398.180	16338
398.259	19619
398.338	4751
398.417	1987
398.497	1290
398.576	1016
398.655	716
398.734	1080
398.813	520
398.892	1786
398.971	16046
399.050	23341
399.129	3617
399.208	79
399.287	806
399.366	-418
399.445	398
399.524	-212
399.603	117
399.682	474
399.761	2763
399.840	15397
399.919	32526
399.998	7231
400.077	-261
400.156	-706
400.235	1282
400.313	-88
400.392	790
400.471	2419
400.550	14693
400.629	8607
400.708	1213
400.786	376
400.865	2066
400.944	4154
401.023	2978
401.102	166
401.180	-428
401.259	-5
401.338	-334
401.416	-141
401.495	538
401.574	13
401.652	-613
401.731	505
401.810	759
401.888	221
401.967	-462
402.046	-264
402.124	787
402.203	1390
402.281	1154
402.360	222
402.438	2623
402.517	4792
402.596	1080
402.674	418
402.753	221
402.831	-381
402.910	-235
402.988	646
403.066	13091
403.145	20244
403.223	4498
403.302	10066
403.380	15897
403.459	10768
403.537	8175
403.615	1863
403.694	-472
403.772	-294
403.850	-185
403.929	-723
404.007	-433
404.085	174
404.164	1460
404.242	981
404.320	-211
404.398	212
404.477	2174
404.555	24152
404.633	76508
404.711	22510
404.789	893
404.868	416
404.946	139
405.024	-804
405.102	-784
405.180	-601
405.258	-1180
405.336	-499
405.415	-1179
405.493	66
405.571	1393
405.649	-566
405.727	-984
405.805	214
405.883	196
405.961	299
406.039	656
406.117	-253
406.195	-224
406.273	2110
406.351	26201
406.429	49501
406.507	9406
406.585	-303
406.663	-148
406.740	642
406.818	583
406.896	43
406.974	441
407.052	190
407.130	7237
407.208	40485
407.285	20603
407.363	306
407.441	85
407.519	-32
407.596	-305
407.674	910
407.752	6239
407.830	17694
407.907	7412
407.985	651
408.063	229
408.141	-1478
408.218	477
408.296	471
408.373	166
408.451	-495
408.529	511
408.606	-528
408.684	-808
408.762	-1002
408.839	-1015
408.917	-1131
408.994	-1084
409.072	-958
409.149	-851
409.227	-386
409.304	222
409.382	-286
409.459	496
409.537	392
409.614	991
409.692	-51
409.769	-476
409.846	-165
409.924	2213
410.001	915
410.079	53
410.156	-483
410.233	-93
410.311	-875
410.388	-526
410.465	-1030
410.543	-676
410.620	-1444
410.697	-1187
410.775	-526
410.852	-603
410.929	-705
411.006	251
411.083	-204
411.161	-17
411.238	1393
411.315	1074
411.392	-1358
411.469	-791
411.547	-181
411.624	-619
411.701	-1114
411.778	-885
411.855	159
411.932	1663
412.009	-779
412.086	-664
412.163	-414
412.240	-506
412.317	-1361
412.394	-362
412.471	-919
412.548	-716
412.625	-1039
412.702	-286
412.779	230
412.856	1165
412.933	-1463
413.010	-1019
413.087	-666
413.164	1983
413.241	11006
413.318	6284
413.395	-28
413.471	201
413.548	1299
413.625	-1066
413.702	-1139
413.779	-36
413.855	-1088
413.932	-1258
414.009	-1828
414.086	-1421
414.162	-1540
414.239	-740
414.316	120
414.393	13134
414.469	15123
414.546	745
414.623	-754
414.699	-776
414.776	-1594
414.853	-827
414.929	-1652
415.006	-1013
415.082	-1156
415.159	-802
415.236	-1072
415.312	-407
415.389	-1185
415.465	1334
415.542	917
415.618	-860
415.695	-219
415.771	-180
415.848	-483
415.924	-609
416.000	-1162
416.077	-1019
416.153	-1280
416.230	-1004
416.306	-1289
416.383	-1468
416.459	-1000
416.535	-1692
416.612	-1519
416.688	-1706
416.764	-1690
416.841	-653
416.917	-1574
416.993	-982
417.069	-1242
417.146	-613
417.222	-349
417.298	-82
417.374	-536
417.451	-540
417.527	-1494
417.603	-285
417.679	-497
417.755	-337
417.831	-1300
417.908	-1189
417.984	-611
418.060	-1155
418.136	-739
418.212	832
418.288	522
418.364	-641
418.440	-2035
418.516	-13
418.592	-211
418.668	891
418.744	2872
418.820	4200
418.896	712
418.972	-1061
419.048	-1510
419.124	-440
419.200	1103
419.276	160
419.352	-2426
419.428	-1242
419.504	-1478
419.579	-1045
419.655	-551
419.731	-870
419.807	-351
419.883	3530
419.959	6170
420.034	1425
420.110	-854
420.186	3224
420.262	13801
420.337	3953
420.413	-580
420.489	-1100
420.565	-502
420.640	-1314
420.716	-719
420.792	-839
420.867	-1229
420.943	-1539
421.019	-1191
421.094	728
421.170	-1391
421.245	-1328
421.321	-920
421.397	-1333
421.472	-435
421.548	1926
421.623	6137
421.699	2077
421.774	53
421.850	-169
421.925	-383
422.001	1630
422.076	115
422.152	-194
422.227	770
422.302	2355
422.378	2102
422.453	5130
422.529	11334
422.604	35075
422.679	119087
422.755	150302
422.830	61281
422.905	17406
422.981	6205
423.056	3413
423.131	2036
423.207	1043
423.282	349
423.357	1433
423.432	2314
423.508	1075
423.583	1693
423.658	5898
423.733	1583
423.808	62
423.883	585
423.959	293
424.034	-437
424.109	627
424.184	-798
424.259	-1042
424.334	-816
424.409	-1173
424.484	-1231
424.559	-984
424.634	-1406
424.709	241
424.784	689
424.859	163
424.934	-1105
425.009	2406
425.084	9498
425.159	10245
425.234	867
425.309	-451
425.384	-933
425.459	542
425.534	1104
425.609	-1487
425.683	-1258
425.758	-999
425.833	-910
425.908	-814
425.983	-524
426.058	7678
426.132	12808
426.207	625
426.282	-902
426.357	531
426.431	-726
426.506	-584
426.581	-1043
426.655	-1194
426.730	-890
426.805	-779
426.879	-556
426.954	-858
427.029	-813
427.103	3130
427.178	21836
427.253	37527
427.327	8653
427.402	-412
427.476	884
427.551	3745
427.625	-326
427.700	-49
427.774	-1127
427.849	-564
427.923	-1637
427.998	-772
428.072	-1030
428.147	-243
428.221	323
428.296	16019
428.370	30569
428.444	8217
428.519	591
428.593	1615
428.667	4047
428.742	2647
428.816	3595
428.890	4673
428.965	24190
429.039	24387
429.113	6456
429.188	3797
429.262	-91
429.336	-174
429.410	1813
429.485	5547
429.559	1379
429.633	2728
429.707	617
429.781	425
429.855	4866
429.930	27886
430.004	27363
430.078	16751
430.152	23621
430.226	21019
430.300	54501
430.374	30879
430.448	2457
430.522	1627
430.596	10204
430.670	24089
430.744	13474
430.818	53574
430.892	46905
430.966	5399
431.040	-107
431.114	-279
431.188	-1096
431.262	-1226
431.336	-1397
431.410	-183
431.484	2027
431.557	7246
431.631	761
431.705	-646
431.779	-450
431.853	8577
431.927	29967
432.000	12777
432.074	-47
432.148	75
432.222	-350
432.295	-147
432.369	-720
432.443	-725
432.516	1511
432.590	23614
432.664	40004
432.737	7757
432.811	-748
432.885	-1036
432.958	-1573
433.032	-1480
433.106	-1290
433.179	-606
433.253	-891
433.326	-562
433.400	-1425
433.473	-1225
433.547	-1234
433.620	-748
433.694	-1461
433.767	1025
433.841	-270
433.914	-443
433.988	-1372
434.061	-1428
434.134	-837
434.208	-1559
434.281	-1292
434.355	-1479
434.428	-1209
434.501	-689
434.575	-1407
434.648	-999
434.721	-1509
434.795	-940
434.868	-910
434.941	-1149
435.014	-1122
435.088	-1107
435.161	-753
435.234	138
435.307	517
435.381	1198
435.454	-259
435.527	-99
435.600	-84
435.673	-119
435.746	-361
435.819	-1262
435.892	-715
435.966	-525
436.039	-1821
436.112	-1268
436.185	-1453
436.258	-1197
436.331	-1631
436.404	-1314
436.477	-1850
436.550	-1529
436.623	-1461
436.696	-1294
436.769	-1821
436.842	-533
436.915	-1399
436.987	202
437.060	-174
437.133	-1153
437.206	-1677
437.279	-525
437.352	-2007
437.425	-785
437.498	-1217
437.570	77
437.643	436
437.716	496
437.789	-1187
437.861	-375
437.934	880
438.007	3602
438.080	382
438.152	-321
438.225	114
438.298	2751
438.370	34195
438.443	68687
438.516	16826
438.588	3272
438.661	60
438.734	-199
438.806	-776
438.879	-154
438.951	-643
439.024	563
439.096	1055
439.169	153
439.241	-478
439.314	-1392
439.386	-587
439.459	-236
439.531	1211
439.604	2636
439.676	-306
439.749	-1110
439.821	-1233
439.893	-760
439.966	-483
440.038	104
440.110	-336
440.183	-320
440.255	-1302
440.327	30
440.400	645
440.472	11953
440.544	43963
440.617	18582
440.689	1236
440.761	491
440.833	1624
440.905	3364
440.978	1243
441.050	-631
441.122	-1022
441.194	-970
441.266	-1287
441.338	-1082
441.411	-724
441.483	859
441.555	12854
441.627	14432
441.699	2533
441.771	876
441.843	803
441.915	-139
441.987	-940
442.059	-408
442.131	-804
442.203	-94
442.275	650
442.347	1165
442.419	675
442.491	2201
442.563	17937
442.635	35022
442.706	13551
442.778	7904
442.850	4809
442.922	817
442.994	-699
443.066	357
443.137	1631
443.209	711
443.281	-87
443.353	1521
443.425	4720
443.496	24641
443.568	75351
443.640	62152
443.711	19458
443.783	3179
443.855	1041
443.926	20
443.998	-270
444.070	2
444.141	185
444.213	678
444.285	827
444.356	1618
444.428	2160
444.499	1107
444.571	-836
444.642	-835
444.714	-827
444.785	247
444.857	1643
444.928	2011
445.000	4144
445.071	3269
445.143	3913
445.214	4811
445.285	2392
445.357	5569
445.428	14786
445.500	60967
445.571	112704
445.642	66202
445.714	29940
445.785	12601
445.856	9478
445.928	3588
445.999	2207
446.070	2135
446.141	901
446.213	1908
446.284	2391
446.355	840
446.426	277
446.497	15
446.569	302
446.640	1099
446.711	2647
446.782	1740
446.853	-68
446.924	1509
446.995	1158
447.066	178
447.138	-180
447.209	1407
447.280	-250
447.351	-18
447.422	-1547
447.493	-1369
447.564	-357
447.635	108
447.706	1360
447.777	404
447.847	-1149
447.918	-462
447.989	-522
448.060	109
448.131	853
448.202	3283
448.273	3689
448.344	2293
448.414	530
448.485	-233
448.556	-1073
448.627	-1099
448.698	-444
448.768	-1338
448.839	-295
448.910	-691
448.981	1349
449.051	910
449.122	-56
449.193	-848
449.263	-1242
449.334	-644
449.405	-666
449.475	961
449.546	2631
449.616	1965
449.687	2454
449.758	1460
449.828	-845
449.899	-645
449.969	-1212
450.040	-303
450.110	-1239
450.181	290
450.251	-208
450.322	-250
450.392	-283
450.463	-910
450.533	-598
450.604	-224
450.674	-590
450.744	-280
450.815	-1179
450.885	-335
450.955	-127
451.026	-584
451.096	-978
451.166	-468
451.237	-52
451.307	3130
451.377	5925
451.447	1884
451.518	-209
451.588	-841
451.658	-395
451.728	-305
451.799	148
451.869	8110
451.939	7528
452.009	911
452.079	-387
452.149	-402
452.219	-519
452.289	2057
452.360	8176
452.430	6668
452.500	-76
452.570	452
452.640	1122
452.710	1302
452.780	7527
452.850	10409
452.920	8166
452.990	7083
453.060	1894
453.129	649
453.199	1320
453.269	2155
453.339	23216
453.409	44314
453.479	36936
453.549	35392
453.619	52512
453.688	51065
453.758	20875
453.828	1753
453.898	25
453.968	844
454.037	-112
454.087	-145
454.107	-163
454.168	-121
454.177	-126
454.247	-403
454.249	-383
454.316	40
454.330	72
454.386	108
454.411	-13
454.456	-321
454.492	2269
454.525	4566
454.574	6000
454.595	6662
454.655	1594
454.665	776
454.734	-260
454.736	-227
454.804	463
454.817	883
454.873	2333
454.898	4429
454.943	8192
454.979	8628
455.013	9146
455.060	5448
455.082	3817
455.141	1164
455.152	655
455.221	1869
455.222	1931
455.291	4874
455.303	5496
455.360	8663
455.384	7007
455.430	4025
455.465	3107
455.499	2119
455.546	2844
455.569	3009
455.627	6536
455.638	7306
455.707	4251
455.708	4233
455.777	459
455.789	333
455.846	-186
455.869	-141
455.916	-183
455.950	-152
455.985	-59
456.031	-112
456.054	-192
456.112	-73
456.124	-11
456.193	460
456.193	454
456.262	-309
456.274	-294
456.332	-2
456.355	216
456.401	365
456.436	834
456.470	1331
456.516	704
456.540	452
456.597	45
456.609	-59
456.678	-700
456.678	-710
456.747	389
456.759	312
456.817	-57
456.840	-50
456.886	-14
456.920	19
456.955	39
457.001	67
457.024	126
457.082	223
457.093	242
457.162	793
457.163	805
457.232	1135
457.243	1266
457.301	1975
457.324	1435
457.370	467
457.405	415
457.439	427
457.485	483
457.508	499
457.566	306
457.577	267
457.646	336
457.647	348
457.715	1432
457.727	1511
457.784	2320
457.808	2988
457.853	3632
457.889	4966
457.922	5605
457.969	6260
457.991	7284
458.050	5869
458.060	5636
458.129	6672
458.130	6789
458.198	8007
458.211	8030
458.267	9617
458.292	8055
458.336	5801
458.372	3995
458.405	2855
458.453	2891
458.474	3328
458.533	6520
458.543	6689
458.611	9595
458.614	9893
458.680	13890
458.694	12760
458.749	11057
458.775	8307
458.818	4160
458.855	2708
458.887	1335
458.936	728
458.955	601
459.016	504
459.024	493
459.093	1188
459.097	1176
459.162	735
459.177	830
459.230	1143
459.257	1180
459.299	1357
459.338	1826
459.368	1959
459.418	1591
459.437	1504
459.499	1471
459.505	1475
459.574	1086
459.579	1084
459.643	1024
459.659	1009
459.711	928
459.740	986
459.780	1083
459.820	1109
459.849	1157
459.900	1096
459.917	1087
459.981	1082
459.986	1082
460.054	1804
460.061	1781
460.123	1316
460.141	1458
460.191	2056
460.222	1937
460.260	1857
460.302	2344
460.328	2295
460.382	2732
460.397	3007
460.462	2606
460.465	2601
460.534	2159
460.543	2256
460.602	5021
460.623	6003
460.671	9634
460.703	12492
460.739	10150
460.783	10629
460.808	11660
460.864	8197
460.876	8037
460.944	2603
460.945	2544
461.013	1625
461.024	1674
461.081	1607
461.104	1631
461.150	1500
461.184	1307
461.218	1266
461.264	1268
461.286	1320
461.345	880
461.355	812
461.423	1302
461.425	1305
461.491	1376
461.505	1404
461.559	2344
461.585	2622
461.628	3985
461.665	5746
461.696	6040
461.745	7022
461.764	6362
461.825	5439
461.832	5742
461.901	4160
461.905	4009
461.969	1046
461.985	904
462.037	1343
462.065	1457
462.105	1416
462.145	1293
462.173	1826
462.225	3138
462.241	3343
462.305	4465
462.310	4321
462.378	2619
462.385	2406
462.446	3544
462.465	3250
462.514	2192
462.545	1914
462.582	1442
462.625	1345
462.650	1253
462.705	1026
462.718	1104
462.785	1407
462.786	1419
462.854	1947
462.865	2095
462.922	2531
462.945	2739
462.990	2471
463.025	2306
463.058	2132
463.104	1234
463.126	1107
463.184	1211
463.194	1239
463.262	1180
463.264	1185
463.330	1282
463.344	1286
463.398	1663
463.424	2035
463.466	1486
463.504	629
463.533	850
463.583	1538
463.601	1722
463.663	2252
463.669	2279
463.737	2396
463.743	2417
463.805	3500
463.823	3900
463.873	6348
463.903	7708
463.940	7385
463.982	7438
464.008	6241
464.062	4100
464.076	4292
464.142	3195
464.144	3156
464.211	1624
464.221	1547
464.279	1347
464.301	1203
464.347	1635
464.381	2224
464.414	2296
464.461	2260
464.482	2212
464.540	2021
464.550	2029
464.617	2279
464.620	2283
464.685	2552
464.699	2549
464.753	3028
464.779	3392
464.820	3756
464.859	4024
464.888	3650
464.938	3121
464.956	3135
465.018	2948
465.023	2904
465.091	2459
465.098	2408
465.158	2097
465.177	1947
465.226	2604
465.257	3122
465.293	2853
465.336	2342
465.361	2665
465.416	3621
465.428	3788
465.495	4724
465.496	4748
465.563	7573
465.575	8056
465.631	9308
465.654	9974
465.698	6193
465.734	3181
465.765	3202
465.813	2406
465.833	2449
465.893	2715
465.900	2588
465.968	1736
465.972	1692
466.035	1731
466.052	1712
466.102	2322
466.131	2718
466.170	2733
466.210	2685
466.237	2649
466.290	2608
466.304	2590
466.369	2414
466.372	2431
466.439	3010
466.449	3076
466.506	3623
466.528	3827
466.573	4866
466.607	5647
466.641	8153
466.687	11656
466.708	12658
466.766	15362
466.775	14207
466.842	5714
466.845	5311
466.909	4771
466.925	4576
466.977	4003
467.004	3809
467.044	3924
467.083	4086
467.111	4376
467.163	4924
467.178	4881
467.242	4706
467.245	4692
467.312	4352
467.321	4308
467.379	3692
467.400	3459
467.446	3965
467.480	4331
467.559	4164
467.638	3298
467.717	3145
467.796	4113
467.875	4043
467.955	3444
468.034	5467
468.113	12267
468.192	17580
468.271	4417
468.350	3790
468.429	4942
468.508	4315
468.588	3341
468.667	3074
468.746	4025
468.825	3260
468.904	2728
468.983	3218
469.062	5161
469.141	6349
469.220	2191
469.299	2620
469.378	3715
469.456	3779
469.535	2898
469.614	3296
469.693	3806
469.772	4607
469.851	6045
469.930	4351
470.009	3371
470.088	3566
470.166	4325
470.245	7735
470.324	8076
470.403	3579
470.482	3621
470.560	2560
470.639	3259
470.718	4612
470.797	3620
470.875	3294
470.954	4818
471.033	5146
471.111	2369
471.190	2665
471.269	2877
471.347	2290
471.426	2604
471.505	3338
471.583	3404
471.662	2782
471.740	2791
471.819	3106
471.898	2661
471.976	2601
472.055	2891
472.133	3081
472.212	3271
472.290	3545
472.369	2549
472.447	2336
472.526	2455
472.604	2638
472.683	3145
472.761	2571
472.839	2684
472.918	2486
472.996	2892
473.075	2922
473.153	2496
473.231	1928
473.310	2511
473.388	2787
473.466	2444
473.545	3325
473.623	3622
473.701	3795
473.780	2492
473.858	2369
473.936	2335
474.014	2467
474.093	2967
474.171	3396
474.249	6175
474.327	3556
474.405	2000
474.484	2847
474.562	2287
474.640	2080
474.718	3042
474.796	2743
474.874	2515
474.952	2547
475.030	2466
475.108	3122
475.187	2979
475.265	3179
475.343	3952
475.421	4396
475.499	2130
475.577	2028
475.655	3057
475.733	6492
475.811	11081
475.889	10606
475.966	5585
476.044	2234
476.122	4161
476.200	4091
476.278	3692
476.356	2341
476.434	2950
476.512	3273
476.590	3992
476.667	2712
476.745	2292
476.823	3028
476.901	2313
476.979	1574
477.056	2197
477.134	2194
477.212	2738
477.290	1375
477.367	2710
477.445	1649
477.523	1478
477.601	2492
477.678	2538
477.756	2518
477.834	3464
477.911	2323
477.989	1831
478.066	2009
478.144	3528
478.222	3338
478.299	5808
478.377	4487
478.454	2160
478.532	1925
478.609	2032
478.687	2343
478.764	1080
478.842	2686
478.919	2809
478.997	2565
479.074	2287
479.152	2592
479.229	2818
479.307	2357
479.384	1644
479.461	1707
479.539	1193
479.616	2176
479.694	1632
479.771	1840
479.848	1744
479.926	3890
480.003	3162
480.080	2020
480.157	2383
480.235	1482
480.312	2434
480.389	1910
480.467	3908
480.544	4391
480.621	1799
480.698	2040
480.775	2516
480.853	2720
480.930	1928
481.007	2679
481.084	2721
481.161	2912
481.238	2225
481.315	2061
481.392	1608
481.470	1762
481.547	1915
481.624	1781
481.701	1179
481.778	2123
481.855	2204
481.932	3601
482.009	6661
482.086	3602
482.163	2401
482.240	3384
482.317	6102
482.393	3453
482.470	2802
482.547	2446
482.624	1297
482.701	1668
482.778	1590
482.855	1787
482.932	1357
483.009	1307
483.085	2003
483.162	2782
483.239	2575
483.316	1806
483.393	2078
483.469	1973
483.546	2358
483.623	2079
483.699	1149
483.776	2271
483.853	1805
483.930	3378
484.006	9175
484.083	16457
484.160	7665
484.236	11663
484.313	8049
484.389	6305
484.466	5653
484.543	5903
484.619	5802
484.696	5866
484.772	4955
484.849	6232
484.925	5573
485.002	4394
485.078	5577
485.155	5595
485.231	4633
485.308	5220
485.384	5081
485.461	5948
485.537	10131
485.614	11320
485.690	5525
485.766	4809
485.843	5342
485.919	7245
485.995	7259
486.072	3835
486.148	4737
486.224	3895
486.301	4034
486.377	5128
486.453	5245
486.530	4921
486.606	6428
486.682	7290
486.758	8212
486.835	9787
486.911	7026
486.987	12858
487.063	13513
487.139	17874
487.215	11514
487.292	5332
487.368	3698
487.444	5921
487.520	7175
487.596	7401
487.672	10893
487.748	27142
487.824	38185
487.900	10485
487.976	5936
488.052	6080
488.128	6717
488.204	5160
488.280	4177
488.356	5566
488.432	11522
488.508	16610
488.584	5663
488.660	4581
488.736	4317
488.812	4233
488.888	5903
488.964	8256
489.039	17099
489.115	25528
489.191	13434
489.267	5034
489.343	4949
489.418	3924
489.494	2979
489.570	3669
489.646	4201
489.722	2996
489.797	3983
489.873	5329
489.949	12922
490.024	9474
490.100	3819
490.176	3260
490.251	4346
490.327	6020
490.403	3298
490.478	3413
490.554	2695
490.629	2610
490.705	3033
490.781	2824
490.856	3127
490.932	3722
491.007	3970
491.083	3973
491.158	2310
491.234	4023
491.309	9610
491.385	9232
491.460	2725
491.536	3557
491.611	2943
491.686	3350
491.762	4955
491.837	10885
491.913	18019
491.988	23582
492.063	30561
492.139	8436
492.214	4600
492.289	2831
492.365	3039
492.440	3312
492.515	2764
492.590	2606
492.666	2077
492.741	3637
492.816	5617
492.891	3654
492.967	1726
493.042	2359
493.117	1963
493.192	1364
493.267	2518
493.342	3332
493.418	3159
493.493	2593
493.568	1772
493.643	1998
493.718	2305
493.793	4646
493.868	5261
493.943	3483
494.018	2144
494.093	2331
494.168	2416
494.243	1526
494.318	1510
494.393	1676
494.468	1714
494.543	2182
494.618	2588
494.693	2089
494.768	1882
494.842	2251
494.917	1038
494.992	2046
495.067	2100
495.142	1778
495.217	2121
495.292	2202
495.366	2665
495.441	3455
495.516	3632
495.591	6731
495.665	22295
495.740	55791
495.815	18508
495.890	2931
495.964	2644
496.039	2985
496.114	2481
496.188	2789
496.263	3059
496.338	2768
496.412	3057
496.487	3244
496.561	4270
496.636	4217
496.710	3572
496.785	3187
496.860	4500
496.934	2931
497.009	2514
497.083	3077
497.158	3161
497.232	4317
497.307	4999
497.381	3538
497.455	4306
497.530	7205
497.604	3838
497.679	4652
497.753	7773
497.827	9336
497.902	8695
497.976	11724
498.050	26341
498.125	101930
498.199	95697
498.273	16675
498.348	11081
498.422	9796
498.496	8122
498.570	6898
498.645	4396
498.719	4846
498.793	5031
498.867	8378
498.941	12535
499.016	35826
499.090	108626
499.164	28789
499.238	3883
499.312	3863
499.386	4797
499.460	4103
499.534	3688
499.609	3854
499.683	5980
499.757	6488
499.831	17214
499.905	66447
499.979	58086
500.053	8398
500.127	7772
500.201	5348
500.275	3527
500.349	2895
500.422	3150
500.496	6225
500.570	16018
500.644	34194
500.718	68779
500.792	11547
500.866	3292
500.940	4150
501.013	3857
501.087	2765
501.161	6210
501.235	9272
501.309	19602
501.382	57037
501.456	45689
501.530	8670
501.603	17907
501.677	5563
501.751	2394
501.825	3151
501.898	6688
501.972	21318
502.046	12113
502.119	3009
502.193	9142
502.266	24357
502.340	9705
502.413	9294
502.487	19599
502.561	9882
502.634	3079
502.708	2902
502.781	1623
502.855	1738
502.928	1032
503.002	1018
503.075	1144
503.149	1479
503.222	1031
503.295	1959
503.369	2523
503.442	3649
503.516	14614
503.589	40201
503.662	23385
503.736	6886
503.809	18673
503.882	13499
503.956	23021
504.029	20209
504.102	15365
504.175	19930
504.249	5748
504.322	3530
504.395	2252
504.468	2010
504.542	1407
504.615	644
504.688	1127
504.761	746
504.834	1646
504.907	1910
504.980	4017
505.053	1787
505.127	2942
505.200	2967
505.273	3051
505.346	1043
505.419	1257
505.492	431
505.565	494
505.638	361
505.711	547
505.784	1170
505.857	-32
505.930	914
506.003	523
506.076	1499
506.149	1790
506.221	2063
506.294	1864
506.367	8088
506.440	28943
506.513	14164
506.586	2870
506.659	1240
506.731	1311
506.804	1473
506.877	3031
506.950	1166
507.022	1307
507.095	1709
507.168	2226
507.241	783
507.313	519
507.386	795
507.459	2306
507.531	860
507.604	256
507.677	172
507.749	751
507.822	1369
507.894	3666
507.967	3777
508.040	2203
508.112	1649
508.185	1689
508.257	2164
508.330	3116
508.402	982
508.475	870
508.547	946
508.620	2591
508.692	2467
508.765	1735
508.837	1149
508.909	1017
508.982	882
509.054	2158
509.127	1272
509.199	820
509.271	1035
509.344	-110
509.416	782
509.488	101
509.560	753
509.633	1397
509.705	1614
509.777	1383
509.849	2362
509.922	1130
509.994	1436
510.066	361
510.138	867
510.210	3268
510.283	3242
510.355	2858
510.427	2285
510.499	1193
510.571	1426
510.643	1964
510.715	3138
510.787	2145
510.859	2066
510.931	1825
511.003	3105
511.076	2549
511.148	1178
511.219	1504
511.291	3032
511.363	3375
511.435	1478
511.507	1125
511.579	1088
511.651	194
511.723	516
511.795	723
511.867	1172
511.939	1166
512.010	3720
512.082	3056
512.154	1903
512.226	1280
512.298	2620
512.369	4926
512.441	2303
512.513	2580
512.585	2371
512.656	2276
512.728	2396
512.800	1678
512.871	1592
512.943	1614
513.015	1351
513.086	1074
513.158	1776
513.230	1927
513.301	2910
513.373	4672
513.444	1263
513.516	931
513.588	1210
513.659	1377
513.731	2814
513.802	2083
513.874	4937
513.945	9808
514.016	2462
514.088	631
514.159	1294
514.231	2636
514.302	4133
514.374	2122
514.445	2123
514.516	5597
514.588	3372
514.659	2087
514.730	5565
514.802	3733
514.873	2111
514.944	2495
515.016	1977
515.087	2976
515.158	3319
515.229	5343
515.301	3236
515.372	4016
515.443	2147
515.514	1535
515.585	1682
515.656	1397
515.728	1289
515.799	1725
515.870	1295
515.941	1673
516.012	1538
516.083	3009
516.154	2745
516.225	4865
516.296	2501
516.367	2276
516.438	3459
516.509	4839
516.580	11041
516.651	34096
516.722	118271
516.793	48445
516.864	7999
516.935	6110
517.006	8713
517.077	14548
517.148	40343
517.219	136891
517.289	221101
517.360	46498
517.431	13103
517.502	3829
517.573	3272
517.643	3205
517.714	3887
517.785	3778
517.856	3657
517.926	4358
517.997	4653
518.068	7289
518.138	13002
518.209	28842
518.280	97155
518.350	343347
518.421	125904
518.492	11476
518.562	5335
518.633	5690
518.703	5620
518.774	9599
518.845	21374
518.915	21968
518.986	6059
519.056	5427
519.127	9843
519.197	15523
519.268	31187
519.338	19501
519.408	3827
519.479	5240
519.549	5092
519.620	2481
519.690	1571
519.760	2020
519.831	1943
519.901	1868
519.971	2257
520.042	2048
520.112	1897
520.182	2227
520.253	2861
520.323	877
520.393	3273
520.463	4965
520.534	2925
520.604	6478
520.674	2322
520.744	3131
520.814	7669
520.885	7999
520.955	9713
521.025	36054
521.095	13506
521.165	1205
521.235	1376
521.305	2365
521.375	411
521.445	1228
521.515	2384
521.585	2936
521.655	2682
521.725	2071
521.795	1682
521.865	1427
521.935	2921
522.005	1879
522.075	1273
522.145	982
522.215	1118
522.285	3295
522.355	2856
522.424	7966
522.494	6849
522.564	3916
522.634	8244
522.704	23289
522.774	8787
522.843	852
522.913	1193
522.983	2255
523.053	1436
523.122	1458
523.192	3413
523.262	12168
523.331	12925
523.401	1146
523.471	1083
523.540	644
523.610	-255
523.680	1274
523.749	352
523.819	799
523.888	2283
523.958	277
524.027	89
524.097	1231
524.166	763
524.236	1391
524.305	1294
524.375	811
524.444	491
524.514	1321
524.583	1201
524.653	968
524.722	1029
524.791	405
524.861	756
524.930	574
524.999	716
525.069	1982
525.138	1434
525.207	1924
525.277	921
525.346	1439
525.415	176
525.484	756
525.554	1767
525.623	1231
525.692	1251
525.761	1023
525.830	996
525.900	1095
525.969	3157
526.038	6668
526.107	15337
526.176	40156
526.245	35003
526.314	11303
526.383	22251
526.452	31480
526.522	46830
526.591	53091
526.660	13595
526.729	6571
526.797	8580
526.867	21988
526.935	79583
527.004	127280
527.073	70581
527.142	5058
527.211	1914
527.280	2343
527.349	2030
527.418	879
527.487	1065
527.555	459
527.624	339
527.693	810
527.762	766
527.831	253
527.899	828
527.968	296
528.037	350
528.106	191
528.174	3396
528.243	2616
528.312	3484
528.380	4842
528.449	599
528.518	871
528.586	-868
528.655	762
528.723	421
528.792	277
528.861	551
528.929	554
528.998	169
529.066	88
529.135	-373
529.203	-70
529.272	-440
529.340	-435
529.409	-15
529.477	61
529.545	132
529.614	906
529.682	1297
529.751	791
529.819	1562
529.887	-137
529.956	44
530.024	-262
530.092	443
530.161	188
530.229	1405
530.297	550
530.365	308
530.434	-668
530.502	-11
530.570	-196
530.638	-544
530.707	692
530.775	539
530.843	217
530.911	-476
530.979	-268
531.047	242
531.115	480
531.183	-843
531.252	-68
531.320	635
531.388	301
531.456	336
531.524	-207
531.592	671
531.660	525
531.728	-4
531.796	-48
531.864	247
531.932	514
532.000	14
532.067	-49
532.135	-373
532.203	246
532.271	1028
532.339	2282
532.407	8743
532.475	5676
532.542	1064
532.610	1885
532.678	3888
532.746	16697
532.814	46342
532.881	11707
532.949	1315
533.017	29
533.084	1
533.152	-136
533.220	12
533.287	404
533.355	491
533.423	-691
533.490	-253
533.558	759
533.625	240
533.693	1085
533.761	-494
533.828	928
533.896	0
533.963	1989
534.031	2971
534.098	5033
534.166	1751
534.233	-70
534.300	392
534.368	788
534.435	-133
534.503	76
534.570	531
534.637	330
534.705	852
534.772	2000
534.840	4102
534.907	17500
534.974	25796
535.041	2165
535.109	1420
535.176	521
535.243	510
535.310	409
535.378	812
535.445	506
535.512	596
535.579	-654
535.646	647
535.714	142
535.781	1948
535.848	1404
535.915	658
535.982	319
536.049	588
536.116	374
536.183	25
536.250	872
536.317	383
536.384	291
536.451	1973
536.518	2164
536.585	887
536.652	1726
536.719	3200
536.786	2304
536.853	1242
536.920	2159
536.987	6092
537.053	7159
537.120	20054
537.187	20995
537.254	2321
537.321	-320
537.388	717
537.454	106
537.521	323
537.588	577
537.654	303
537.721	227
537.788	746
537.855	875
537.921	344
537.988	4
538.055	443
538.121	714
538.188	641
538.254	2994
538.321	5425
538.388	3478
538.454	1315
538.521	682
538.587	244
538.654	394
538.720	1107
538.787	703
538.853	239
538.920	1864
538.986	1252
539.053	829
539.119	862
539.185	1367
539.252	868
539.318	2651
539.385	1692
539.451	1479
539.517	1315
539.583	1881
539.650	5232
539.716	16790
539.782	4976
539.849	1310
539.915	1430
539.981	1036
540.047	1577
540.114	1336
540.180	928
540.246	1088
540.312	2742
540.378	4330
540.444	7316
540.510	6643
540.576	18343
540.643	6584
540.709	760
540.775	642
540.841	322
540.907	1506
540.973	3197
541.039	2758
541.105	2462
541.171	1016
541.237	828
541.303	833
541.369	1801
541.435	2339
541.500	5006
541.566	3189
541.632	-39
541.698	568
541.764	485
541.830	-23
541.896	245
541.961	888
542.027	1092
542.093	673
542.159	850
542.224	1478
542.290	2201
542.356	3335
542.421	6202
542.487	2197
542.553	749
542.618	528
542.684	1045
542.750	1358
542.815	1952
542.881	4224
542.947	14714
543.012	12863
543.078	607
543.143	229
543.209	609
543.274	1027
543.340	1802
543.405	4768
543.471	9864
543.536	1917
543.602	1287
543.667	103
543.732	931
543.798	740
543.863	715
543.928	489
543.994	-383
544.059	1101
544.124	687
544.190	316
544.255	447
544.320	890
544.386	961
544.451	2674
544.516	2880
544.581	2920
544.646	8113
544.712	16597
544.777	3142
544.842	1144
544.907	2202
544.972	1014
545.037	718
545.102	1434
545.168	689
545.233	1852
545.298	1913
545.363	2581
545.428	2956
545.493	4843
545.558	12965
545.623	6256
545.688	1391
545.753	980
545.818	1260
545.883	2604
545.947	1939
546.012	2364
546.077	1756
546.142	2156
546.207	2057
546.272	2974
546.337	3096
546.401	2839
546.466	1615
546.531	2143
546.596	2654
546.661	2443
546.725	2978
546.790	2505
546.855	2473
546.919	2423
546.984	2569
547.049	2985
547.113	4665
547.178	3630
547.243	4503
547.307	5880
547.372	6136
547.436	5929
547.501	6111
547.565	6226
547.630	6446
547.695	6349
547.759	6229
547.823	6653
547.888	5666
547.952	5900
548.017	5356
548.081	5979
548.146	7346
548.210	7026
548.274	6861
548.339	6540
548.403	5249
548.468	4551
548.532	5107
548.596	6030
548.660	5535
548.725	6762
548.789	7367
548.853	7207
548.917	6886
548.982	7315
549.046	6578
549.110	5055
549.174	5368
549.238	6218
549.303	5816
549.367	6610
549.431	6538
549.495	5344
549.559	6093
549.623	7625
549.687	8279
549.751	9719
549.815	9518
549.879	9357
549.943	8650
550.007	8764
550.071	9393
550.135	10186
550.199	7886
550.263	8219
550.327	7447
550.391	8935
550.455	8646
550.519	8854
550.582	9936
550.646	11059
550.710	12240
550.774	9607
550.838	10643
550.901	11307
550.965	11454
551.029	12072
551.093	13860
551.156	15879
551.220	20538
551.284	25221
551.347	17872
551.411	18209
551.475	21283
551.538	11991
551.602	11151
551.666	10327
551.729	9068
551.793	8182
551.856	9202
551.920	8594
551.983	8490
552.047	8304
552.110	8529
552.174	9016
552.237	8425
552.301	8132
552.364	8706
552.428	7734
552.491	7670
552.554	8392
552.618	9145
552.681	9968
552.745	10264
552.808	13544
552.871	18161
552.934	11192
552.998	8955
553.061	8561
553.124	7760
553.187	8066
553.251	7782
553.314	8259
553.377	8623
553.440	8989
553.503	8426
553.567	9131
553.630	9024
553.693	9622
553.756	8667
553.819	8818
553.882	8349
553.945	7813
554.008	8314
554.071	7549
554.134	8407
554.197	7384
554.260	7624
554.323	8117
554.386	8102
554.449	7569
554.512	8011
554.575	7710
554.638	7336
554.701	8544
554.764	7984
554.827	8108
554.889	7404
554.952	6861
555.015	6178
555.078	5993
555.141	7745
555.203	6861
555.266	7082
555.329	7021
555.391	5979
555.454	6871
555.517	6747
555.580	6233
555.642	5016
555.705	4895
555.768	5877
555.830	6626
555.893	5165
555.955	5087
556.018	5674
556.080	5220
556.143	4571
556.206	5933
556.268	5811
556.330	6268
556.393	5421
556.455	5132
556.518	6067
556.580	6716
556.643	4846
556.705	3667
556.767	4829
556.830	4826
556.892	5623
556.955	6785
557.017	7042
557.079	5331
557.142	4943
557.204	5925
557.266	8113
557.328	7845
557.391	3643
557.453	3650
557.515	4113
557.577	4860
557.639	5058
557.701	4034
557.764	3551
557.826	3346
557.888	5192
557.950	5614
558.012	7117
558.074	9441
558.136	16126
558.198	36633
558.260	19753
558.322	4815
558.384	5803
558.446	6025
558.508	6569
558.570	11476
558.632	16923
558.694	32679
558.756	44725
558.818	76820
558.880	191257
558.942	88156
559.003	39817
559.065	26968
559.127	8656
559.189	9237
559.251	14493
559.312	25754
559.374	42934
559.436	107700
559.498	81825
559.559	12067
559.621	9189
559.683	17316
559.744	25441
559.806	51859
559.868	93249
559.929	26696
559.991	13927
560.052	18095
560.114	38416
560.176	38738
560.237	22069
560.299	40788
560.360	14364
560.422	4128
560.483	3727
560.545	4153
560.606	3780
560.667	3711
560.729	2982
560.790	2786
560.852	3158
560.913	3674
560.974	3326
561.036	2498
561.097	2745
561.158	3793
561.220	3558
561.281	3418
561.342	3397
561.403	6573
561.465	6531
561.526	11850
561.587	18143
561.648	5959
561.709	3247
561.771	2382
561.832	3074
561.893	2470
561.954	2715
562.015	2739
562.076	2536
562.137	3599
562.198	3218
562.259	2545
562.320	3481
562.381	3595
562.442	5238
562.503	4768
562.564	3317
562.625	3200
562.686	2443
562.747	3862
562.808	3316
562.869	2988
562.930	3797
562.991	3113
563.051	4058
563.112	3176
563.173	3164
563.234	3232
563.294	2718
563.355	3538
563.416	2739
563.477	2797
563.537	3766
563.598	4988
563.659	2943
563.720	3340
563.780	3816
563.841	3872
563.901	3609
563.962	2991
564.023	3118
564.083	3048
564.144	3555
564.204	3620
564.265	4108
564.325	5060
564.386	7447
564.446	8284
564.507	3258
564.567	2901
564.628	3773
564.688	3573
564.749	3486
564.809	4006
564.869	4681
564.930	3576
564.990	4035
565.050	3435
565.111	4169
565.171	3190
565.231	3422
565.292	4434
565.352	3471
565.412	4094
565.472	3471
565.532	4031
565.593	3949
565.653	4000
565.713	4446
565.773	4661
565.833	4845
565.893	7365
565.953	4704
566.013	4630
566.074	6324
566.134	6798
566.194	7943
566.254	10513
566.314	7746
566.374	4837
566.434	5214
566.494	5500
566.554	5878
566.614	5864
566.673	5574
566.733	5709
566.793	6414
566.853	7925
566.913	7172
566.973	7754
567.033	8138
567.092	7745
567.152	7686
567.212	8114
567.272	8026
567.331	8356
567.391	8610
567.451	9639
567.511	10178
567.570	10122
567.630	8459
567.690	7849
567.749	8244
567.809	8659
567.868	9618
567.928	10577
567.988	12809
568.047	16170
568.107	20137
568.166	27488
568.226	36820
568.285	49483
568.345	46342
568.404	37460
568.464	34087
568.523	32559
568.582	34190
568.642	39097
568.701	48193
568.761	62246
568.820	87379
568.879	91075
568.939	70259
568.998	56540
569.057	43033
569.116	34757
569.176	28910
569.235	23942
569.294	21591
569.353	18601
569.413	16099
569.472	14908
569.531	13115
569.590	11441
569.649	11495
569.708	10921
569.767	11127
569.827	10466
569.886	10417
569.945	8265
570.004	7831
570.063	7891
570.122	8967
570.181	9249
570.240	7802
570.299	7828
570.358	7977
570.417	7441
570.475	6207
570.534	6726
570.593	7017
570.652	7228
570.711	7296
570.770	6144
570.829	6675
570.887	7039
570.946	6996
571.005	6347
571.064	6887
571.122	7284
571.181	6853
571.240	6597
571.299	6016
571.357	5721
571.416	6209
571.475	7033
571.533	7586
571.592	5634
571.650	6443
571.709	5468
571.768	5600
571.826	5824
571.885	5361
571.943	5700
572.002	4945
572.060	5670
572.119	4898
572.177	4298
572.236	4355
572.294	3985
572.352	5003
572.411	4413
572.469	5375
572.528	4599
572.586	5745
572.644	5629
572.703	7579
572.761	6516
572.819	5080
572.877	4612
572.936	4057
572.994	4615
573.052	5011
573.110	4848
573.169	5308
573.227	3529
573.285	4968
573.343	4562
573.401	4485
573.459	4724
573.517	4378
573.576	4844
573.634	5238
573.692	4953
573.750	5107
573.808	5473
573.866	5863
573.924	6067
573.982	6703
574.040	5638
574.098	5038
574.155	4738
574.213	3508
574.271	4790
574.329	4340
574.387	4500
574.445	4918
574.503	4009
574.560	3937
574.618	3723
574.676	3491
574.734	4401
574.792	5083
574.849	4306
574.907	3953
574.965	4574
575.022	3952
575.080	4744
575.138	4899
575.195	5279
575.253	4343
575.311	5256
575.368	5038
575.426	4584
575.483	4659
575.541	4263
575.598	4631
575.656	4523
575.713	4971
575.771	4740
575.828	4550
575.886	4748
575.943	4245
576.001	4599
576.058	5251
576.115	5856
576.173	5637
576.230	7250
576.287	7561
576.345	7002
576.402	6166
576.459	6180
576.517	5238
576.574	5938
576.631	6298
576.688	5468
576.746	4900
576.803	6044
576.860	5392
576.917	4347
576.974	5321
577.031	5206
577.089	5436
577.146	5066
577.203	4940
577.260	6036
577.317	6434
577.374	6990
577.431	6649
577.488	5464
577.545	5250
577.602	5086
577.659	5297
577.716	5464
577.773	5353
577.830	4901
577.886	5275
577.943	5173
578.000	5381
578.057	5583
578.114	4873
578.171	5950
578.227	6150
578.284	4859
578.341	5940
578.398	6144
578.454	5889
578.511	6981
578.568	7603
578.625	6769
578.681	5826
578.738	5669
578.794	5211
578.851	5962
578.908	5784
578.964	5361
579.021	5676
579.077	6031
579.134	6122
579.190	5927
579.247	5827
579.303	5845
579.360	5905
579.416	5728
579.473	5138
579.529	5613
579.586	5623
579.642	5913
579.698	5613
579.755	6336
579.811	5586
579.867	5507
579.924	5230
579.980	5521
580.036	5567
580.093	5955
580.149	6178
580.205	6167
580.261	6673
580.317	6024
580.374	6786
580.430	7538
580.486	7309
580.542	6634
580.598	6873
580.619	6871
580.654	6875
580.692	6699
580.710	6623
580.765	6950
580.767	6967
580.823	6664
580.838	6700
580.879	6799
580.911	6642
580.935	6540
580.984	6322
580.991	6298
581.047	7025
581.057	6988
581.103	6883
581.130	7047
581.159	7196
581.203	6845
581.215	6772
581.270	6288
581.276	6284
581.326	6257
581.349	6696
581.382	7378
581.422	7171
581.438	7089
581.494	6942
581.494	6943
581.550	7425
581.567	7336
581.606	7157
581.640	7156
581.661	7161
581.713	7242
581.717	7253
581.773	7249
581.786	7182
581.829	6894
581.859	6850
581.885	6852
581.932	7348
581.940	7452
581.996	7220
582.004	7289
582.052	7598
582.077	7537
582.107	7488
582.150	6884
582.163	6728
582.219	7965
582.223	7910
582.274	7190
582.296	7395
582.330	7810
582.368	8200
582.386	8323
582.441	7473
582.441	7474
582.497	7744
582.514	7791
582.552	7839
582.587	7716
582.608	7679
582.659	7248
582.663	7211
582.719	8726
582.732	8489
582.774	7828
582.805	8029
582.830	8179
582.877	7652
582.885	7553
582.941	8102
582.950	8056
582.996	7923
583.023	8049
583.052	8251
583.095	8544
583.107	8576
583.162	8273
583.168	8345
583.218	8918
583.240	8771
583.273	8619
583.313	8320
583.328	8206
583.384	7850
583.385	7848
583.439	7810
583.458	7944
583.494	8298
583.531	8496
583.549	8511
583.603	8774
583.605	8787
583.660	8809
583.676	8689
583.715	8307
583.748	8333
583.770	8454
583.820	9487
583.825	9566
583.881	8883
583.893	8874
583.936	8787
583.965	9246
583.991	9685
584.038	9388
584.046	9332
584.101	9613
584.110	9546
584.156	9221
584.183	9376
584.211	9565
584.255	9560
584.266	9502
584.321	9333
584.328	9273
584.376	9095
584.400	9200
584.431	9294
584.472	9672
584.486	9814
584.541	10486
584.545	10509
584.596	10609
584.617	10392
584.651	10093
584.689	10405
584.706	10574
584.761	10745
584.762	10750
584.816	11079
584.834	11317
584.871	11675
584.906	11425
584.926	11267
584.978	11087
584.980	11088
585.035	11794
585.051	11978
585.090	12469
585.123	12690
585.145	12769
585.195	13788
585.200	13891
585.254	14620
585.267	14866
585.309	15739
585.340	17403
585.364	18946
585.412	21647
585.419	21983
585.473	26954
585.484	28567
585.528	35740
585.556	41307
585.583	47631
585.628	57535
585.637	62480
585.692	103643
585.700	114449
585.747	206775
585.772	229479
585.801	208135
585.845	137864
585.856	113200
585.910	38041
585.917	30375
585.965	23851
585.989	21304
586.019	20085
586.061	18676
586.074	18437
586.128	17979
586.133	17933
586.183	17801
586.205	18012
586.237	18730
586.277	19634
586.292	19563
586.346	18784
586.349	18810
586.401	19578
586.421	19707
586.455	20132
586.493	20592
586.509	20904
586.564	23612
586.565	23703
586.618	30700
586.637	33659
586.672	39260
586.709	38195
586.727	33387
586.781	24576
586.781	24561
586.835	23749
586.853	23510
586.889	22467
586.925	21621
586.944	21586
586.996	22207
586.998	22203
587.052	22809
587.068	22860
587.106	23137
587.140	23772
587.161	23948
587.212	23938
587.215	23949
587.269	25638
587.284	26071
587.323	26514
587.356	26931
587.377	27438
587.427	29154
587.431	29184
587.485	29757
587.499	30055
587.539	31377
587.571	32093
587.593	32485
587.643	34844
587.648	35008
587.702	36593
587.715	37198
587.755	38761
587.786	40134
587.810	41165
587.858	43064
587.864	43252
587.917	46696
587.930	47604
587.971	50662
588.001	53587
588.025	55874
588.073	60451
588.079	60850
588.133	65722
588.145	67192
588.187	72868
588.217	77696
588.241	82187
588.288	93489
588.295	94912
588.348	109038
588.360	112866
588.402	126911
588.431	138817
588.456	149310
588.503	173532
588.510	176802
588.564	212364
588.575	221287
588.617	256455
588.646	285034
588.671	313536
588.718	374986
588.725	386170
588.778	488379
588.789	511744
588.832	653102
588.861	751243
588.886	875422
588.932	1080754
588.939	1093649
588.993	1138827
589.004	1155301
589.047	1123390
589.075	1115025
589.100	1083687
589.147	974100
589.154	939403
589.207	648759
589.218	593199
589.261	500039
589.290	447732
589.314	434454
589.361	423945
589.368	428131
589.421	486454
589.433	503161
589.475	637806
589.504	732688
589.528	856450
589.576	1063032
589.582	1064036
589.635	1048589
589.647	1049887
589.689	940696
589.718	836572
589.742	695927
589.790	411122
589.795	395229
589.849	266641
589.861	239707
589.902	198675
589.932	172255
589.955	158533
590.004	131578
590.009	128685
590.062	103941
590.075	98400
590.115	87531
590.146	80284
590.168	76165
590.218	68425
590.222	67764
590.275	61962
590.289	60738
590.328	57405
590.360	55107
590.381	53218
590.431	49389
590.435	49005
590.488	44931
590.503	43987
590.541	42660
590.574	41633
590.594	40660
590.645	38755
590.647	38583
590.700	36546
590.716	36035
590.753	34816
590.787	33952
590.806	33239
590.859	31559
590.859	31459
590.912	29879
590.930	29492
590.965	29174
591.001	29098
591.018	28794
591.071	27917
591.072	27971
591.124	27628
591.143	27475
591.177	26601
591.214	26021
591.230	26052
591.283	26278
591.285	26335
591.336	26544
591.356	26616
591.389	26796
591.427	27109
591.442	26707
591.495	25323
591.498	25256
591.547	23355
591.569	22552
591.600	22742
591.640	23065
591.653	22835
591.706	22071
591.711	22022
591.759	21712
591.782	21647
591.811	22774
591.853	24590
591.864	24694
591.917	25061
591.924	25149
591.969	23166
591.995	22100
592.022	21737
592.066	21148
592.075	21199
592.127	21782
592.137	21923
592.180	24307
592.208	25910
592.233	26390
592.279	27181
592.285	26668
592.338	22374
592.350	21422
592.390	20506
592.421	19842
592.443	19906
592.491	20137
592.495	20120
592.548	20190
592.562	20231
592.600	20199
592.633	20206
592.653	20062
592.704	19628
592.705	19737
592.775	19622
592.846	20236
592.916	19930
592.987	21941
593.058	23097
593.128	20507
593.199	20118
593.270	18757
593.341	18591
593.411	18419
593.482	20918
593.553	20248
593.623	18961
593.694	19519
593.764	20309
593.835	21120
593.906	19851
593.976	20563
594.047	19212
594.117	22078
594.188	24722
594.258	24143
594.329	19972
594.399	20518
594.470	20416
594.540	21853
594.611	20954
594.681	21717
594.751	21140
594.822	22304
594.892	23739
594.963	24649
595.033	23948
595.103	23425
595.174	24555
595.244	27539
595.314	38086
595.384	39573
595.455	25441
595.525	25908
595.595	26077
595.665	26575
595.736	26344
595.806	26335
595.876	25175
595.946	25370
596.016	26354
596.087	26579
596.157	26739
596.227	28003
596.297	28058
596.367	29048
596.437	30485
596.507	34189
596.577	41249
596.647	43962
596.717	32215
596.787	31877
596.857	33504
596.927	34042
596.997	33815
597.067	32952
597.137	33601
597.207	34292
597.277	33403
597.347	34660
597.417	33175
597.487	32584
597.557	33088
597.626	33604
597.696	34828
597.766	37189
597.836	41340
597.906	45905
597.975	32073
598.045	29731
598.115	30410
598.185	31121
598.254	34933
598.324	39522
598.394	41115
598.464	42129
598.533	40363
598.603	38188
598.672	35842
598.742	35657
598.812	35294
598.881	36349
598.951	35530
599.020	35915
599.090	36451
599.159	38329
599.229	37715
599.299	36241
599.368	35543
599.437	36413
599.507	35275
599.576	33505
599.646	33664
599.715	31794
599.785	31203
599.854	32706
599.924	33179
599.993	35260
600.062	32264
600.132	30951
600.201	32248
600.270	35422
600.340	39397
600.409	38989
600.478	38234
600.547	40105
600.617	39455
600.686	35067
600.755	30123
600.824	28484
600.894	29233
600.963	27716
601.032	25869
601.101	25708
601.170	24346
601.239	23163
601.308	23897
601.378	25778
601.447	23818
601.516	23007
601.585	24019
601.654	25424
601.723	27645
601.792	24214
601.861	24815
601.930	25991
601.999	27401
602.068	29118
602.137	26709
602.206	30735
602.275	29637
602.343	28141
602.412	32035
602.481	30927
602.550	27736
602.619	26675
602.688	27495
602.756	29708
602.825	27556
602.894	27540
602.963	28640
603.032	28696
603.100	29132
603.169	29154
603.238	30489
603.307	29779
603.375	29424
603.444	29554
603.513	31004
603.581	31497
603.650	32001
603.719	31740
603.787	30530
603.856	32930
603.924	33195
603.993	35210
604.061	35404
604.130	35494
604.198	36725
604.267	39214
604.335	38040
604.404	37741
604.472	38511
604.541	40054
604.609	39915
604.678	40274
604.746	40272
604.815	40389
604.883	40899
604.951	42467
605.020	42124
605.088	42371
605.156	43650
605.225	45344
605.293	44698
605.361	45053
605.429	45378
605.498	46498
605.566	47747
605.634	50267
605.702	50434
605.771	52978
605.839	53427
605.907	51810
605.975	51732
606.043	49438
606.111	49355
606.180	49199
606.248	48831
606.316	48618
606.384	47856
606.452	50665
606.520	54994
606.588	58174
606.656	51624
606.724	50550
606.792	50096
606.860	46373
606.928	41899
606.996	38312
607.064	36267
607.132	36593
607.200	38375
607.267	40103
607.335	41663
607.403	43400
607.471	43165
607.539	42015
607.607	40840
607.674	41269
607.742	36430
607.810	37267
607.878	38556
607.946	36926
608.013	37879
608.081	40038
608.149	40774
608.216	40378
608.284	41289
608.352	41513
608.419	42738
608.487	43712
608.555	47571
608.622	41842
608.690	40152
608.757	44936
608.825	49125
608.893	49065
608.960	48713
609.028	50262
609.095	50509
609.163	52466
609.230	44624
609.298	39521
609.365	35966
609.432	37760
609.500	39567
609.567	44706
609.635	51875
609.702	58153
609.769	61482
609.837	58219
609.904	47101
609.971	40945
610.039	44475
610.106	53070
610.173	84077
610.241	190405
610.308	456494
610.375	239111
610.442	99878
610.509	50781
610.577	42751
610.644	42021
610.711	41615
610.778	42782
610.845	42693
610.912	45888
610.980	47341
611.047	49786
611.114	50380
611.181	48526
611.248	46829
611.315	47244
611.382	47671
611.449	50529
611.516	52021
611.583	51613
611.650	51113
611.717	52776
611.784	53917
611.851	56732
611.918	60390
611.984	70211
612.051	89269
612.118	151987
612.185	356175
612.252	928869
612.319	391709
612.386	92629
612.452	73358
612.519	66349
612.586	64177
612.653	67709
612.719	62894
612.786	63810
612.853	58390
612.919	54068
612.986	53248
613.053	53000
613.120	49431
613.186	47421
613.253	44885
613.319	45183
613.386	45945
613.453	47850
613.519	48044
613.586	50177
613.652	55413
613.719	62762
613.785	57117
613.852	53498
613.918	48420
613.985	46754
614.051	47347
614.118	50577
614.184	52454
614.250	48631
614.317	46424
614.383	47316
614.449	46961
614.516	47630
614.582	46862
614.648	49189
614.715	46786
614.781	46292
614.847	46145
614.914	46297
614.980	45798
615.046	45624
615.112	44070
615.179	45608
615.245	47193
615.311	48017
615.377	51747
615.443	64635
615.509	61668
615.575	52577
615.642	51097
615.708	50732
615.774	54110
615.840	58496
615.906	64057
615.972	77926
616.038	113037
616.104	215564
616.170	459135
616.236	1160516
616.302	734233
616.368	145669
616.434	106475
616.500	73385
616.565	66546
616.631	78940
616.697	100924
616.763	74481
616.829	83214
616.895	145764
616.961	274172
617.026	228020
617.092	77937
617.158	54606
617.224	50200
617.289	48117
617.355	44426
617.421	42902
617.487	41662
617.552	41053
617.618	38882
617.684	38391
617.749	38878
617.815	37778
617.880	36194
617.946	35700
618.012	35316
618.077	36579
618.143	37714
618.208	35861
618.274	35729
618.339	38958
618.405	38880
618.470	32978
618.536	31796
618.601	34060
618.667	33617
618.732	30344
618.798	28763
618.863	28768
618.928	27988
618.994	28937
619.059	29235
619.124	32277
619.190	40602
619.255	30058
619.320	27946
619.386	28866
619.451	26863
619.516	27515
619.581	26469
619.647	27563
619.712	27973
619.777	27546
619.842	26424
619.907	27397
619.972	27183
620.038	29358
620.103	28510
620.168	27032
620.233	26424
620.298	27097
620.363	27027
620.428	27140
620.493	27596
620.558	28529
620.623	28760
620.688	29327
620.753	28282
620.818	29166
620.883	28456
620.948	29831
621.013	29144
621.078	29598
621.143	28863
621.207	30235
621.272	30892
621.337	31106
621.402	29798
621.467	30612
621.532	34894
621.596	35437
621.661	31433
621.726	29225
621.791	27744
621.855	28128
621.920	29300
621.985	30918
622.049	31925
622.114	32973
622.179	34150
622.243	29404
622.308	30660
622.373	31821
622.437	32873
622.502	32564
622.566	29255
622.631	30087
622.695	30237
622.760	30099
622.824	30264
622.889	30146
622.953	30911
623.018	33159
623.082	45378
623.147	41235
623.211	31818
623.276	32027
623.340	31880
623.404	29586
623.469	28484
623.533	28017
623.597	28197
623.662	28121
623.726	28122
623.790	25575
623.854	23874
623.919	24382
623.983	24975
624.047	25884
624.111	24748
624.176	25366
624.240	27016
624.304	29431
624.368	30199
624.432	26723
624.496	26593
624.560	28646
624.625	30382
624.689	33501
624.753	27846
624.817	29418
624.881	26850
624.945	26377
625.009	24334
625.073	24215
625.137	23956
625.201	27986
625.265	33684
625.329	31156
625.393	25959
625.456	27012
625.520	26283
625.584	28095
625.648	30751
625.712	36461
625.776	48666
625.839	91619
625.903	97381
625.967	39033
626.031	26814
626.095	39910
626.158	59619
626.222	29124
626.286	19218
626.349	19503
626.413	17877
626.477	17867
626.540	18664
626.604	18434
626.668	17250
626.731	17402
626.795	16514
626.858	17510
626.922	17168
626.986	17366
627.049	16662
627.113	17206
627.176	17032
627.240	16714
627.303	16089
627.366	16651
627.430	16210
627.493	17827
627.557	16815
627.620	17028
627.684	16601
627.747	17588
627.810	16690
627.874	15939
627.937	15028
628.000	14879
628.064	15374
628.127	15064
628.190	13371
628.253	13194
628.317	14005
628.380	13056
628.443	12203
628.506	12990
628.569	12643
628.632	11808
628.696	10360
628.759	10905
628.822	11343
628.885	10912
628.948	10859
629.011	10750
629.074	10677
629.137	11597
629.200	10253
629.263	10272
629.326	11175
629.389	9779
629.452	9844
629.515	10218
629.578	9189
629.641	10648
629.704	10694
629.767	10945
629.830	10754
629.892	9513
629.955	9814
630.018	9761
630.081	11095
630.144	14000
630.207	15296
630.269	12476
630.332	10899
630.395	12737
630.458	10384
630.520	9058
630.583	9894
630.646	9543
630.708	8939
630.771	9362
630.834	9107
630.896	9777
630.959	9129
631.021	9056
631.084	9489
631.146	9536
631.209	10527
631.272	11983
631.334	9732
631.397	9759
631.459	9313
631.522	10460
631.584	11058
631.646	11443
631.709	11466
631.771	14179
631.834	17045
631.896	13503
631.958	10610
632.021	9909
632.083	9164
632.145	9376
632.208	9041
632.270	9516
632.332	8910
632.395	9243
632.457	8641
632.519	9371
632.581	8628
632.643	8502
632.706	8063
632.768	8934
632.830	7613
632.892	8116
632.954	9754
633.016	8952
633.078	8007
633.141	8771
633.203	8373
633.265	8523
633.327	7792
633.389	8528
633.451	9016
633.513	10134
633.575	12199
633.637	11590
633.698	12127
633.760	10854
633.822	10152
633.884	9227
633.946	9586
634.008	10157
634.070	9689
634.132	9794
634.193	11842
634.255	13331
634.317	14099
634.379	15105
634.441	13964
634.502	12557
634.564	11386
634.626	10124
634.687	9412
634.749	9507
634.811	8700
634.873	8432
634.934	8042
634.996	7832
635.057	7894
635.119	8101
635.181	8475
635.242	8678
635.304	7829
635.365	8583
635.427	8523
635.488	8782
635.550	8508
635.611	8538
635.673	8422
635.734	8101
635.796	9058
635.857	10694
635.918	11448
635.980	12120
636.041	13654
636.102	15029
636.164	16151
636.225	15948
636.286	14612
636.348	13364
636.409	11847
636.470	10241
636.531	8882
636.593	9358
636.654	9935
636.715	8642
636.776	6936
636.838	6971
636.899	6760
636.960	7075
637.021	6317
637.082	6687
637.143	6031
637.204	6360
637.265	5834
637.326	7036
637.387	6429
637.448	6345
637.509	6102
637.570	6448
637.631	6464
637.692	6635
637.753	5392
637.814	5435
637.875	6029
637.936	5759
637.997	6037
638.058	5190
638.119	5925
638.179	6096
638.240	6503
638.301	5733
638.362	5049
638.423	5961
638.483	5777
638.544	5877
638.605	5748
638.666	5247
638.726	5198
638.787	5031
638.848	4913
638.908	6183
638.969	5012
639.030	4925
639.090	4627
639.151	5037
639.211	4705
639.272	6101
639.332	8537
639.393	14609
639.453	7859
639.514	6363
639.574	6462
639.635	4650
639.695	4472
639.756	4730
639.816	5225
639.877	5802
639.937	8134
639.997	13668
640.058	17756
640.118	6131
640.178	4655
640.239	5343
640.299	4254
640.359	5512
640.420	4921
640.480	5627
640.540	6021
640.600	6810
640.661	7629
640.721	6808
640.781	7439
640.841	7582
640.901	6544
640.961	5689
641.021	5030
641.082	6940
641.142	8062
641.202	11228
641.262	6545
641.322	5033
641.382	4379
641.442	4499
641.502	4182
641.562	4541
641.622	4146
641.682	5381
641.742	5255
641.802	6281
641.861	4690
641.921	5149
641.981	5459
642.041	6075
642.101	6292
642.161	7889
642.221	4733
642.280	3966
642.340	3797
642.400	3918
642.460	4196
642.519	4654
642.579	3850
642.639	4351
642.698	3972
642.758	5632
642.818	3634
642.877	4272
642.937	4924
642.997	5515
643.056	5905
643.116	8911
643.175	5504
643.235	4206
643.294	4033
643.354	5255
643.414	5556
643.473	6876
643.532	8115
643.592	11458
643.651	16593
643.711	30991
643.770	57119
643.830	119237
643.889	280713
643.948	664325
644.008	150889
644.067	22518
644.126	12964
644.186	10102
644.245	7273
644.304	6173
644.363	5640
644.423	5457
644.482	5176
644.541	4357
644.600	4919
644.659	6129
644.719	6915
644.778	9881
644.837	16849
644.896	29042
644.955	61432
645.014	154722
645.073	51160
645.132	9190
645.191	6621
645.250	6142
645.309	5243
645.368	5833
645.427	7088
645.486	8413
645.545	14756
645.604	28167
645.663	8487
645.722	5104
645.781	5564
645.840	5133
645.898	6803
645.957	9915
646.016	15297
646.075	27676
646.134	53195
646.192	107261
646.251	281644
646.310	470947
646.369	63753
646.427	14946
646.486	10712
646.545	8198
646.603	4870
646.662	5198
646.721	4203
646.779	4716
646.838	4142
646.896	4617
646.955	7191
647.014	10214
647.072	16286
647.131	29292
647.189	94110
647.248	48749
647.306	5641
647.365	5689
647.423	3181
647.481	3930
647.540	3777
647.598	3586
647.657	3009
647.715	2526
647.773	2672
647.832	3075
647.890	2807
647.948	3058
648.007	2528
648.065	3278
648.123	2337
648.181	2994
648.240	2512
648.298	2530
648.356	2232
648.414	2799
648.472	2591
648.531	2411
648.589	2446
648.647	2595
648.705	2273
648.763	2715
648.821	3095
648.879	3841
648.937	2564
648.995	3953
649.053	5049
649.111	7522
649.169	11720
649.227	22310
649.285	40878
649.343	82987
649.401	263078
649.459	142716
649.516	26159
649.574	16319
649.632	7193
649.690	7185
649.748	7504
649.806	7909
649.863	12392
649.921	20102
649.979	60475
650.037	46403
650.094	5285
650.152	4006
650.210	2342
650.268	3068
650.325	2693
650.383	2800
650.440	3234
650.498	2371
650.556	1945
650.613	2527
650.671	2119
650.728	2190
650.786	2639
650.843	2553
650.901	2248
650.958	3258
651.016	2340
651.073	1974
651.131	1692
651.188	1772
651.246	1373
651.303	1461
651.360	2120
651.418	1863
651.475	2086
651.532	823
651.590	1616
651.647	1734
651.704	1509
651.762	1950
651.819	1574
651.876	1843
651.933	2019
651.990	2349
652.048	1243
652.105	1144
652.162	1687
652.219	1675
652.276	1372
652.333	1586
652.390	865
652.448	1066
652.505	1558
652.562	1341
652.619	1193
652.676	1632
652.733	1692
652.790	905
652.847	572
652.904	1388
652.961	1331
653.017	984
653.074	1685
653.131	1096
653.188	1714
653.245	1631
653.302	481
653.359	1205
653.415	1567
653.472	1476
653.529	1671
653.586	1693
653.642	1105
653.699	1228
653.756	717
653.813	1282
653.869	796
653.926	1340
653.983	582
654.039	1356
654.096	1879
654.152	1886
654.209	1485
654.266	1088
654.322	908
654.379	2187
654.435	1817
654.492	2408
654.548	2328
654.605	3267
654.661	7473
654.717	2747
654.774	1501
654.830	1628
654.887	1764
654.943	1487
655.000	2085
655.056	1895
655.112	1077
655.168	1345
655.225	1189
655.281	1582
655.337	1742
655.394	2932
655.450	5376
655.506	4997
655.562	3073
655.618	6370
655.675	4354
655.731	1754
655.787	1100
655.843	1858
655.899	838
655.955	2237
656.011	1129
656.067	1627
656.123	1788
656.179	1024
656.235	1994
656.291	2273
656.347	2353
656.403	1674
656.459	1733
656.515	2345
656.571	1940
656.627	2871
656.683	1311
656.739	1983
656.795	1466
656.850	1418
656.906	2028
656.962	2467
657.018	1929
657.074	756
657.129	1477
657.185	2647
657.241	1920
657.297	5909
657.352	4278
657.408	1811
657.464	1742
657.519	1495
657.575	966
657.630	1130
657.686	615
657.742	506
657.797	779
657.853	1194
657.908	1421
657.964	817
658.019	856
658.075	1093
658.130	666
658.186	353
658.241	1002
658.297	952
658.352	545
658.407	1042
658.463	1057
658.518	1368
658.573	1176
658.629	725
658.684	564
658.739	699
658.795	756
658.850	1054
658.905	447
658.960	912
659.016	440
659.071	719
659.126	1068
659.181	930
659.236	1547
659.291	3890
659.346	3594
659.401	1379
659.457	2236
659.512	912
659.567	607
659.622	870
659.677	-318
659.732	1051
659.787	881
659.842	1322
659.897	1453
659.952	2479
660.007	992
660.061	1168
660.116	281
660.171	812
660.226	1083
660.281	1138
660.336	151
660.391	630
660.445	625
660.500	830
660.555	783
660.610	514
660.664	395
660.719	680
660.774	699
660.828	662
660.883	525
660.938	830
660.992	248
661.047	872
661.101	111
661.156	760
661.211	-199
661.265	305
661.320	161
661.374	520
661.429	890
661.483	775
661.538	-194
661.592	895
661.647	244
661.701	1691
661.755	1080
661.810	1029
661.864	48
661.919	1033
661.973	804
662.027	719
662.081	518
662.136	657
662.190	575
662.244	1521
662.299	714
662.353	1238
662.407	526
662.461	466
662.515	802
662.569	439
662.624	1650
662.678	584
662.732	1025
662.786	929
662.840	470
662.894	971
662.948	724
663.002	807
663.056	-204
663.110	663
663.164	-58
663.218	1221
663.272	1098
663.326	1425
663.380	911
663.434	969
663.488	638
663.542	751
663.595	322
663.649	656
663.703	1185
663.757	1015
663.811	675
663.864	554
663.918	805
663.972	237
664.026	679
664.079	818
664.133	800
664.187	251
664.240	504
664.294	657
664.348	422
664.401	551
664.455	498
664.508	9
664.562	295
664.615	825
664.669	800
664.722	514
664.776	628
664.829	374
664.883	417
664.936	335
664.990	692
665.043	1079
665.097	363
665.150	794
665.203	858
665.257	619
665.310	676
665.363	766
665.417	-3
665.470	1421
665.523	258
665.576	749
665.630	1180
665.683	911
665.736	415
665.789	139
665.842	-110
665.895	319
665.949	950
666.002	552
666.055	1058
666.108	1079
666.161	817
666.214	760
666.267	1001
666.320	1348
666.373	1120
666.426	1730
666.479	729
666.532	1268
666.585	1407
666.638	1821
666.691	1677
666.744	2478
666.796	1182
666.849	2041
666.902	1849
666.955	717
667.008	666
667.060	328
667.113	104
667.166	606
667.219	1202
667.271	261
667.324	84
667.377	862
667.430	569
667.482	97
667.535	527
667.587	987
667.640	982
667.693	1238
667.745	1700
667.798	3564
667.850	4392
667.903	1611
667.955	46
668.008	882
668.060	180
668.113	721
668.165	1312
668.218	975
668.270	1246
668.322	1058
668.375	1019
668.427	1193
668.479	179
668.532	704
668.584	767
668.636	685
668.689	820
668.741	300
668.793	390
668.845	887
668.898	1212
668.950	1344
669.002	649
669.054	857
669.106	383
669.158	1504
669.211	996
669.263	1305
669.315	157
669.367	1201
669.419	1050
669.471	1640
669.523	1401
669.575	2363
669.627	2114
669.679	3513
669.731	1039
669.783	1796
669.835	1591
669.886	2095
669.938	1826
669.990	1457
670.042	805
670.094	1484
670.146	963
670.197	2045
670.249	2246
670.301	2303
670.353	3026
670.404	5216
670.456	6328
670.508	10665
670.560	18374
670.611	31883
670.663	56053
670.715	100087
670.766	203567
670.818	428432
670.869	200575
670.921	30418
670.972	12443
671.024	8064
671.075	5719
671.127	3936
671.178	3115
671.230	2776
671.281	2443
671.333	3018
671.384	2071
671.436	2068
671.487	2642
671.538	3118
671.590	4796
671.641	6661
671.692	10437
671.744	16565
671.795	37835
671.846	31925
671.897	9389
671.949	3739
672.000	2557
672.051	2383
672.102	1732
672.153	1169
672.204	1158
672.256	895
672.307	1250
672.358	1385
672.409	1856
672.460	1197
672.511	1016
672.562	489
672.613	357
672.664	931
672.715	1023
672.766	715
672.817	96
672.868	935
672.919	685
672.970	624
673.021	481
673.071	248
673.122	571
673.173	1322
673.224	-52
673.275	652
673.326	780
673.376	971
673.427	620
673.478	7
673.528	498
673.579	531
673.630	280
673.680	811
673.731	181
673.782	273
673.832	341
673.883	710
673.934	960
673.984	1368
674.035	865
674.085	562
674.136	773
674.186	817
674.237	476
674.287	1443
674.338	2543
674.388	1993
674.438	-71
674.489	677
674.539	1101
674.589	1195
674.640	1164
674.690	1133
674.740	408
674.791	785
674.841	377
674.891	797
674.942	843
674.992	497
675.042	104
675.092	473
675.142	118
675.193	666
675.243	376
675.293	360
675.343	439
675.393	1216
675.443	847
675.493	875
675.543	175
675.593	534
675.643	335
675.693	70
675.743	462
675.793	466
675.843	526
675.893	-61
675.943	217
675.993	-487
676.043	207
676.093	846
676.142	52
676.192	22
676.242	-298
676.292	580
676.341	-192
676.391	306
676.441	358
676.491	-226
676.540	-320
676.590	908
676.640	290
676.689	485
676.739	-249
676.789	-373
676.838	-591
676.888	-55
676.937	307
676.987	351
677.037	-574
677.086	367
677.136	189
677.185	187
677.235	-352
677.284	273
677.333	-263
677.383	374
677.432	-573
677.482	384
677.531	-267
677.580	-410
677.630	417
677.679	430
677.728	-233
677.778	333
677.827	374
677.876	-79
677.925	-507
677.975	-24
678.024	-79
678.073	42
678.122	4
678.171	248
678.220	-109
678.269	597
678.319	260
678.368	754
678.417	355
678.466	870
678.515	-249
678.564	571
678.613	10
678.662	81
678.711	-176
678.760	-13
678.809	-18
678.857	28
678.906	689
678.955	196
679.004	257
679.053	-494
679.102	-327
679.151	-17
679.199	-155
679.248	59
679.297	-254
679.346	-205
679.394	527
679.443	145
679.492	801
679.540	-136
679.589	156
679.638	298
679.686	-407
679.735	166
679.784	186
679.832	-307
679.881	208
679.929	-246
679.978	-29
680.026	434
680.075	-354
680.123	-239
680.172	-366
680.220	-80
680.268	-626
680.317	-534
680.365	-286
680.414	122
680.462	373
680.510	139
680.559	711
680.607	223
680.655	-898
680.703	221
680.752	-770
680.800	502
680.848	-1109
680.896	-44
680.945	-737
680.993	-784
681.041	-161
681.089	82
681.137	-787
681.185	-488
681.233	-659
681.258	-458
681.281	-298
681.329	-371
681.377	-192
681.380	-175
681.425	-406
681.473	347
681.502	-59
681.521	-393
681.569	798
681.617	-420
681.624	-229
681.665	821
681.713	-433
681.745	245
681.761	509
681.809	-60
681.857	680
681.867	591
681.904	183
681.952	524
681.989	552
682.000	524
682.048	236
682.096	89
682.111	451
682.143	1146
682.191	1501
682.233	1530
682.239	1496
682.286	1257
682.334	493
682.354	492
682.382	452
682.430	1201
682.476	897
682.477	864
682.525	1097
682.572	1149
682.598	997
682.620	835
682.667	903
682.715	751
682.720	891
682.763	1921
682.810	2176
682.841	1251
682.857	769
682.905	2045
682.952	2290
682.963	2281
683.000	2015
683.047	1825
683.085	2690
683.095	2908
683.142	1909
683.190	1922
683.206	1968
683.237	1997
683.284	1775
683.328	2420
683.332	2450
683.379	2908
683.426	1700
683.449	1904
683.473	2096
683.521	2630
683.568	2391
683.571	2394
683.615	2141
683.662	2437
683.693	2543
683.709	2552
683.757	3153
683.804	2888
683.814	2866
683.851	2719
683.898	2805
683.936	2659
683.945	2607
683.992	2740
684.039	3307
684.057	3331
684.086	3335
684.133	3753
684.179	3465
684.180	3441
684.227	4019
684.274	3864
684.300	4343
684.321	4585
684.368	3805
684.415	4032
684.422	4047
684.462	4122
684.509	4589
684.543	4516
684.556	4416
684.603	3868
684.649	4004
684.665	3863
684.696	3621
684.743	4116
684.786	3557
684.790	3501
684.837	3946
684.883	4140
684.908	4300
684.930	4491
684.977	4207
685.023	4671
685.029	4740
685.070	5181
685.117	5158
685.150	5498
685.164	5508
685.210	4643
685.257	5083
685.272	5077
685.303	5218
685.350	5173
685.393	5438
685.396	5441
685.443	4921
685.490	5663
685.514	5750
685.536	5923
685.583	5708
685.629	6427
685.636	6435
685.675	6187
685.722	6346
685.757	6638
685.768	6675
685.815	6078
685.861	5908
685.878	5941
685.908	6182
685.954	5964
686.000	6347
686.000	6344
686.047	6724
686.093	6800
686.121	6871
686.139	7104
686.185	8013
686.232	7663
686.242	7859
686.278	8138
686.324	8083
686.363	8367
686.370	8293
686.416	7425
686.463	7044
686.484	6648
686.509	6502
686.555	6406
686.601	6163
686.606	6125
686.647	6018
686.693	5957
686.727	6525
686.739	6671
686.785	6352
686.831	5918
686.848	5905
686.877	6017
686.923	6205
686.969	6279
686.969	6277
687.015	6863
687.061	6271
687.090	6276
687.107	6334
687.153	6351
687.199	6655
687.211	6627
687.245	6565
687.291	6281
687.332	6709
687.336	6742
687.382	7053
687.428	6839
687.453	6874
687.474	7131
687.520	7070
687.565	7554
687.574	7712
687.611	7675
687.657	7536
687.695	7038
687.702	7009
687.748	7087
687.794	6868
687.816	7190
687.839	7698
687.885	7340
687.931	8397
687.937	8393
687.976	8122
688.022	8280
688.058	8332
688.067	8289
688.113	8449
688.158	7377
688.179	7151
688.204	7145
688.249	7828
688.295	8310
688.300	8331
688.340	8167
688.386	8032
688.421	7573
688.431	7544
688.477	7698
688.522	8022
688.542	8237
688.567	8511
688.613	8171
688.658	8693
688.663	8715
688.703	8754
688.749	8464
688.784	8279
688.794	8218
688.839	8547
688.884	8634
688.905	8461
688.930	8350
688.975	8477
689.020	8508
689.026	8442
689.065	7946
689.110	7916
689.146	7980
689.155	8090
689.201	8633
689.246	8744
689.267	8823
689.291	8719
689.336	8753
689.381	8636
689.388	8631
689.426	8622
689.471	8629
689.509	8538
689.516	8573
689.561	8531
689.606	8318
689.630	8509
689.651	8608
689.696	8223
689.741	8440
689.750	8359
689.785	8196
689.830	8277
689.871	8543
689.875	8582
689.920	8177
689.965	8030
689.992	8324
690.010	8592
690.054	8601
690.099	8888
690.112	8842
690.144	8537
690.189	8542
690.233	8299
690.233	8313
690.278	8502
690.323	8526
690.354	8853
690.367	8924
690.412	8647
690.457	8672
690.474	8501
690.501	8341
690.546	8278
690.590	8389
690.595	8408
690.635	8850
690.680	8765
690.716	9056
690.724	9073
690.769	8824
690.813	8808
690.836	8384
690.857	8208
690.902	8768
690.946	8632
690.957	8718
690.991	8929
691.035	9025
691.077	8747
691.080	8767
691.124	9227
691.168	9753
691.198	9781
691.213	9802
691.257	10024
691.301	10363
691.318	10537
691.346	10795
691.390	10863
691.434	11049
691.439	11056
691.478	10778
691.522	10399
691.559	9770
691.567	9715
691.611	9826
691.655	9573
691.680	9523
691.699	9738
691.743	10373
691.787	10283
691.800	10376
691.831	10411
691.875	10774
691.919	10402
691.921	10392
691.964	10616
692.008	10199
692.041	10237
692.052	10406
692.096	10606
692.139	10889
692.162	10993
692.183	10924
692.227	10854
692.271	11010
692.282	10970
692.315	10956
692.359	10789
692.402	10621
692.403	10644
692.447	10997
692.490	10970
692.523	10959
692.534	10965
692.578	11019
692.622	10945
692.643	11077
692.666	11298
692.709	11161
692.753	11218
692.763	11248
692.797	11305
692.840	11241
692.884	10931
692.884	10951
692.928	10643
692.971	10232
693.004	10023
693.015	10170
693.059	10337
693.102	10929
693.124	11033
693.146	11096
693.189	11118
693.233	11418
693.245	11483
693.276	11539
693.320	11443
693.363	11196
693.365	11171
693.407	11680
693.450	11991
693.485	12280
693.493	12282
693.537	12231
693.580	11936
693.605	11857
693.624	11920
693.667	11876
693.710	12157
693.725	12070
693.753	11874
693.797	11792
693.840	11798
693.845	11764
693.883	12048
693.926	12055
693.966	12032
693.970	12047
694.013	12315
694.056	12356
694.086	12250
694.099	12092
694.142	11625
694.185	11342
694.206	11152
694.229	11331
694.272	11392
694.315	11425
694.326	11458
694.358	11764
694.401	11998
694.444	12374
694.446	12358
694.487	12804
694.530	13261
694.566	13901
694.573	13997
694.616	13750
694.659	13890
694.686	13823
694.702	13581
694.745	12958
694.787	12287
694.806	11940
694.830	11708
694.873	11186
694.916	10816
694.926	10712
694.959	11061
695.002	11319
695.044	11633
695.046	11617
695.087	11478
695.130	11249
695.166	11219
695.172	11350
695.215	11611
695.258	12023
695.286	12412
695.301	12495
695.343	12543
695.386	12511
695.406	12487
695.428	12394
695.471	12013
695.514	11769
695.526	11678
695.556	11636
695.599	11522
695.641	11277
695.646	11238
695.684	11502
695.726	11703
695.766	11853
695.769	11880
695.811	11744
695.854	11751
695.886	11608
695.896	11643
695.938	11799
695.981	11886
696.005	11891
696.023	11911
696.065	11792
696.108	12015
696.125	11891
696.150	11842
696.192	12077
696.235	12048
696.245	12040
696.277	12239
696.319	12351
696.361	12605
696.365	12584
696.404	12511
696.446	12367
696.485	12246
696.488	12278
696.530	12341
696.572	12269
696.604	12196
696.614	12228
696.656	12266
696.698	12229
696.724	12120
696.740	12112
696.783	12306
696.825	12195
696.844	12222
696.867	12368
696.909	12468
696.951	12405
696.964	12406
696.992	12613
697.034	12921
697.076	13065
697.083	13061
697.118	13002
697.160	12960
697.202	12862
697.203	12823
697.244	12790
697.286	12762
697.323	12680
697.327	12738
697.369	12926
697.411	13134
697.442	13214
697.453	13228
697.494	13217
697.536	13144
697.562	13106
697.578	13266
697.620	13511
697.661	13788
697.682	13900
697.703	13822
697.744	13542
697.786	13289
697.801	13149
697.828	13345
697.869	13629
697.911	13894
697.921	13921
697.952	14859
697.994	16016
698.035	17214
698.040	17304
698.077	16438
698.118	15435
698.160	14438
698.160	14391
698.201	14062
698.243	13687
698.279	13300
698.284	13342
698.325	13368
698.367	13410
698.399	13419
698.408	13457
698.449	13441
698.491	13428
698.518	13381
698.532	13386
698.573	13250
698.614	13171
698.638	13067
698.656	13135
698.697	13228
698.738	13303
698.757	13308
698.779	13374
698.820	13418
698.862	13479
698.877	13455
698.903	13685
698.944	14004
698.985	14324
698.996	14372
699.026	14254
699.067	14030
699.116	13724
699.235	14348
699.354	13280
699.474	13671
699.593	13475
699.713	14618
699.832	16108
699.951	14275
700.070	14658
700.190	14397
700.309	13167
700.428	13143
700.547	14596
700.667	14835
700.786	12660
700.905	14214
701.024	14071
701.143	13480
701.262	15530
701.381	11671
701.500	12580
701.619	12408
701.738	15146
701.857	13694
701.976	11980
702.095	11177
702.214	11699
702.333	12632
702.452	14643
702.571	14036
702.690	12156
702.809	11003
702.928	11864
703.047	11193
703.165	11631
703.284	11204
703.403	10873
703.522	10652
703.640	13012
703.759	13760
703.878	13584
703.997	20680
704.115	15282
704.234	11914
704.353	11561
704.471	11638
704.590	11126
704.708	10195
704.827	10377
704.946	9770
705.064	10782
705.183	11723
705.301	10728
705.420	11180
705.538	15114
705.656	15557
705.775	13408
705.893	11586
706.012	13268
706.130	14667
706.249	13552
706.367	13815
706.485	13268
706.604	14478
706.722	13628
706.840	13272
706.958	15941
707.077	18156
707.195	15010
707.313	13006
707.431	12325
707.549	11072
707.668	12089
707.786	11860
707.904	12794
708.022	11500
708.140	11463
708.258	11645
708.376	11018
708.494	12122
708.612	12027
708.730	12367
708.848	16068
708.966	17483
709.084	16331
709.202	16216
709.320	14847
709.438	14070
709.556	13965
709.674	14738
709.791	13860
709.909	13975
710.027	14049
710.145	12990
710.263	14029
710.380	13489
710.498	14080
710.616	13735
710.733	12961
710.851	13111
710.969	13844
711.086	14513
711.204	13598
711.322	13529
711.439	12906
711.557	12766
711.674	13702
711.792	13458
711.909	13242
712.027	11605
712.144	12277
712.262	12497
712.379	12398
712.497	12850
712.614	17447
712.732	19374
712.849	16270
712.966	14322
713.084	15782
713.201	19880
713.318	18484
713.436	16827
713.553	15691
713.670	16016
713.787	15835
713.905	17255
714.022	19847
714.139	15406
714.256	15651
714.373	17942
714.490	20548
714.608	30699
714.725	57103
714.842	216419
714.959	639173
715.076	95933
715.193	22958
715.310	17658
715.427	15592
715.544	13441
715.661	14642
715.778	13386
715.895	13334
716.011	14267
716.128	14627
716.245	13676
716.362	14328
716.479	14982
716.596	19049
716.713	13569
716.829	12500
716.946	12679
717.063	13234
717.180	12742
717.296	11561
717.413	11555
717.530	12182
717.646	11806
717.763	12135
717.880	12035
717.996	10985
718.113	11869
718.229	12428
718.346	11202
718.462	11125
718.579	11507
718.695	12913
718.812	22372
718.928	26187
719.045	16809
719.161	16887
719.277	10507
719.394	10512
719.510	10700
719.626	10587
719.743	11084
719.859	12776
719.975	15779
720.092	23242
720.208	61927
720.324	255536
720.440	116289
720.557	15965
720.673	14064
720.789	18203
720.905	27357
721.021	45022
721.137	44219
721.253	11459
721.369	10355
721.486	11530
721.602	12324
721.718	16857
721.834	12532
721.950	8467
722.066	9447
722.181	9238
722.297	9860
722.413	9012
722.529	9856
722.645	8234
722.761	8761
722.877	8955
722.993	8609
723.108	8256
723.224	8476
723.340	9452
723.456	9142
723.571	8332
723.687	8674
723.803	8128
723.918	8031
724.034	8093
724.150	8607
724.265	8890
724.381	8500
724.497	13731
724.612	34518
724.728	11398
724.843	7949
724.959	7459
725.074	7478
725.190	13964
725.305	30917
725.421	10547
725.536	9411
725.651	6715
725.767	7297
725.882	6967
725.997	6660
726.113	6744
726.228	7632
726.343	7162
726.459	7109
726.574	6103
726.689	6457
726.804	7097
726.920	6263
727.035	7344
727.150	6268
727.265	7450
727.380	6638
727.495	7253
727.610	6538
727.725	6319
727.841	6048
727.956	6095
728.071	6001
728.186	6820
728.301	6568
728.416	6396
728.531	5901
728.645	6761
728.760	5501
728.875	5882
728.990	7681
729.105	7661
729.220	7583
729.335	6790
729.449	7378
729.564	6507
729.679	5969
729.794	5211
729.908	5562
730.023	6097
730.138	6672
730.253	5245
730.367	5125
730.482	5445
730.596	4508
730.711	5086
730.826	5965
730.940	6129
731.055	5919
731.169	6181
731.284	6227
731.398	5917
731.513	5174
731.627	6548
731.742	6685
731.856	6259
731.970	10063
732.085	7876
732.199	7973
732.313	8979
732.428	14305
732.542	28360
732.656	91185
732.771	144767
732.885	27584
732.999	10371
733.113	7859
733.227	7991
733.342	7402
733.456	6439
733.570	5571
733.684	6816
733.798	4998
733.912	6508
734.026	5813
734.140	5191
734.254	5804
734.368	5635
734.482	8377
734.596	17769
734.710	6792
734.824	5346
734.938	4729
735.052	5389
735.166	5566
735.280	5900
735.393	5800
735.507	5486
735.621	5118
735.735	6519
735.849	12047
735.962	12110
736.076	4526
736.190	5274
736.303	5417
736.417	6603
736.531	12369
736.644	6651
736.758	5858
736.872	4728
736.985	4194
737.099	4831
737.212	4183
737.326	4361
737.439	4078
737.553	4581
737.666	4480
737.780	4433
737.893	4517
738.007	4312
738.120	4158
738.233	4493
738.347	3939
738.460	4986
738.573	3791
738.687	4615
738.800	5605
738.913	4449
739.026	6065
739.140	6188
739.253	4465
739.366	4155
739.479	4339
739.592	3819
739.705	4011
739.818	3711
739.932	3895
740.045	3756
740.158	4371
740.271	4429
740.384	3454
740.497	3866
740.610	4243
740.723	4492
740.836	4677
740.949	5126
741.062	5426
741.174	6546
741.287	7933
741.400	4684
741.513	3766
741.626	4011
741.739	4968
741.851	5098
741.964	4447
742.077	4190
742.189	3458
742.302	4006
742.415	4518
742.527	5461
742.640	4470
742.753	3992
742.865	3472
742.978	2779
743.090	3214
743.203	3584
743.316	4049
743.428	3799
743.541	3016
743.653	3285
743.766	3005
743.878	3166
743.990	4310
744.103	4532
744.215	6056
744.327	4044
744.440	3864
744.552	4126
744.664	7146
744.777	7655
744.889	4380
745.001	3097
745.113	2794
745.226	2402
745.338	3679
745.450	2433
745.562	2168
745.674	3392
745.786	2998
745.898	2639
746.010	2444
746.122	3084
746.234	3062
746.347	2764
746.459	2649
746.570	3325
746.682	2806
746.794	2786
746.906	3374
747.018	2808
747.130	2918
747.242	2745
747.354	3474
747.466	2671
747.577	3355
747.689	3454
747.801	2984
747.913	1867
748.024	2190
748.136	2449
748.248	2141
748.359	2843
748.471	2794
748.583	3414
748.694	2357
748.806	2578
748.918	3421
749.029	3547
749.141	4774
749.252	2929
749.364	3543
749.475	3456
749.587	7480
749.698	10813
749.809	4504
749.921	2753
750.032	1918
750.144	1590
750.255	2381
750.366	2524
750.478	1862
750.589	2315
750.700	2236
750.811	3609
750.923	2965
751.034	3817
751.145	7708
751.256	16868
751.367	5367
751.479	2614
751.590	2396
751.701	2468
751.812	2410
751.923	2518
752.034	1751
752.145	2678
752.256	2352
752.367	2099
752.478	1683
752.589	1912
752.700	1668
752.811	1704
752.922	2760
753.032	2742
753.143	2546
753.254	3469
753.365	2244
753.476	1929
753.586	2233
753.697	2399
753.808	1326
753.919	2558
754.029	1926
754.140	2223
754.251	1534
754.361	2226
754.472	2299
754.582	2100
754.693	2028
754.804	2520
754.914	1603
755.025	1960
755.135	1687
755.246	2657
755.356	1502
755.466	1640
755.577	1426
755.687	1707
755.798	2076
755.908	2205
756.018	1490
756.129	2087
756.239	1095
756.349	2469
756.460	2041
756.570	2183
756.680	2380
756.790	2938
756.900	2390
757.011	3248
757.121	2516
757.231	1493
757.341	1253
757.451	1774
757.561	1565
757.671	1774
757.781	1626
757.891	1711
758.001	1113
758.111	2029
758.221	1922
758.331	1889
758.441	2267
758.551	3233
758.661	3432
758.771	6087
758.880	2626
758.990	1942
759.100	2043
759.210	2687
759.320	1753
759.429	2182
759.539	2262
759.649	1619
759.758	2239
759.868	2924
759.978	2260
760.087	2533
760.197	2676
760.307	2074
760.416	2751
760.526	3157
760.635	2505
760.745	2338
760.854	2720
760.964	3357
761.073	3389
761.182	3090
761.292	2997
761.401	2206
761.511	2596
761.620	3133
761.729	1653
761.839	2029
761.948	2969
762.057	2062
762.166	2961
762.276	2226
762.385	2763
762.494	2408
762.603	2036
762.712	2238
762.822	2326
762.931	2023
763.040	1773
763.149	1897
763.258	2133
763.367	1200
763.476	2649
763.585	1656
763.694	2172
763.803	1311
763.912	1658
764.021	1818
764.130	1733
764.238	2529
764.347	2040
764.456	1401
764.565	2188
764.674	2077
764.783	1875
764.891	1809
765.000	2158
765.109	1699
765.217	1626
765.326	2171
765.435	2545
765.543	3787
765.652	2778
765.761	3023
765.869	3108
765.978	3395
766.086	4254
766.195	6952
766.303	11456
766.412	25640
766.520	92378
766.629	232297
766.737	66692
766.846	12016
766.954	6793
767.062	5031
767.171	3872
767.279	3777
767.387	3737
767.496	3222
767.604	2875
767.712	2731
767.820	2642
767.928	2369
768.037	2117
768.145	2760
768.253	1959
768.361	1863
768.469	2093
768.577	1786
768.685	2759
768.793	2736
768.901	1894
769.009	1893
769.117	1764
769.225	2330
769.333	2122
769.441	3117
769.549	3148
769.657	4750
769.765	9992
769.873	28838
769.981	118146
770.088	120484
770.196	13548
770.304	4770
770.412	3760
770.519	2964
770.627	3048
770.735	2322
770.842	2287
770.950	2753
771.058	2284
771.165	2715
771.273	1914
771.380	2386
771.488	2442
771.595	1810
771.703	2701
771.810	3087
771.918	1688
772.025	1964
772.133	2355
772.240	2862
772.348	2156
772.455	2764
772.562	2936
772.670	2314
772.777	2460
772.884	2634
772.991	1950
773.099	2424
773.206	2255
773.313	1609
773.420	2522
773.528	3026
773.635	2235
773.742	2154
773.849	2575
773.956	2656
774.063	1731
774.170	2475
774.277	1902
774.384	2831
774.491	2184
774.598	2088
774.705	2798
774.812	2961
774.919	2566
775.026	3290
775.133	2838
775.239	2342
775.346	1346
775.453	2294
775.560	1817
775.667	2635
775.773	1798
775.880	2583
775.987	2370
776.093	2690
776.200	1619
776.307	2283
776.413	2323
776.520	2380
776.627	1378
776.733	2268
776.840	2217
776.946	2686
777.053	1567
777.159	1593
777.266	2008
777.372	2612
777.478	2825
777.585	2976
777.691	2454
777.798	2750
777.904	2031
778.010	2387
778.117	3104
778.223	4908
778.329	2737
778.435	1744
778.542	2304
778.648	2453
778.754	1509
778.860	2077
778.966	1811
779.072	1561
779.178	1327
779.284	2360
779.391	1801
779.497	1542
779.603	2010
779.708	1967
779.815	1668
779.920	2524
780.026	2160
780.132	3173
780.238	2091
780.344	1921
780.450	1178
780.556	1695
780.661	1774
780.767	1226
780.873	1426
780.979	1534
781.085	721
781.190	2387
781.296	2352
781.402	1614
781.507	676
781.613	1829
781.719	1462
781.824	1203
781.930	1684
782.035	1118
782.141	1226
782.246	2112
782.352	1645
782.457	1107
782.563	1623
782.668	1365
782.773	729
782.879	1772
782.984	1379
783.090	1630
783.195	1865
783.300	2290
783.405	4705
783.511	1727
783.616	1954
783.721	1995
783.826	1471
783.932	1153
784.037	1138
784.142	1657
784.247	1347
784.352	2648
784.457	1453
784.562	1386
784.667	605
784.772	1691
784.877	723
784.982	1878
785.087	1298
785.192	1791
785.297	732
785.402	2167
785.507	1719
785.611	1355
785.716	1405
785.821	1664
785.926	522
786.031	530
786.135	1102
786.240	1391
786.345	1577
786.450	1146
786.554	762
786.659	1264
786.763	758
786.868	1601
786.973	991
787.077	1610
787.182	1645
787.286	1261
787.391	949
787.495	1104
787.600	616
787.704	737
787.809	504
787.913	1065
788.017	1024
788.122	617
788.226	1083
788.330	1491
788.435	568
788.539	1347
788.643	1055
788.747	1212
788.852	577
788.956	185
789.060	60
789.164	767
789.268	525
789.372	1090
789.476	120
789.580	924
789.684	771
789.788	681
789.892	79
789.996	706
790.100	1054
790.204	275
790.308	9
790.412	1751
790.516	846
790.620	851
790.724	755
790.828	1420
790.931	554
791.035	910
791.139	588
791.242	754
791.346	642
791.450	634
791.554	54
791.657	1278
791.761	637
791.864	789
791.968	1147
792.072	1011
792.175	811
792.279	949
792.382	745
792.486	1174
792.589	187
792.693	333
792.796	1383
792.899	952
793.003	500
793.106	802
793.209	703
793.313	909
793.416	1296
793.519	668
793.623	1504
793.726	2042
793.829	5030
793.932	3036
794.035	597
794.138	1321
794.242	1303
794.345	1398
794.448	760
794.551	2526
794.654	3000
794.757	4377
794.860	2370
794.963	2260
795.066	2629
795.169	977
795.272	249
795.375	-89
795.477	77
795.580	1203
795.683	-348
795.786	353
795.889	229
795.991	1430
796.094	954
796.197	820
796.300	1099
796.402	831
796.505	419
796.608	379
796.710	833
796.813	23
796.915	868
797.018	751
797.120	1052
797.223	848
797.326	140
797.428	353
797.530	1239
797.633	626
797.735	926
797.838	1400
797.940	1317
798.042	4062
798.145	686
798.247	556
798.349	271
798.452	545
798.554	289
798.656	487
798.758	775
798.860	1900
798.962	694
799.065	546
799.167	107
799.269	858
799.371	25
799.473	914
799.575	1203
799.677	1063
799.779	2511
799.881	2650
799.983	2913
800.085	3811
800.187	715
800.289	880
800.390	474
800.492	753
800.594	-221
800.696	667
800.798	593
800.899	2
801.001	144
801.103	621
801.205	697
801.306	135
801.408	643
801.509	136
801.611	13
801.713	795
801.814	-505
801.916	56
802.017	277
802.119	457
802.220	320
802.322	424
802.423	127
802.525	715
802.626	1761
802.727	1368
802.829	-39
802.930	67
803.031	736
803.133	591
803.234	121
803.335	-312
803.436	279
803.538	233
803.639	52
803.740	513
803.841	-24
803.942	390
804.043	483
804.144	427
804.245	66
804.346	592
804.447	46
804.548	791
804.649	1572
804.750	2481
804.851	875
804.952	167
805.053	232
805.154	628
805.255	-162
805.355	570
805.456	260
805.557	104
805.658	-1182
805.758	288
805.859	-440
805.960	274
806.061	-219
806.161	-86
806.262	30
806.362	435
806.463	368
806.564	549
806.664	-121
806.765	515
806.865	-184
806.966	1511
807.066	646
807.166	593
807.267	555
807.367	633
807.468	-7
807.568	-64
807.668	114
807.769	124
807.869	350
807.969	2
808.069	-320
808.170	374
808.270	257
808.370	896
808.470	282
808.570	718
808.670	1800
808.770	-221
808.870	-280
808.970	-375
809.070	-203
809.170	180
809.271	-589
809.370	403
809.470	316
809.570	-227
809.670	-622
809.770	9
809.870	559
809.970	325
810.070	2
810.169	340
810.269	-456
810.369	320
810.469	19
810.568	76
810.668	-706
810.768	-127
810.867	-332
810.967	17
811.066	-12
811.166	-247
811.265	590
811.365	446
811.464	-212
811.564	114
811.663	-158
811.763	138
811.862	207
811.962	315
812.061	-28
812.160	555
812.260	361
812.359	147
812.458	431
812.557	1272
812.657	4663
812.756	13220
812.855	9146
812.954	2054
813.053	388
813.153	71
813.252	-61
813.351	545
813.450	181
813.549	-366
813.648	-515
813.747	380
813.846	488
813.945	278
814.044	47
814.143	545
814.242	20
814.341	122
814.439	-162
814.538	773
814.637	740
814.736	489
814.835	-206
814.933	405
815.032	516
815.131	129
815.229	408
815.328	791
815.427	901
815.525	759
815.624	904
815.722	883
815.821	686
815.919	1123
816.018	768
816.116	1907
816.215	839
816.313	1923
816.412	1386
816.510	1725
816.609	1639
816.707	2765
816.805	2210
816.904	2965
817.002	2765
817.100	3071
817.198	2993
817.296	3835
817.395	4405
817.493	5771
817.591	5600
817.689	6865
817.787	8167
817.885	11918
817.983	17663
818.081	30277
818.179	55367
818.277	118033
818.375	267964
818.473	459109
818.571	257181
818.669	88582
818.767	44730
818.865	32699
818.963	28199
819.061	32250
819.158	39404
819.256	59277
819.354	105356
819.452	208984
819.549	426926
819.647	564222
819.745	302715
819.842	122332
819.940	62378
820.038	39870
820.135	27216
820.233	20256
820.330	15637
820.428	12714
820.525	9691
820.623	8330
820.720	6888
820.818	6948
820.915	5911
821.012	4938
821.110	4391
821.207	4180
821.304	3283
821.402	3020
821.499	3062
821.596	2730
821.693	2499
821.791	3660
821.888	2917
821.985	3478
822.082	4822
822.179	8027
822.276	3138
822.373	2090
822.470	1657
822.567	1510
822.664	1177
822.761	1921
822.858	1254
822.955	1431
823.052	1273
823.149	892
823.246	1177
823.343	1503
823.440	71
823.536	1553
823.633	-334
823.730	343
823.827	479
823.923	530
824.020	909
824.117	157
824.213	146
824.310	860
824.407	1058
824.503	242
824.600	42
824.696	340
824.793	337
824.889	-140
824.986	936
825.082	576
825.179	68
825.275	132
825.371	180
825.468	232
825.564	299
825.660	60
825.757	81
825.853	-228
825.949	182
826.045	-186
826.142	-292
826.238	180
826.334	-46
826.430	-131
826.526	159
826.622	10
826.718	-156
826.814	418
826.910	579
827.006	490
827.102	-430
827.198	219
827.294	-604
827.390	262
827.486	-26
827.582	238
827.678	413
827.774	-40
827.869	-429
827.965	435
828.061	-276
828.157	223
828.252	-42
828.348	94
828.444	1028
828.539	-115
828.635	9
828.731	422
828.826	-77
828.922	-325
829.017	145
829.113	144
829.208	252
829.304	-838
829.399	416
829.495	286
829.590	293
829.685	190
829.781	-155
829.876	-586
829.971	-499
830.066	-238
830.162	-8
830.257	-1010
830.352	133
830.447	-78
830.543	-707
830.638	71
830.733	-139
830.828	590
830.923	308
831.018	-286
831.113	-517
831.208	17
831.303	235
831.398	-453
831.493	-284
831.588	256
831.683	-463
831.778	48
831.873	-27
831.967	311
832.062	-859
832.157	-253
832.252	-314
832.346	-757
832.441	-507
832.536	34
832.631	1467
832.725	2172
832.820	5441
832.914	1465
833.009	-327
833.104	-361
833.198	319
833.293	849
833.387	191
833.482	386
833.576	-535
833.670	-867
833.765	222
833.859	312
833.954	165
834.048	448
834.142	-203
834.237	-1000
834.331	-355
834.425	-200
834.519	-420
834.613	-236
834.708	-126
834.802	-429
834.896	-497
834.990	-502
835.084	113
835.178	-418
835.272	-876
835.366	-550
835.460	472
835.554	-49
835.648	-470
835.742	-442
835.836	-432
835.930	-437
836.024	-594
836.117	-348
836.211	-385
836.305	59
836.399	465
836.493	1455
836.586	1056
836.680	-537
836.774	-222
836.867	107
836.961	-859
837.055	-504
837.148	-804
837.242	-545
837.335	90
837.429	-423
837.522	-706
837.616	-247
837.709	144
837.803	932
837.896	1849
837.989	369
838.083	-238
838.176	-42
838.269	946
838.363	4087
838.456	961
838.549	-304
838.642	19
838.735	1840
838.829	3573
838.922	3799
839.015	218
839.108	-304
839.201	-393
839.294	-448
839.387	-616
839.480	-433
839.573	449
839.666	779
839.759	435
839.852	406
839.945	-576
840.038	-1281
840.131	-516
840.223	51
840.316	-801
840.409	-663
840.502	-429
840.594	174
840.687	-506
840.780	-695
840.873	-785
840.965	-150
841.058	-956
841.150	-223
841.243	734
841.336	2378
841.428	198
841.521	-1036
841.613	-819
841.706	35
841.798	-172
841.890	113
841.983	-735
842.075	-434
842.167	-864
842.260	-345
842.352	-846
842.444	-279
842.537	378
842.629	1593
842.721	4261
842.813	2702
842.905	-341
842.997	-524
843.090	-83
843.182	-766
843.274	160
843.366	1408
843.458	4377
843.550	12614
843.642	15637
843.734	4635
843.826	-30
843.918	164
844.009	1052
844.101	382
844.193	-721
844.285	-848
844.377	-1156
844.469	-157
844.560	-655
844.652	23
844.744	-316
844.835	360
844.927	-644
845.019	-487
845.110	-17
845.202	-135
845.293	-262
845.385	-749
845.476	-891
845.568	-70
845.659	-7
845.751	162
845.842	-606
845.934	-933
846.025	-705
846.116	-250
846.208	-811
846.299	-384
846.390	-780
846.482	-182
846.573	-791
846.664	111
846.755	365
846.846	405
846.937	1423
847.029	343
847.120	-865
847.211	-691
847.302	-973
847.393	-602
847.484	-870
847.575	-990
847.666	-1200
847.757	-1067
847.847	-672
847.938	-184
848.029	-739
848.120	-412
848.211	-1298
848.302	-309
848.392	-506
848.483	-181
848.574	-1119
848.664	-727
848.755	-739
848.846	-936
848.936	-858
849.027	-628
849.118	-582
849.208	-62
849.299	-222
849.389	415
849.480	303
849.570	2251
849.661	5848
849.751	12091
849.841	25734
849.932	26676
850.022	4182
850.112	972
850.203	-128
850.293	-156
850.383	-662
850.474	-621
850.564	-244
850.654	-733
850.744	-586
850.834	-803
850.924	-735
851.014	-1907
851.104	-922
851.194	-470
851.284	-918
851.374	-277
851.464	663
851.554	309
851.644	-439
851.734	-542
851.824	-67
851.914	1028
852.004	-415
852.094	-496
852.183	-1196
852.273	66
852.363	-1092
852.452	-187
852.542	-776
852.632	-531
852.721	-151
852.811	-273
852.901	-560
852.990	-335
853.080	-725
853.169	-137
853.259	-543
853.348	-153
853.438	-613
853.527	403
853.617	844
853.706	1945
853.795	3592
853.885	7977
853.974	18167
854.063	42289
854.152	73846
854.242	148095
854.331	144536
854.420	30639
854.509	5766
854.598	2275
854.687	2420
854.777	1777
854.866	1119
854.955	908
855.044	272
855.133	37
855.222	-1024
855.311	406
855.400	-1048
855.488	-362
855.577	99
855.666	-30
855.755	-437
855.844	-501
855.933	-188
856.021	-1153
856.110	-901
856.199	-122
856.288	-619
856.376	-579
856.465	-557
856.554	-807
856.642	-1063
856.731	-555
856.819	-1016
856.908	-1304
856.996	-1011
857.085	-898
857.173	-2078
857.262	-1276
857.350	-1009
857.438	114
857.527	-631
857.615	-364
857.703	-951
857.792	-462
857.880	-1080
857.968	-1106
858.056	-1124
858.145	-554
858.233	-860
858.321	-670
858.409	-349
858.497	-322
858.585	-1388
858.673	-888
858.761	-1159
858.849	-327
858.937	-884
859.025	-534
859.113	-706
859.201	-1687
859.289	-499
859.377	-614
859.465	-295
859.552	-783
859.640	-1297
859.728	-913
859.816	-318
859.903	-1169
859.991	-1298
860.079	-692
860.166	-968
860.254	-924
860.342	-1273
860.429	-706
860.517	-1018
860.604	-663
860.692	-1093
860.779	-903
860.867	-888
860.954	-509
861.042	-899
861.129	-1061
861.216	-673
861.304	-760
861.391	-1118
861.478	-136
861.565	-1095
861.653	-726
861.740	-867
861.827	-952
861.914	-1189
862.001	-1294
862.089	-415
862.176	-658
862.263	-365
862.350	-1286
862.437	-1240
862.524	-1240
862.611	-1437
862.698	-737
862.785	-983
862.871	-44
862.958	-882
863.045	-413
863.132	-944
863.219	-609
863.306	-1067
863.392	-329
863.479	-1015
863.566	-432
863.652	-1115
863.739	-629
863.826	-1187
863.912	-669
863.999	-895
864.086	-343
864.172	-1261
864.259	-1325
864.345	-526
864.432	-609
864.518	-345
864.604	-599
864.691	-1121
864.777	-815
864.863	-959
864.950	-956
865.036	-96
865.122	-165
865.209	-78
865.295	309
865.381	-426
865.467	273
865.553	-164
865.639	754
865.726	1811
865.812	3850
865.898	8342
865.984	20018
866.070	35424
866.156	53014
866.242	102605
866.328	65190
866.414	10546
866.499	2763
866.585	876
866.671	976
866.757	258
866.843	745
866.928	247
867.014	836
867.100	-18
867.186	99
867.271	583
867.357	101
867.442	587
867.528	986
867.614	1012
867.699	-718
867.785	-488
867.870	-573
867.956	-222
868.041	638
868.127	-333
868.212	122
868.297	-250
868.383	522
868.468	260
868.553	322
868.639	1263
868.724	1661
868.809	2891
868.894	8180
868.979	3563
869.065	-278
869.150	-755
869.235	61
869.320	-918
869.405	-739
869.490	-647
869.575	-1057
869.660	-630
869.745	-1021
869.830	-1658
869.915	-534
870.000	-402
870.085	-604
870.169	-1018
870.254	-347
870.339	-1006
870.424	-262
870.509	-389
870.593	-739
870.678	-1383
870.763	-1237
870.847	-808
870.932	-975
871.016	-727
871.101	-420
871.186	-588
871.270	-536
871.355	-534
871.439	89
871.523	-715
871.608	-124
871.692	-931
871.777	-922
871.861	-859
871.945	-862
872.030	-1258
872.114	-129
872.198	-432
872.282	-1520
872.367	-808
872.451	-879
872.535	-1089
872.619	-808
872.703	-1123
872.787	-1120
872.871	-870
872.955	-1276
873.039	-547
873.123	-619
873.207	-1304
873.291	-551
873.375	-1101
873.459	20
873.543	-522
873.627	-433
873.711	-881
873.794	-551
873.878	-712
873.962	-734
874.045	-520
874.129	-490
874.137	-518
874.213	-795
874.245	-785
874.296	-772
874.352	-682
874.380	-636
874.460	-997
874.464	-1012
874.547	-637
874.568	-729
874.631	-1003
874.676	-741
874.714	-527
874.784	-504
874.798	-495
874.881	-330
874.892	-373
874.965	-672
874.999	-788
875.048	-990
875.107	-961
875.131	-935
875.215	-918
875.215	-917
875.298	132
875.323	-77
875.381	-612
875.430	-616
875.465	-610
875.538	-595
875.548	-591
875.631	-460
875.646	-493
875.714	-649
875.753	-564
875.798	-483
875.861	-1213
875.881	-1435
875.964	-417
875.968	-452
876.047	-1106
876.076	-790
876.130	-201
876.183	-840
876.213	-1176
876.291	-1106
876.296	-1104
876.379	-214
876.398	-228
876.462	-277
876.506	-276
876.545	-279
876.613	-340
876.628	-332
876.711	-589
876.721	-533
876.794	-156
876.828	-214
876.877	-456
876.935	-737
876.960	-752
877.043	-719
877.043	-719
877.125	-741
877.150	-568
877.208	-164
877.258	-358
877.291	-565
877.365	-107
877.374	-20
877.456	-957
877.472	-854
877.539	-419
877.579	-237
877.622	-196
877.687	-352
877.704	-326
877.787	37
877.794	75
877.869	275
877.901	40
877.952	-315
878.008	-481
878.034	-545
878.115	-540
878.117	-537
878.199	-734
878.222	-473
878.282	-7
878.329	-429
878.364	-635
878.437	-682
878.447	-706
878.529	-248
878.544	-319
878.611	-663
878.651	-950
878.694	-1107
878.758	-778
878.776	-729
878.858	-742
878.865	-734
878.941	-712
878.972	-530
879.023	-91
879.078	-367
879.105	-628
879.185	-883
879.187	-872
879.269	-657
879.292	-374
879.351	-34
879.399	-197
879.433	-320
879.506	-487
879.516	-523
879.598	-871
879.613	-850
879.680	-566
879.720	-645
879.762	-702
879.827	-381
879.844	-363
879.926	-702
879.933	-761
880.007	-875
880.040	-508
880.089	-46
880.147	329
880.171	452
880.253	398
880.254	404
880.335	1545
880.360	1868
880.417	2689
880.467	3687
880.499	4375
880.574	5884
880.580	6007
880.662	12807
880.680	11913
880.744	8033
880.787	4379
880.825	1243
880.893	-196
880.907	-395
880.989	-585
881.000	-548
881.070	-501
881.106	-523
881.152	-485
881.213	-629
881.233	-713
881.315	-728
881.319	-723
881.396	-191
881.426	-30
881.478	-130
881.532	-487
881.559	-683
881.639	-1146
881.641	-1145
881.722	-460
881.745	-643
881.803	-1114
881.852	-707
881.885	-443
881.958	-300
881.966	-308
882.047	-513
882.064	-470
882.129	-231
882.171	-193
882.210	-41
882.277	98
882.291	142
882.372	761
882.383	791
882.454	561
882.489	157
882.535	-440
882.596	-657
882.616	-545
882.697	-578
882.702	-552
882.778	-409
882.808	-358
882.859	-354
882.914	-528
882.940	-511
883.020	-381
883.021	-379
883.102	-390
883.127	-443
883.183	-203
883.233	-76
883.264	-187
883.339	-114
883.345	-117
883.426	-893
883.445	-873
883.507	-406
883.551	-422
883.587	-495
883.657	-252
883.668	-258
883.749	-653
883.763	-695
883.830	-457
883.869	-267
883.910	-223
883.975	-503
883.991	-492
884.072	-160
884.081	-133
884.152	-313
884.187	-473
884.233	-396
884.292	-86
884.314	-102
884.394	-285
884.398	-284
884.475	-224
884.504	-382
884.555	-267
884.610	18
884.636	33
884.716	43
884.716	44
884.797	-364
884.821	-516
884.877	-604
884.927	-591
884.958	-497
885.033	-393
885.038	-389
885.118	-254
885.139	-210
885.199	-530
885.244	-804
885.279	-594
885.350	-347
885.359	-335
885.439	-27
885.456	25
885.520	-68
885.561	-127
885.600	-9
885.667	46
885.680	-2
885.760	-239
885.773	-245
885.840	-143
885.878	-256
885.920	-280
885.984	-285
886.000	-288
886.080	105
886.089	86
886.160	-338
886.195	-427
886.240	-213
886.300	91
886.320	62
886.400	-283
886.406	-294
886.480	-73
886.511	-91
886.560	-207
886.616	-230
886.640	-170
886.720	266
886.722	261
886.800	121
886.827	244
886.879	382
886.932	386
886.959	220
887.038	-244
887.039	-238
887.119	-53
887.143	27
887.198	108
887.248	79
887.278	-78
887.354	-305
887.358	-274
887.437	197
887.459	332
887.517	175
887.564	35
887.596	266
887.669	805
887.676	741
887.755	-242
887.774	-465
887.835	-237
887.880	-28
887.914	7
887.985	11
887.994	-38
888.073	-553
888.090	-656
888.153	-188
888.195	170
888.232	-124
888.300	-777
888.311	-648
888.391	299
888.405	464
888.470	-352
888.510	-863
888.549	-669
888.615	-278
888.628	-325
888.708	-722
888.720	-775
888.787	52
888.825	494
888.866	186
888.930	-232
888.945	-206
889.024	-153
889.035	-143
889.103	-225
889.140	-288
889.182	-202
889.245	-48
889.261	51
889.340	485
889.349	531
889.419	-15
889.454	-291
889.498	-141
889.559	68
889.577	-49
889.656	-569
889.664	-619
889.735	-385
889.768	-270
889.814	-62
889.873	213
889.978	-564
890.083	-866
890.187	252
890.292	-435
890.397	498
890.501	524
890.606	-310
890.710	-24
890.815	248
890.919	310
891.024	-342
891.128	-217
891.233	-553
891.337	314
891.442	-273
891.546	184
891.650	-757
891.755	50
891.859	377
891.963	-44
892.068	-437
892.172	651
892.276	205
892.380	-86
892.484	-505
892.589	-398
892.693	-192
892.797	221
892.901	-193
893.005	231
893.109	160
893.213	193
893.317	310
893.421	50
893.525	-203
893.629	-423
893.733	664
893.837	192
893.941	-443
894.045	-168
894.148	-283
894.252	480
894.356	-129
894.460	-513
894.564	-389
894.667	-78
894.771	-16
894.875	-670
894.978	-770
895.082	81
895.186	-77
895.289	290
895.393	57
895.496	-283
895.600	585
895.703	-651
895.807	-456
895.910	-58
896.014	-176
896.117	38
896.221	230
896.324	-251
896.427	-565
896.531	-24
896.634	-101
896.737	303
896.840	-319
896.944	124
897.047	-273
897.150	-194
897.253	320
897.356	42
897.460	-345
897.563	-777
897.666	-418
897.769	77
897.872	-529
897.975	-161
898.078	-415
898.181	46
898.284	-929
898.387	117
898.490	-908
898.593	352
898.695	-177
898.798	157
898.901	-496
899.004	217
899.107	59
899.209	-106
899.312	-900
899.415	-394
899.518	-544
899.620	426
899.723	-379
899.826	312
899.928	-642
900.031	-1007
900.133	-648
900.236	-900
900.338	-210
900.441	-104
900.543	-348
900.646	-501
900.748	-1102
900.851	-284
900.953	-132
901.055	-226
901.158	348
901.260	-309
901.362	-562
901.465	-49
901.567	-343
901.669	324
901.771	-286
901.873	-809
901.976	-857
902.078	-621
902.180	-290
902.282	-231
902.384	-284
902.486	-553
902.588	183
902.690	-161
902.792	-794
902.894	-102
902.996	38
903.098	-531
903.200	-237
903.302	-557
903.404	-636
903.505	-890
903.607	-738
903.709	-216
903.811	-384
903.913	-215
904.014	-433
904.116	-349
904.218	-475
904.319	-1090
904.421	-289
904.523	-455
904.624	107
904.726	-892
904.827	-458
904.929	-1498
905.030	121
905.132	616
905.233	-505
905.335	-416
905.436	-9
905.537	-1250
905.639	-217
905.740	-250
905.841	-517
905.943	-721
906.044	46
906.145	-342
906.247	-903
906.348	44
906.449	-120
906.550	140
906.651	-206
906.752	-503
906.854	-1411
906.955	-692
907.056	-563
907.157	-312
907.258	-253
907.359	-873
907.460	-593
907.561	-564
907.662	-625
907.762	-296
907.863	-205
907.964	-78
908.065	-1077
908.166	-525
908.267	-386
908.367	-590
908.468	-124
908.569	65
908.670	62
908.770	-368
908.871	-646
908.971	58
909.072	-345
909.173	-519
909.273	-792
909.374	-796
909.474	-755
909.575	-197
909.675	-523
909.776	104
909.876	-768
909.977	-434
910.077	-151
910.177	-518
910.278	603
910.378	-555
910.478	-1160
910.579	-226
910.679	-225
910.779	-1026
910.879	-796
910.980	101
911.080	-961
911.180	-929
911.280	-1211
911.380	-822
911.480	-358
911.580	-520
911.680	-716
911.780	-744
911.880	-1069
911.980	-700
912.080	-1359
912.180	-426
912.280	-1029
912.380	-799
912.480	-433
912.580	-519
912.679	-1198
912.779	-280
912.879	-268
912.979	-707
913.078	-514
913.178	-337
913.278	-1249
913.377	-1002
913.477	-502
913.577	-790
913.676	-1163
913.776	-792
913.875	-718
913.975	-835
914.074	-819
914.174	-615
914.273	-1017
914.373	-310
914.472	-955
914.572	45
914.671	-499
914.770	-965
914.870	-635
914.969	-210
915.068	-1361
915.167	-498
915.267	-1152
915.366	-1018
915.465	-842
915.564	-733
915.663	-957
915.763	-30
915.862	229
915.961	-665
916.060	-732
916.159	-749
916.258	-595
916.357	-544
916.456	72
916.555	-592
916.654	-624
916.752	-333
916.851	-1095
916.950	-1003
917.049	-620
917.148	-574
917.247	-454
917.345	-490
917.444	-520
917.543	-528
917.642	-964
917.740	-1236
917.839	-779
917.937	-511
918.036	-462
918.135	-725
918.233	-888
918.332	-879
918.430	-778
918.529	-557
918.627	15
918.726	104
918.824	-1042
918.923	-826
919.021	-463
919.119	-700
919.218	-921
919.316	-926
919.414	-969
919.512	-1383
919.611	90
919.709	-1049
919.807	-768
919.905	-787
920.003	-63
920.102	-950
920.200	-290
920.298	-959
920.396	-757
920.494	-444
920.592	-379
920.690	210
920.788	-756
920.886	-465
920.984	-1023
921.082	-584
921.180	-557
921.277	-677
921.375	-1013
921.473	-818
921.571	-1003
921.669	-355
921.766	-480
921.864	-803
921.962	-817
922.060	-582
922.157	-610
922.255	-743
922.352	-1209
922.450	-751
922.548	-713
922.645	-1205
922.743	-758
922.840	-664
922.938	84
923.035	-441
923.133	-615
923.230	-363
923.327	-620
923.425	-649
923.522	-957
923.619	-744
923.717	-1136
923.814	-495
923.911	-816
924.008	37
924.106	-310
924.203	-427
924.300	-565
924.397	-875
924.494	-857
924.591	-264
924.688	-1018
924.786	-1139
924.883	-975
924.979	-300
925.077	-303
925.173	-374
925.270	-363
925.367	-1646
925.464	-65
925.561	301
925.658	-590
925.755	-817
925.852	-829
925.948	-129
926.045	-298
926.142	-312
926.239	-469
926.335	-96
926.432	-68
926.529	-676
926.625	-494
926.722	-644
926.818	-481
926.915	-273
927.011	329
927.108	-885
927.204	-674
927.301	-856
927.397	-675
927.494	-828
927.590	-987
927.687	-341
927.783	-886
927.879	-145
927.976	-1074
928.072	-540
928.168	-561
928.264	-1062
928.361	-892
928.457	15
928.553	-618
928.649	-716
928.745	-1298
928.841	-413
928.937	-363
929.033	-374
929.129	-387
929.225	-665
929.321	-1269
929.417	-582
929.513	-418
929.609	-929
929.705	-791
929.801	-821
929.897	-1272
929.993	-973
930.089	-239
930.184	-1297
930.280	-270
930.376	-593
930.471	-546
930.567	-445
930.663	-424
930.758	-1415
930.854	-941
930.950	-1470
931.045	-955
931.141	-771
931.236	-590
931.332	-537
931.427	-551
931.523	-570
931.618	-811
931.714	-691
931.809	-627
931.905	-762
932.000	5
932.095	-129
932.191	-1236
932.286	-264
932.381	-591
932.476	-1303
932.572	-1183
932.667	-740
932.762	-713
932.857	-170
932.952	-566
933.047	-459
933.142	-214
933.237	-1117
933.332	-1308
933.427	-1275
933.522	-1044
933.617	-359
933.712	-1002
933.807	-729
933.902	-685
933.997	-254
934.092	-256
934.187	-95
934.282	-730
934.376	-458
934.471	-402
934.566	-1166
934.661	-555
934.755	-572
934.850	-1084
934.945	-290
935.039	-952
935.134	-761
935.228	-408
935.323	-778
935.417	-777
935.512	-724
935.606	-341
935.701	-496
935.795	-745
935.890	-906
935.984	-936
936.079	-981
936.173	-1015
936.267	-1673
936.362	-936
936.456	251
936.550	-427
936.644	-1175
936.738	-211
936.833	-899
936.927	-1008
937.021	-1058
937.115	-462
937.209	-536
937.303	-1342
937.397	-1067
937.491	-968
937.585	-327
937.679	-1099
937.773	-1268
937.867	-591
937.961	-216
938.055	-896
938.149	155
938.243	-867
938.337	-1036
938.430	-591
938.524	-895
938.618	-978
938.712	-794
938.805	-950
938.899	-1691
938.993	-197
939.086	-120
939.180	-1089
939.274	-551
939.367	-248
939.461	-894
939.554	-1344
939.648	-766
939.741	-1140
939.835	-627
939.928	-692
940.022	-1028
940.115	-1536
940.208	-657
940.302	-581
940.395	-249
940.488	-1288
940.582	-387
940.675	-328
940.768	-800
940.861	-843
940.954	-1490
941.048	-555
941.141	-823
941.234	-1698
941.327	51
941.420	-1098
941.513	-1014
941.606	-273
941.699	-1393
941.792	-622
941.885	-762
941.978	-1934
942.071	-1485
942.164	-523
942.257	-1456
942.349	-1205
942.442	-1608
942.535	-857
942.628	-1313
942.721	-779
942.813	-1211
942.906	-516
942.999	-713
943.091	-179
943.184	-1771
943.277	-1266
943.369	-443
943.462	-1199
943.554	-359
943.647	-676
943.739	-1602
943.832	-750
943.924	-446
944.017	-801
944.109	-1268
944.201	-983
944.294	-857
944.386	-208
944.478	-1290
944.571	-825
944.663	-389
944.755	-835
944.847	-349
944.940	-975
945.032	-1171
945.124	-932
945.216	-552
945.308	-399
945.400	-289
945.492	-654
945.584	-1014
945.676	-515
945.768	-946
945.860	-1079
945.952	-939
946.044	27
946.136	-251
946.228	-421
946.320	-1165
946.412	-1182
946.503	-730
946.595	-684
946.687	-552
946.779	-1077
946.870	-1019
946.962	-944
947.054	-647
947.145	-633
947.237	-410
947.329	-990
947.420	-786
947.512	-1060
947.603	-1260
947.695	-968
947.786	-757
947.878	-1039
947.969	-1531
948.061	-235
948.152	-405
948.243	-634
948.335	-1127
948.426	-837
948.517	-1120
948.609	-723
948.700	-493
948.791	-813
948.882	-742
948.973	-1010
949.065	-863
949.156	-744
949.247	-337
949.338	-1393
949.429	-722
949.520	-1404
949.611	-1711
949.702	-996
949.793	-186
949.884	-1569
949.975	-780
950.066	-1338
950.157	-1197
950.247	-887
950.338	-1405
950.429	-996
950.520	-195
950.611	-1300
950.701	-949
950.792	-1005
950.883	-786
950.973	-1773
951.064	-291
951.155	-152
951.245	-414
951.336	-1060
951.427	-1475
951.517	-813
951.608	-651
951.698	-550
951.788	-1507
951.879	-238
951.969	-871
952.060	-1456
952.150	-531
952.240	-315
952.331	-1192
952.421	-1111
952.511	-1295
952.602	-1155
952.692	-372
952.782	-844
952.872	-927
952.962	-1308
953.052	-543
953.143	-966
953.233	-984
953.323	-711
953.413	-244
953.503	-1485
953.593	-1644
953.683	-859
953.773	-687
953.863	-239
953.953	-902
954.042	-493
954.132	-1216
954.222	-1208
954.312	-823
954.402	-764
954.492	-921
954.581	-1303
954.671	-1648
954.761	-695
954.850	-251
954.940	-712
955.030	-886
955.119	-1449
955.209	-1131
955.298	-1064
955.388	-1355
955.477	-807
955.567	-1264
955.656	-655
955.746	-1243
955.835	-1465
955.925	-764
956.014	-1066
956.103	-1186
956.193	-286
956.282	-881
956.371	-284
956.461	-694
956.550	-1348
956.639	-627
956.728	-906
956.817	-1113
956.906	-826
956.995	-592
957.085	-740
957.174	-1096
957.263	-1606
957.352	-1195
957.441	-1212
957.530	-1361
957.619	-1206
957.708	-2205
957.796	-853
957.885	-526
957.974	-1655
958.063	-1444
958.152	-1166
958.241	-58
958.329	-690
958.418	-647
958.507	-1345
958.596	-1360
958.684	-1684
958.773	-1028
958.861	-1009
958.950	-1217
959.039	-509
959.127	-999
959.216	-1552
959.304	-1246
959.393	-1488
959.481	-1410
959.570	-1131
959.658	-826
959.746	-968
959.835	-339
959.923	-720
960.011	-624
960.100	-354
960.188	-820
960.276	-1260
960.365	-1268
960.453	-1561
960.541	-507
960.629	-477
960.717	-1556
960.805	-1109
960.893	-1314
960.981	-1543
961.069	-935
961.158	-1167
961.245	-594
961.333	-931
961.421	-1077
961.509	-941
961.597	-717
961.685	-1462
961.773	-1297
961.861	-1072
961.949	-1213
962.036	-1457
962.124	-1055
962.212	-1366
962.299	-835
962.387	-797
962.475	-1092
962.562	-1685
962.650	-878
962.738	-1372
962.825	-1430
962.913	-163
963.000	-1323
963.088	-579
963.175	-1454
963.263	-1240
963.350	-663
963.438	-1205
963.525	-917
963.612	-1197
963.700	-477
963.787	-535
963.874	-170
963.962	-680
964.049	-540
964.136	-1641
964.223	-1641
964.310	-620
964.398	-1407
964.485	-1464
964.572	-1288
964.659	-1006
964.746	-518
964.833	-889
964.920	-408
965.007	-1031
965.094	-492
965.181	-1203
965.268	-1405
965.355	-1355
965.441	-1548
965.528	-1256
965.615	-2085
965.702	-608
965.789	-836
965.875	-1281
965.962	-1128
966.049	-817
966.136	-140
966.222	-870
966.309	-1117
966.395	-1943
966.482	-869
966.569	-1529
966.655	-1091
966.742	-687
966.828	-1467
966.915	-1047
967.001	-1752
967.087	-907
967.174	-1541
967.260	-737
967.347	-1148
967.433	-965
967.519	-721
967.605	-658
967.692	-1133
967.778	-872
967.864	-1339
967.950	-829
968.036	-992
968.123	-612
968.209	-1041
968.295	-1415
968.381	-898
968.467	-702
968.553	-1247
968.639	-1126
968.725	-1409
968.811	-870
968.897	-1000
968.983	-892
969.069	-969
969.154	-1305
969.240	-1224
969.326	-1132
969.412	-1977
969.497	-1430
969.583	-1011
969.669	-515
969.755	-1098
969.840	-1148
969.926	-751
970.012	-1391
970.097	-799
970.183	-891
970.268	-857
970.354	-1099
970.439	-1761
970.525	-620
970.610	-1018
970.696	-815
970.781	-1247
970.866	-1461
970.952	-1034
971.037	-1249
971.122	-1545
971.208	-1415
971.293	-1933
971.378	-1580
971.463	-550
971.549	-1336
971.634	-1569
971.719	-813
971.804	-1047
971.889	-1111
971.974	-794
972.059	-832
972.144	-1359
972.229	-1420
972.314	-1135
972.399	-1363
972.484	-1704
972.569	-590
972.654	-2614
972.739	-623
972.824	-1066
972.908	-1098
972.993	-619
973.078	-1621
973.163	-1629
973.247	-1025
973.332	-1678
973.417	-375
973.501	-994
973.586	-445
973.671	-868
973.755	-1320
973.840	-1092
973.924	-683
974.009	-969
974.093	-1034
974.178	-1294
974.262	-464
974.346	-1031
974.431	-1001
974.515	-896
974.600	-901
974.684	-1069
974.768	-1096
974.852	-1069
974.937	-1301
975.021	-572
975.105	-1134
975.189	-1058
975.273	-902
975.358	-710
975.442	-1431
975.526	-416
975.610	-1408
975.694	-1840
975.778	-1115
975.862	-1088
975.946	-1162
976.030	-944
976.114	-1947
976.198	-1584
976.281	-747
976.365	-1181
976.449	-890
976.533	-1713
976.617	-986
976.700	-1239
976.784	-1316
976.868	-1303
976.951	-1369
977.035	-832
977.119	-1210
977.202	-1839
977.286	-961
977.369	-615
977.453	-1044
977.536	-578
977.620	-1029
977.703	-1103
977.787	-704
977.870	-1592
977.953	-1113
978.037	-1081
978.120	-897
978.203	-1203
978.287	-1282
978.370	-1505
978.453	-1307
978.536	-1210
978.620	-1721
978.703	-1118
978.786	-1638
978.869	-1271
978.952	-1807
979.035	-385
979.118	-971
979.201	-1376
979.284	-1449
979.367	-946
979.450	-868
979.533	-1394
979.616	-1576
979.699	-1682
979.782	-508
979.865	-1268
979.948	-1021
980.030	-943
980.113	-715
980.196	-979
980.279	-906
980.361	-1199
980.444	-1046
980.526	-1650
980.609	-1080
980.692	-995
980.774	-1039
980.857	-908
980.939	-1180
981.022	-1210
981.104	-1840
981.187	-774
981.269	-1026
981.352	-1274
981.434	-1568
981.516	-787
981.599	-1786
981.681	-979
981.763	-809
981.846	-858
981.928	-725
982.010	-1709
982.092	-1237
982.174	-839
982.256	-1095
982.339	-587
982.421	-1339
982.503	-746
982.585	-1515
982.667	-1569
982.749	-957
982.831	-1238
982.913	-1626
982.995	-1175
983.077	-540
983.158	-437
983.240	-1592
983.322	-1338
983.404	-1194
983.486	-1986
983.568	-910
983.649	-1161
983.731	-498
983.813	-1055
983.894	-1273
983.976	-1203
984.058	-1180
984.139	-1705
984.221	-1594
984.302	-700
984.384	-1316
984.465	-1473
984.547	-479
984.628	-754
984.710	-533
984.791	-319
984.872	-838
984.954	-1126
985.035	-1439
985.116	-855
985.198	-1467
985.279	-797
985.360	-816
985.441	-1650
985.522	-686
985.604	-798
985.685	-1486
985.766	-1486
985.847	-1109
985.928	-1473
986.009	-843
986.090	-1143
986.171	-1397
986.252	-1780
986.333	-929
986.414	-1919
986.495	-958
986.576	-1103
986.656	-708
986.737	-1050
986.818	-1408
986.899	-1524
986.980	-1633
987.060	-1273
987.141	-1059
987.222	-836
987.302	-527
987.383	-491
987.464	-1142
987.544	-1063
987.625	-1371
987.705	-754
987.786	-991
987.866	-827
987.947	-1130
988.027	-1630
988.108	-570
988.188	-693
988.268	-1144
988.349	-1519
988.429	-721
988.509	-631
988.589	-1095
988.670	-1535
988.750	-265
988.830	-946
988.910	-1139
988.990	-1266
989.070	-2102
989.151	-1525
989.231	-1070
989.311	-1293
989.391	-1364
989.471	-1763
989.551	-1318
989.631	-1995
989.711	-1528
989.791	-1536
989.870	-777
989.950	-450
990.030	-1592
990.110	-940
990.190	-1292
990.269	-810
990.349	-686
990.429	-1571
990.509	-20
990.588	-1450
990.668	-1098
990.747	-1744
990.827	-944
990.907	-1113
990.986	-1274
991.066	-826
991.145	-917
991.225	-1554
991.304	-1311
991.383	-1806
991.463	-1863
991.542	-955
991.622	-1590
991.701	-1129
991.780	-1032
991.859	-1582
991.939	-1074
992.018	-1161
992.097	-1014
992.176	-1368
992.256	-318
992.335	-875
992.414	-1243
992.493	-1855
992.572	-1024
992.651	-1190
992.730	-1290
992.809	-1563
992.888	-2184
992.967	-1225
993.046	-1165
993.125	-1178
993.203	-1391
993.282	-529
993.361	-2658
993.440	-1631
993.519	-1009
993.597	-897
993.676	-1059
993.755	-1896
993.834	-1516
993.912	-477
993.991	-1315
994.069	-1696
994.148	-2135
994.226	-1302
994.305	-1589
994.384	-1256
994.462	-1029
994.540	-1296
994.619	-1470
994.697	-1720
994.776	-1512
994.854	-1827
994.932	-1064
995.011	-1645
995.089	-1654
995.167	-1131
995.245	-782
995.324	-1382
995.402	-1924
995.480	-1408
995.558	-2027
995.636	-993
995.714	-1021
995.792	-861
995.870	-1212
995.948	-1522
996.026	-1659
996.104	-1070
996.182	-935
996.260	-1500
996.338	-1384
996.416	-1128
996.494	-1574
996.572	-1892
996.649	-1954
996.727	-1660
996.805	-1061
996.883	-1360
996.960	-1613
997.038	-1485
997.116	-923
997.193	-1955
997.271	-1779
997.348	-2004
997.426	-859
997.504	-1203
997.581	-1391
997.658	-1086
997.736	-1236
997.813	-1751
997.891	-1827
997.968	-1170
998.046	-1586
998.123	-928
998.200	-1346
998.277	-1293
998.355	-1826
998.432	-1877
998.509	-1781
998.586	-667
998.663	-1481
998.741	-829
998.818	-1441
998.895	-1239
998.972	-1138
999.049	-1530
999.126	-1002
999.203	-999
999.280	-295
999.357	-1198
999.434	-1451
999.511	-1355
999.587	-1657
999.664	-2189
999.741	-1317
999.818	-1388
999.895	-1840
999.971	-1178
1000.048	-1850
1000.125	-2144
1000.202	-1626
1000.278	-1304
1000.355	-1030
1000.431	-1753
1000.508	-2290
1000.584	-1031
1000.661	-1391
1000.738	-1452
1000.814	-1865
1000.890	-838
1000.967	-1689
1001.043	-1637
1001.120	-1232
1001.196	-1483
1001.272	-1785
1001.349	-1467
1001.425	-2046
1001.501	-1214
1001.577	-2029
1001.654	-698
1001.730	-1266
1001.806	-2193
1001.882	-1644
1001.958	-1577
1002.034	-1086
1002.110	-1708
1002.186	-1676
1002.262	-1180
1002.338	-2086
1002.414	-1733
1002.490	-1656
1002.566	-1732
1002.642	-1085
1002.718	-709
1002.794	-1708
1002.870	-1209
1002.945	-1824
1003.021	-1498
1003.097	-1777
1003.173	-838
1003.248	-1128
1003.324	-1173
1003.400	-1316
1003.475	-1643
1003.551	-1016
1003.626	-1484
1003.702	-2203
1003.777	-1161
1003.853	-1055
1003.928	-1243
1004.004	-2118
1004.079	-970
1004.155	-1252
1004.230	-1803
1004.305	-1086
1004.381	-1938
1004.456	-1506
1004.531	-1995
1004.607	-1447
1004.682	-531
1004.757	-1402
1004.832	-1131
1004.907	-1834
1004.982	-1857
1005.057	-1438
1005.133	-2216
1005.208	-1251
1005.283	-1521
1005.358	-944
1005.433	-1908
1005.508	-1351
1005.583	-1415
1005.657	-1717
1005.732	-2044
1005.807	-1479
1005.882	-2016
1005.957	-1486
1006.032	-1533
1006.106	-1507
1006.181	-1470
1006.256	-1287
1006.331	-1508
1006.405	-1973
1006.480	-1313
1006.554	-1669
1006.629	-1232
1006.704	-1603
1006.778	-2481
1006.853	-1666
1006.927	-2664
1007.002	-1386
1007.076	-1612
1007.150	-1210
1007.225	-1780
1007.299	-1359
1007.373	-1256
1007.448	-1424
1007.522	-1688
1007.596	-2052
1007.671	-1067
1007.745	-1631
1007.819	-1713
1007.893	-846
1007.967	-1874
1008.041	-1449
1008.115	-1915
1008.190	-1765
1008.264	-1140
1008.338	-1600
1008.412	-1835
1008.486	-2190
1008.560	-1916
1008.633	-2515
1008.707	-1807
1008.781	-1854
1008.855	-2077
1008.929	-1515
1009.003	-1481
1009.076	-1810
1009.150	-1684
1009.224	-1434
1009.298	-1734
1009.371	-1945
1009.445	-1034
1009.519	-1755
1009.592	-1474
1009.666	-1460
1009.739	-830
1009.813	-2467
1009.886	-864
1009.960	-1641
1010.033	-1463
1010.107	-1766
1010.180	-743
1010.253	-1786
1010.327	-1786
1010.400	-1724
1010.473	-1597
1010.547	-1802
1010.620	-2156
1010.693	-1397
1010.766	-1550
1010.840	-1567
1010.913	-1669
1010.986	-1465
1011.059	-1503
1011.132	-1879
1011.205	-1888
1011.278	-1602
1011.351	-1978
1011.424	-1973
1011.497	-2311
1011.570	-2629
1011.643	-1773
1011.716	-1986
1011.789	-1537
1011.862	-2137
1011.934	-1295
1012.007	-1683
1012.080	-1436
1012.153	-1698
1012.225	-1437
1012.298	-1844
1012.371	-1923
1012.443	-1777
1012.516	-1751
1012.588	-1919
1012.661	-1629
1012.733	-1338
1012.806	-1908
1012.879	-1931
1012.951	-1740
1013.023	-1823
1013.096	-1168
1013.168	-1829
1013.241	-1431
1013.313	-1513
1013.385	-2147
1013.458	-1902
1013.530	-1510
1013.602	-2170
1013.674	-1382
1013.746	-1963
1013.819	-2113
1013.891	-2214
1013.963	-1356
1014.035	-1464
1014.107	-2070
1014.179	-1486
1014.251	-1743
1014.323	-2873
1014.395	-1656
1014.467	-950
1014.539	-1229
1014.611	-1351
1014.683	-2000
1014.754	-1623
1014.826	-1719
1014.898	-1205
1014.970	-2173
1015.042	-1781
1015.113	-1572
1015.185	-2045
1015.257	-2103
1015.328	-929
1015.400	-1624
1015.471	-1836
1015.543	-1816
1015.615	-2143
1015.686	-1959
1015.757	-2478
1015.829	-2200
1015.901	-2003
1015.972	-1757
1016.043	-2053
1016.115	-3291
1016.186	-2667
1016.257	-2383
1016.328	-1570
1016.400	-1615
1016.471	-2109
1016.542	-2171
1016.613	-1924
1016.685	-2642
1016.756	-1450
1016.827	-1887
1016.898	-1877
1016.969	-2344
1017.040	-1355
1017.111	-1450
1017.182	-1853
1017.253	-1304
1017.324	-1982
1017.395	-1642
1017.466	-2838
1017.537	-2260
1017.608	-2295
1017.678	-1493
1017.749	-1300
1017.820	-2053
1017.891	-1269
1017.961	-1637
1018.032	-1812
1018.103	-2030
1018.173	-1941
1018.244	-2780
1018.315	-2041
1018.385	-1904
1018.456	-2449
1018.526	-2017
1018.597	-1754
1018.667	-2044
1018.738	-2709
1018.808	-1908
1018.878	-2410
1018.949	-2160
1019.019	-2354
1019.089	-1949
1019.160	-2761
1019.230	-2326
1019.300	-2002
1019.371	-1649
1019.441	-1336
1019.511	-1880
1019.581	-2009
1019.651	-2172
1019.721	-2294
1019.791	-1627
1019.861	-1789
1019.931	-2244
1020.001	-2687
1020.071	-1691
1020.141	-2878
1020.211	-1978
1020.281	-2062
1020.351	-2201
1020.421	-1714
1020.491	-2392
1020.560	-1954
1020.630	-1948
1020.700	-1603
1020.770	-2115
1020.839	-1865
1020.909	-2323
1020.979	-2358
1021.048	-1809
1021.118	-1764
1021.187	-1393
1021.257	-2088
1021.326	-1133
1021.396	-2227
1021.465	-2741
1021.535	-2300
1021.604	-1893
1021.674	-2070
1021.743	-1914
1021.812	-1419
1021.882	-2352
1021.951	-2250
1022.020	-2387
1022.089	-2657
1022.159	-2565
1022.228	-2485
1022.297	-2568
1022.366	-2485
1022.435	-2083
1022.504	-2465
1022.573	-1919
1022.642	-2851
1022.711	-1970
1022.781	-1969
1022.849	-1286
1022.918	-2406
1022.987	-2040
1023.056	-1335
1023.125	-2001
1023.194	-2021
1023.263	-1937
1023.331	-2752
1023.400	-2255
1023.469	-1670
1023.538	-2019
1023.606	-3017
1023.675	-2048
1023.744	-2822
1023.812	-2846
1023.881	-2448
1023.949	-1701
1024.018	-2109
1024.086	-1859
1024.155	-1678
1024.223	-2004
1024.292	-2894
1024.360	-1254
1024.429	-2096
1024.497	-2458
1024.565	-1961
1024.634	-2264
1024.702	-2023
1024.770	-1849
1024.838	-1835
1024.907	-1403
1024.975	-1819
1025.043	-1960
1025.111	-2422
1025.179	-1585
1025.247	-2277
1025.315	-1208
1025.383	-2106
1025.451	-1836
1025.519	-1847
1025.587	-1686
1025.655	-1887
1025.723	-2344
1025.791	-2057
1025.859	-2605
1025.927	-1946
1025.995	-2291
1026.062	-1425
1026.130	-2115
1026.198	-2565
1026.266	-2227
1026.333	-1621
1026.401	-1435
1026.469	-3128
1026.536	-1514
1026.604	-1945
1026.671	-2259
1026.739	-2365
1026.806	-1443
1026.874	-1749
1026.941	-1658
1027.009	-1459
1027.076	-1985
1027.144	-1829
1027.211	-2280
1027.278	-1719
1027.345	-2679
1027.413	-2150
1027.480	-2219
1027.547	-2474
1027.614	-1520
1027.682	-1410
1027.749	-2471
1027.816	-1872
1027.883	-1891
1027.950	-2035
1028.017	-2548
1028.084	-2744
1028.151	-1844
1028.218	-2323
1028.285	-2317
1028.352	-2144
1028.419	-1942
1028.486	-1940
1028.553	-1595
1028.619	-1851
1028.686	-1994
1028.753	-3110
1028.820	-2683
1028.886	-2104
1028.953	-2417
1029.020	-1645
1029.086	-2291
1029.153	-2011
1029.220	-2260
1029.286	-2488
1029.353	-2384
1029.419	-2824
1029.486	-2573
1029.552	-1915
1029.619	-1764
1029.685	-1865
1029.751	-1662
1029.818	-1236
1029.884	-1876
1029.951	-2075
1030.017	-2662
1030.083	-2365
1030.149	-2121
1030.216	-2533
1030.282	-2043
1030.348	-1930
1030.414	-2712
1030.480	-2526
1030.546	-2062
1030.612	-1912
1030.678	-2154
1030.744	-1719
1030.810	-2266
1030.876	-2872
1030.942	-1998
1031.008	-2117
1031.074	-1967
1031.140	-2040
1031.206	-2236
1031.272	-1974
1031.337	-2226
1031.403	-2381
1031.469	-2397
1031.534	-1857
1031.600	-2465
1031.666	-2909
1031.731	-2549
1031.797	-2291
1031.863	-1866
1031.928	-2627
1031.994	-1725
1032.059	-2102
1032.125	-1053
1032.190	-2955
1032.256	-2239
1032.321	-3148
1032.386	-1922
1032.452	-2707
1032.517	-1844
1032.582	-1818
1032.647	-1694
1032.713	-2489
1032.778	-1787
1032.843	-1909
1032.908	-1710
1032.974	-2737
1033.039	-1555
1033.104	-1482
1033.169	-1951
1033.234	-2672
1033.299	-1460
1033.364	-2602
1033.429	-2269
1033.494	-2002
1033.559	-2381
1033.624	-1608
1033.688	-2342
1033.753	-2307
1033.818	-2566
1033.883	-1606
1033.948	-1857
1034.013	-2112
1034.077	-1962
1034.142	-2937
1034.207	-2260
1034.271	-1665
1034.336	-2360
1034.400	-2374
1034.465	-2127
1034.530	-2122
1034.594	-1973
1034.658	-2471
1034.723	-1795
1034.787	-1575
1034.852	-2244
1034.916	-2200
1034.981	-1842
1035.045	-1573
1035.109	-2045
1035.173	-1652
1035.238	-2183
1035.302	-1962
1035.366	-2591
1035.430	-1792
1035.495	-2315
1035.559	-1700
1035.623	-1495
1035.687	-2065
1035.751	-1916
1035.815	-2486
1035.879	-2671
1035.943	-1844
1036.007	-2372
1036.071	-2158
1036.135	-2148
1036.198	-1936
1036.262	-1582
1036.326	-2193
1036.390	-1842
1036.454	-2009
1036.517	-1728
1036.581	-2050
1036.645	-1803
1036.709	-1901
1036.772	-1794
1036.836	-2031
1036.900	-2086
1036.963	-2645
1037.026	-1442
1037.090	-2476
1037.154	-2601
1037.217	-1751
1037.280	-1737
1037.344	-1880
1037.407	-1993
1037.471	-2035
1037.534	-1615
1037.597	-2174
1037.661	-2221
1037.724	-1979
1037.787	-2297
1037.850	-2513
1037.913	-2052
1037.977	-1776
1038.040	-2329
1038.103	-2541
1038.166	-2431
1038.229	-1820
1038.292	-1434
1038.355	-2111
1038.418	-2054
1038.481	-2638
1038.544	-2207
1038.607	-2169
1038.670	-2098
1038.732	-2087
1038.795	-2205
1038.858	-2162
1038.921	-1620
1038.984	-2255
1039.046	-2369
1039.109	-2490
1039.172	-2604
1039.234	-1872
1039.297	-2750
1039.360	-2667
1039.422	-1449
1039.485	-1795
1039.547	-2790
1039.610	-1921
1039.672	-1520
1039.734	-2104
1039.797	-2891
1039.859	-2442
1039.922	-2359
1039.984	-2147
1040.046	-2749
1040.109	-1876
1040.171	-2531
1040.233	-2050
1040.295	-3048
1040.358	-1984
1040.420	-2134
1040.482	-2116
1040.544	-2760
1040.606	-2155
1040.668	-2567
1040.730	-2083
1040.792	-2186
1040.854	-1961
1040.916	-1846
1040.978	-3144
1041.040	-1366
1041.102	-2536
1041.164	-2503
1041.225	-2040
1041.287	-2040
1041.349	-2468
1041.411	-2018
1041.472	-2147
1041.534	-2959
1041.596	-1669
1041.657	-2367
1041.719	-2147
1041.781	-2463
1041.842	-1980
1041.904	-2415
1041.965	-2703
1042.027	-2154
1042.088	-2771
1042.150	-2426
1042.211	-1280
1042.272	-1882
1042.334	-1690
1042.395	-1778
1042.456	-2736
1042.518	-2536
1042.579	-1690
1042.640	-1823
1042.701	-2307
1042.763	-1967
1042.824	-2513
1042.885	-2172
1042.946	-2605
1043.007	-2699
1043.068	-1704
1043.129	-2319
1043.190	-2253
1043.251	-2415
1043.312	-1562
1043.373	-1915
1043.434	-2274
1043.495	-2130
1043.556	-1232
1043.616	-1804
1043.677	-2360
1043.738	-2155
1043.799	-2340
1043.859	-2471
1043.920	-2414
1043.981	-2592
1044.041	-1707
1044.102	-1726
1044.162	-1786
1044.223	-2238
1044.284	-1574
1044.344	-1979
1044.405	-2598
1044.465	-1993
1044.525	-2520
1044.586	-2354
1044.646	-1873
1044.707	-1929
1044.767	-1627
1044.827	-2095
1044.887	-1271
1044.948	-2169
1045.008	-1776
1045.068	-2140
1045.128	-2150
1045.188	-2706
1045.249	-1147
1045.309	-1495
1045.369	-1622
1045.429	-2019
1045.489	-2286
1045.549	-2112
1045.609	-2260
1045.669	-1746
1045.729	-1818
1045.789	-2282
1045.848	-2311
1045.908	-1979
1045.968	-2662
1046.028	-1112
1046.088	-1209
1046.147	-1441
1046.207	-1914
1046.267	-1931
1046.326	-1459
1046.386	-1592
1046.446	-1519
1046.505	-1461
1046.565	-1905
1046.624	-1954
1046.684	-1458
1046.743	-671
1046.803	-917
1046.862	-1481
1046.922	0
