'Start Wavelength	183.907
'End Wavelength	1046.922
'Gate Delay	5.000
'Gate Width (ms)	1.050
'Laser Output Level	0.000
'X Position	0.000
'Y Position	0.000
'Z Position	0.000
'Grid Point Number	1.000
'Shot Number	100.000
183.907	-196.000
183.977	334.000
184.047	646
184.116	586
184.186	1185
184.256	89
184.325	-143
184.395	621
184.465	744
184.534	308
184.604	967
184.674	-135
184.743	-252
184.813	783
184.883	528
184.952	-157
185.022	-88
185.092	325
185.161	380
185.231	351
185.301	320
185.370	160
185.440	477
185.509	905
185.579	-210
185.649	171
185.718	162
185.788	394
185.857	810
185.927	699
185.996	300
186.066	518
186.136	591
186.205	58
186.275	21
186.344	153
186.414	526
186.483	742
186.553	1482
186.622	1418
186.692	622
186.761	862
186.831	852
186.900	657
186.970	149
187.039	682
187.109	975
187.178	471
187.248	506
187.317	823
187.387	864
187.456	1280
187.526	825
187.595	827
187.664	857
187.734	1059
187.803	554
187.873	787
187.942	941
188.012	822
188.081	722
188.150	1523
188.220	1777
188.289	1825
188.358	1197
188.428	448
188.497	556
188.567	499
188.636	233
188.705	693
188.775	735
188.844	1173
188.913	1454
188.983	779
189.052	887
189.121	950
189.191	588
189.260	1141
189.329	916
189.399	515
189.468	191
189.537	443
189.606	772
189.676	1279
189.745	1088
189.814	1726
189.883	677
189.953	934
190.022	1296
190.091	4981
190.161	3310
190.230	1548
190.299	1035
190.368	557
190.437	630
190.507	993
190.576	441
190.645	871
190.714	830
190.783	653
190.853	1007
190.922	1346
190.991	1321
191.060	1296
191.129	920
191.198	553
191.268	438
191.337	869
191.406	971
191.475	1175
191.544	239
191.613	1369
191.682	1095
191.752	301
191.821	1223
191.890	942
191.959	763
192.028	1045
192.097	1157
192.166	700
192.235	1172
192.304	837
192.373	645
192.442	1061
192.511	707
192.580	950
192.650	915
192.719	1347
192.788	1249
192.857	1350
192.926	1019
192.995	1730
193.064	2249
193.133	3063
193.202	3129
193.271	2071
193.340	2303
193.409	1826
193.478	2815
193.547	4063
193.615	4562
193.684	3458
193.753	1706
193.822	2051
193.891	782
193.960	958
194.029	1687
194.098	1540
194.167	1089
194.236	853
194.305	968
194.374	916
194.443	879
194.512	1660
194.580	1048
194.649	2519
194.718	1858
194.787	813
194.856	755
194.925	1868
194.994	1887
195.062	1675
195.131	2187
195.200	2370
195.269	2616
195.338	1446
195.407	1377
195.475	2057
195.544	3011
195.613	1543
195.682	1952
195.751	2825
195.819	1861
195.888	1494
195.957	2827
196.026	1947
196.094	1631
196.163	2145
196.232	1889
196.301	2110
196.369	1239
196.438	1203
196.507	1337
196.576	1009
196.644	1110
196.713	1662
196.782	952
196.850	1240
196.919	1652
196.988	1364
197.056	1102
197.125	1407
197.194	1760
197.262	1619
197.331	907
197.400	1473
197.468	1251
197.537	1371
197.606	2030
197.674	3773
197.743	3691
197.812	2434
197.880	5131
197.949	3159
198.017	4964
198.086	2041
198.155	1610
198.223	3162
198.292	5448
198.360	2199
198.429	1919
198.497	1969
198.566	5029
198.635	3662
198.703	2373
198.772	2310
198.840	7661
198.909	3538
198.977	1071
199.046	1003
199.114	1858
199.183	1615
199.251	957
199.320	1733
199.388	993
199.457	1559
199.525	1853
199.594	1521
199.662	1066
199.731	1829
199.799	1824
199.867	1462
199.936	1606
200.004	2512
200.073	1929
200.141	2118
200.210	1683
200.278	882
200.346	1812
200.415	2960
200.483	2496
200.552	2225
200.620	1259
200.688	1817
200.757	1191
200.825	1744
200.893	1557
200.962	1777
201.030	1389
201.098	1947
201.167	1510
201.235	2099
201.303	1384
201.372	2273
201.440	1680
201.508	3283
201.577	2106
201.645	2147
201.713	1240
201.781	2850
201.850	2549
201.918	1434
201.986	1759
202.055	2290
202.123	2056
202.191	1754
202.259	1623
202.327	1526
202.396	2013
202.464	2153
202.532	4332
202.600	10057
202.669	3780
202.737	2085
202.805	2116
202.873	1740
202.941	1932
203.009	2368
203.078	1010
203.146	1790
203.214	1936
203.282	1861
203.350	1431
203.418	1951
203.487	1784
203.555	2102
203.623	1559
203.691	1640
203.759	1640
203.827	1371
203.895	2110
203.963	2451
204.031	2395
204.099	1177
204.168	1336
204.236	2282
204.304	2406
204.372	1625
204.440	1684
204.508	2089
204.576	2061
204.644	2535
204.712	1817
204.780	2276
204.848	2400
204.916	1936
204.984	1428
205.052	1940
205.120	2047
205.188	2897
205.256	2147
205.324	1739
205.392	1865
205.460	3152
205.528	2595
205.596	2292
205.664	2084
205.732	3436
205.799	10754
205.867	6980
205.935	2469
206.003	2512
206.071	1717
206.139	2570
206.207	2143
206.275	2126
206.343	2254
206.411	1504
206.478	1233
206.546	2355
206.614	2012
206.682	2294
206.750	2178
206.818	3685
206.885	2429
206.953	1584
207.021	1373
207.089	1838
207.157	2023
207.225	1668
207.292	1619
207.360	2317
207.428	2220
207.496	2175
207.563	2182
207.631	1552
207.699	2090
207.767	2334
207.834	1931
207.902	2700
207.970	2116
208.038	1608
208.105	1895
208.173	3492
208.241	3048
208.309	2968
208.376	3512
208.444	4993
208.512	2981
208.579	2556
208.647	4340
208.715	3810
208.782	2642
208.850	2105
208.918	2113
208.985	2661
209.053	2748
209.120	2271
209.188	1862
209.256	1949
209.323	3066
209.391	3961
209.459	2567
209.526	2680
209.594	1944
209.661	2517
209.729	2059
209.796	1736
209.864	2903
209.932	3118
209.999	2434
210.067	3679
210.134	3026
210.202	3704
210.269	3435
210.337	4528
210.404	2698
210.472	2710
210.539	3114
210.607	3965
210.674	4216
210.742	3166
210.809	2796
210.877	4184
210.944	3609
211.012	3651
211.079	3060
211.146	3229
211.214	4238
211.281	5059
211.349	3173
211.416	4284
211.484	3107
211.551	2791
211.618	2923
211.686	3159
211.753	2601
211.821	2653
211.888	2643
211.955	2700
212.023	2477
212.090	3324
212.157	3385
212.225	4365
212.292	7304
212.359	16897
212.427	23956
212.494	8390
212.561	4817
212.629	4085
212.696	4218
212.763	3604
212.831	2777
212.898	3219
212.965	3085
213.032	3291
213.100	3202
213.167	3961
213.234	3351
213.301	3779
213.369	2711
213.436	3222
213.503	3067
213.570	3576
213.638	3648
213.705	2543
213.772	2735
213.839	4825
213.906	3242
213.973	4389
214.041	3565
214.108	2906
214.175	3389
214.242	2490
214.309	3939
214.376	3166
214.444	4154
214.511	4249
214.578	3444
214.645	3845
214.712	3309
214.779	4132
214.846	3967
214.913	3638
214.980	5011
215.048	5646
215.115	5425
215.182	5513
215.249	4040
215.316	3390
215.383	3328
215.450	3233
215.517	3411
215.584	2707
215.651	3167
215.718	3304
215.785	4178
215.852	3792
215.919	4015
215.986	4095
216.053	2503
216.120	2600
216.187	4377
216.254	3109
216.321	3471
216.388	3960
216.455	3994
216.522	3650
216.589	6346
216.656	9657
216.722	6917
216.789	5730
216.856	6004
216.923	4918
216.990	4572
217.057	4894
217.124	5535
217.191	5176
217.258	6822
217.324	8870
217.391	7972
217.458	6060
217.525	4124
217.592	4442
217.659	5035
217.725	4803
217.792	7856
217.859	4868
217.926	2972
217.993	2652
218.059	3161
218.126	3042
218.193	2612
218.260	2811
218.327	3062
218.393	3420
218.460	2381
218.527	3047
218.594	4218
218.660	7829
218.727	4867
218.794	3240
218.860	2495
218.927	2455
218.994	2597
219.061	3747
219.127	4820
219.194	5056
219.261	2763
219.327	2762
219.394	2940
219.461	2785
219.527	1898
219.594	5377
219.661	2311
219.727	1749
219.794	2495
219.860	2639
219.927	2873
219.994	7910
220.060	9625
220.127	6001
220.193	4673
220.260	4955
220.326	6947
220.393	12329
220.460	11792
220.526	7165
220.593	5106
220.659	4894
220.726	8423
220.792	15825
220.859	13341
220.925	19177
220.992	21441
221.058	21562
221.125	17283
221.191	12052
221.258	5417
221.324	4545
221.391	3687
221.457	3670
221.524	3723
221.590	7767
221.657	18286
221.723	9179
221.789	12851
221.856	8021
221.922	5106
221.989	3795
222.055	3400
222.121	3397
222.188	5133
222.254	3460
222.321	3556
222.387	2613
222.453	2695
222.520	2798
222.586	2759
222.652	2706
222.719	2426
222.785	2755
222.851	2244
222.918	2514
222.984	2597
223.050	2677
223.116	2451
223.183	2317
223.249	1177
223.315	2412
223.382	1246
223.448	2081
223.514	1536
223.580	1550
223.647	1819
223.713	2015
223.779	2238
223.845	2303
223.911	1792
223.978	1809
224.044	2163
224.110	1898
224.176	2075
224.242	2073
224.309	1223
224.375	2175
224.441	2129
224.507	1140
224.573	1830
224.639	1237
224.705	1635
224.772	1978
224.838	2332
224.904	3045
224.970	2069
225.036	2889
225.102	2759
225.168	2954
225.234	2191
225.300	2935
225.366	2094
225.432	2004
225.499	2367
225.565	2853
225.631	3435
225.697	3789
225.763	3390
225.829	3859
225.895	5161
225.961	7280
226.027	5450
226.093	5357
226.159	6180
226.225	10755
226.291	29786
226.357	29115
226.423	14390
226.489	8666
226.554	6397
226.620	6442
226.686	9939
226.752	13819
226.818	26551
226.884	47736
226.950	27349
227.016	12028
227.082	8494
227.148	7093
227.214	6320
227.279	5733
227.345	3737
227.411	5037
227.477	8478
227.543	15885
227.609	11043
227.674	5464
227.740	4936
227.806	3690
227.872	3588
227.938	4723
228.003	5547
228.069	3705
228.135	2638
228.201	2701
228.267	3008
228.332	5018
228.398	6177
228.464	3016
228.530	2893
228.595	2447
228.661	4163
228.727	6906
228.792	3495
228.858	3918
228.924	4520
228.990	4721
229.055	5309
229.121	4275
229.187	3312
229.252	4242
229.318	2225
229.384	3546
229.449	4156
229.515	1942
229.581	1822
229.646	3575
229.712	4788
229.777	11423
229.843	7283
229.909	6545
229.974	6378
230.040	4649
230.105	5464
230.171	5066
230.236	7077
230.302	10326
230.368	6641
230.433	4437
230.499	3368
230.564	4406
230.630	3246
230.695	2772
230.761	2165
230.826	3077
230.892	5413
230.957	2770
231.023	3327
231.088	3556
231.154	3249
231.219	4184
231.284	7571
231.350	5026
231.415	3116
231.481	2885
231.546	2888
231.612	2319
231.677	2747
231.742	3177
231.808	2594
231.873	2387
231.939	2895
232.004	7990
232.069	4186
232.135	4073
232.200	3474
232.265	2006
232.331	1606
232.396	2492
232.461	2267
232.527	2804
232.592	2676
232.657	4242
232.723	8520
232.788	3674
232.853	2365
232.918	2479
232.984	2395
233.049	3826
233.114	7439
233.179	5000
233.245	12692
233.310	7649
233.375	3571
233.440	2449
233.506	2972
233.571	2411
233.636	2043
233.701	4043
233.766	10818
233.832	6847
233.897	4524
233.962	4701
234.027	3893
234.092	3794
234.157	4307
234.222	5283
234.288	12596
234.353	23472
234.418	17330
234.483	9178
234.548	7153
234.613	5480
234.678	5187
234.743	10685
234.808	25142
234.873	9932
234.938	5890
235.004	4203
235.069	4349
235.134	3348
235.199	3904
235.264	3025
235.329	3774
235.394	4344
235.459	6457
235.524	5561
235.589	3337
235.654	2839
235.719	3003
235.784	3426
235.849	8372
235.913	12171
235.978	17004
236.043	11487
236.108	5110
236.173	7619
236.238	5141
236.303	4258
236.368	4210
236.433	12542
236.498	12448
236.563	8089
236.627	27076
236.692	62613
236.757	29871
236.822	17669
236.887	13211
236.952	9216
237.017	9554
237.081	9513
237.146	14765
237.211	27974
237.276	75136
237.341	77291
237.405	30293
237.470	17038
237.535	11716
237.600	7084
237.664	5553
237.729	5573
237.794	11876
237.859	14114
237.923	11313
237.988	6968
238.053	12899
238.118	13590
238.182	34755
238.247	17640
238.312	13451
238.376	8664
238.441	7666
238.506	5707
238.570	4394
238.635	3801
238.700	4204
238.764	4225
238.829	19408
238.893	11509
238.958	8812
239.023	5986
239.087	4706
239.152	6072
239.216	3451
239.281	3604
239.346	4039
239.410	4323
239.475	9590
239.539	34342
239.604	12474
239.668	6052
239.733	4890
239.797	13236
239.862	26201
239.926	21935
239.991	7299
240.055	5408
240.120	4440
240.184	4454
240.249	3470
240.313	4284
240.378	6334
240.442	25903
240.507	19616
240.571	7379
240.635	18456
240.700	10879
240.764	5330
240.829	3645
240.893	3165
240.957	4224
241.022	24142
241.086	24459
241.151	9311
241.215	4037
241.279	12916
241.344	12682
241.408	6084
241.472	5052
241.537	5178
241.601	4500
241.665	4241
241.730	4317
241.794	4751
241.858	3514
241.922	4619
241.987	4326
242.051	3772
242.115	4366
242.179	3368
242.244	3696
242.308	4287
242.372	6003
242.436	5572
242.501	4771
242.565	3690
242.629	3806
242.693	4490
242.757	4012
242.822	3620
242.886	4819
242.950	5349
243.014	5101
243.078	6698
243.142	5650
243.206	6560
243.271	6000
243.335	5777
243.399	10936
243.463	61897
243.527	64156
243.591	18323
243.655	10249
243.719	6368
243.783	8428
243.847	14817
243.911	16487
243.975	21950
244.040	10197
244.104	5648
244.168	5805
244.232	13995
244.296	13912
244.360	12518
244.424	8272
244.488	6690
244.552	5932
244.615	4134
244.679	4983
244.743	9104
244.807	5379
244.871	4194
244.935	4178
244.999	4780
245.063	4631
245.127	6765
245.191	12134
245.255	8267
245.319	10072
245.383	7173
245.446	5035
245.510	5928
245.574	5410
245.638	5125
245.702	10127
245.766	14512
245.829	8412
245.893	5909
245.957	5519
246.021	6301
246.085	7404
246.149	10585
246.212	27278
246.276	24122
246.340	12205
246.404	7774
246.467	14660
246.531	13752
246.595	8379
246.659	9287
246.722	9790
246.786	9900
246.850	14347
246.913	11023
246.977	6716
247.041	7309
247.104	7216
247.168	9231
247.232	29264
247.295	36339
247.359	12658
247.423	12364
247.486	17036
247.550	8613
247.614	9898
247.677	11101
247.741	7215
247.804	7385
247.868	9139
247.932	29326
247.995	28424
248.059	10468
248.122	8215
248.186	10516
248.249	26333
248.313	70784
248.376	52273
248.440	28785
248.503	12770
248.567	14350
248.630	21968
248.694	25182
248.757	42486
248.821	57909
248.884	31020
248.948	42812
249.011	54707
249.075	77348
249.138	45573
249.202	19742
249.265	18151
249.328	19140
249.392	13722
249.455	10058
249.519	10014
249.582	15413
249.645	21410
249.709	12626
249.772	10750
249.835	10295
249.899	11371
249.962	9094
250.025	10944
250.089	33075
250.152	25091
250.215	14860
250.279	12169
250.342	12697
250.405	9995
250.468	11037
250.532	15414
250.595	28072
250.658	116692
250.721	84190
250.785	34937
250.848	19736
250.911	13669
250.974	11786
251.038	28339
251.101	31537
251.164	20400
251.227	20092
251.290	17074
251.354	42005
251.417	129986
251.480	69331
251.543	101288
251.606	196303
251.669	92353
251.732	48697
251.795	55196
251.859	72359
251.922	116860
251.985	43794
252.048	22814
252.111	18957
252.174	20538
252.237	52661
252.300	69168
252.363	116996
252.426	126524
252.489	50387
252.552	30657
252.615	22556
252.678	31372
252.741	57982
252.804	110321
252.867	138774
252.930	76570
252.993	41792
253.056	28987
253.119	20050
253.182	21398
253.245	31087
253.308	22236
253.371	26213
253.434	20198
253.497	24918
253.559	37143
253.622	25294
253.685	43216
253.748	26403
253.811	17030
253.874	25402
253.937	17716
254.000	15243
254.062	36378
254.125	31046
254.188	41004
254.251	20677
254.314	17801
254.376	36054
254.439	30032
254.502	23981
254.565	38215
254.628	40089
254.690	25953
254.753	15636
254.816	15064
254.878	16805
254.941	35079
255.004	19027
255.067	15659
255.129	11855
255.192	7621
255.255	8813
255.317	9772
255.380	6180
255.443	6595
255.505	6495
255.568	6638
255.631	7924
255.693	6950
255.756	5519
255.819	6006
255.881	5185
255.944	4726
256.006	6546
256.069	6091
256.132	6392
256.194	14930
256.257	26099
256.319	21154
256.382	12770
256.444	8355
256.507	6353
256.569	6229
256.632	8465
256.694	14086
256.757	53306
256.819	68119
256.882	22546
256.944	12227
257.007	13006
257.069	12548
257.132	7574
257.194	7387
257.257	7546
257.319	6958
257.381	10373
257.444	37913
257.506	121833
257.569	86791
257.631	52687
257.693	24401
257.756	15799
257.818	11747
257.880	7524
257.943	7796
258.005	7061
258.067	6718
258.130	7282
258.192	13293
258.254	20785
258.317	8754
258.379	10846
258.441	30375
258.503	16398
258.566	45390
258.628	22907
258.690	8403
258.753	12493
258.815	17522
258.877	8510
258.939	6299
259.001	5069
259.064	5867
259.126	13437
259.188	10343
259.250	9272
259.312	18956
259.375	39627
259.437	12655
259.499	7995
259.561	7981
259.623	7406
259.685	6179
259.747	9012
259.809	46663
259.872	45897
259.934	90781
259.996	38007
260.058	12748
260.120	8006
260.182	6844
260.244	5654
260.306	5409
260.368	6244
260.430	6344
260.492	17063
260.554	35481
260.616	20886
260.678	62802
260.740	34001
260.802	12212
260.864	10130
260.926	8457
260.988	8126
261.050	8973
261.112	23856
261.174	61210
261.236	23755
261.298	12016
261.359	38279
261.421	22556
261.483	8528
261.545	7206
261.607	5493
261.669	6740
261.731	29013
261.793	32737
261.854	12655
261.916	9506
261.978	8869
262.040	8662
262.102	8635
262.164	18865
262.225	8127
262.287	10383
262.349	24079
262.411	11202
262.472	7586
262.534	31239
262.596	25103
262.658	8819
262.719	6738
262.781	20808
262.843	31599
262.904	10818
262.966	10012
263.028	15685
263.090	116514
263.151	105591
263.213	34042
263.275	18232
263.336	9751
263.398	7570
263.459	5858
263.521	10633
263.583	20590
263.644	9509
263.706	5139
263.767	4430
263.829	4170
263.891	3305
263.952	3678
264.014	4344
264.075	10794
264.137	13516
264.198	7009
264.260	4045
264.321	4527
264.383	22557
264.444	17835
264.506	6954
264.567	6204
264.629	15249
264.690	14545
264.752	7997
264.813	5649
264.875	4677
264.936	5343
264.998	3892
265.059	4011
265.120	5107
265.182	13720
265.243	55019
265.305	23093
265.366	8913
265.427	5830
265.489	5255
265.550	4054
265.611	7386
265.673	5370
265.734	4039
265.795	3759
265.857	4318
265.918	5596
265.979	24357
266.040	84742
266.102	30154
266.163	14855
266.224	11547
266.286	6395
266.347	6202
266.408	6625
266.469	6515
266.530	4605
266.592	5993
266.653	20009
266.714	15920
266.775	5972
266.836	5001
266.898	5700
266.959	8383
267.020	5162
267.081	5674
267.142	5430
267.203	4979
267.264	4526
267.326	6501
267.387	5665
267.448	4477
267.509	5367
267.570	5026
267.631	4278
267.692	6554
267.753	5373
267.814	4665
267.875	21674
267.936	17997
267.997	9947
268.058	8086
268.119	5984
268.180	6169
268.241	4753
268.302	4324
268.363	5094
268.424	5353
268.485	4522
268.546	3004
268.607	2971
268.668	3660
268.729	3729
268.790	4184
268.851	6671
268.912	21166
268.972	14800
269.033	7310
269.094	3906
269.155	3962
269.216	4287
269.277	4779
269.338	3471
269.398	4507
269.459	6272
269.520	9529
269.581	13668
269.642	12429
269.702	7732
269.763	5035
269.824	6263
269.885	11559
269.945	9041
270.006	4771
270.067	3450
270.128	3484
270.188	4858
270.249	4266
270.310	2531
270.370	4258
270.431	3843
270.492	3617
270.553	6340
270.613	19540
270.674	21870
270.734	7963
270.795	5788
270.856	10739
270.916	5742
270.977	5894
271.038	7576
271.098	5760
271.159	15733
271.219	7750
271.280	5027
271.340	4353
271.401	12186
271.462	18760
271.522	7978
271.583	6701
271.643	6096
271.704	5727
271.764	8274
271.825	27631
271.885	76207
271.946	48770
272.006	20886
272.066	51432
272.127	38319
272.187	14356
272.248	9806
272.308	19303
272.369	39716
272.429	14945
272.489	22060
272.550	15387
272.610	21128
272.671	11577
272.731	22515
272.791	21498
272.852	12122
272.912	10700
272.972	5603
273.033	8992
273.093	14508
273.153	10292
273.214	8735
273.274	11921
273.334	52502
273.394	46832
273.455	22224
273.515	40187
273.575	44557
273.635	21193
273.696	50265
273.756	48058
273.816	18904
273.876	16610
273.936	57932
273.997	37358
274.057	13109
274.117	11679
274.177	28368
274.237	83290
274.297	50846
274.358	45603
274.418	49457
274.478	25546
274.538	11988
274.598	22048
274.658	65483
274.718	48848
274.778	16764
274.838	12528
274.898	58974
274.958	76154
275.018	60033
275.078	26936
275.138	14426
275.198	9364
275.258	8575
275.318	14287
275.378	21428
275.438	15988
275.498	13875
275.558	63986
275.618	68248
275.678	30044
275.738	28642
275.798	15871
275.858	8252
275.918	5838
275.978	10526
276.038	7039
276.098	7043
276.157	30220
276.217	37759
276.277	17519
276.337	12854
276.397	9691
276.457	10755
276.517	6918
276.576	6312
276.636	9644
276.696	15855
276.756	30962
276.815	14203
276.875	11347
276.935	13331
276.995	8788
277.055	7417
277.114	6922
277.174	21549
277.234	30711
277.293	12624
277.353	9008
277.413	7118
277.472	9433
277.532	8393
277.592	13387
277.651	74417
277.711	49185
277.771	37453
277.830	104641
277.890	41866
277.950	91158
278.009	107138
278.069	37335
278.128	82922
278.188	52845
278.248	46962
278.307	94444
278.367	29461
278.426	14920
278.486	11022
278.545	9199
278.605	8557
278.664	7720
278.724	9612
278.783	45266
278.843	43960
278.902	14630
278.962	14547
279.021	17721
279.081	31117
279.140	19917
279.199	16340
279.259	16852
279.318	18354
279.378	25584
279.437	60173
279.496	213310
279.556	427702
279.615	199447
279.675	76355
279.734	54413
279.793	100981
279.853	73645
279.912	29232
279.971	21683
280.031	20552
280.090	53444
280.149	50115
280.208	107051
280.268	341088
280.327	163584
280.386	59006
280.445	53929
280.505	28924
280.564	18932
280.623	15042
280.682	34305
280.742	22372
280.801	10671
280.860	10235
280.919	8899
280.978	8844
281.037	9080
281.097	8225
281.156	8593
281.215	8212
281.274	16749
281.333	50356
281.392	17263
281.451	8207
281.510	8056
281.569	7513
281.628	7282
281.688	7052
281.747	8426
281.806	7163
281.865	6513
281.924	7396
281.983	6350
282.042	5535
282.101	5586
282.160	5231
282.219	6050
282.278	11362
282.337	27808
282.396	10299
282.454	7424
282.513	18453
282.572	36881
282.631	12966
282.690	7516
282.749	7607
282.808	8979
282.867	9649
282.926	7294
282.985	5699
283.043	5522
283.102	6344
283.161	8504
283.220	31815
283.279	29300
283.338	9949
283.396	9523
283.455	8376
283.514	12872
283.573	18527
283.631	10352
283.690	8018
283.749	9331
283.808	22838
283.866	13303
283.925	8203
283.984	9854
284.043	13281
284.101	10800
284.160	10104
284.219	11586
284.277	12939
284.336	30504
284.395	59263
284.453	26746
284.512	19262
284.570	25827
284.629	21084
284.688	24051
284.746	26395
284.805	33464
284.863	43343
284.922	49863
284.981	62567
285.039	90067
285.098	174669
285.156	333432
285.215	315989
285.273	354175
285.332	230937
285.390	138410
285.449	90345
285.507	62564
285.566	46624
285.624	35867
285.683	28196
285.741	22590
285.799	20383
285.858	18379
285.916	17147
285.975	13568
286.033	12157
286.091	11309
286.150	9313
286.208	11367
286.267	12440
286.325	14387
286.383	17131
286.442	10932
286.500	9959
286.558	9111
286.616	8896
286.675	12476
286.733	9955
286.791	9022
286.850	10939
286.908	18459
286.966	16699
287.024	8509
287.083	6815
287.141	7168
287.199	9320
287.257	10490
287.315	8047
287.374	13287
287.432	21298
287.490	10571
287.548	9518
287.606	7119
287.664	8239
287.723	14055
287.781	10433
287.839	7851
287.897	9743
287.955	9654
288.013	15785
288.071	48205
288.129	269128
288.187	324293
288.245	102350
288.303	43851
288.361	28669
288.419	20976
288.477	14042
288.535	9660
288.593	7622
288.651	7228
288.709	5809
288.767	6969
288.825	4916
288.883	5896
288.941	7645
288.999	5680
289.057	4187
289.115	4939
289.173	5647
289.231	6082
289.289	6191
289.346	6887
289.404	7257
289.462	13681
289.520	9754
289.578	5342
289.636	3611
289.694	4743
289.751	3814
289.809	4486
289.867	3795
289.925	8045
289.983	6572
290.040	4476
290.098	4315
290.156	6858
290.214	6707
290.271	3459
290.329	3476
290.387	3631
290.444	3044
290.502	2912
290.560	3875
290.617	4507
290.675	4062
290.733	4671
290.790	4838
290.848	4192
290.906	5867
290.963	4814
291.021	4065
291.078	4970
291.136	6091
291.194	28714
291.251	24185
291.309	7638
291.366	4281
291.424	5177
291.481	5856
291.539	7879
291.596	5391
291.654	3233
291.711	3716
291.769	8283
291.826	11933
291.884	6250
291.941	3883
291.999	4505
292.056	6658
292.114	5165
292.171	4017
292.228	6109
292.286	8310
292.343	16472
292.401	14584
292.458	8680
292.515	7296
292.573	9092
292.630	8674
292.687	7143
292.745	4221
292.802	10207
292.859	28313
292.917	40392
292.974	15354
293.031	7667
293.089	5625
293.146	4973
293.203	4147
293.260	5095
293.318	9891
293.375	6747
293.432	4249
293.489	3778
293.546	4936
293.604	10484
293.661	48138
293.718	51773
293.775	21485
293.832	16515
293.889	17553
293.947	16010
294.004	8620
294.061	10360
294.118	28913
294.175	39886
294.232	28856
294.289	12677
294.346	8904
294.403	8474
294.460	8807
294.517	6731
294.574	5525
294.631	4441
294.688	6469
294.745	33926
294.802	73742
294.859	42082
294.916	26599
294.973	17102
295.030	13988
295.087	9458
295.144	6649
295.201	5378
295.258	4970
295.315	10662
295.372	45538
295.429	37845
295.486	14293
295.542	11349
295.599	32913
295.656	28701
295.713	42021
295.770	34536
295.827	12618
295.883	8537
295.940	10343
295.997	18380
296.054	11600
296.111	7460
296.167	4880
296.224	4361
296.281	3477
296.338	4196
296.394	4136
296.451	8797
296.508	34279
296.564	29750
296.621	25863
296.678	75966
296.734	50612
296.791	19074
296.848	12195
296.904	21779
296.961	43451
297.018	58980
297.074	25578
297.131	13275
297.187	9288
297.244	20739
297.301	89796
297.357	65908
297.414	22587
297.470	12008
297.527	10830
297.583	8963
297.640	8144
297.696	6013
297.753	5006
297.809	3351
297.866	3493
297.922	4776
297.979	4113
298.035	6036
298.092	17816
298.148	40268
298.204	20268
298.261	12550
298.317	41812
298.374	58505
298.430	25699
298.486	18572
298.543	14990
298.599	18907
298.656	21505
298.712	39515
298.768	58853
298.824	26605
298.881	13135
298.937	8590
298.993	9402
299.050	10178
299.106	7897
299.162	8501
299.218	8181
299.275	5520
299.331	6633
299.387	28642
299.443	75003
299.500	47105
299.556	19575
299.612	13982
299.668	16318
299.724	23805
299.780	14828
299.837	9087
299.893	26406
299.949	74158
300.005	49205
300.061	72539
300.117	70871
300.173	28160
300.229	20500
300.285	29532
300.341	21330
300.397	11476
300.453	8596
300.510	9050
300.566	7509
300.622	17302
300.678	56738
300.734	59257
300.790	60518
300.845	49264
300.901	50228
300.957	62831
301.013	29911
301.069	15022
301.125	14644
301.181	13085
301.237	9031
301.293	6874
301.349	8482
301.405	9084
301.461	15526
301.516	18856
301.572	15587
301.628	17837
301.684	16665
301.740	42291
301.796	34878
301.851	32181
301.907	41001
301.963	33019
302.019	103503
302.074	179203
302.130	124380
302.186	56052
302.242	26952
302.297	18317
302.353	27146
302.409	42861
302.464	25378
302.520	37251
302.576	76158
302.631	58866
302.687	28401
302.743	14941
302.798	9336
302.854	8326
302.910	9264
302.965	16369
303.021	24288
303.076	22219
303.132	32571
303.187	25332
303.243	12867
303.299	8039
303.354	7304
303.410	6690
303.465	6568
303.521	6034
303.576	5761
303.632	8104
303.687	32748
303.743	57216
303.798	30392
303.853	14107
303.909	9319
303.964	10510
304.020	20493
304.075	19798
304.130	26376
304.186	40130
304.241	35481
304.297	23994
304.352	12883
304.358	12604
304.407	10334
304.449	11066
304.463	11323
304.518	9234
304.539	8558
304.573	7478
304.629	7800
304.630	8050
304.684	19429
304.720	44271
304.739	57101
304.794	45560
304.811	38710
304.850	21320
304.902	12557
304.905	12046
304.960	8989
304.992	9485
305.015	9942
305.071	10120
305.083	9407
305.126	6631
305.173	5515
305.181	5348
305.236	4623
305.264	6071
305.292	7638
305.347	10003
305.354	10236
305.402	11692
305.445	11785
305.457	11772
305.512	13402
305.535	11978
305.567	9999
305.622	11597
305.626	12700
305.678	32680
305.716	59393
305.733	70426
305.788	53020
305.807	50547
305.843	43344
305.897	58201
305.898	58436
305.953	40385
305.988	30219
306.008	23511
306.063	14463
306.078	12718
306.118	9962
306.168	7776
306.173	7586
306.228	6309
306.259	5961
306.283	5826
306.338	5394
306.349	5778
306.393	7442
306.440	7640
306.448	7629
306.503	6948
306.530	8818
306.558	12254
306.613	27392
306.620	29549
306.668	44836
306.711	58611
306.723	60613
306.778	39611
306.801	32534
306.833	22043
306.888	11444
306.892	10900
306.943	8361
306.982	7436
306.997	7305
307.052	6711
307.072	6765
307.107	6957
307.162	9812
307.163	9851
307.217	15134
307.253	19787
307.272	21522
307.327	19566
307.343	18728
307.381	14794
307.434	13890
307.436	14287
307.491	32949
307.524	46768
307.546	53885
307.600	47803
307.614	44894
307.655	26486
307.704	12519
307.710	12191
307.765	14220
307.795	19665
307.819	26793
307.874	37455
307.885	37509
307.929	26253
307.975	17986
307.984	17880
308.038	21508
308.065	28239
308.093	44910
308.148	117409
308.156	131496
308.202	242569
308.246	269082
308.257	250603
308.312	134445
308.336	95237
308.366	77856
308.421	49232
308.426	46971
308.475	30367
308.517	20083
308.530	18569
308.585	15743
308.607	14817
308.639	14676
308.694	16629
308.697	17141
308.748	33662
308.787	45334
308.803	46679
308.857	37876
308.877	36209
308.912	30174
308.967	23724
308.967	23676
309.021	32853
309.058	42957
309.076	52886
309.130	90347
309.148	107841
309.185	174922
309.238	308514
309.239	310997
309.293	389868
309.328	396011
309.348	332978
309.402	163134
309.418	119778
309.457	84897
309.508	50356
309.511	49763
309.566	49612
309.598	55359
309.620	69432
309.674	115601
309.688	123554
309.729	123555
309.778	110265
309.783	106653
309.837	66348
309.868	46777
309.892	45698
309.946	55320
309.959	58556
310.001	84428
310.049	101925
310.055	98209
310.109	60057
310.139	41005
310.163	32708
310.218	18343
310.229	15731
310.272	12602
310.319	10074
310.326	9838
310.381	8547
310.409	8231
310.435	8054
310.489	7417
310.499	7396
310.543	7506
310.589	7672
310.598	7796
310.652	8449
310.679	8699
310.706	7696
310.760	5750
310.769	5460
310.814	5040
310.859	4765
310.868	4772
310.923	4913
310.948	5028
310.977	5860
311.031	7448
311.038	7668
311.085	7605
311.128	7325
311.139	7138
311.193	6413
311.218	6040
311.247	5659
311.301	5075
311.308	4993
311.356	4927
311.398	4951
311.410	4871
311.464	4474
311.488	4327
311.518	4553
311.572	5011
311.578	5094
311.626	6682
311.668	7913
311.680	8053
311.734	8611
311.758	8899
311.788	8688
311.842	8270
311.847	8232
311.896	8907
311.937	9551
311.950	9975
312.004	11763
312.027	12538
312.058	10702
312.112	7417
312.117	7085
312.165	6039
312.207	5147
312.297	6574
312.386	6768
312.476	7230
312.566	13536
312.656	10072
312.745	3498
312.835	4926
312.925	6105
313.015	5693
313.104	6997
313.194	4843
313.284	6107
313.374	7183
313.463	8380
313.553	4833
313.643	5096
313.732	4577
313.822	4044
313.912	5228
314.001	6416
314.091	6886
314.180	8616
314.270	9251
314.360	9512
314.449	9770
314.539	5549
314.628	5457
314.718	5901
314.808	9247
314.897	6450
314.987	5806
315.076	7986
315.166	11459
315.255	10281
315.345	9049
315.434	9846
315.524	8395
315.613	10580
315.703	14710
315.792	24416
315.881	82309
315.971	50756
316.060	17467
316.150	25793
316.239	29796
316.328	15367
316.418	5495
316.507	5905
316.597	7938
316.686	9670
316.775	10903
316.865	30210
316.954	11664
317.043	4630
317.133	5448
317.222	5808
317.311	5166
317.400	5860
317.490	7553
317.579	12212
317.668	7843
317.757	14584
317.847	39656
317.936	147975
318.025	84226
318.114	31167
318.203	22171
318.293	14211
318.382	27271
318.471	24532
318.560	30164
318.649	48052
318.738	20273
318.828	8961
318.917	11359
319.006	9848
319.095	30905
319.184	60169
319.273	52683
319.362	29801
319.451	9102
319.540	6691
319.629	16790
319.718	36938
319.807	12955
319.896	20701
319.985	77631
320.074	53226
320.163	10743
320.252	17336
320.341	12679
320.430	11460
320.519	14728
320.608	12778
320.697	7404
320.786	7850
320.875	10920
320.964	15036
321.053	22167
321.142	31951
321.230	40558
321.319	23121
321.408	54030
321.497	34021
321.586	22166
321.675	27223
321.764	32313
321.852	17416
321.941	28034
322.030	28070
322.119	18619
322.207	58464
322.296	50408
322.385	21538
322.474	23847
322.562	65362
322.651	53951
322.740	24467
322.829	43527
322.917	39213
323.006	28634
323.095	21010
323.183	15117
323.272	18255
323.361	32566
323.449	114696
323.538	60386
323.626	66994
323.715	78763
323.804	16513
323.892	64710
323.981	61942
324.069	13098
324.158	30093
324.246	52997
324.335	13578
324.424	23358
324.512	9619
324.601	10570
324.689	20709
324.778	60942
324.866	36601
324.954	12412
325.043	6824
325.131	14571
325.220	29976
325.308	38947
325.397	24446
325.485	22638
325.574	5233
325.662	6728
325.750	6924
325.839	6573
325.927	4676
326.015	7084
326.104	10300
326.192	23216
326.280	6801
326.369	5384
326.457	8017
326.545	16691
326.634	11416
326.722	4212
326.810	5508
326.898	5216
326.987	5503
327.075	13517
327.163	19395
327.251	11204
327.340	13370
327.428	33819
327.516	7905
327.604	5971
327.692	6579
327.781	6613
327.869	13345
327.957	10781
328.045	9198
328.133	5365
328.221	6056
328.309	7115
328.397	4418
328.485	6111
328.574	8513
328.662	34118
328.750	29950
328.838	11071
328.926	5214
329.014	4116
329.102	6760
329.190	14708
329.278	16338
329.366	4537
329.454	3916
329.542	4170
329.630	3347
329.718	3819
329.806	5955
329.893	5417
329.981	3734
330.069	4687
330.157	13426
330.245	56850
330.333	42852
330.421	7380
330.509	7407
330.597	37155
330.684	39466
330.772	9661
330.860	10703
330.948	12581
331.036	8068
331.123	4099
331.211	3411
331.299	4986
331.387	7535
331.475	21719
331.562	10515
331.650	4828
331.738	5694
331.825	9139
331.913	4416
332.001	3897
332.089	4724
332.176	11189
332.264	29864
332.352	41455
332.439	10022
332.527	5770
332.614	4795
332.702	8841
332.790	4809
332.877	11840
332.965	41958
333.052	19217
333.140	10199
333.228	38413
333.315	16473
333.403	6435
333.490	17434
333.578	27078
333.665	43700
333.753	32563
333.840	7765
333.928	6274
334.015	17090
334.103	27710
334.190	91804
334.278	45596
334.365	12108
334.452	12731
334.540	7663
334.627	8040
334.715	12274
334.802	16080
334.889	103596
334.977	200389
335.064	33240
335.151	10438
335.239	8645
335.326	8269
335.413	28134
335.501	73468
335.588	13682
335.675	6678
335.762	7004
335.850	13183
335.937	11352
336.024	23200
336.111	127415
336.199	108955
336.286	18895
336.373	8200
336.460	5700
336.547	5675
336.635	7098
336.722	7706
336.809	5429
336.896	7714
336.983	19131
337.070	51703
337.157	95801
337.245	78402
337.332	95995
337.419	10786
337.506	5218
337.593	5419
337.680	10463
337.767	49310
337.854	21853
337.941	17477
338.028	28759
338.115	16946
338.202	7684
338.289	15374
338.376	81914
338.463	46079
338.550	20425
338.637	42857
338.724	12075
338.811	31101
338.898	8298
338.984	4205
339.071	4338
339.158	5576
339.245	17509
339.332	17788
339.419	12915
339.506	24875
339.593	4490
339.679	4061
339.766	4339
339.853	5539
339.940	14730
340.027	8104
340.113	3790
340.200	7938
340.287	6621
340.374	5798
340.460	14626
340.547	7666
340.634	7399
340.720	34769
340.807	41106
340.894	5841
340.980	4910
341.067	5957
341.154	5257
341.240	6733
341.327	22440
341.414	10015
341.500	9369
341.587	5447
341.674	3763
341.760	10862
341.847	19366
341.933	7720
342.020	2720
342.106	2897
342.193	4512
342.279	11969
342.366	7613
342.452	14652
342.539	8730
342.625	12400
342.712	45747
342.798	27917
342.885	10450
342.971	3326
343.058	3415
343.144	3248
343.230	4818
343.317	4953
343.403	5491
343.490	3248
343.576	2791
343.662	4796
343.749	5500
343.835	6740
343.921	8527
344.008	47548
344.094	202627
344.180	75376
344.267	15199
344.353	36805
344.439	75336
344.525	26578
344.612	12284
344.698	8428
344.784	7037
344.870	4120
344.957	4089
345.043	8133
345.129	5639
345.215	11915
345.301	9968
345.387	7409
345.474	2741
345.560	3284
345.646	5269
345.732	5094
345.818	5588
345.904	7393
345.990	5922
346.076	6034
346.162	12996
346.249	7875
346.335	3795
346.421	4194
346.507	12072
346.593	75851
346.679	36170
346.765	5431
346.851	4856
346.937	6451
347.023	3936
347.108	4563
347.194	5208
347.280	4381
347.366	5101
347.452	15073
347.538	81311
347.624	78768
347.710	66481
347.796	15445
347.882	5333
347.967	3835
348.053	4654
348.139	4112
348.225	3830
348.311	4521
348.397	3836
348.482	4285
348.568	7379
348.654	4416
348.740	6582
348.825	10116
348.911	7592
348.997	25942
349.083	96506
349.168	27468
349.254	5865
349.340	6954
349.425	3759
349.511	5266
349.597	7047
349.682	10361
349.768	44030
349.854	40639
349.939	5618
350.025	3770
350.110	3276
350.196	3852
350.282	3303
350.367	2618
350.453	5793
350.538	11061
350.624	5244
350.709	7236
350.795	3449
350.880	4275
350.966	3747
351.051	8045
351.137	7984
351.222	4219
351.308	9334
351.393	44386
351.479	21236
351.564	5943
351.649	3909
351.735	3693
351.820	2826
351.906	3799
351.991	5030
352.076	17491
352.162	53434
352.247	12889
352.332	5378
352.418	10991
352.503	14943
352.588	44852
352.673	73119
352.759	14716
352.844	6898
352.929	5309
353.014	10622
353.100	6229
353.185	11010
353.270	17983
353.355	21376
353.441	6196
353.526	5186
353.611	11514
353.696	21656
353.781	10783
353.866	6156
353.952	4478
354.037	10986
354.122	32650
354.207	33426
354.292	18102
354.377	5445
354.462	4251
354.547	6609
354.632	6914
354.717	6931
354.802	16071
354.887	9829
354.972	3880
355.057	3548
355.142	3054
355.227	3998
355.312	8675
355.397	17366
355.482	47939
355.567	41091
355.652	14848
355.737	21579
355.822	43791
355.907	76184
355.991	12125
356.076	5717
356.161	4629
356.246	4722
356.331	4820
356.416	8450
356.501	64618
356.585	150175
356.670	26827
356.755	9438
356.840	10838
356.924	39226
357.009	219930
357.094	163139
357.179	22270
357.263	17807
357.348	11516
357.433	14593
357.517	12207
357.602	11717
357.687	9821
357.771	13411
357.856	66529
357.941	65131
358.025	28016
358.110	180972
358.195	170260
358.279	22504
358.364	11213
358.448	26526
358.533	101716
358.617	103909
358.702	83592
358.787	49022
358.871	16727
358.956	16930
359.040	7431
359.125	4982
359.209	5692
359.294	21764
359.378	77373
359.462	28300
359.547	11297
359.631	7147
359.716	6061
359.800	3697
359.885	6604
359.969	7012
360.053	5408
360.138	4801
360.222	7274
360.306	15883
360.391	16369
360.475	21445
360.559	87827
360.644	52211
360.728	45199
360.812	31055
360.896	152146
360.981	89084
361.065	41031
361.149	9930
361.233	9136
361.318	8065
361.402	10604
361.486	9127
361.570	6272
361.654	8015
361.739	15404
361.823	61690
361.907	183032
361.991	54014
362.075	12753
362.159	30486
362.243	30011
362.327	20520
362.411	34951
362.495	23435
362.580	10895
362.664	6075
362.748	7218
362.832	7536
362.916	11467
363.000	33129
363.084	114307
363.168	217935
363.252	78957
363.336	15792
363.420	16222
363.503	38984
363.587	86596
363.671	22267
363.755	10518
363.839	15763
363.923	9712
364.007	13889
364.091	23570
364.175	17740
364.258	77492
364.342	96603
364.426	108082
364.510	94523
364.594	29178
364.677	20090
364.761	95617
364.845	145118
364.929	30096
365.013	28807
365.096	16765
365.180	27284
365.264	17352
365.347	78818
365.431	67381
365.515	12802
365.598	8543
365.682	5886
365.766	6672
365.849	12270
365.933	7472
366.017	8295
366.100	7050
366.184	3800
366.267	5251
366.351	4586
366.435	3820
366.518	3799
366.602	2641
366.685	4075
366.769	5427
366.852	7267
366.936	15596
367.019	14237
367.103	6688
367.186	10418
367.270	6114
367.353	3713
367.436	4468
367.520	4886
367.603	5371
367.687	8732
367.770	19207
367.853	13760
367.937	20779
368.020	71833
368.104	27299
368.187	11811
368.270	20291
368.353	17551
368.437	19938
368.520	50372
368.603	48241
368.687	28657
368.770	91290
368.853	36483
368.936	14342
369.020	17791
369.103	9200
369.186	4192
369.269	5575
369.352	8419
369.436	19369
369.519	11951
369.602	7996
369.685	4642
369.768	8126
369.851	5811
369.934	4844
370.018	5021
370.101	14465
370.184	15875
370.267	7562
370.350	10510
370.433	19595
370.516	45438
370.599	118431
370.682	51091
370.765	34520
370.848	49238
370.931	98672
371.014	65345
371.097	10443
371.180	6946
371.263	4742
371.346	3895
371.429	3618
371.511	4498
371.594	9050
371.677	14602
371.760	14491
371.843	12978
371.926	38573
372.009	170070
372.091	92830
372.174	29336
372.257	86795
372.340	65105
372.423	19204
372.505	26179
372.588	14919
372.671	17308
372.754	86552
372.836	85896
372.919	19586
373.002	49189
373.085	28600
373.167	14389
373.250	31147
373.332	84339
373.415	97458
373.498	237151
373.580	149030
373.663	87131
373.746	218168
373.828	67598
373.911	18087
373.993	14186
374.076	33458
374.159	61728
374.241	25199
374.324	64419
374.406	81271
374.489	41011
374.571	182278
374.654	143848
374.736	32329
374.819	97254
374.901	158179
374.983	227776
375.066	67681
375.148	12916
375.231	23020
375.313	81951
375.395	46740
375.478	11364
375.560	8112
375.643	8475
375.725	20693
375.807	120729
375.890	175113
375.972	73770
376.054	30434
376.136	44164
376.219	33594
376.301	22345
376.383	129602
376.465	97806
376.548	30501
376.630	34019
376.712	97042
376.794	100094
376.877	13348
376.959	4942
377.041	5435
377.123	6475
377.205	12465
377.287	5123
377.369	3876
377.452	4338
377.534	5564
377.616	4242
377.698	4631
377.780	4146
377.862	4742
377.944	4918
378.026	3765
378.108	3228
378.190	3475
378.272	3341
378.354	3125
378.436	2788
378.518	4943
378.600	17220
378.682	23040
378.764	40407
378.846	66392
378.928	14860
379.010	15326
379.091	13429
379.173	5190
379.255	4556
379.337	6402
379.419	15733
379.501	72106
379.583	59439
379.664	9261
379.746	15294
379.828	41322
379.910	72927
379.991	88594
380.073	24191
380.155	7474
380.237	7518
380.318	5381
380.400	5452
380.482	9071
380.564	22061
380.645	19443
380.727	24803
380.809	13618
380.890	8446
380.972	7193
381.053	7079
381.135	7262
381.217	11844
381.298	50413
381.380	45916
381.461	19391
381.543	69969
381.624	186686
381.706	57571
381.787	14849
381.869	14830
381.951	25890
382.032	148901
382.113	184463
382.195	43217
382.276	19282
382.358	27663
382.439	92640
382.521	112459
382.602	187760
382.684	124498
382.765	119117
382.846	203038
382.928	320837
383.009	308034
383.090	111837
383.172	287163
383.253	792124
383.334	388373
383.416	182691
383.497	155201
383.578	57327
383.659	80985
383.741	226826
383.822	856579
383.903	808444
383.984	195750
384.066	197516
384.147	191999
384.228	54814
384.309	24670
384.390	23688
384.471	16403
384.553	15515
384.634	16865
384.715	22598
384.796	13830
384.877	13628
384.958	34311
385.039	80471
385.120	37171
385.201	13651
385.282	12690
385.363	13753
385.444	14475
385.525	17088
385.606	56555
385.687	101034
385.768	27057
385.849	15204
385.930	45230
386.011	150467
386.092	75177
386.173	13464
386.254	8734
386.335	9134
386.416	8462
386.496	19728
386.577	60438
386.658	30628
386.739	13618
386.820	10888
386.901	8112
386.981	9049
387.062	7070
387.143	9847
387.224	38075
387.304	69359
387.385	23951
387.466	12430
387.547	12672
387.627	11914
387.708	13897
387.789	62503
387.869	141428
387.950	65247
388.031	9588
388.111	5002
388.192	10279
388.273	18523
388.353	16083
388.434	9549
388.514	12301
388.595	57301
388.676	135459
388.756	79540
388.837	45701
388.917	50396
388.998	12133
389.078	6512
389.159	6463
389.239	6336
389.320	7846
389.400	11212
389.480	12212
389.561	48772
389.641	49245
389.722	11183
389.802	14784
389.883	18495
389.963	55993
390.043	68036
390.124	19864
390.204	12131
390.284	48711
390.365	61265
390.445	26655
390.525	85834
390.605	147157
390.686	55286
390.766	17416
390.846	9518
390.927	6266
391.007	6572
391.087	7325
391.167	8990
391.247	8107
391.328	9263
391.408	14398
391.488	11302
391.568	5353
391.648	8155
391.728	12505
391.808	12961
391.888	15262
391.969	21891
392.049	56514
392.129	35396
392.209	19041
392.289	56912
392.369	58505
392.449	23322
392.529	21715
392.609	18422
392.689	19359
392.769	51383
392.849	85288
392.929	40067
393.009	76394
393.089	112067
393.169	80791
393.248	172088
393.328	671927
393.408	1242190
393.488	565538
393.568	141271
393.648	61036
393.728	36025
393.807	26266
393.887	20511
393.967	18107
394.047	17473
394.127	19204
394.206	22908
394.286	43272
394.366	224424
394.446	505176
394.525	178251
394.605	32377
394.685	18873
394.764	24376
394.844	45336
394.924	55519
395.003	23459
395.083	13709
395.163	12564
395.242	10981
395.322	11813
395.402	9641
395.481	10882
395.561	14924
395.640	50436
395.720	67513
395.799	58530
395.879	71188
395.958	33266
396.038	58430
396.117	299553
396.197	654921
396.276	256504
396.356	61120
396.435	38002
396.515	32660
396.594	35734
396.673	60629
396.753	159538
396.832	668740
396.912	919696
396.991	309001
397.070	72053
397.150	34558
397.229	22944
397.308	20064
397.388	39942
397.467	30546
397.546	11741
397.625	10129
397.705	11992
397.784	12229
397.863	10136
397.942	5972
398.022	6445
398.101	9742
398.180	41412
398.259	41753
398.338	12125
398.417	8596
398.497	6977
398.576	5705
398.655	5872
398.734	4274
398.813	4768
398.892	7563
398.971	41928
399.050	51106
399.129	9101
399.208	3443
399.287	3770
399.366	3030
399.445	3223
399.524	3781
399.603	3772
399.682	5371
399.761	14763
399.840	43051
399.919	70949
399.998	16559
400.077	3170
400.156	3413
400.235	3833
400.313	2953
400.392	3839
400.471	13382
400.550	50082
400.629	26250
400.708	5893
400.786	4397
400.865	7165
400.944	12650
401.023	10031
401.102	3228
401.180	1903
401.259	1638
401.338	2827
401.416	4527
401.495	5969
401.574	4044
401.652	3067
401.731	4617
401.810	6324
401.888	4103
401.967	2305
402.046	3500
402.124	4293
402.203	6616
402.281	6172
402.360	4054
402.438	9980
402.517	14014
402.596	4942
402.674	4264
402.753	3759
402.831	3372
402.910	3420
402.988	8994
403.066	58876
403.145	76129
403.223	19860
403.302	49462
403.380	61975
403.459	47095
403.537	33935
403.615	9139
403.694	3827
403.772	3093
403.850	2003
403.929	2114
404.007	2389
404.085	5606
404.164	12229
404.242	7269
404.320	3649
404.398	6901
404.477	14392
404.555	82999
404.633	185121
404.711	47944
404.789	6567
404.868	4986
404.946	5255
405.024	2053
405.102	2333
405.180	2122
405.258	2550
405.336	2401
405.415	2587
405.493	5185
405.571	9103
405.649	4540
405.727	1907
405.805	3862
405.883	5596
405.961	4861
406.039	4938
406.117	3027
406.195	4624
406.273	12685
406.351	88797
406.429	126793
406.507	22977
406.585	4850
406.663	3580
406.740	5745
406.818	5994
406.896	3830
406.974	3278
407.052	4837
407.130	31918
407.208	121572
407.285	51825
407.363	5402
407.441	3333
407.519	2050
407.596	3901
407.674	6595
407.752	20069
407.830	34976
407.907	16138
407.985	6344
408.063	3435
408.141	978
408.218	2835
408.296	5498
408.373	6226
408.451	5071
408.529	4821
408.606	3409
408.684	1458
408.762	1610
408.839	1137
408.917	1315
408.994	2107
409.072	1725
409.149	2236
409.227	3312
409.304	7390
409.382	6895
409.459	5694
409.537	8780
409.614	10094
409.692	5576
409.769	4672
409.846	8499
409.924	13266
410.001	11092
410.079	6375
410.156	4461
410.233	3516
410.311	3850
410.388	3090
410.465	2822
410.543	3657
410.620	2708
410.697	2760
410.775	4501
410.852	4020
410.929	2840
411.006	6028
411.083	3532
411.161	4791
411.238	8803
411.315	5828
411.392	2243
411.469	3381
411.547	4732
411.624	2437
411.701	2697
411.778	2073
411.855	7014
411.932	8641
412.009	2414
412.086	2598
412.163	1581
412.240	3492
412.317	3587
412.394	4271
412.471	2059
412.548	1031
412.625	2093
412.702	2520
412.779	5565
412.856	6038
412.933	1904
413.010	1691
413.087	1953
413.164	11151
413.241	41507
413.318	21301
413.395	5327
413.471	7404
413.548	7132
413.625	1575
413.702	2108
413.779	3325
413.855	1603
413.932	351
414.009	148
414.086	1809
414.162	1266
414.239	1633
414.316	9731
414.393	50320
414.469	47423
414.546	5830
414.623	1871
414.699	1597
414.776	2438
414.853	2894
414.929	1879
415.006	2113
415.082	2213
415.159	2440
415.236	2350
415.312	2057
415.389	3911
415.465	8322
415.542	7527
415.618	1918
415.695	4678
415.771	5007
415.848	3362
415.924	3116
416.000	2067
416.077	1641
416.153	417
416.230	530
416.306	266
416.383	1699
416.459	1333
416.535	1010
416.612	653
416.688	1616
416.764	1466
416.841	2054
416.917	1468
416.993	2325
417.069	2004
417.146	2905
417.222	4381
417.298	4786
417.374	1683
417.451	2433
417.527	2009
417.603	4849
417.679	3989
417.755	2610
417.831	996
417.908	874
417.984	824
418.060	1269
418.136	3480
418.212	11225
418.288	5891
418.364	2470
418.440	1515
418.516	3390
418.592	3883
418.668	7050
418.744	15297
418.820	19302
418.896	6147
418.972	1651
419.048	973
419.124	4535
419.200	9474
419.276	2991
419.352	925
419.428	1092
419.504	1082
419.579	3914
419.655	3171
419.731	2512
419.807	5143
419.883	19140
419.959	24295
420.034	8375
420.110	3969
420.186	20888
420.262	43902
420.337	12842
420.413	4632
420.489	4038
420.565	1588
420.640	1487
420.716	2776
420.792	1817
420.867	2914
420.943	2471
421.019	4395
421.094	7785
421.170	3972
421.245	2172
421.321	2976
421.397	3131
421.472	4068
421.548	10840
421.623	18130
421.699	9055
421.774	6238
421.850	5640
421.925	7780
422.001	11230
422.076	7513
422.152	7665
422.227	12521
422.302	17200
422.378	19509
422.453	33602
422.529	68524
422.604	191264
422.679	435635
422.755	441434
422.830	217402
422.905	75078
422.981	36664
423.056	22430
423.131	16195
423.207	11831
423.282	9638
423.357	12994
423.432	15545
423.508	9519
423.583	14564
423.658	25209
423.733	9904
423.808	6248
423.883	7266
423.959	8720
424.034	7055
424.109	7632
424.184	3961
424.259	3392
424.334	2994
424.409	2935
424.484	1583
424.559	3868
424.634	2389
424.709	3539
424.784	6816
424.859	5014
424.934	3489
425.009	12830
425.084	40423
425.159	36108
425.234	6773
425.309	3451
425.384	8956
425.459	39899
425.534	28184
425.609	4449
425.683	2450
425.758	2373
425.833	2490
425.908	3768
425.983	5715
426.058	33077
426.132	43156
426.207	8529
426.282	4025
426.357	4845
426.431	3167
426.506	2906
426.581	1759
426.655	2877
426.730	1926
426.805	2430
426.879	2780
426.954	2837
427.029	3833
427.103	16485
427.178	83518
427.253	102814
427.327	18834
427.402	5228
427.476	24538
427.551	37067
427.625	8225
427.700	3530
427.774	2255
427.849	2615
427.923	2399
427.998	1900
428.072	3019
428.147	5606
428.221	14347
428.296	75785
428.370	115255
428.444	25350
428.519	6092
428.593	8408
428.667	11540
428.742	9358
428.816	13162
428.890	26280
428.965	118134
429.039	94345
429.113	22241
429.188	11222
429.262	3872
429.336	3499
429.410	13181
429.485	22481
429.559	9012
429.633	10852
429.707	5317
429.781	5904
429.855	26822
429.930	108501
430.004	81862
430.078	42090
430.152	57264
430.226	79772
430.300	193191
430.374	78869
430.448	11861
430.522	9001
430.596	32961
430.670	51744
430.744	53152
430.818	196135
430.892	118580
430.966	14099
431.040	5360
431.114	3238
431.188	1552
431.262	2402
431.336	3241
431.410	3105
431.484	9761
431.557	19437
431.631	6423
431.705	3207
431.779	6726
431.853	51865
431.927	116954
432.000	34630
432.074	4470
432.148	3267
432.222	2369
432.295	2906
432.369	1636
432.443	2791
432.516	12773
432.590	83096
432.664	99106
432.737	16277
432.811	2850
432.885	1667
432.958	418
433.032	996
433.106	660
433.179	1035
433.253	1347
433.326	1417
433.400	782
433.473	863
433.547	354
433.620	1017
433.694	2834
433.767	6744
433.841	3572
433.914	2307
433.988	2764
434.061	2413
434.134	1816
434.208	1453
434.281	774
434.355	1039
434.428	1465
434.501	2674
434.575	1406
434.648	1229
434.721	1222
434.795	968
434.868	104
434.941	854
435.014	580
435.088	1299
435.161	3778
435.234	8170
435.307	9492
435.381	6919
435.454	3668
435.527	5892
435.600	6581
435.673	6112
435.746	3656
435.819	2894
435.892	1540
435.966	1376
436.039	1707
436.112	1741
436.185	358
436.258	-51
436.331	677
436.404	229
436.477	528
436.550	359
436.623	-151
436.696	690
436.769	1183
436.842	1455
436.915	1444
436.987	2332
437.060	2121
437.133	1673
437.206	11
437.279	1111
437.352	327
437.425	1102
437.498	1371
437.570	3479
437.643	6608
437.716	4666
437.789	1429
437.861	1973
437.934	7417
438.007	12120
438.080	3674
438.152	2565
438.225	3033
438.298	15359
438.370	112667
438.443	155183
438.516	36315
438.588	8790
438.661	2243
438.734	1292
438.806	1420
438.879	3323
438.951	3487
439.024	5764
439.096	4995
439.169	2103
439.241	1239
439.314	660
439.386	1269
439.459	3304
439.531	5338
439.604	6956
439.676	2164
439.749	715
439.821	734
439.893	984
439.966	649
440.038	2071
440.110	3475
440.183	2738
440.255	1723
440.327	2004
440.400	5781
440.472	48069
440.544	119058
440.617	38997
440.689	6241
440.761	5017
440.833	9164
440.905	11688
440.978	4591
441.050	316
441.122	1187
441.194	812
441.266	1919
441.338	1206
441.411	1449
441.483	9191
441.555	48715
441.627	37544
441.699	6824
441.771	4798
441.843	3167
441.915	2390
441.987	1260
442.059	2329
442.131	1969
442.203	3365
442.275	5061
442.347	6510
442.419	6194
442.491	16948
442.563	92109
442.635	124979
442.706	34402
442.778	21560
442.850	10946
442.922	3452
442.994	2856
443.066	4553
443.137	6442
443.209	5186
443.281	5012
443.353	9326
443.425	23222
443.496	121881
443.568	283933
443.640	192911
443.711	54330
443.783	11206
443.855	5131
443.926	3690
443.998	2582
444.070	3508
444.141	3106
444.213	4896
444.285	8219
444.356	8322
444.428	7366
444.499	4517
444.571	2169
444.642	1568
444.714	2055
444.785	5309
444.857	7316
444.928	7527
445.000	10985
445.071	6988
445.143	10704
445.214	12316
445.285	11388
445.357	20176
445.428	58599
445.500	250137
445.571	347679
445.642	195742
445.714	91145
445.785	34043
445.856	19630
445.928	10319
445.999	10065
446.070	7617
446.141	5402
446.213	7665
446.284	7649
446.355	4125
446.426	3141
446.497	2715
446.569	3079
446.640	4977
446.711	8836
446.782	6208
446.853	1827
446.924	4625
446.995	3178
447.066	3578
447.138	2740
447.209	4610
447.280	1095
447.351	615
447.422	55
447.493	621
447.564	2577
447.635	4776
447.706	7090
447.777	2733
447.847	725
447.918	-262
447.989	1861
448.060	2735
448.131	4441
448.202	7645
448.273	8036
448.344	6488
448.414	2051
448.485	2480
448.556	1467
448.627	742
448.698	1838
448.768	-61
448.839	-70
448.910	1598
448.981	4122
449.051	3159
449.122	1401
449.193	668
449.263	-168
449.334	815
449.405	764
449.475	4559
449.546	9943
449.616	6067
449.687	5338
449.758	3897
449.828	1362
449.899	1130
449.969	1161
450.040	1757
450.110	1218
450.181	2434
450.251	1869
450.322	1359
450.392	991
450.463	1319
450.533	1016
450.604	774
450.674	518
450.744	1265
450.815	636
450.885	929
450.955	903
451.026	1128
451.096	251
451.166	1260
451.237	2070
451.307	7351
451.377	9990
451.447	3221
451.518	1239
451.588	1404
451.658	1433
451.728	1286
451.799	3283
451.869	15416
451.939	10208
452.009	2801
452.079	234
452.149	1394
452.219	1042
452.289	5090
452.360	15085
452.430	8686
452.500	2003
452.570	3385
452.640	4549
452.710	10460
452.780	23425
452.850	22633
452.920	22633
452.990	19302
453.060	5381
453.129	3843
453.199	5757
453.269	7270
453.339	42103
453.409	76992
453.479	49313
453.549	62325
453.619	81195
453.688	71663
453.758	21826
453.828	2929
453.898	1794
453.968	1543
454.037	1530
454.087	1407
454.107	1337
454.168	2027
454.177	2113
454.247	1175
454.249	1214
454.316	1735
454.330	1693
454.386	1444
454.411	1823
454.456	2100
454.492	5757
454.525	8960
454.574	9491
454.595	9788
454.655	4347
454.665	3461
454.734	2810
454.736	2867
454.804	3267
454.817	4013
454.873	6259
454.898	9618
454.943	15503
454.979	14239
455.013	13326
455.060	8408
455.082	6299
455.141	3504
455.152	2941
455.221	5108
455.222	5281
455.291	12036
455.303	12852
455.360	16880
455.384	16358
455.430	14416
455.465	16037
455.499	17853
455.546	13685
455.569	11264
455.627	11568
455.638	11781
455.707	7445
455.708	7431
455.777	2150
455.789	2124
455.846	1915
455.869	1906
455.916	1835
455.950	1810
455.985	1748
456.031	2021
456.054	2064
456.112	2450
456.124	2571
456.193	2118
456.193	2097
456.262	1646
456.274	1877
456.332	2976
456.355	3188
456.401	3297
456.436	3662
456.470	3977
456.516	2752
456.540	2085
456.597	1505
456.609	1406
456.678	2136
456.678	2123
456.747	1932
456.759	1860
456.817	1224
456.840	1537
456.886	2230
456.920	2394
456.955	2607
457.001	2950
457.024	3240
457.082	3183
457.093	3083
457.162	4971
457.163	5003
457.232	5119
457.243	5178
457.301	5473
457.324	4526
457.370	3101
457.405	2853
457.439	2735
457.485	3117
457.508	3338
457.566	4548
457.577	4878
457.646	6430
457.647	6482
457.715	12308
457.727	13330
457.784	22344
457.808	27258
457.853	29812
457.889	36071
457.922	35784
457.969	30295
457.991	34887
458.050	38363
458.060	39632
458.129	57069
458.130	57941
458.198	48442
458.211	45240
458.267	39651
458.292	29752
458.336	21538
458.372	17664
458.405	19480
458.453	28158
458.474	36296
458.533	62380
458.543	63637
458.611	83460
458.614	84839
458.680	61686
458.694	50205
458.749	37031
458.775	26695
458.818	13404
458.855	9717
458.887	7034
458.936	6110
458.955	5805
459.016	5394
459.024	5349
459.093	5446
459.097	5464
459.162	5801
459.177	5990
459.230	6791
459.257	6972
459.299	6451
459.338	6702
459.368	7328
459.418	7564
459.437	7086
459.499	5853
459.505	5838
459.574	5220
459.579	5190
459.643	4948
459.659	4929
459.711	4762
459.740	4655
459.780	4816
459.820	5480
459.849	5864
459.900	6341
459.917	6479
459.981	6918
459.986	7004
460.054	8407
460.061	8559
460.123	7889
460.141	7664
460.191	9124
460.222	9895
460.260	10500
460.302	11830
460.328	10734
460.382	9277
460.397	9539
460.462	7815
460.465	7835
460.534	8938
460.543	9239
460.602	17617
460.623	20515
460.671	32317
460.703	41088
460.739	33306
460.783	28599
460.808	27033
460.864	13830
460.876	13410
460.944	6335
460.945	6250
461.013	5609
461.024	5728
461.081	6468
461.104	6853
461.150	6508
461.184	6023
461.218	6296
461.264	6878
461.286	6912
461.345	5815
461.355	5618
461.423	6006
461.425	6000
461.491	6815
461.505	6978
461.559	10056
461.585	11387
461.628	14583
461.665	18098
461.696	18906
461.745	21282
461.764	18906
461.825	11828
461.832	12232
461.901	9887
461.905	9769
461.969	6537
461.985	6396
462.037	5793
462.065	5215
462.105	5885
462.145	6619
462.173	8042
462.225	10873
462.241	11675
462.305	15444
462.310	15064
462.378	10066
462.385	9373
462.446	9537
462.465	8897
462.514	8063
462.545	8386
462.582	8251
462.625	8289
462.650	7615
462.705	5901
462.718	5961
462.785	6286
462.786	6305
462.854	6895
462.865	7125
462.922	8567
462.945	9167
462.990	8129
463.025	7267
463.058	6810
463.104	5450
463.126	5514
463.184	6039
463.194	6089
463.262	6330
463.264	6352
463.330	6056
463.344	5976
463.398	6155
463.424	6115
463.466	6001
463.504	5922
463.533	6156
463.583	6806
463.601	7145
463.663	7805
463.669	8012
463.737	10715
463.743	10954
463.805	12905
463.823	13513
463.873	18958
463.903	22168
463.940	22258
463.982	22692
464.008	18688
464.062	10851
464.076	10883
464.142	8100
464.144	8065
464.211	6696
464.221	6706
464.279	6785
464.301	6770
464.347	7454
464.381	8096
464.414	8819
464.461	9841
464.482	11600
464.540	16148
464.550	16525
464.617	19066
464.620	19143
464.685	14384
464.699	13204
464.753	13993
464.779	14320
464.820	14828
464.859	15328
464.888	14824
464.938	13900
464.956	13822
465.018	13329
465.023	13470
465.091	15404
465.098	15548
465.158	17196
465.177	17750
465.226	15413
465.257	13868
465.293	13377
465.336	12746
465.361	13931
465.416	16445
465.428	16757
465.495	18466
465.496	18530
465.563	24108
465.575	25034
465.631	27978
465.654	29316
465.698	20124
465.734	12592
465.765	12138
465.813	10363
465.833	10190
465.893	10091
465.900	10048
465.968	9905
465.972	9883
466.035	10165
466.052	10198
466.102	10336
466.131	10440
466.170	10934
466.210	11330
466.237	11509
466.290	11938
466.304	12090
466.369	12489
466.372	12501
466.439	12340
466.449	12277
466.506	14078
466.528	14775
466.573	18262
466.607	20767
466.641	27813
466.687	37616
466.708	40841
466.766	49472
466.775	46229
466.842	21609
466.845	20407
466.909	16830
466.925	15870
466.977	15093
467.004	14798
467.044	14967
467.083	15132
467.111	16502
467.163	18997
467.178	19686
467.242	22414
467.245	22320
467.312	19485
467.321	19074
467.379	18142
467.400	17749
467.446	18282
467.480	18609
467.559	16498
467.638	15362
467.717	15664
467.796	18492
467.875	21048
467.955	17773
468.034	23434
468.113	41724
468.192	57768
468.271	22359
468.350	22200
468.429	30014
468.508	32121
468.588	22156
468.667	16371
468.746	16304
468.825	15644
468.904	13554
468.983	15483
469.062	20650
469.141	23343
469.220	14847
469.299	13885
469.378	16277
469.456	19971
469.535	17747
469.614	16618
469.693	16876
469.772	18670
469.851	26045
469.930	19109
470.009	17404
470.088	19922
470.166	28499
470.245	51404
470.324	65445
470.403	37365
470.482	23150
470.560	18042
470.639	18892
470.718	23235
470.797	17099
470.875	18905
470.954	23361
471.033	21549
471.111	12311
471.190	12368
471.269	13019
471.347	13227
471.426	13390
471.505	14405
471.583	15770
471.662	15593
471.740	14107
471.819	16829
471.898	13475
471.976	13302
472.055	12658
472.133	14456
472.212	15891
472.290	17269
472.369	12326
472.447	12707
472.526	11792
472.604	13291
472.683	15605
472.761	16944
472.839	14865
472.918	13317
472.996	14247
473.075	14680
473.153	13937
473.231	12610
473.310	15168
473.388	15131
473.466	14853
473.545	16991
473.623	24517
473.701	24263
473.780	14656
473.858	14003
473.936	14336
474.014	13273
474.093	15435
474.171	18016
474.249	21806
474.327	16669
474.405	13773
474.484	12690
474.562	13493
474.640	12360
474.718	12452
474.796	13877
474.874	12537
474.952	11399
475.030	12389
475.108	12710
475.187	15010
475.265	16497
475.343	30963
475.421	32500
475.499	13892
475.577	15230
475.655	15942
475.733	23627
475.811	36363
475.889	33616
475.966	22256
476.044	14370
476.122	20380
476.200	30442
476.278	19527
476.356	10893
476.434	13969
476.512	18976
476.590	28118
476.667	20615
476.745	10955
476.823	12395
476.901	11214
476.979	11196
477.056	11796
477.134	11494
477.212	12210
477.290	11829
477.367	10481
477.445	10667
477.523	10528
477.601	10404
477.678	10666
477.756	11379
477.834	12221
477.911	10650
477.989	10252
478.066	10499
478.144	13032
478.222	19283
478.299	39282
478.377	30484
478.454	9838
478.532	10179
478.609	11928
478.687	12879
478.764	10636
478.842	12636
478.919	14841
478.997	12239
479.074	9550
479.152	11687
479.229	12516
479.307	9169
479.384	8756
479.461	8789
479.539	9498
479.616	11064
479.694	9876
479.771	11346
479.848	11047
479.926	12551
480.003	14048
480.080	11276
480.157	9006
480.235	9651
480.312	9697
480.389	9851
480.467	13924
480.544	17578
480.621	10611
480.698	11559
480.775	13239
480.853	10674
480.930	10110
481.007	10317
481.084	11186
481.161	12079
481.238	10762
481.315	8398
481.392	8934
481.470	8998
481.547	9914
481.624	9385
481.701	8385
481.778	9059
481.855	11202
481.932	14303
482.009	22100
482.086	16345
482.163	13980
482.240	25637
482.317	53091
482.393	32609
482.470	12286
482.547	11201
482.624	10332
482.701	11524
482.778	10663
482.855	9717
482.932	10984
483.009	9296
483.085	12156
483.162	15168
483.239	14753
483.316	13001
483.393	12670
483.469	11795
483.546	11590
483.623	10994
483.699	8806
483.776	10101
483.853	11246
483.930	15791
484.006	30373
484.083	53863
484.160	35730
484.236	56582
484.313	42302
484.389	32670
484.466	28997
484.543	29809
484.619	31425
484.696	33111
484.772	30742
484.849	30104
484.925	26350
485.002	25799
485.078	26905
485.155	27110
485.231	23376
485.308	23228
485.384	24640
485.461	27801
485.537	38097
485.614	42773
485.690	23907
485.766	23187
485.843	26518
485.919	40629
485.995	41472
486.072	22102
486.148	21620
486.224	23369
486.301	22482
486.377	24690
486.453	28216
486.530	24489
486.606	32774
486.682	34839
486.758	36938
486.835	40172
486.911	34940
486.987	55143
487.063	74811
487.139	109541
487.215	71992
487.292	29995
487.368	26311
487.444	30718
487.520	41216
487.596	45912
487.672	88148
487.748	257564
487.824	398624
487.900	102005
487.976	37803
488.052	31720
488.128	38112
488.204	30189
488.280	22771
488.356	26515
488.432	42336
488.508	62168
488.584	29914
488.660	24773
488.736	23940
488.812	25013
488.888	31100
488.964	46058
489.039	105835
489.115	165664
489.191	85486
489.267	23037
489.343	21135
489.418	18438
489.494	18917
489.570	18141
489.646	18088
489.722	18936
489.797	18538
489.873	24376
489.949	43986
490.024	38343
490.100	18330
490.176	19559
490.251	24970
490.327	36427
490.403	18723
490.478	17357
490.554	15154
490.629	16318
490.705	15355
490.781	18382
490.856	16973
490.932	20942
491.007	20148
491.083	20532
491.158	16359
491.234	20274
491.309	33397
491.385	34985
491.460	15548
491.536	17026
491.611	16503
491.686	19253
491.762	28525
491.837	65791
491.913	109312
491.988	146771
492.063	197135
492.139	37939
492.214	25280
492.289	15141
492.365	15587
492.440	18408
492.515	16218
492.590	16001
492.666	13265
492.741	17749
492.816	22952
492.891	14118
492.967	13676
493.042	12564
493.117	13569
493.192	13377
493.267	18997
493.342	38459
493.418	47918
493.493	15864
493.568	12654
493.643	14026
493.718	15863
493.793	24067
493.868	31594
493.943	20764
494.018	13657
494.093	12740
494.168	12552
494.243	12684
494.318	10054
494.393	11215
494.468	11330
494.543	12445
494.618	15880
494.693	12788
494.768	11410
494.842	12711
494.917	11338
494.992	14118
495.067	11582
495.142	9953
495.217	12674
495.292	12296
495.366	13556
495.441	16951
495.516	22351
495.591	40211
495.665	139775
495.740	356544
495.815	118077
495.890	18083
495.964	13855
496.039	13891
496.114	13807
496.188	14785
496.263	16232
496.338	12640
496.412	14818
496.487	17181
496.561	20785
496.636	21440
496.710	14300
496.785	15931
496.860	17681
496.934	14406
497.009	15632
497.083	15191
497.158	16620
497.232	18213
497.307	22365
497.381	17613
497.455	19145
497.530	22090
497.604	16698
497.679	16344
497.753	25141
497.827	33730
497.902	31412
497.976	36633
498.050	85442
498.125	300423
498.199	316266
498.273	63424
498.348	47404
498.422	36878
498.496	35792
498.570	31844
498.645	18352
498.719	17512
498.793	19459
498.867	30253
498.941	43801
499.016	112877
499.090	322851
499.164	107551
499.238	15968
499.312	16409
499.386	21412
499.460	18750
499.534	15541
499.609	19380
499.683	24031
499.757	23575
499.831	52324
499.905	196892
499.979	188368
500.053	28746
500.127	33117
500.201	32380
500.275	15425
500.349	14466
500.422	18354
500.496	31277
500.570	74434
500.644	124012
500.718	210283
500.792	44454
500.866	12280
500.940	14862
501.013	12682
501.087	15424
501.161	31775
501.235	39158
501.309	59030
501.382	161022
501.456	149277
501.530	35053
501.603	51306
501.677	20240
501.751	11224
501.825	13368
501.898	22554
501.972	61541
502.046	39251
502.119	14664
502.193	32159
502.266	71386
502.340	33899
502.413	28086
502.487	57803
502.561	33623
502.634	13707
502.708	15654
502.781	14512
502.855	10380
502.928	7903
503.002	8753
503.075	8232
503.149	7809
503.222	7663
503.295	8541
503.369	10564
503.442	15584
503.516	44439
503.589	116005
503.662	74500
503.736	24386
503.809	55551
503.882	49609
503.956	73268
504.029	91379
504.102	142206
504.175	203168
504.249	59074
504.322	22703
504.395	15912
504.468	11189
504.542	9722
504.615	8263
504.688	8293
504.761	9300
504.834	11983
504.907	16931
504.980	30846
505.053	12579
505.127	17963
505.200	17301
505.273	12615
505.346	7787
505.419	7623
505.492	6989
505.565	5693
505.638	6316
505.711	6062
505.784	6334
505.857	5468
505.930	6353
506.003	5801
506.076	6849
506.149	7924
506.221	10569
506.294	9855
506.367	26614
506.440	85525
506.513	50996
506.586	12037
506.659	8066
506.731	8387
506.804	12219
506.877	18741
506.950	10310
507.022	7951
507.095	8800
507.168	11395
507.241	8345
507.313	7626
507.386	9145
507.459	15077
507.531	9457
507.604	7202
507.677	6457
507.749	6260
507.822	11402
507.894	24633
507.967	27238
508.040	14325
508.112	12603
508.185	12430
508.257	12043
508.330	18894
508.402	11768
508.475	10086
508.547	10651
508.620	10273
508.692	14993
508.765	10668
508.837	8332
508.909	8719
508.982	8580
509.054	10769
509.127	8991
509.199	7938
509.271	7754
509.344	7972
509.416	7446
509.488	7675
509.560	8640
509.633	10778
509.705	11876
509.777	11477
509.849	16726
509.922	11412
509.994	7548
510.066	7862
510.138	10079
510.210	19560
510.283	18147
510.355	14518
510.427	13047
510.499	12717
510.571	12252
510.643	13428
510.715	22314
510.787	21071
510.859	12591
510.931	14900
511.003	22290
511.076	18756
511.148	10390
511.219	11623
511.291	13535
511.363	16038
511.435	9324
511.507	9101
511.579	9177
511.651	9435
511.723	8573
511.795	9619
511.867	9775
511.939	11320
512.010	18477
512.082	16567
512.154	11188
512.226	11624
512.298	17073
512.369	26854
512.441	20635
512.513	21961
512.585	15567
512.656	14818
512.728	16780
512.800	13274
512.871	12099
512.943	12277
513.015	11273
513.086	12369
513.158	14031
513.230	15202
513.301	23180
513.373	28205
513.444	15828
513.516	11732
513.588	11944
513.659	14099
513.731	18842
513.802	17770
513.874	36006
513.945	68273
514.016	21043
514.088	12147
514.159	15405
514.231	19642
514.302	25355
514.374	16790
514.445	16269
514.516	22974
514.588	18617
514.659	15037
514.730	22126
514.802	20926
514.873	18073
514.944	15611
515.016	16010
515.087	18515
515.158	18973
515.229	22818
515.301	16840
515.372	19489
515.443	13551
515.514	12864
515.585	11615
515.656	12174
515.728	12216
515.799	12188
515.870	12750
515.941	14276
516.012	14867
516.083	19488
516.154	22441
516.225	30083
516.296	26140
516.367	22942
516.438	29420
516.509	46198
516.580	92414
516.651	283405
516.722	977728
516.793	387659
516.864	52339
516.935	45113
517.006	60053
517.077	108825
517.148	301124
517.219	1047584
517.289	1667164
517.360	263000
517.431	65434
517.502	29463
517.573	25459
517.643	23603
517.714	24679
517.785	24823
517.856	26026
517.926	29992
517.997	37411
518.068	55531
518.138	97684
518.209	212184
518.280	706662
518.350	2309994
518.421	940256
518.492	94586
518.562	46742
518.633	44207
518.703	51141
518.774	92650
518.845	231061
518.915	230073
518.986	60606
519.056	37386
519.127	59099
519.197	79844
519.268	116064
519.338	69373
519.408	24053
519.479	35218
519.549	26680
519.620	16870
519.690	13238
519.760	13538
519.831	14223
519.901	14935
519.971	12178
520.042	12479
520.112	15014
520.182	19006
520.253	23421
520.323	23281
520.393	55056
520.463	110529
520.534	66006
520.604	160148
520.674	47350
520.744	47869
520.814	171312
520.885	130561
520.955	36977
521.025	106965
521.095	48105
521.165	11098
521.235	11004
521.305	10965
521.375	10647
521.445	13008
521.515	19522
521.585	20827
521.655	20445
521.725	15685
521.795	13298
521.865	9438
521.935	12168
522.005	11665
522.075	8209
522.145	10221
522.215	10899
522.285	14240
522.355	18150
522.424	30588
522.494	29602
522.564	23204
522.634	51228
522.704	149870
522.774	57959
522.843	11111
522.913	11913
522.983	16341
523.053	12443
523.122	13855
523.192	23453
523.262	79098
523.331	80905
523.401	12928
523.471	8993
523.540	9980
523.610	8383
523.680	7364
523.749	7432
523.819	8924
523.888	10013
523.958	8554
524.027	7720
524.097	8707
524.166	8852
524.236	11669
524.305	9905
524.375	8038
524.444	8251
524.514	8029
524.583	8826
524.653	10887
524.722	13274
524.791	11186
524.861	8822
524.930	8540
524.999	10321
525.069	14188
525.138	10223
525.207	11432
525.277	10142
525.346	10044
525.415	9297
525.484	11883
525.554	11310
525.623	11671
525.692	11016
525.761	12120
525.830	14290
525.900	19825
525.969	35170
526.038	74837
526.107	156816
526.176	447327
526.245	375403
526.314	111919
526.383	227471
526.452	348503
526.522	480311
526.591	512243
526.660	104611
526.729	52408
526.797	68780
526.867	159520
526.935	554107
527.004	1058194
527.073	636490
527.142	49737
527.211	20583
527.280	20159
527.349	19969
527.418	11622
527.487	11218
527.555	11384
527.624	10273
527.693	8710
527.762	8546
527.831	7700
527.899	8020
527.968	7451
528.037	8364
528.106	11079
528.174	22624
528.243	16526
528.312	21281
528.380	33710
528.449	9959
528.518	7169
528.586	5852
528.655	5297
528.723	6209
528.792	6166
528.861	6952
528.929	5452
528.998	5715
529.066	5298
529.135	4703
529.203	5857
529.272	5474
529.340	6732
529.409	6930
529.477	6166
529.545	7884
529.614	10936
529.682	15975
529.751	15103
529.819	19544
529.887	12763
529.956	6763
530.024	7069
530.092	7150
530.161	9229
530.229	16552
530.297	9301
530.365	5807
530.434	5322
530.502	5625
530.570	5493
530.638	4825
530.707	6553
530.775	7756
530.843	5032
530.911	5053
530.979	5421
531.047	5648
531.115	4857
531.183	5951
531.252	5820
531.320	5926
531.388	5465
531.456	6138
531.524	4918
531.592	6091
531.660	6371
531.728	4999
531.796	5594
531.864	5760
531.932	5707
532.000	5256
532.067	6561
532.135	7801
532.203	8677
532.271	12097
532.339	21476
532.407	59204
532.475	35476
532.542	12492
532.610	17425
532.678	35192
532.746	107371
532.814	288699
532.881	76591
532.949	12544
533.017	9095
533.084	7462
533.152	7100
533.220	7525
533.287	9472
533.355	7189
533.423	6449
533.490	6588
533.558	6954
533.625	7110
533.693	7948
533.761	7656
533.828	8416
533.896	9111
533.963	19928
534.031	26388
534.098	35434
534.166	18018
534.233	8432
534.300	10350
534.368	10056
534.435	10491
534.503	11799
534.570	21145
534.637	16497
534.705	17248
534.772	26639
534.840	61341
534.907	187945
534.974	272214
535.041	29068
535.109	12895
535.176	9359
535.243	8514
535.310	9393
535.378	9689
535.445	7421
535.512	8846
535.579	7582
535.646	8468
535.714	9215
535.781	11050
535.848	10745
535.915	9521
535.982	8412
536.049	9797
536.116	9985
536.183	9993
536.250	9497
536.317	10826
536.384	13272
536.451	19541
536.518	21266
536.585	14624
536.652	16266
536.719	24754
536.786	21937
536.853	15406
536.920	22992
536.987	40601
537.053	47494
537.120	127941
537.187	127374
537.254	15374
537.321	10312
537.388	12226
537.454	10377
537.521	9628
537.588	9351
537.654	11183
537.721	13703
537.788	13933
537.855	11064
537.921	11456
537.988	10701
538.055	10900
538.121	11222
538.188	12706
538.254	18754
538.321	39382
538.388	26305
538.454	12212
538.521	10981
538.587	11049
538.654	10720
538.720	10646
538.787	10028
538.853	11514
538.920	13790
538.986	12936
539.053	10758
539.119	12496
539.185	13704
539.252	14478
539.318	23530
539.385	17795
539.451	15481
539.517	16160
539.583	21127
539.650	38607
539.716	101759
539.782	33544
539.849	13334
539.915	11838
539.981	13598
540.047	16246
540.114	13143
540.180	12957
540.246	14558
540.312	20606
540.378	39017
540.444	45474
540.510	42189
540.576	113790
540.643	42669
540.709	12728
540.775	12705
540.841	13703
540.907	19200
540.973	40154
541.039	29411
541.105	24818
541.171	14472
541.237	12593
541.303	13454
541.369	15851
541.435	20937
541.500	34478
541.566	25158
541.632	11899
541.698	10649
541.764	11259
541.830	10869
541.896	10572
541.961	10446
542.027	13097
542.093	12902
542.159	13321
542.224	14424
542.290	20794
542.356	32945
542.421	43005
542.487	17665
542.553	12430
542.618	13397
542.684	12424
542.750	14127
542.815	19137
542.881	31847
542.947	90374
543.012	81054
543.078	12840
543.143	11428
543.209	13375
543.274	14765
543.340	17499
543.405	34234
543.471	62924
543.536	15959
543.602	11735
543.667	10744
543.732	11692
543.798	11433
543.863	12297
543.928	11284
543.994	10537
544.059	10681
544.124	11971
544.190	11986
544.255	12148
544.320	12714
544.386	14261
544.451	18926
544.516	24655
544.581	27109
544.646	56235
544.712	99400
544.777	22813
544.842	13578
544.907	14031
544.972	13193
545.037	12921
545.102	13069
545.168	14027
545.233	15545
545.298	15217
545.363	19211
545.428	24418
545.493	36737
545.558	81293
545.623	38270
545.688	15347
545.753	14698
545.818	15687
545.883	15601
545.947	15473
546.012	15589
546.077	17377
546.142	17506
546.207	19210
546.272	23670
546.337	26093
546.401	20565
546.466	19831
546.531	19881
546.596	21898
546.661	21869
546.725	21488
546.790	21831
546.855	23167
546.919	25405
546.984	28110
547.049	30795
547.113	34196
547.178	37266
547.243	41219
547.307	48377
547.372	53819
547.436	56865
547.501	54384
547.565	60286
547.630	60125
547.695	56624
547.759	54513
547.823	54300
547.888	52961
547.952	56155
548.017	57597
548.081	60081
548.146	63329
548.210	62638
548.274	62746
548.339	62152
548.403	55559
548.468	53289
548.532	52121
548.596	53091
548.660	55316
548.725	59114
548.789	65993
548.853	65795
548.917	59505
548.982	59292
549.046	56116
549.110	48251
549.174	48449
549.238	55256
549.303	60221
549.367	63673
549.431	60151
549.495	55867
549.559	56446
549.623	64326
549.687	75203
549.751	80838
549.815	83785
549.879	84640
549.943	79647
550.007	83341
550.071	84757
550.135	81878
550.199	72104
550.263	69266
550.327	66585
550.391	69682
550.455	73993
550.519	79493
550.582	84801
550.646	100387
550.710	105074
550.774	94631
550.838	94821
550.901	95881
550.965	104785
551.029	108516
551.093	119868
551.156	132545
551.220	158027
551.284	196944
551.347	143061
551.411	119883
551.475	122651
551.538	103434
551.602	94973
551.666	88484
551.729	83939
551.793	81633
551.856	79153
551.920	78017
551.983	77465
552.047	77637
552.110	78771
552.174	77437
552.237	79694
552.301	73830
552.364	69828
552.428	70654
552.491	73063
552.554	74671
552.618	74723
552.681	81185
552.745	86102
552.808	110657
552.871	147599
552.934	100680
552.998	77460
553.061	72630
553.124	69125
553.187	68185
553.251	69933
553.314	72177
553.377	70514
553.440	77057
553.503	84444
553.567	93831
553.630	77267
553.693	74058
553.756	73761
553.819	71321
553.882	69001
553.945	70032
554.008	68791
554.071	70693
554.134	71121
554.197	66121
554.260	64106
554.323	66443
554.386	68587
554.449	70580
554.512	70523
554.575	67182
554.638	66323
554.701	65833
554.764	64229
554.827	61523
554.889	59795
554.952	56062
555.015	54500
555.078	56479
555.141	57794
555.203	56307
555.266	55617
555.329	55992
555.391	53998
555.454	54117
555.517	53633
555.580	49099
555.642	47919
555.705	47955
555.768	47082
555.830	46353
555.893	43704
555.955	42006
556.018	41801
556.080	43815
556.143	44425
556.206	42161
556.268	42770
556.330	41956
556.393	41323
556.455	40997
556.518	42168
556.580	44076
556.643	37666
556.705	36083
556.767	35507
556.830	36833
556.892	38303
556.955	45710
557.017	41482
557.079	34721
557.142	35567
557.204	37547
557.266	51283
557.328	48257
557.391	29986
557.453	27858
557.515	28745
557.577	31859
557.639	32897
557.701	29592
557.764	27426
557.826	27216
557.888	31608
557.950	34720
558.012	42791
558.074	63662
558.136	107557
558.198	282144
558.260	125170
558.322	32766
558.384	32015
558.446	35261
558.508	42213
558.570	57714
558.632	90308
558.694	161319
558.756	226163
558.818	452716
558.880	1205360
558.942	505194
559.003	280089
559.065	170648
559.127	49241
559.189	56054
559.251	78502
559.312	134235
559.374	241875
559.436	733649
559.498	495727
559.559	63638
559.621	56788
559.683	83504
559.744	140621
559.806	321138
559.868	619657
559.929	141070
559.991	69611
560.052	102565
560.114	262555
560.176	225785
560.237	138089
560.299	273288
560.360	73025
560.422	21591
560.483	19369
560.545	17826
560.606	17148
560.667	16635
560.729	14839
560.790	14990
560.852	15202
560.913	14938
560.974	15501
561.036	13968
561.097	14377
561.158	14109
561.220	15673
561.281	14452
561.342	16479
561.403	20875
561.465	26765
561.526	45097
561.587	71548
561.648	23038
561.709	14850
561.771	13953
561.832	12857
561.893	13066
561.954	13363
562.015	12747
562.076	11751
562.137	12545
562.198	12907
562.259	13340
562.320	14097
562.381	14957
562.442	20227
562.503	18813
562.564	12565
562.625	12130
562.686	12046
562.747	13445
562.808	14353
562.869	11797
562.930	12825
562.991	12308
563.051	11709
563.112	11194
563.173	11135
563.234	11695
563.294	11708
563.355	12015
563.416	12907
563.477	11537
563.537	10902
563.598	13118
563.659	12042
563.720	12527
563.780	13115
563.841	12649
563.901	11644
563.962	11086
564.023	11561
564.083	11663
564.144	11863
564.204	12104
564.265	12270
564.325	13278
564.386	17940
564.446	19334
564.507	11151
564.567	10967
564.628	10720
564.688	11079
564.749	11270
564.809	11626
564.869	14301
564.930	11530
564.990	11755
565.050	10996
565.111	10833
565.171	10896
565.231	11801
565.292	10628
565.352	9958
565.412	11646
565.472	12309
565.532	12836
565.593	12257
565.653	11034
565.713	12290
565.773	13853
565.833	14709
565.893	20494
565.953	13168
566.013	11013
566.074	12831
566.134	13171
566.194	16756
566.254	21195
566.314	14735
566.374	12020
566.434	11879
566.494	11606
566.554	11697
566.614	13008
566.673	12630
566.733	12858
566.793	12589
566.853	13147
566.913	12845
566.973	14270
567.033	14444
567.092	15229
567.152	13897
567.212	14749
567.272	14139
567.331	14411
567.391	14369
567.451	15758
567.511	17203
567.570	18415
567.630	14220
567.690	13453
567.749	13176
567.809	13382
567.868	14927
567.928	16590
567.988	19058
568.047	21448
568.107	25603
568.166	33620
568.226	47251
568.285	68738
568.345	57755
568.404	42119
568.464	36113
568.523	33378
568.582	35358
568.642	42427
568.701	53694
568.761	70690
568.820	111816
568.879	112839
568.939	76726
568.998	53867
569.057	39861
569.116	32191
569.176	27160
569.235	23301
569.294	21192
569.353	19264
569.413	18103
569.472	16937
569.531	15477
569.590	14474
569.649	13733
569.708	14259
569.767	14415
569.827	16896
569.886	15335
569.945	13201
570.004	13932
570.063	13439
570.122	14609
570.181	14486
570.240	14962
570.299	14400
570.358	15394
570.417	12594
570.475	12235
570.534	13905
570.593	13871
570.652	13041
570.711	14896
570.770	13648
570.829	13795
570.887	14356
570.946	16322
571.005	13547
571.064	13573
571.122	15730
571.181	15520
571.240	12757
571.299	11188
571.357	10687
571.416	11840
571.475	11793
571.533	13177
571.592	12314
571.650	12108
571.709	11573
571.768	12461
571.826	13558
571.885	11071
571.943	10627
572.002	10261
572.060	10696
572.119	9642
572.177	10415
572.236	9460
572.294	9821
572.352	10237
572.411	10821
572.469	9839
572.528	10777
572.586	10078
572.644	11632
572.703	14635
572.761	11460
572.819	9908
572.877	9305
572.936	8317
572.994	9071
573.052	9141
573.110	9777
573.169	10034
573.227	10399
573.285	9279
573.343	8772
573.401	9135
573.459	8963
573.517	8624
573.576	10638
573.634	10222
573.692	9988
573.750	10666
573.808	10139
573.866	9419
573.924	11106
573.982	11138
574.040	10131
574.098	10288
574.155	9133
574.213	8589
574.271	8568
574.329	10300
574.387	9347
574.445	8305
574.503	8417
574.560	9098
574.618	8269
574.676	8802
574.734	8427
574.792	8972
574.849	8460
574.907	7801
574.965	8117
575.022	8014
575.080	7212
575.138	8069
575.195	8851
575.253	9087
575.311	10401
575.368	8736
575.426	7448
575.483	7418
575.541	7857
575.598	7979
575.656	7315
575.713	8195
575.771	8568
575.828	8449
575.886	8459
575.943	8313
576.001	7710
576.058	8477
576.115	8647
576.173	9434
576.230	10768
576.287	13318
576.345	12216
576.402	9418
576.459	9630
576.517	8803
576.574	9537
576.631	8743
576.688	8128
576.746	7975
576.803	7116
576.860	8407
576.917	7894
576.974	8014
577.031	7746
577.089	7810
577.146	7885
577.203	8425
577.260	8884
577.317	9340
577.374	9783
577.431	9096
577.488	8204
577.545	8591
577.602	8691
577.659	7776
577.716	7191
577.773	7857
577.830	7686
577.886	7119
577.943	7330
578.000	8156
578.057	8308
578.114	8673
578.171	7968
578.227	8730
578.284	8340
578.341	8714
578.398	8418
578.454	8959
578.511	9179
578.568	10773
578.625	9435
578.681	7838
578.738	7553
578.794	8102
578.851	9168
578.908	8674
578.964	8831
579.021	9208
579.077	8573
579.134	8760
579.190	8246
579.247	6990
579.303	8646
579.360	7057
579.416	8751
579.473	7308
579.529	7570
579.586	7502
579.642	7677
579.698	7527
579.755	8862
579.811	8185
579.867	8639
579.924	6843
579.980	7553
580.036	8345
580.093	8441
580.149	8687
580.205	9292
580.261	8660
580.317	9144
580.374	9035
580.430	10715
580.486	10497
580.542	8551
580.598	8829
580.619	8727
580.654	8559
580.692	9039
580.710	9291
580.765	9735
580.767	9759
580.823	9175
580.838	9099
580.879	8927
580.911	9092
580.935	9224
580.984	8953
580.991	8923
581.047	8977
581.057	8861
581.103	8351
581.130	8560
581.159	8810
581.203	9813
581.215	10086
581.270	8714
581.276	8689
581.326	8502
581.349	8376
581.382	8210
581.422	8429
581.438	8525
581.494	9189
581.494	9189
581.550	9671
581.567	9440
581.606	8973
581.640	9549
581.661	9877
581.713	9121
581.717	9068
581.773	8983
581.786	8881
581.829	8537
581.859	8288
581.885	8087
581.932	8938
581.940	9105
581.996	8394
582.004	8437
582.052	8656
582.077	8665
582.107	8660
582.150	8765
582.163	8810
582.219	8456
582.223	8461
582.274	8544
582.296	8723
582.330	8976
582.368	9697
582.386	10095
582.441	9121
582.441	9121
582.497	8608
582.514	8795
582.552	9197
582.587	8902
582.608	8818
582.659	9542
582.663	9588
582.719	9249
582.732	9279
582.774	9415
582.805	9206
582.830	9020
582.877	9373
582.885	9427
582.941	9190
582.950	9240
582.996	9531
583.023	9713
583.052	9927
583.095	10212
583.107	10306
583.162	9603
583.168	9654
583.218	9997
583.240	9718
583.273	9380
583.313	9752
583.328	9856
583.384	10159
583.385	10130
583.439	9290
583.458	9516
583.494	9948
583.531	9514
583.549	9312
583.603	9724
583.605	9738
583.660	9509
583.676	9497
583.715	9292
583.748	9470
583.770	9764
583.820	10248
583.825	10266
583.881	9792
583.893	9815
583.936	10068
583.965	10258
583.991	10312
584.038	10178
584.046	10206
584.101	10992
584.110	10943
584.156	10316
584.183	10210
584.211	10335
584.255	10969
584.266	11043
584.321	10417
584.328	10438
584.376	10925
584.400	10903
584.431	10815
584.472	11130
584.486	11205
584.541	11700
584.545	11664
584.596	11254
584.617	11371
584.651	11491
584.689	11923
584.706	12142
584.761	12410
584.762	12407
584.816	12275
584.834	12504
584.871	12920
584.906	13044
584.926	13011
584.978	13439
584.980	13464
585.035	13327
585.051	13715
585.090	14867
585.123	15266
585.145	15701
585.195	17155
585.200	17313
585.254	19212
585.267	19902
585.309	22505
585.340	25103
585.364	27288
585.412	34241
585.419	35039
585.473	44119
585.484	47089
585.528	61539
585.556	73693
585.583	88097
585.628	113852
585.637	125142
585.692	231809
585.700	262624
585.747	484560
585.772	484095
585.801	378348
585.845	201513
585.856	157446
585.910	52762
585.917	41945
585.965	31818
585.989	28030
586.019	25676
586.061	22491
586.074	21906
586.128	21600
586.133	21505
586.183	21453
586.205	21583
586.237	21993
586.277	21821
586.292	21494
586.346	20946
586.349	20891
586.401	20163
586.421	20661
586.455	22118
586.493	22611
586.509	22842
586.564	23783
586.565	23869
586.618	31348
586.637	33509
586.672	36418
586.709	35353
586.727	32862
586.781	29334
586.781	29345
586.835	27052
586.853	26417
586.889	24697
586.925	23190
586.944	22899
586.996	23010
586.998	23035
587.052	23515
587.068	23551
587.106	24064
587.140	24744
587.161	24796
587.212	25018
587.215	25088
587.269	25660
587.284	25996
587.323	26951
587.356	27666
587.377	28022
587.427	28872
587.431	28972
587.485	30301
587.499	30551
587.539	31377
587.571	32057
587.593	32793
587.643	34936
587.648	35102
587.702	36087
587.715	36506
587.755	38390
587.786	39736
587.810	40988
587.858	43059
587.864	43288
587.917	45361
587.930	45958
587.971	48978
588.001	51263
588.025	53545
588.073	57679
588.079	58243
588.133	64027
588.145	65205
588.187	71230
588.217	75933
588.241	80744
588.288	90656
588.295	92335
588.348	107254
588.360	110514
588.402	125328
588.431	136732
588.456	147027
588.503	169333
588.510	173468
588.564	211463
588.575	221059
588.617	263450
588.646	296477
588.671	331895
588.718	411008
588.725	428413
588.778	577943
588.789	612897
588.832	849645
588.861	1030775
588.886	1286394
588.932	1779791
588.939	1833358
588.993	2075706
589.004	2129605
589.047	2043745
589.075	1928660
589.100	1665433
589.147	1137874
589.154	1080538
589.207	683021
589.218	607609
589.261	518632
589.290	467197
589.314	465711
589.361	475177
589.368	486087
589.421	590643
589.433	618122
589.475	872668
589.504	1071839
589.528	1341166
589.576	1824435
589.582	1837320
589.635	1839364
589.647	1821460
589.689	1342763
589.718	1003598
589.742	789521
589.790	400678
589.795	385902
589.849	259279
589.861	231274
589.902	192154
589.932	164536
589.955	152135
590.004	125760
590.009	123750
590.062	102655
590.075	97460
590.115	88645
590.146	82157
590.168	79479
590.218	72878
590.222	72470
590.275	67277
590.289	65749
590.328	62948
590.360	60587
590.381	58818
590.431	54689
590.435	54553
590.488	51318
590.503	50384
590.541	49005
590.574	47920
590.594	47653
590.645	46502
590.647	46433
590.700	43402
590.716	42396
590.753	42220
590.787	41984
590.806	41462
590.859	40069
590.859	40098
590.912	39010
590.930	38628
590.965	38500
591.001	38459
591.018	38315
591.071	37373
591.072	37320
591.124	37085
591.143	36899
591.177	36924
591.214	37067
591.230	37007
591.283	36500
591.285	36439
591.336	37634
591.356	38080
591.389	38244
591.427	38100
591.442	37610
591.495	35647
591.498	35457
591.547	33907
591.569	33185
591.600	33489
591.640	33748
591.653	33599
591.706	32795
591.711	32660
591.759	32179
591.782	31904
591.811	32994
591.853	34611
591.864	34805
591.917	35381
591.924	35390
591.969	34212
591.995	33548
592.022	33230
592.066	32610
592.075	32856
592.127	34070
592.137	34249
592.180	35778
592.208	36714
592.233	37039
592.279	37365
592.285	37122
592.338	34589
592.350	33962
592.390	33424
592.421	32911
592.443	33035
592.491	33192
592.495	33263
592.548	33588
592.562	33629
592.600	33404
592.633	33133
592.653	33186
592.704	33024
592.705	33213
592.775	33195
592.846	33598
592.916	34582
592.987	36834
593.058	37837
593.128	34261
593.199	33685
593.270	33520
593.341	32589
593.411	34326
593.482	36559
593.553	35974
593.623	33670
593.694	35685
593.764	36901
593.835	35137
593.906	35100
593.976	35768
594.047	37034
594.117	38145
594.188	42718
594.258	38554
594.329	37557
594.399	36599
594.470	38901
594.540	39170
594.611	39613
594.681	39574
594.751	39613
594.822	41750
594.892	43898
594.963	45900
595.033	44617
595.103	44944
595.174	46068
595.244	50597
595.314	59181
595.384	56398
595.455	46257
595.525	49384
595.595	50155
595.665	50994
595.736	50518
595.806	50451
595.876	52026
595.946	52174
596.016	51687
596.087	52648
596.157	54722
596.227	54396
596.297	55405
596.367	57678
596.437	61914
596.507	66662
596.577	71591
596.647	70855
596.717	66092
596.787	68903
596.857	69521
596.927	67787
596.997	68840
597.067	69192
597.137	69835
597.207	71420
597.277	73336
597.347	71059
597.417	67310
597.487	67341
597.557	69718
597.626	70009
597.696	71796
597.766	72682
597.836	75723
597.906	73933
597.975	62474
598.045	60954
598.115	64231
598.185	66438
598.254	72080
598.324	80537
598.394	86974
598.464	88032
598.533	83239
598.603	79332
598.672	74870
598.742	75117
598.812	74912
598.881	74539
598.951	76144
599.020	75724
599.090	76377
599.159	79450
599.229	79405
599.299	75401
599.368	74236
599.437	78308
599.507	75340
599.576	69554
599.646	68072
599.715	68929
599.785	67260
599.854	66187
599.924	65986
599.993	65137
600.062	63480
600.132	65081
600.201	66836
600.270	73821
600.340	84866
600.409	83980
600.478	81005
600.547	81129
600.617	84916
600.686	69529
600.755	59853
600.824	57211
600.894	55330
600.963	52096
601.032	51171
601.101	50355
601.170	48746
601.239	46340
601.308	47508
601.378	50270
601.447	45787
601.516	45790
601.585	48099
601.654	50816
601.723	53111
601.792	46654
601.861	48929
601.930	51711
601.999	55726
602.068	55988
602.137	54430
602.206	61291
602.275	55900
602.343	57232
602.412	64081
602.481	58436
602.550	54170
602.619	55894
602.688	57226
602.756	58596
602.825	57777
602.894	57063
602.963	60033
603.032	60399
603.100	60703
603.169	60134
603.238	59235
603.307	60994
603.375	60709
603.444	60885
603.513	62624
603.581	64874
603.650	66131
603.719	65658
603.787	65106
603.856	68157
603.924	69182
603.993	73639
604.061	74210
604.130	76528
604.198	81006
604.267	81543
604.335	83117
604.404	82242
604.472	85525
604.541	84659
604.609	85802
604.678	86032
604.746	86550
604.815	87926
604.883	90079
604.951	91533
605.020	91440
605.088	94988
605.156	95342
605.225	97809
605.293	99898
605.361	98265
605.429	97926
605.498	102094
605.566	103581
605.634	108269
605.702	110861
605.771	116012
605.839	117831
605.907	116197
605.975	113648
606.043	109455
606.111	108618
606.180	107872
606.248	107779
606.316	108101
606.384	106207
606.452	108790
606.520	114504
606.588	122718
606.656	114475
606.724	115926
606.792	110232
606.860	102808
606.928	91325
606.996	83897
607.064	81896
607.132	81808
607.200	84585
607.267	89698
607.335	90352
607.403	95923
607.471	94500
607.539	91285
607.607	90019
607.674	85229
607.742	79256
607.810	80780
607.878	80699
607.946	80642
608.013	82023
608.081	87214
608.149	89049
608.216	88423
608.284	91688
608.352	92700
608.419	92857
608.487	92206
608.555	94298
608.622	89382
608.690	91426
608.757	100311
608.825	108588
608.893	109641
608.960	108786
609.028	105472
609.095	100598
609.163	100718
609.230	94029
609.298	81828
609.365	79138
609.432	85389
609.500	92587
609.567	100454
609.635	116763
609.702	133343
609.769	134996
609.837	124426
609.904	96314
609.971	89901
610.039	98544
610.106	119754
610.173	185460
610.241	426104
610.308	822414
610.375	384486
610.442	170809
610.509	104037
610.577	93245
610.644	91303
610.711	91413
610.778	95147
610.845	96190
610.912	101485
610.980	108907
611.047	111363
611.114	111572
611.181	107485
611.248	103666
611.315	104448
611.382	109243
611.449	113616
611.516	117824
611.583	117477
611.650	116407
611.717	118659
611.784	120426
611.851	126325
611.918	135781
611.984	153464
612.051	196841
612.118	329113
612.185	783202
612.252	1653445
612.319	513905
612.386	180621
612.452	156002
612.519	141476
612.586	136591
612.653	137485
612.719	137453
612.786	139133
612.853	130476
612.919	119783
612.986	120772
613.053	119775
613.120	112183
613.186	104204
613.253	103397
613.319	102703
613.386	102506
613.453	104611
613.519	108910
613.586	110971
613.652	122472
613.719	126813
613.785	121144
613.852	112874
613.918	108601
613.985	106480
614.051	111200
614.118	119540
614.184	137635
614.250	116427
614.317	107969
614.383	105573
614.449	107355
614.516	109302
614.582	108998
614.648	107813
614.715	105010
614.781	106767
614.847	104338
614.914	105137
614.980	102057
615.046	100638
615.112	100313
615.179	104752
615.245	105169
615.311	106315
615.377	111866
615.443	127859
615.509	120404
615.575	114186
615.642	114179
615.708	113888
615.774	120437
615.840	127517
615.906	140038
615.972	166218
616.038	238655
616.104	433043
616.170	930890
616.236	2151718
616.302	942823
616.368	258620
616.434	200288
616.500	147965
616.565	143288
616.631	173436
616.697	197361
616.763	155035
616.829	184084
616.895	317555
616.961	528977
617.026	364783
617.092	146032
617.158	116049
617.224	108975
617.289	105933
617.355	98714
617.421	93840
617.487	93524
617.552	90404
617.618	85390
617.684	87448
617.749	85968
617.815	85251
617.880	82478
617.946	81549
618.012	79994
618.077	85211
618.143	83966
618.208	79996
618.274	82380
618.339	90811
618.405	84120
618.470	71050
618.536	72799
618.601	73181
618.667	72316
618.732	65838
618.798	63135
618.863	62538
618.928	61469
618.994	61929
619.059	64794
619.124	70409
619.190	78184
619.255	63314
619.320	59978
619.386	62358
619.451	62261
619.516	59520
619.581	58703
619.647	59917
619.712	62467
619.777	60912
619.842	57546
619.907	59867
619.972	62266
620.038	62608
620.103	61138
620.168	58416
620.233	59524
620.298	59461
620.363	59051
620.428	60677
620.493	62696
620.558	64577
620.623	64529
620.688	64579
620.753	64511
620.818	65041
620.883	65151
620.948	66363
621.013	65229
621.078	65779
621.143	64121
621.207	67060
621.272	66927
621.337	66535
621.402	64578
621.467	65131
621.532	67423
621.596	65931
621.661	64078
621.726	59762
621.791	60635
621.855	61620
621.920	63543
621.985	63921
622.049	65388
622.114	65694
622.179	65176
622.243	64109
622.308	67532
622.373	68387
622.437	70256
622.502	66769
622.566	63708
622.631	63402
622.695	63866
622.760	65355
622.824	64282
622.889	64345
622.953	67262
623.018	72376
623.082	94737
623.147	79922
623.211	70260
623.276	68689
623.340	69215
623.404	62649
623.469	62126
623.533	61878
623.597	61945
623.662	59770
623.726	59894
623.790	55268
623.854	51941
623.919	51946
623.983	52663
624.047	53973
624.111	54003
624.176	53862
624.240	55424
624.304	60302
624.368	59521
624.432	55923
624.496	55192
624.560	59911
624.625	66736
624.689	66665
624.753	60517
624.817	64158
624.881	57825
624.945	57764
625.009	51332
625.073	50771
625.137	53458
625.201	59786
625.265	67943
625.329	61145
625.393	55061
625.456	57919
625.520	56651
625.584	59128
625.648	63161
625.712	66120
625.776	80345
625.839	110524
625.903	102132
625.967	53611
626.031	50433
626.095	66846
626.158	77360
626.222	52749
626.286	41534
626.349	37992
626.413	38170
626.477	36921
626.540	38158
626.604	36835
626.668	36268
626.731	34714
626.795	34275
626.858	34883
626.922	35090
626.986	34560
627.049	34574
627.113	34906
627.176	35059
627.240	33734
627.303	33842
627.366	33445
627.430	33707
627.493	34337
627.557	33227
627.620	33259
627.684	33810
627.747	35405
627.810	34699
627.874	32448
627.937	29066
628.000	29046
628.064	30971
628.127	28311
628.190	26056
628.253	26002
628.317	26250
628.380	24788
628.443	23901
628.506	23541
628.569	24241
628.632	22123
628.696	21178
628.759	20871
628.822	20833
628.885	19850
628.948	20050
629.011	19827
629.074	20471
629.137	20349
629.200	18464
629.263	19363
629.326	19831
629.389	18490
629.452	19505
629.515	18284
629.578	17900
629.641	18872
629.704	19987
629.767	19965
629.830	18607
629.892	17136
629.955	17087
630.018	18181
630.081	18881
630.144	23755
630.207	24778
630.269	20923
630.332	19017
630.395	19427
630.458	17475
630.520	16976
630.583	17937
630.646	16485
630.708	16372
630.771	16585
630.834	17666
630.896	17624
630.959	17018
631.021	17318
631.084	17067
631.146	17576
631.209	18651
631.272	17650
631.334	17170
631.397	17977
631.459	18167
631.522	19013
631.584	19995
631.646	21837
631.709	21974
631.771	24874
631.834	27752
631.896	21846
631.958	19562
632.021	18295
632.083	16866
632.145	16743
632.208	17537
632.270	17623
632.332	16819
632.395	16387
632.457	16595
632.519	16411
632.581	16243
632.643	15272
632.706	15600
632.768	15409
632.830	15749
632.892	15250
632.954	16260
633.016	16557
633.078	16421
633.141	16112
633.203	15667
633.265	16407
633.327	15334
633.389	15840
633.451	16026
633.513	18964
633.575	22532
633.637	19778
633.698	23034
633.760	19299
633.822	17700
633.884	18441
633.946	18268
634.008	18900
634.070	19589
634.132	21165
634.193	22481
634.255	25363
634.317	26359
634.379	26793
634.441	25779
634.502	22819
634.564	20342
634.626	18317
634.687	16866
634.749	16960
634.811	16423
634.873	15427
634.934	15136
634.996	15259
635.057	15458
635.119	14910
635.181	15856
635.242	15858
635.304	15389
635.365	15597
635.427	16568
635.488	16096
635.550	16431
635.611	16037
635.673	15852
635.734	16371
635.796	17742
635.857	19621
635.918	21893
635.980	23531
636.041	25989
636.102	27545
636.164	29878
636.225	29514
636.286	26752
636.348	23631
636.409	20191
636.470	18793
636.531	17349
636.593	16213
636.654	16957
636.715	14904
636.776	13002
636.838	13528
636.899	13712
636.960	13094
637.021	13268
637.082	13529
637.143	12969
637.204	12510
637.265	11450
637.326	12624
637.387	11758
637.448	12661
637.509	12017
637.570	12544
637.631	11767
637.692	11884
637.753	11443
637.814	11808
637.875	12016
637.936	11581
637.997	11396
638.058	11094
638.119	12629
638.179	12270
638.240	10700
638.301	11773
638.362	10552
638.423	11270
638.483	10211
638.544	10523
638.605	10191
638.666	9644
638.726	10296
638.787	10046
638.848	10859
638.908	9733
638.969	9866
639.030	10078
639.090	9257
639.151	10600
639.211	11200
639.272	12861
639.332	15680
639.393	23181
639.453	12120
639.514	12633
639.574	11540
639.635	10113
639.695	9216
639.756	10021
639.816	10806
639.877	11052
639.937	14711
639.997	25266
640.058	25149
640.118	11586
640.178	10027
640.239	9780
640.299	9988
640.359	9158
640.420	10078
640.480	10079
640.540	12612
640.600	14285
640.661	14126
640.721	11574
640.781	13323
640.841	14772
640.901	11367
640.961	9988
641.021	10373
641.082	11772
641.142	15193
641.202	18597
641.262	10164
641.322	9565
641.382	8619
641.442	8316
641.502	8553
641.562	8446
641.622	8116
641.682	9210
641.742	10308
641.802	12172
641.861	9804
641.921	10202
641.981	10277
642.041	10641
642.101	11078
642.161	13261
642.221	8855
642.280	8120
642.340	7281
642.400	8074
642.460	8635
642.519	8217
642.579	8852
642.639	9213
642.698	7928
642.758	9983
642.818	9176
642.877	8924
642.937	8630
642.997	10388
643.056	12726
643.116	15719
643.175	10338
643.235	9405
643.294	9365
643.354	10390
643.414	10506
643.473	13051
643.532	16970
643.592	23003
643.651	36624
643.711	62868
643.770	115855
643.830	237771
643.889	617300
643.948	1009979
644.008	152599
644.067	32980
644.126	22343
644.186	16819
644.245	13617
644.304	11175
644.363	10798
644.423	10458
644.482	10312
644.541	9126
644.600	10098
644.659	12287
644.719	14809
644.778	20843
644.837	33448
644.896	62138
644.955	135465
645.014	264027
645.073	55008
645.132	16312
645.191	11894
645.250	10719
645.309	9674
645.368	10609
645.427	12748
645.486	16583
645.545	32867
645.604	45763
645.663	12657
645.722	9974
645.781	11007
645.840	11949
645.898	14582
645.957	20258
646.016	32303
646.075	56834
646.134	107697
646.192	208998
646.251	622016
646.310	646226
646.369	70008
646.427	24744
646.486	20321
646.545	14340
646.603	11950
646.662	9658
646.721	9053
646.779	9092
646.838	9120
646.896	10178
646.955	14638
647.014	20058
647.072	33752
647.131	69117
647.189	177480
647.248	56300
647.306	11188
647.365	8557
647.423	6891
647.481	7182
647.540	6128
647.598	5860
647.657	6160
647.715	5945
647.773	6359
647.832	5943
647.890	4906
647.948	5938
648.007	5653
648.065	5377
648.123	5408
648.181	6082
648.240	6226
648.298	5319
648.356	5762
648.414	5530
648.472	4586
648.531	4849
648.589	5531
648.647	5008
648.705	5497
648.763	5383
648.821	6195
648.879	6280
648.937	6524
648.995	8244
649.053	10919
649.111	16164
649.169	25581
649.227	45110
649.285	83974
649.343	183868
649.401	495936
649.459	158958
649.516	42979
649.574	22420
649.632	14924
649.690	21217
649.748	19621
649.806	16622
649.863	25553
649.921	46701
649.979	127634
650.037	59583
650.094	8721
650.152	7014
650.210	5585
650.268	5098
650.325	5037
650.383	4531
650.440	4373
650.498	4566
650.556	4736
650.613	4368
650.671	4266
650.728	4225
650.786	4809
650.843	4451
650.901	6658
650.958	4951
651.016	3667
651.073	3241
651.131	4400
651.188	3069
651.246	3834
651.303	3103
651.360	4136
651.418	3137
651.475	3278
651.532	2876
651.590	3481
651.647	3603
651.704	2981
651.762	3084
651.819	3125
651.876	3654
651.933	3334
651.990	3350
652.048	3615
652.105	3076
652.162	3053
652.219	3301
652.276	3054
652.333	3542
652.390	2333
652.448	2961
652.505	3381
652.562	2878
652.619	2639
652.676	2912
652.733	4393
652.790	3117
652.847	2722
652.904	2748
652.961	2177
653.017	2630
653.074	3050
653.131	2766
653.188	2682
653.245	2500
653.302	2817
653.359	2899
653.415	3275
653.472	2537
653.529	2186
653.586	2804
653.642	2964
653.699	3110
653.756	2719
653.813	2588
653.869	3366
653.926	2876
653.983	2941
654.039	2659
654.096	2856
654.152	2620
654.209	2286
654.266	2787
654.322	2574
654.379	3220
654.435	3802
654.492	3725
654.548	3639
654.605	5494
654.661	9623
654.717	3323
654.774	3261
654.830	3577
654.887	3927
654.943	2373
655.000	2787
655.056	3011
655.112	2998
655.168	2138
655.225	2773
655.281	2832
655.337	3358
655.394	4540
655.450	6197
655.506	3904
655.562	3882
655.618	7133
655.675	4239
655.731	2104
655.787	2591
655.843	3147
655.899	2484
655.955	2909
656.011	2981
656.067	2838
656.123	3220
656.179	2645
656.235	3103
656.291	2677
656.347	2827
656.403	3074
656.459	2982
656.515	3135
656.571	3250
656.627	3016
656.683	2657
656.739	2719
656.795	2586
656.850	2729
656.906	3587
656.962	4491
657.018	3206
657.074	2773
657.129	3540
657.185	4575
657.241	6196
657.297	13199
657.352	7141
657.408	2795
657.464	2561
657.519	2410
657.575	2608
657.630	1748
657.686	2635
657.742	1857
657.797	1810
657.853	1775
657.908	3150
657.964	1496
658.019	1926
658.075	2647
658.130	1968
658.186	2506
658.241	1965
658.297	1535
658.352	1847
658.407	2312
658.463	2209
658.518	2038
658.573	1888
658.629	1936
658.684	1966
658.739	2064
658.795	1627
658.850	1742
658.905	1841
658.960	2808
659.016	1650
659.071	2961
659.126	2077
659.181	1851
659.236	3801
659.291	7264
659.346	5726
659.401	3499
659.457	4040
659.512	2710
659.567	3469
659.622	2136
659.677	2242
659.732	2070
659.787	2272
659.842	2074
659.897	2768
659.952	3649
660.007	2369
660.061	2507
660.116	1393
660.171	2066
660.226	1876
660.281	2597
660.336	1877
660.391	1748
660.445	1804
660.500	2072
660.555	2593
660.610	1287
660.664	2616
660.719	1171
660.774	2212
660.828	2119
660.883	1958
660.938	1888
660.992	1902
661.047	1843
661.101	1826
661.156	1810
661.211	1815
661.265	1394
661.320	1830
661.374	2204
661.429	1625
661.483	2093
661.538	1295
661.592	1385
661.647	2481
661.701	2018
661.755	2451
661.810	2540
661.864	1126
661.919	2169
661.973	2061
662.027	1792
662.081	1835
662.136	2333
662.190	2031
662.244	2170
662.299	2314
662.353	1459
662.407	1792
662.461	1637
662.515	2574
662.569	1792
662.624	2287
662.678	1690
662.732	2135
662.786	2123
662.840	2548
662.894	2250
662.948	2406
663.002	2068
663.056	1676
663.110	1597
663.164	2003
663.218	2271
663.272	1980
663.326	2365
663.380	2581
663.434	2074
663.488	1823
663.542	1999
663.595	1688
663.649	1054
663.703	2595
663.757	2465
663.811	1436
663.864	2339
663.918	1775
663.972	967
664.026	2122
664.079	1480
664.133	1955
664.187	1799
664.240	1614
664.294	1650
664.348	1749
664.401	1322
664.455	2061
664.508	1547
664.562	1650
664.615	2243
664.669	1702
664.722	2373
664.776	1488
664.829	1740
664.883	2050
664.936	1278
664.990	2250
665.043	2867
665.097	1320
665.150	3008
665.203	2121
665.257	1526
665.310	1650
665.363	2464
665.417	2176
665.470	2366
665.523	2262
665.576	2653
665.630	2147
665.683	1827
665.736	1842
665.789	2557
665.842	2207
665.895	2278
665.949	2189
666.002	1743
666.055	2535
666.108	2017
666.161	2108
666.214	2488
666.267	1838
666.320	2683
666.373	3564
666.426	3097
666.479	1600
666.532	2912
666.585	2166
666.638	3997
666.691	3048
666.744	2996
666.796	1793
666.849	3364
666.902	3399
666.955	2301
667.008	2494
667.060	1579
667.113	2524
667.166	2143
667.219	1747
667.271	1533
667.324	3161
667.377	1856
667.430	2053
667.482	1514
667.535	2606
667.587	3112
667.640	3301
667.693	3261
667.745	3839
667.798	7440
667.850	7804
667.903	3187
667.955	1738
668.008	2561
668.060	2739
668.113	2041
668.165	2394
668.218	3573
668.270	2047
668.322	2788
668.375	2418
668.427	2288
668.479	1766
668.532	2018
668.584	1726
668.636	2070
668.689	1904
668.741	1816
668.793	1741
668.845	2120
668.898	2535
668.950	2858
669.002	2561
669.054	2347
669.106	2310
669.158	2714
669.211	1574
669.263	2374
669.315	2195
669.367	2691
669.419	2822
669.471	3631
669.523	3755
669.575	4092
669.627	5418
669.679	4477
669.731	3370
669.783	3151
669.835	3752
669.886	3743
669.938	3641
669.990	3585
670.042	3191
670.094	3580
670.146	4115
670.197	4431
670.249	5460
670.301	6532
670.353	8273
670.404	13227
670.456	18761
670.508	28780
670.560	46436
670.611	76733
670.663	130674
670.715	223617
670.766	506213
670.818	820297
670.869	299026
670.921	52416
670.972	24387
671.024	16692
671.075	12400
671.127	8864
671.178	7058
671.230	6766
671.281	5738
671.333	5589
671.384	5020
671.436	5514
671.487	6136
671.538	6920
671.590	9547
671.641	14454
671.692	22785
671.744	39697
671.795	78846
671.846	50746
671.897	15238
671.949	7924
672.000	5961
672.051	4668
672.102	4630
672.153	3035
672.204	3242
672.256	3172
672.307	2406
672.358	2815
672.409	2588
672.460	2196
672.511	3178
672.562	2011
672.613	2701
672.664	1813
672.715	1705
672.766	2249
672.817	2327
672.868	1755
672.919	1700
672.970	1564
673.021	1981
673.071	1743
673.122	1615
673.173	1975
673.224	1774
673.275	2003
673.326	1350
673.376	2707
673.427	1017
673.478	1384
673.528	1790
673.579	1413
673.630	1447
673.680	1736
673.731	2249
673.782	1418
673.832	2114
673.883	2095
673.934	1026
673.984	1699
674.035	2401
674.085	2202
674.136	2050
674.186	1990
674.237	2525
674.287	2669
674.338	3759
674.388	2331
674.438	1325
674.489	2624
674.539	2068
674.589	1881
674.640	2049
674.690	2055
674.740	1541
674.791	1671
674.841	1594
674.891	2244
674.942	1826
674.992	1053
675.042	1722
675.092	2254
675.142	2356
675.193	767
675.243	1537
675.293	1496
675.343	1685
675.393	1464
675.443	1789
675.493	1583
675.543	1130
675.593	1328
675.643	1469
675.693	691
675.743	879
675.793	2156
675.843	710
675.893	1165
675.943	711
675.993	1488
676.043	1273
676.093	1634
676.142	1498
676.192	813
676.242	1225
676.292	1186
676.341	1143
676.391	1451
676.441	1328
676.491	1048
676.540	885
676.590	1611
676.640	336
676.689	994
676.739	116
676.789	496
676.838	1113
676.888	928
676.937	141
676.987	1407
677.037	1103
677.086	525
677.136	186
677.185	282
677.235	528
677.284	509
677.333	883
677.383	737
677.432	120
677.482	1037
677.531	816
677.580	690
677.630	630
677.679	470
677.728	1082
677.778	1282
677.827	285
677.876	1719
677.925	1093
677.975	351
678.024	1221
678.073	1229
678.122	825
678.171	867
678.220	927
678.269	1340
678.319	1169
678.368	1420
678.417	1663
678.466	2058
678.515	1891
678.564	1413
678.613	1665
678.662	1327
678.711	299
678.760	877
678.809	1174
678.857	569
678.906	533
678.955	1162
679.004	1557
679.053	1539
679.102	890
679.151	1357
679.199	1140
679.248	629
679.297	150
679.346	1414
679.394	648
679.443	316
679.492	1395
679.540	794
679.589	737
679.638	621
679.686	1657
679.735	1181
679.784	1102
679.832	1471
679.881	1495
679.929	1145
679.978	1230
680.026	411
680.075	842
680.123	449
680.172	1014
680.220	153
680.268	-55
680.317	794
680.365	-197
680.414	405
680.462	-53
680.510	1041
680.559	605
680.607	785
680.655	1101
680.703	135
680.752	131
680.800	827
680.848	845
680.896	451
680.945	520
680.993	1086
681.041	515
681.089	885
681.137	1071
681.185	-250
681.233	35
681.258	444
681.281	804
681.329	771
681.377	419
681.380	444
681.425	441
681.473	978
681.502	662
681.521	401
681.569	1040
681.617	1217
681.624	1261
681.665	1359
681.713	572
681.745	911
681.761	1033
681.809	792
681.857	1222
681.867	1192
681.904	996
681.952	664
681.989	831
682.000	855
682.048	730
682.096	1058
682.111	1146
682.143	1224
682.191	1695
682.233	1487
682.239	1431
682.286	1443
682.334	1700
682.354	1734
682.382	1738
682.430	1473
682.476	2509
682.477	2509
682.525	2041
682.572	1816
682.598	1927
682.620	1957
682.667	2285
682.715	1641
682.720	1630
682.763	1392
682.810	2075
682.841	2221
682.857	2270
682.905	2767
682.952	2630
682.963	2615
683.000	2386
683.047	2734
683.085	3301
683.095	3417
683.142	2642
683.190	2763
683.206	2393
683.237	1753
683.284	2106
683.328	2734
683.332	2764
683.379	2650
683.426	2679
683.449	2761
683.473	2799
683.521	2831
683.568	2405
683.571	2467
683.615	3002
683.662	2616
683.693	2594
683.709	2582
683.757	3446
683.804	2745
683.814	2902
683.851	3329
683.898	2526
683.936	2965
683.945	3067
683.992	4024
684.039	3790
684.057	3794
684.086	3796
684.133	4099
684.179	4857
684.180	4865
684.227	4095
684.274	4886
684.300	5329
684.321	5518
684.368	4739
684.415	5015
684.422	4970
684.462	4653
684.509	4248
684.543	4135
684.556	3997
684.603	4405
684.649	3391
684.665	3288
684.696	3358
684.743	3817
684.786	3931
684.790	3917
684.837	4674
684.883	4180
684.908	4167
684.930	4180
684.977	5157
685.023	4875
685.029	4901
685.070	4881
685.117	4796
685.150	5073
685.164	5192
685.210	4817
685.257	5294
685.272	5118
685.303	4627
685.350	5378
685.393	5093
685.396	5080
685.443	5612
685.490	6230
685.514	6326
685.536	6479
685.583	6487
685.629	7305
685.636	7328
685.675	6710
685.722	6934
685.757	6123
685.768	5920
685.815	6357
685.861	6100
685.878	6380
685.908	7010
685.954	6033
686.000	6410
686.000	6402
686.047	6284
686.093	6606
686.121	6651
686.139	6991
686.185	7031
686.232	7863
686.242	7956
686.278	7513
686.324	6849
686.363	6877
686.370	6899
686.416	5676
686.463	6343
686.484	6154
686.509	6048
686.555	6031
686.601	5704
686.606	5729
686.647	5982
686.693	5600
686.727	5902
686.739	5994
686.785	6205
686.831	6141
686.848	6162
686.877	6230
686.923	6202
686.969	6275
686.969	6273
687.015	5870
687.061	5598
687.090	5749
687.107	5973
687.153	6424
687.199	6796
687.211	6776
687.245	6524
687.291	6480
687.332	6946
687.336	6999
687.382	6852
687.428	6964
687.453	6892
687.474	6850
687.520	7350
687.565	7236
687.574	7282
687.611	7335
687.657	6843
687.695	7501
687.702	7615
687.748	6887
687.794	6946
687.816	6919
687.839	7176
687.885	7492
687.931	7830
687.937	7921
687.976	7795
688.022	7403
688.058	7186
688.067	7220
688.113	7149
688.158	7595
688.179	7676
688.204	7840
688.249	7555
688.295	7832
688.300	7835
688.340	7641
688.386	7809
688.421	7795
688.431	7830
688.477	7631
688.522	7848
688.542	7801
688.567	7931
688.613	8342
688.658	8673
688.663	8726
688.703	8650
688.749	8178
688.784	8025
688.794	8031
688.839	7861
688.884	8261
688.905	7999
688.930	7808
688.975	8250
689.020	7895
689.026	7968
689.065	8420
689.110	8325
689.146	8485
689.155	8529
689.201	8196
689.246	8295
689.267	8114
689.291	7964
689.336	7890
689.381	8188
689.388	8134
689.426	7935
689.471	8562
689.509	8170
689.516	8138
689.561	8184
689.606	8505
689.630	8615
689.651	8509
689.696	8229
689.741	8204
689.750	8099
689.785	8065
689.830	8369
689.871	8360
689.875	8365
689.920	8439
689.965	8736
689.992	8583
690.010	8440
690.054	8403
690.099	8055
690.112	8078
690.144	8358
690.189	8475
690.233	8632
690.233	8645
690.278	8342
690.323	8887
690.354	8894
690.367	8832
690.412	8974
690.457	9294
690.474	9106
690.501	8795
690.546	8605
690.590	8264
690.595	8246
690.635	8356
690.680	8154
690.716	8130
690.724	8193
690.769	8732
690.813	9009
690.836	9048
690.857	9045
690.902	8720
690.946	9202
690.957	9302
690.991	9951
691.035	10425
691.077	10803
691.080	10848
691.124	11031
691.168	11679
691.198	11889
691.213	12014
691.257	12497
691.301	13228
691.318	13508
691.346	13287
691.390	12543
691.434	11655
691.439	11590
691.478	11308
691.522	10303
691.559	9903
691.567	9997
691.611	10394
691.655	10819
691.680	10963
691.699	11050
691.743	11294
691.787	11120
691.800	11225
691.831	11255
691.875	11198
691.919	10705
691.921	10687
691.964	10961
692.008	10836
692.041	10478
692.052	10438
692.096	10859
692.139	10969
692.162	10906
692.183	10815
692.227	10793
692.271	10930
692.282	10860
692.315	10667
692.359	10615
692.402	10441
692.403	10466
692.447	10924
692.490	11115
692.523	11454
692.534	11519
692.578	11474
692.622	11332
692.643	11501
692.666	11693
692.709	11470
692.753	11170
692.763	11154
692.797	11156
692.840	11176
692.884	10862
692.884	10883
692.928	10730
692.971	10659
693.004	10389
693.015	10403
693.059	10635
693.102	10885
693.124	10988
693.146	11110
693.189	10891
693.233	10921
693.245	10963
693.276	11269
693.320	11369
693.363	11752
693.365	11729
693.407	11908
693.450	12376
693.485	12365
693.493	12288
693.537	12073
693.580	11930
693.605	11707
693.624	11855
693.667	12441
693.710	12551
693.725	12727
693.753	13172
693.797	13690
693.840	14006
693.845	14061
693.883	16319
693.926	18525
693.966	20391
693.970	20370
694.013	19910
694.056	19487
694.086	18879
694.099	18256
694.142	16626
694.185	14684
694.206	13881
694.229	13808
694.272	13173
694.315	13000
694.326	12868
694.358	13170
694.401	13314
694.444	13861
694.446	13847
694.487	14462
694.530	14967
694.566	15420
694.573	15428
694.616	15445
694.659	15131
694.686	15017
694.702	14652
694.745	13640
694.787	12231
694.806	11786
694.830	11745
694.873	11373
694.916	11155
694.926	11027
694.959	11057
695.002	11130
695.044	11230
695.046	11212
695.087	11751
695.130	12059
695.166	12228
695.172	12304
695.215	12917
695.258	13327
695.286	13551
695.301	13509
695.343	13484
695.386	13445
695.406	13230
695.428	13005
695.471	12837
695.514	12454
695.526	12386
695.556	12561
695.599	12621
695.641	12653
695.646	12633
695.684	12695
695.726	12634
695.766	12645
695.769	12701
695.811	12941
695.854	13178
695.886	13439
695.896	13459
695.938	13110
695.981	12910
696.005	12771
696.023	12722
696.065	12641
696.108	12447
696.125	12323
696.150	12570
696.192	12984
696.235	13350
696.245	13407
696.277	13497
696.319	13602
696.361	13801
696.365	13767
696.404	13444
696.446	13079
696.485	12803
696.488	12891
696.530	13556
696.572	14196
696.604	14624
696.614	14530
696.656	13962
696.698	13469
696.724	13125
696.740	13277
696.783	13561
696.825	13817
696.844	13882
696.867	13763
696.909	13541
696.951	13311
696.964	13209
696.992	13435
697.034	13678
697.076	13910
697.083	13912
697.118	13972
697.160	14075
697.202	14047
697.203	14008
697.244	13908
697.286	13935
697.323	13798
697.327	13826
697.369	13748
697.411	13696
697.442	13611
697.453	13777
697.494	14293
697.536	14801
697.562	15105
697.578	15161
697.620	15132
697.661	15160
697.682	15131
697.703	15522
697.744	16187
697.786	16884
697.801	17086
697.828	17498
697.869	18122
697.911	18645
697.921	18734
697.952	19230
697.994	19839
698.035	20477
698.040	20493
698.077	19116
698.118	17479
698.160	15872
698.160	15820
698.201	15628
698.243	15408
698.279	15213
698.284	15245
698.325	15107
698.367	15015
698.399	14864
698.408	14927
698.449	15033
698.491	15179
698.518	15207
698.532	15246
698.573	15256
698.614	15262
698.638	15232
698.656	15338
698.697	15474
698.738	15605
698.757	15627
698.779	15633
698.820	15556
698.862	15482
698.877	15414
698.903	15820
698.944	16392
698.985	16973
698.996	17087
699.026	16883
699.067	16537
699.116	16079
699.235	16162
699.354	15210
699.474	15767
699.593	16038
699.713	17012
699.832	16227
699.951	16322
700.070	17437
700.190	16454
700.309	14783
700.428	15099
700.547	16320
700.667	15396
700.786	15266
700.905	16954
701.024	14309
701.143	15101
701.262	15358
701.381	15131
701.500	15139
701.619	16163
701.738	17950
701.857	16130
701.976	13569
702.095	13871
702.214	14102
702.333	16611
702.452	17940
702.571	16331
702.690	14909
702.809	13260
702.928	14617
703.047	14999
703.165	14222
703.284	13492
703.403	13297
703.522	13751
703.640	14851
703.759	15576
703.878	17854
703.997	22671
704.115	14110
704.234	13776
704.353	14311
704.471	13642
704.590	13216
704.708	12154
704.827	11298
704.946	12465
705.064	12209
705.183	14458
705.301	12140
705.420	14319
705.538	15688
705.656	14933
705.775	12712
705.893	13840
706.012	16628
706.130	18640
706.249	14659
706.367	13546
706.485	13873
706.604	14633
706.722	13700
706.840	15125
706.958	19006
707.077	17273
707.195	13724
707.313	13560
707.431	12344
707.549	12386
707.668	12481
707.786	13149
707.904	13161
708.022	12641
708.140	12158
708.258	12716
708.376	12641
708.494	13187
708.612	13227
708.730	13343
708.848	16531
708.966	16521
709.084	15853
709.202	16279
709.320	14484
709.438	14015
709.556	13369
709.674	14526
709.791	13251
709.909	13025
710.027	12725
710.145	13949
710.263	13101
710.380	14040
710.498	12993
710.616	13611
710.733	12905
710.851	14212
710.969	14522
711.086	14954
711.204	13565
711.322	13703
711.439	12912
711.557	14011
711.674	13128
711.792	13101
711.909	12829
712.027	12893
712.144	12840
712.262	13057
712.379	12982
712.497	13625
712.614	16677
712.732	16589
712.849	14290
712.966	14836
713.084	16762
713.201	22601
713.318	17331
713.436	15778
713.553	14529
713.670	15202
713.787	15517
713.905	16784
714.022	17584
714.139	16085
714.256	15429
714.373	21462
714.490	28414
714.608	54724
714.725	137767
714.842	646057
714.959	782345
715.076	58620
715.193	23936
715.310	19566
715.427	17507
715.544	15354
715.661	13847
715.778	14686
715.895	12739
716.011	13877
716.128	14100
716.245	13234
716.362	14713
716.479	18612
716.596	19996
716.713	14101
716.829	12665
716.946	13267
717.063	12269
717.180	11364
717.296	11173
717.413	11118
717.530	10599
717.646	11666
717.763	11823
717.880	12928
717.996	11061
718.113	11955
718.229	12821
718.346	12504
718.462	10367
718.579	13099
718.695	17676
718.812	37030
718.928	24748
719.045	17417
719.161	12598
719.277	11485
719.394	11787
719.510	11800
719.626	11276
719.743	12560
719.859	16168
719.975	23972
720.092	43101
720.208	174944
720.324	479281
720.440	61830
720.557	16657
720.673	17363
720.789	27251
720.905	30760
721.021	46996
721.137	19725
721.253	10456
721.369	11720
721.486	10365
721.602	11918
721.718	15994
721.834	11056
721.950	9150
722.066	11589
722.181	9607
722.297	10744
722.413	10520
722.529	10189
722.645	9583
722.761	9493
722.877	9401
722.993	10208
723.108	8673
723.224	12107
723.340	10773
723.456	9964
723.571	7755
723.687	8837
723.803	8420
723.918	8745
724.034	9158
724.150	10209
724.265	8324
724.381	10168
724.497	17432
724.612	26438
724.728	8307
724.843	8235
724.959	8579
725.074	9817
725.190	17905
725.305	22454
725.421	9932
725.536	8990
725.651	8020
725.767	8105
725.882	7933
725.997	7902
726.113	7648
726.228	7979
726.343	7734
726.459	7369
726.574	6493
726.689	8766
726.804	7553
726.920	6817
727.035	7303
727.150	8079
727.265	7583
727.380	7690
727.495	7023
727.610	7583
727.725	6704
727.841	7798
727.956	7263
728.071	9152
728.186	9718
728.301	8160
728.416	6703
728.531	8421
728.645	7209
728.760	8157
728.875	7106
728.990	10548
729.105	8954
729.220	8211
729.335	8432
729.449	9859
729.564	7329
729.679	6715
729.794	6610
729.908	6930
730.023	6900
730.138	8011
730.253	5976
730.367	7232
730.482	5656
730.596	6715
730.711	7346
730.826	8880
730.940	7417
731.055	8176
731.169	7401
731.284	8163
731.398	7121
731.513	6978
731.627	7803
731.742	8712
731.856	8824
731.970	11458
732.085	9032
732.199	13576
732.313	17373
732.428	30340
732.542	76823
732.656	237822
732.771	163320
732.885	28795
732.999	14969
733.113	12184
733.227	11230
733.342	11093
733.456	9026
733.570	9155
733.684	9025
733.798	7939
733.912	7869
734.026	8206
734.140	8136
734.254	7852
734.368	8582
734.482	13288
734.596	14954
734.710	9033
734.824	7087
734.938	7393
735.052	7581
735.166	7866
735.280	9542
735.393	7741
735.507	6665
735.621	8483
735.735	9619
735.849	14609
735.962	9322
736.076	7230
736.190	7240
736.303	7442
736.417	9578
736.531	11518
736.644	6965
736.758	7876
736.872	6182
736.985	6647
737.099	7064
737.212	7022
737.326	6109
737.439	7314
737.553	6912
737.666	7094
737.780	7151
737.893	6669
738.007	6547
738.120	6206
738.233	6520
738.347	6623
738.460	6739
738.573	6890
738.687	7163
738.800	7873
738.913	7254
739.026	10873
739.140	8377
739.253	6577
739.366	5666
739.479	6365
739.592	4474
739.705	6107
739.818	5570
739.932	6325
740.045	5446
740.158	7318
740.271	6797
740.384	6502
740.497	5439
740.610	6170
740.723	6707
740.836	7207
740.949	7021
741.062	8789
741.174	11584
741.287	9929
741.400	7180
741.513	6253
741.626	6862
741.739	8154
741.851	6369
741.964	7655
742.077	6665
742.189	6126
742.302	6321
742.415	7114
742.527	6937
742.640	6847
742.753	6004
742.865	6527
742.978	5023
743.090	5782
743.203	5129
743.316	5531
743.428	5119
743.541	5381
743.653	5057
743.766	4659
743.878	4233
743.990	5432
744.103	6783
744.215	8075
744.327	6106
744.440	6514
744.552	7425
744.664	15282
744.777	7976
744.889	6022
745.001	5669
745.113	4629
745.226	4830
745.338	4547
745.450	4638
745.562	5825
745.674	4784
745.786	4233
745.898	4613
746.010	4953
746.122	4102
746.234	5411
746.347	6052
746.459	5734
746.570	4816
746.682	4261
746.794	4324
746.906	4752
747.018	3872
747.130	5007
747.242	3774
747.354	4608
747.466	4285
747.577	5564
747.689	3636
747.801	5491
747.913	3807
748.024	4628
748.136	4179
748.248	4008
748.359	3818
748.471	4628
748.583	3697
748.694	4689
748.806	4531
748.918	4677
749.029	5269
749.141	5638
749.252	6038
749.364	5245
749.475	6643
749.587	16822
749.698	10750
749.809	4493
749.921	4110
750.032	4339
750.144	3878
750.255	3815
750.366	3775
750.478	4465
750.589	3628
750.700	4548
750.811	4616
750.923	5340
751.034	6637
751.145	17098
751.256	21917
751.367	6147
751.479	4154
751.590	3926
751.701	3419
751.812	3907
751.923	3139
752.034	4345
752.145	4101
752.256	4297
752.367	3876
752.478	3528
752.589	4315
752.700	3820
752.811	3822
752.922	3866
753.032	3207
753.143	5832
753.254	5607
753.365	4017
753.476	3297
753.586	4233
753.697	3521
753.808	3415
753.919	3398
754.029	3876
754.140	2922
754.251	3450
754.361	2939
754.472	3693
754.582	3858
754.693	3735
754.804	3799
754.914	3910
755.025	2468
755.135	3277
755.246	3258
755.356	4108
755.466	3499
755.577	3121
755.687	3147
755.798	3555
755.908	2921
756.018	3721
756.129	2552
756.239	2923
756.349	2915
756.460	3118
756.570	3043
756.680	4569
756.790	3317
756.900	4662
757.011	4900
757.121	2993
757.231	3180
757.341	3589
757.451	3137
757.561	3777
757.671	2916
757.781	3753
757.891	3018
758.001	2906
758.111	3617
758.221	3623
758.331	3132
758.441	5513
758.551	5119
758.661	7851
758.771	8570
758.880	4699
758.990	3936
759.100	4361
759.210	4439
759.320	4098
759.429	4035
759.539	3939
759.649	4324
759.758	5174
759.868	4982
759.978	5510
760.087	5965
760.197	6017
760.307	5533
760.416	5837
760.526	4644
760.635	5456
760.745	4396
760.854	5855
760.964	5720
761.073	6524
761.182	6115
761.292	6581
761.401	5289
761.511	6046
761.620	3984
761.729	4149
761.839	4120
761.948	4151
762.057	4024
762.166	5060
762.276	3183
762.385	4175
762.494	3413
762.603	4448
762.712	3919
762.822	4167
762.931	3625
763.040	3860
763.149	3077
763.258	3512
763.367	2456
763.476	3201
763.585	3766
763.694	3424
763.803	2823
763.912	4466
764.021	3531
764.130	4541
764.238	2950
764.347	3922
764.456	4009
764.565	4965
764.674	3942
764.783	4554
764.891	4221
765.000	4824
765.109	4346
765.217	5165
765.326	5305
765.435	6096
765.543	7978
765.652	8166
765.761	7620
765.869	9645
765.978	13046
766.086	19377
766.195	32748
766.303	64699
766.412	164541
766.520	498639
766.629	506754
766.737	133756
766.846	43500
766.954	24092
767.062	16856
767.171	13698
767.279	9656
767.387	9023
767.496	6302
767.604	6791
767.712	5367
767.820	5647
767.928	4771
768.037	5238
768.145	4428
768.253	5360
768.361	4386
768.469	4264
768.577	4241
768.685	5066
768.793	4012
768.901	5334
769.009	5139
769.117	5596
769.225	4969
769.333	7165
769.441	9156
769.549	13979
769.657	25462
769.765	59630
769.873	188202
769.981	460954
770.088	186986
770.196	36398
770.304	16200
770.412	12042
770.519	9089
770.627	8352
770.735	6144
770.842	6499
770.950	4527
771.058	4867
771.165	5138
771.273	5474
771.380	4159
771.488	4889
771.595	5415
771.703	5777
771.810	5220
771.918	4861
772.025	4645
772.133	4865
772.240	4937
772.348	4667
772.455	5238
772.562	4895
772.670	4582
772.777	5057
772.884	5077
772.991	5097
773.099	4230
773.206	4655
773.313	4353
773.420	4836
773.528	4157
773.635	4610
773.742	5028
773.849	4918
773.956	3391
774.063	5231
774.170	4231
774.277	5075
774.384	4562
774.491	4306
774.598	4166
774.705	4197
774.812	3553
774.919	7031
775.026	4709
775.133	3806
775.239	3856
775.346	4164
775.453	3383
775.560	3459
775.667	3288
775.773	4141
775.880	4350
775.987	3904
776.093	3232
776.200	4444
776.307	4465
776.413	4036
776.520	3207
776.627	5041
776.733	3111
776.840	4326
776.946	3775
777.053	4348
777.159	3467
777.266	5138
777.372	3218
777.478	4910
777.585	4551
777.691	4696
777.798	3399
777.904	5248
778.010	4064
778.117	7115
778.223	7247
778.329	3793
778.435	3537
778.542	3239
778.648	3003
778.754	3151
778.860	2727
778.966	3579
779.072	2745
779.178	3758
779.284	3174
779.391	2576
779.497	2297
779.603	4212
779.708	2740
779.815	3336
779.920	3461
780.026	6871
780.132	12941
780.238	5162
780.344	3214
780.450	4391
780.556	3585
780.661	2794
780.767	2444
780.873	3833
780.979	2950
781.085	3105
781.190	3086
781.296	3131
781.402	2734
781.507	3172
781.613	2257
781.719	2780
781.824	3115
781.930	3319
782.035	2422
782.141	3300
782.246	2725
782.352	3172
782.457	1993
782.563	2888
782.668	2469
782.773	3103
782.879	2409
782.984	3147
783.090	3251
783.195	4747
783.300	6936
783.405	5844
783.511	2701
783.616	3304
783.721	2573
783.826	3245
783.932	2982
784.037	3117
784.142	3063
784.247	3555
784.352	2950
784.457	3422
784.562	2976
784.667	3053
784.772	2469
784.877	3156
784.982	1989
785.087	2549
785.192	2695
785.297	2559
785.402	1792
785.507	3401
785.611	3005
785.716	2816
785.821	2484
785.926	2269
786.031	1803
786.135	2547
786.240	2034
786.345	2451
786.450	2208
786.554	2454
786.659	1851
786.763	2226
786.868	2005
786.973	2232
787.077	1883
787.182	2735
787.286	1454
787.391	2725
787.495	1761
787.600	2375
787.704	1633
787.809	2145
787.913	2092
788.017	2399
788.122	2527
788.226	2437
788.330	1117
788.435	2370
788.539	1231
788.643	2847
788.747	1577
788.852	1701
788.956	1014
789.060	2211
789.164	1157
789.268	2268
789.372	1531
789.476	2111
789.580	2238
789.684	2153
789.788	980
789.892	2254
789.996	2028
790.100	2575
790.204	1551
790.308	2401
790.412	2556
790.516	2196
790.620	1892
790.724	2270
790.828	1758
790.931	1561
791.035	1101
791.139	2493
791.242	2245
791.346	2573
791.450	1404
791.554	2037
791.657	1400
791.761	2475
791.864	1652
791.968	2023
792.072	1689
792.175	2297
792.279	1729
792.382	2174
792.486	2151
792.589	1962
792.693	1459
792.796	1990
792.899	1951
793.003	2297
793.106	1624
793.209	1566
793.313	1687
793.416	2746
793.519	2020
793.623	2705
793.726	4205
793.829	8943
793.932	4169
794.035	1948
794.138	2229
794.242	2476
794.345	2086
794.448	3122
794.551	3106
794.654	7128
794.757	7820
794.860	6586
794.963	3021
795.066	3184
795.169	1429
795.272	1989
795.375	1428
795.477	2704
795.580	1726
795.683	1333
795.786	1226
795.889	1855
795.991	977
796.094	2140
796.197	1908
796.300	1868
796.402	1084
796.505	1312
796.608	1694
796.710	2124
796.813	678
796.915	1815
797.018	2054
797.120	2173
797.223	1537
797.326	1437
797.428	1425
797.530	1575
797.633	1306
797.735	1810
797.838	1701
797.940	4076
798.042	3584
798.145	1866
798.247	938
798.349	1585
798.452	1029
798.554	1198
798.656	1400
798.758	2497
798.860	1632
798.962	1799
799.065	1126
799.167	1606
799.269	1258
799.371	1540
799.473	2880
799.575	3022
799.677	3370
799.779	3593
799.881	2725
799.983	6680
800.085	3950
800.187	1299
800.289	978
800.390	1768
800.492	932
800.594	1834
800.696	965
800.798	1481
800.899	923
801.001	1629
801.103	896
801.205	1382
801.306	1309
801.408	1281
801.509	1633
801.611	2047
801.713	772
801.814	1147
801.916	1076
802.017	960
802.119	425
802.220	775
802.322	475
802.423	1705
802.525	1306
802.626	1991
802.727	1769
802.829	1585
802.930	1263
803.031	2330
803.133	775
803.234	465
803.335	1179
803.436	930
803.538	302
803.639	1046
803.740	1343
803.841	995
803.942	505
804.043	1559
804.144	195
804.245	1235
804.346	1220
804.447	1640
804.548	1847
804.649	3483
804.750	4695
804.851	2029
804.952	1164
805.053	1194
805.154	464
805.255	1120
805.355	456
805.456	935
805.557	1125
805.658	1528
805.758	449
805.859	1534
805.960	1223
806.061	1656
806.161	153
806.262	511
806.362	326
806.463	1523
806.564	601
806.664	1236
806.765	1402
806.865	1932
806.966	1823
807.066	1115
807.166	1087
807.267	602
807.367	903
807.468	1709
807.568	558
807.668	1250
807.769	1151
807.869	1489
807.969	750
808.069	1310
808.170	351
808.270	1542
808.370	1155
808.470	1699
808.570	2114
808.670	3251
808.770	992
808.870	795
808.970	165
809.070	1344
809.170	651
809.271	1110
809.370	1021
809.470	1114
809.570	-222
809.670	621
809.770	656
809.870	1414
809.970	750
810.070	1730
810.169	1032
810.269	854
810.369	162
810.469	987
810.568	375
810.668	801
810.768	836
810.867	1023
810.967	1083
811.066	706
811.166	404
811.265	671
811.365	326
811.464	1036
811.564	1015
811.663	1068
811.763	1390
811.862	1363
811.962	1290
812.061	1983
812.160	685
812.260	1561
812.359	1050
812.458	1933
812.557	4578
812.657	10172
812.756	21107
812.855	8974
812.954	1407
813.053	1841
813.153	1188
813.252	2209
813.351	605
813.450	1739
813.549	1136
813.648	1845
813.747	850
813.846	911
813.945	1282
814.044	985
814.143	746
814.242	1290
814.341	668
814.439	1052
814.538	1335
814.637	1927
814.736	689
814.835	2047
814.933	1836
815.032	2045
815.131	1791
815.229	2291
815.328	2050
815.427	3437
815.525	1546
815.624	3300
815.722	2239
815.821	2819
815.919	2433
816.018	3166
816.116	2753
816.215	3268
816.313	2527
816.412	3245
816.510	3279
816.609	4321
816.707	3367
816.805	4586
816.904	4273
817.002	4553
817.100	4865
817.198	5355
817.296	5438
817.395	6148
817.493	6369
817.591	7367
817.689	8059
817.787	11161
817.885	14096
817.983	21888
818.081	35999
818.179	72214
818.277	160998
818.375	376636
818.473	442355
818.571	170433
818.669	63007
818.767	37273
818.865	29252
818.963	28160
819.061	31868
819.158	44661
819.256	71171
819.354	140099
819.452	296569
819.549	620022
819.647	568792
819.745	218512
819.842	87469
819.940	50249
820.038	33015
820.135	23958
820.233	18360
820.330	14787
820.428	11888
820.525	9504
820.623	7507
820.720	7932
820.818	7193
820.915	6591
821.012	5167
821.110	5328
821.207	4205
821.304	4676
821.402	3681
821.499	4186
821.596	3994
821.693	4280
821.791	3337
821.888	4490
821.985	5821
822.082	9296
822.179	10661
822.276	4846
822.373	2859
822.470	2355
822.567	1552
822.664	2025
822.761	1968
822.858	1889
822.955	2221
823.052	2237
823.149	1959
823.246	2014
823.343	2590
823.440	2038
823.536	1667
823.633	1804
823.730	1374
823.827	1922
823.923	1609
824.020	1977
824.117	1507
824.213	2302
824.310	1869
824.407	1940
824.503	2143
824.600	1685
824.696	1556
824.793	1393
824.889	1265
824.986	2346
825.082	1342
825.179	1882
825.275	856
825.371	1582
825.468	1337
825.564	738
825.660	981
825.757	1353
825.853	1540
825.949	1670
826.045	-149
826.142	1186
826.238	679
826.334	1480
826.430	2222
826.526	1706
826.622	953
826.718	2139
826.814	1296
826.910	1999
827.006	868
827.102	1627
827.198	869
827.294	444
827.390	1170
827.486	1143
827.582	-37
827.678	907
827.774	1149
827.869	1157
827.965	798
828.061	1788
828.157	232
828.252	1985
828.348	1075
828.444	1200
828.539	332
828.635	974
828.731	1039
828.826	1086
828.922	608
829.017	573
829.113	1217
829.208	1854
829.304	1046
829.399	2095
829.495	1203
829.590	1745
829.685	807
829.781	1214
829.876	1162
829.971	1723
830.066	-105
830.162	732
830.257	539
830.352	1512
830.447	1029
830.543	705
830.638	1161
830.733	2128
830.828	225
830.923	989
831.018	872
831.113	827
831.208	921
831.303	1689
831.398	517
831.493	757
831.588	333
831.683	1614
831.778	538
831.873	1568
831.967	435
832.062	969
832.157	175
832.252	1529
832.346	1362
832.441	1844
832.536	1449
832.631	2999
832.725	7143
832.820	8604
832.914	736
833.009	1223
833.104	916
833.198	1551
833.293	2240
833.387	1292
833.482	1634
833.576	893
833.670	1184
833.765	1484
833.859	647
833.954	2260
834.048	1695
834.142	1236
834.237	-3
834.331	649
834.425	159
834.519	1136
834.613	422
834.708	258
834.802	183
834.896	558
834.990	335
835.084	1529
835.178	-244
835.272	1076
835.366	103
835.460	1331
835.554	633
835.648	1008
835.742	-414
835.836	107
835.930	-214
836.024	399
836.117	465
836.211	1490
836.305	977
836.399	1233
836.493	1585
836.586	1758
836.680	811
836.774	968
836.867	833
836.961	85
837.055	-81
837.148	353
837.242	346
837.335	1010
837.429	-60
837.522	702
837.616	315
837.709	996
837.803	1207
837.896	2581
837.989	486
838.083	922
838.176	1078
838.269	1995
838.363	2368
838.456	769
838.549	875
838.642	1706
838.735	3214
838.829	9098
838.922	5095
839.015	729
839.108	233
839.201	657
839.294	609
839.387	726
839.480	21
839.573	511
839.666	805
839.759	1463
839.852	459
839.945	535
840.038	-264
840.131	792
840.223	-491
840.316	420
840.409	52
840.502	-190
840.594	430
840.687	357
840.780	-305
840.873	786
840.965	207
841.058	808
841.150	587
841.243	1811
841.336	1398
841.428	848
841.521	-254
841.613	201
841.706	823
841.798	875
841.890	-200
841.983	93
842.075	257
842.167	454
842.260	-150
842.352	1089
842.444	478
842.537	1672
842.629	2338
842.721	3946
842.813	393
842.905	129
842.997	308
843.090	514
843.182	337
843.274	915
843.366	2640
843.458	5502
843.550	11459
843.642	10512
843.734	1575
843.826	348
843.918	891
844.009	1461
844.101	590
844.193	519
844.285	-193
844.377	1099
844.469	612
844.560	649
844.652	193
844.744	1085
844.835	-81
844.927	168
845.019	510
845.110	640
845.202	438
845.293	12
845.385	-284
845.476	-218
845.568	-86
845.659	193
845.751	-623
845.842	-18
845.934	-57
846.025	289
846.116	94
846.208	143
846.299	200
846.390	-72
846.482	-45
846.573	1013
846.664	584
846.755	1772
846.846	1950
846.937	2834
847.029	705
847.120	290
847.211	-380
847.302	853
847.393	346
847.484	271
847.575	-376
847.666	1148
847.757	-137
847.847	381
847.938	238
848.029	-93
848.120	-484
848.211	919
848.302	225
848.392	-245
848.483	188
848.574	542
848.664	-612
848.755	456
848.846	597
848.936	109
849.027	-75
849.118	569
849.208	22
849.299	1067
849.389	2728
849.480	4486
849.570	8795
849.661	20109
849.751	35752
849.841	71084
849.932	38494
850.022	5719
850.112	1657
850.203	1126
850.293	1156
850.383	1066
850.474	889
850.564	242
850.654	159
850.744	473
850.834	-331
850.924	454
851.014	-165
851.104	641
851.194	253
851.284	1097
851.374	361
851.464	1831
851.554	244
851.644	702
851.734	302
851.824	1972
851.914	759
852.004	472
852.094	405
852.183	255
852.273	-415
852.363	894
852.452	-53
852.542	475
852.632	-27
852.721	1319
852.811	415
852.901	268
852.990	-26
853.080	1225
853.169	111
853.259	1289
853.348	1138
853.438	1733
853.527	2795
853.617	3750
853.706	6429
853.795	12803
853.885	23971
853.974	55659
854.063	108143
854.152	177345
854.242	323949
854.331	182186
854.420	36422
854.509	11691
854.598	7091
854.687	5615
854.777	3582
854.866	3994
854.955	2619
855.044	2207
855.133	1291
855.222	1614
855.311	769
855.400	1699
855.488	354
855.577	1379
855.666	242
855.755	675
855.844	407
855.933	619
856.021	644
856.110	291
856.199	70
856.288	426
856.376	505
856.465	381
856.554	45
856.642	380
856.731	317
856.819	542
856.908	-802
856.996	-74
857.085	173
857.173	510
857.262	480
857.350	1293
857.438	-28
857.527	105
857.615	-101
857.703	886
857.792	234
857.880	-202
857.968	-111
858.056	-111
858.145	-139
858.233	765
858.321	-584
858.409	406
858.497	-845
858.585	146
858.673	-16
858.761	-514
858.849	-282
858.937	-22
859.025	-233
859.113	-277
859.201	382
859.289	405
859.377	328
859.465	-408
859.552	-794
859.640	795
859.728	-325
859.816	48
859.903	235
859.991	-110
860.079	163
860.166	45
860.254	169
860.342	718
860.429	-534
860.517	111
860.604	-486
860.692	118
860.779	-72
860.867	163
860.954	39
861.042	340
861.129	28
861.216	1425
861.304	-463
861.391	331
861.478	-517
861.565	248
861.653	407
861.740	481
861.827	-502
861.914	456
862.001	-463
862.089	-275
862.176	223
862.263	118
862.350	-415
862.437	-257
862.524	-352
862.611	-151
862.698	-239
862.785	-54
862.871	-537
862.958	267
863.045	-327
863.132	551
863.219	-303
863.306	224
863.392	30
863.479	940
863.566	-1296
863.652	833
863.739	-216
863.826	18
863.912	144
863.999	-218
864.086	-15
864.172	708
864.259	-398
864.345	105
864.432	782
864.518	437
864.604	-48
864.691	307
864.777	-308
864.863	463
864.950	351
865.036	1235
865.122	1026
865.209	2392
865.295	3163
865.381	1864
865.467	2974
865.553	3634
865.639	4616
865.726	7735
865.812	13715
865.898	28815
865.984	54837
866.070	85589
866.156	138480
866.242	204209
866.328	78816
866.414	16030
866.499	6897
866.585	4068
866.671	3715
866.757	3482
866.843	1580
866.928	2752
867.014	1199
867.100	2450
867.186	1912
867.271	2151
867.357	2146
867.442	3418
867.528	2318
867.614	2320
867.699	1113
867.785	2044
867.870	1276
867.956	1215
868.041	1525
868.127	2009
868.212	1073
868.297	2095
868.383	1098
868.468	2553
868.553	3265
868.639	5626
868.724	5978
868.809	9606
868.894	12775
868.979	3919
869.065	864
869.150	1051
869.235	792
869.320	1123
869.405	667
869.490	685
869.575	857
869.660	1423
869.745	370
869.830	207
869.915	1033
870.000	942
870.085	1250
870.169	985
870.254	1119
870.339	1455
870.424	596
870.509	713
870.593	601
870.678	1334
870.763	327
870.847	412
870.932	508
871.016	957
871.101	361
871.186	134
871.270	430
871.355	976
871.439	1158
871.523	137
871.608	557
871.692	417
871.777	370
871.861	1045
871.945	61
872.030	1369
872.114	747
872.198	312
872.282	519
872.367	557
872.451	-44
872.535	829
872.619	566
872.703	834
872.787	-518
872.871	1203
872.955	1073
873.039	731
873.123	-241
873.207	408
873.291	8
873.375	-112
873.459	359
873.543	26
873.627	149
873.711	303
873.794	-136
873.878	328
873.962	-252
874.045	258
874.129	228
874.137	240
874.213	362
874.245	457
874.296	612
874.352	512
874.380	460
874.460	581
874.464	585
874.547	1183
874.568	912
874.631	131
874.676	662
874.714	1105
874.784	247
874.798	72
874.881	1851
874.892	1643
874.965	196
874.999	338
875.048	559
875.107	598
875.131	604
875.215	978
875.215	978
875.298	230
875.323	270
875.381	418
875.430	516
875.465	595
875.538	1298
875.548	1381
875.631	894
875.646	901
875.714	992
875.753	507
875.798	-41
875.861	348
875.881	459
875.964	305
875.968	332
876.047	850
876.076	783
876.130	660
876.183	968
876.213	1105
876.291	-296
876.296	-375
876.379	1147
876.398	1186
876.462	991
876.506	960
876.545	1094
876.613	407
876.628	227
876.711	638
876.721	612
876.794	537
876.828	745
876.877	983
876.935	896
876.960	860
877.043	1399
877.043	1396
877.125	842
877.150	964
877.208	1265
877.258	1435
877.291	1456
877.365	988
877.374	949
877.456	1117
877.472	1202
877.539	1560
877.579	1003
877.622	432
877.687	1316
877.704	1532
877.787	1030
877.794	1066
877.869	1645
877.901	1390
877.952	939
878.008	1119
878.034	1102
878.115	461
878.117	456
878.199	941
878.222	789
878.282	419
878.329	1042
878.364	1417
878.437	807
878.447	729
878.529	878
878.544	891
878.611	952
878.651	801
878.694	716
878.758	624
878.776	543
878.858	708
878.865	684
878.941	689
878.972	836
879.023	830
879.078	568
879.105	537
879.185	647
879.187	654
879.269	1284
879.292	1390
879.351	1642
879.399	1189
879.433	690
879.506	887
879.516	928
879.598	237
879.613	357
879.680	1102
879.720	973
879.762	740
879.827	595
879.844	611
879.926	1118
879.933	1131
880.007	863
880.040	667
880.089	640
880.147	1683
880.171	2144
880.253	3379
880.254	3394
880.335	6049
880.360	7033
880.417	9655
880.467	11408
880.499	13488
880.574	21401
880.580	21909
880.662	32122
880.680	29613
880.744	15195
880.787	7616
880.825	3547
880.893	2332
880.907	2055
880.989	1536
881.000	1392
881.070	1060
881.106	1198
881.152	1234
881.213	1023
881.233	1020
881.315	1283
881.319	1256
881.396	338
881.426	422
881.478	995
881.532	908
881.559	890
881.639	1589
881.641	1588
881.722	455
881.745	445
881.803	857
881.852	876
881.885	869
881.958	852
881.966	847
882.047	987
882.064	985
882.129	1277
882.171	1643
882.210	1759
882.277	1799
882.291	1905
882.372	3207
882.383	3187
882.454	2177
882.489	1399
882.535	738
882.596	379
882.616	276
882.697	553
882.702	548
882.778	526
882.808	506
882.859	464
882.914	667
882.940	708
883.020	371
883.021	375
883.102	883
883.127	849
883.183	625
883.233	864
883.264	935
883.339	631
883.345	624
883.426	815
883.445	725
883.507	188
883.551	294
883.587	567
883.657	377
883.668	382
883.749	1038
883.763	1047
883.830	1043
883.869	1225
883.910	1002
883.975	182
883.991	116
884.072	507
884.081	480
884.152	350
884.187	495
884.233	696
884.292	937
884.314	1045
884.394	1489
884.398	1465
884.475	453
884.504	360
884.555	723
884.610	912
884.636	807
884.716	738
884.716	745
884.797	893
884.821	1049
884.877	1316
884.927	1305
884.958	1196
885.033	1200
885.038	1207
885.118	802
885.139	773
885.199	631
885.244	449
885.279	443
885.350	568
885.359	629
885.439	1029
885.456	1162
885.520	1325
885.561	1256
885.600	1224
885.667	1252
885.680	1234
885.760	810
885.773	807
885.840	755
885.878	581
885.920	301
885.984	-64
886.000	60
886.080	669
886.089	755
886.160	1449
886.195	1647
886.240	1409
886.300	1148
886.320	1218
886.400	1513
886.406	1538
886.480	1529
886.511	1374
886.560	1427
886.616	1890
886.640	2017
886.720	1715
886.722	1711
886.800	921
886.827	549
886.879	592
886.932	848
886.959	1052
887.038	1402
887.039	1399
887.119	753
887.143	425
887.198	623
887.248	1142
887.278	1221
887.354	970
887.358	981
887.437	1360
887.459	1411
887.517	1317
887.564	1275
887.596	1308
887.669	1267
887.676	1242
887.755	983
887.774	887
887.835	857
887.880	949
887.914	884
887.985	513
887.994	589
888.073	1406
888.090	1539
888.153	1803
888.195	2038
888.232	2005
888.300	1848
888.311	1666
888.391	390
888.405	146
888.470	908
888.510	1389
888.549	1333
888.615	1217
888.628	1166
888.708	847
888.720	785
888.787	1051
888.825	1232
888.866	1270
888.930	1271
888.945	1231
889.024	1042
889.035	1006
889.103	1269
889.140	1429
889.182	1660
889.245	1938
889.261	1867
889.340	1532
889.349	1485
889.419	1396
889.454	1360
889.498	1576
889.559	1836
889.577	1595
889.656	537
889.664	432
889.735	707
889.768	838
889.814	560
889.873	189
889.978	1669
890.083	1059
890.187	1907
890.292	1411
890.397	1472
890.501	1134
890.606	1810
890.710	641
890.815	1146
890.919	846
891.024	1210
891.128	1433
891.233	1184
891.337	674
891.442	1854
891.546	868
891.650	1067
891.755	1324
891.859	1858
891.963	1228
892.068	1403
892.172	616
892.276	673
892.380	821
892.484	1013
892.589	1333
892.693	1780
892.797	904
892.901	394
893.005	1152
893.109	1385
893.213	1599
893.317	1432
893.421	522
893.525	1921
893.629	397
893.733	1174
893.837	557
893.941	1158
894.045	937
894.148	975
894.252	946
894.356	740
894.460	1865
894.564	2182
894.667	991
894.771	392
894.875	567
894.978	156
895.082	1202
895.186	804
895.289	871
895.393	1450
895.496	940
895.600	1267
895.703	694
895.807	917
895.910	1390
896.014	1825
896.117	1035
896.221	1238
896.324	792
896.427	1117
896.531	281
896.634	704
896.737	1347
896.840	777
896.944	666
897.047	1318
897.150	1012
897.253	480
897.356	1069
897.460	1288
897.563	170
897.666	1103
897.769	1271
897.872	957
897.975	277
898.078	1180
898.181	594
898.284	1000
898.387	1231
898.490	1515
898.593	988
898.695	363
898.798	440
898.901	475
899.004	615
899.107	571
899.209	765
899.312	348
899.415	602
899.518	753
899.620	216
899.723	773
899.826	1773
899.928	2281
900.031	1890
900.133	1192
900.236	427
900.338	1038
900.441	-92
900.543	708
900.646	438
900.748	1400
900.851	1007
900.953	635
901.055	1084
901.158	990
901.260	525
901.362	446
901.465	503
901.567	862
901.669	774
901.771	1415
901.873	1245
901.976	1380
902.078	731
902.180	1278
902.282	1260
902.384	1260
902.486	1371
902.588	2157
902.690	571
902.792	1074
902.894	673
902.996	997
903.098	1230
903.200	426
903.302	927
903.404	1222
903.505	617
903.607	1045
903.709	602
903.811	1096
903.913	1031
904.014	867
904.116	296
904.218	1323
904.319	1375
904.421	794
904.523	1561
904.624	1148
904.726	232
904.827	898
904.929	-126
905.030	-74
905.132	959
905.233	1695
905.335	513
905.436	754
905.537	575
905.639	761
905.740	814
905.841	1097
905.943	821
906.044	600
906.145	125
906.247	594
906.348	675
906.449	737
906.550	967
906.651	1263
906.752	619
906.854	966
906.955	989
907.056	346
907.157	-381
907.258	655
907.359	908
907.460	236
907.561	606
907.662	40
907.762	211
907.863	1313
907.964	209
908.065	1401
908.166	911
908.267	683
908.367	75
908.468	1010
908.569	370
908.670	649
908.770	1196
908.871	1875
908.971	701
909.072	1326
909.173	289
909.273	182
909.374	1016
909.474	773
909.575	365
909.675	426
909.776	464
909.876	719
909.977	470
910.077	-198
910.177	722
910.278	257
910.378	835
910.478	785
910.579	1269
910.679	334
910.779	814
910.879	877
910.980	-203
911.080	1092
911.180	171
911.280	287
911.380	-327
911.480	460
911.580	489
911.680	517
911.780	732
911.880	757
911.980	516
912.080	969
912.180	423
912.280	285
912.380	-618
912.480	1506
912.580	-464
912.679	744
912.779	233
912.879	1236
912.979	732
913.078	883
913.178	408
913.278	851
913.377	-217
913.477	757
913.577	870
913.676	890
913.776	927
913.875	705
913.975	-71
914.074	-93
914.174	510
914.273	260
914.373	293
914.472	614
914.572	196
914.671	642
914.770	282
914.870	393
914.969	190
915.068	579
915.167	979
915.267	1153
915.366	511
915.465	342
915.564	671
915.663	1094
915.763	20
915.862	240
915.961	579
916.060	482
916.159	24
916.258	269
916.357	-310
916.456	636
916.555	635
916.654	701
916.752	-437
916.851	718
916.950	1
917.049	392
917.148	867
917.247	916
917.345	199
917.444	470
917.543	-811
917.642	308
917.740	197
917.839	338
917.937	1017
918.036	1040
918.135	34
918.233	407
918.332	465
918.430	-105
918.529	365
918.627	597
918.726	665
918.824	586
918.923	10
919.021	434
919.119	71
919.218	284
919.316	238
919.414	740
919.512	330
919.611	498
919.709	8
919.807	650
919.905	478
920.003	998
920.102	772
920.200	788
920.298	603
920.396	781
920.494	374
920.592	-154
920.690	965
920.788	413
920.886	757
920.984	886
921.082	1166
921.180	1936
921.277	1018
921.375	471
921.473	1073
921.571	1262
921.669	901
921.766	1057
921.864	1487
921.962	1545
922.060	787
922.157	1345
922.255	645
922.352	915
922.450	1628
922.548	1744
922.645	1225
922.743	2462
922.840	2813
922.938	3980
923.035	3152
923.133	3412
923.230	3288
923.327	5034
923.425	4109
923.522	3886
923.619	3656
923.717	4465
923.814	2975
923.911	3017
924.008	3266
924.106	4203
924.203	3687
924.300	3213
924.397	3761
924.494	3661
924.591	3308
924.688	3328
924.786	3567
924.883	3613
924.979	3516
925.077	3486
925.173	2233
925.270	3188
925.367	2927
925.464	3917
925.561	4026
925.658	3871
925.755	4693
925.852	4447
925.948	2928
926.045	3642
926.142	2992
926.239	3155
926.335	3489
926.432	3704
926.529	2689
926.625	3673
926.722	3424
926.818	2626
926.915	2327
927.011	3194
927.108	3153
927.204	3180
927.301	2687
927.397	3181
927.494	2616
927.590	2541
927.687	2377
927.783	2183
927.879	3253
927.976	3342
928.072	2336
928.168	2868
928.264	3404
928.361	2664
928.457	2698
928.553	2885
928.649	2871
928.745	2411
928.841	3297
928.937	2636
929.033	1987
929.129	1959
929.225	2638
929.321	3814
929.417	2682
929.513	2053
929.609	2323
929.705	2783
929.801	2695
929.897	3108
929.993	1553
930.089	2846
930.184	3208
930.280	2520
930.376	2399
930.471	3037
930.567	2257
930.663	1898
930.758	1588
930.854	2382
930.950	1529
931.045	2462
931.141	1257
931.236	2377
931.332	3041
931.427	2188
931.523	1652
931.618	2832
931.714	2378
931.809	1942
931.905	2339
932.000	2278
932.095	1355
932.191	2798
932.286	2779
932.381	2652
932.476	1794
932.572	1878
932.667	1900
932.762	1638
932.857	2206
932.952	2600
933.047	2214
933.142	2865
933.237	2134
933.332	2623
933.427	1994
933.522	2330
933.617	1464
933.712	1658
933.807	1975
933.902	2473
933.997	2326
934.092	2621
934.187	1896
934.282	2312
934.376	2318
934.471	1756
934.566	2587
934.661	1614
934.755	2219
934.850	2131
934.945	2475
935.039	1823
935.134	1989
935.228	1452
935.323	1889
935.417	3368
935.512	1568
935.606	1273
935.701	2248
935.795	1833
935.890	1980
935.984	2450
936.079	1723
936.173	1779
936.267	1478
936.362	1955
936.456	1876
936.550	1879
936.644	1646
936.738	1835
936.833	512
936.927	1619
937.021	970
937.115	1293
937.209	1701
937.303	2582
937.397	1165
937.491	710
937.585	1169
937.679	1221
937.773	1611
937.867	1616
937.961	1148
938.055	1749
938.149	2027
938.243	1304
938.337	1165
938.430	1271
938.524	1162
938.618	1658
938.712	1710
938.805	2030
938.899	1208
938.993	2534
939.086	2526
939.180	1224
939.274	1091
939.367	2067
939.461	1841
939.554	1726
939.648	2188
939.741	1655
939.835	1466
939.928	2416
940.022	2410
940.115	1735
940.208	1838
940.302	2059
940.395	1865
940.488	1813
940.582	1445
940.675	1230
940.768	1062
940.861	1131
940.954	1693
941.048	1783
941.141	957
941.234	943
941.327	1736
941.420	2956
941.513	2988
941.606	2248
941.699	862
941.792	1697
941.885	1391
941.978	1029
942.071	1942
942.164	1712
942.257	1255
942.349	1398
942.442	1193
942.535	1428
942.628	1057
942.721	1346
942.813	686
942.906	1863
942.999	1368
943.091	472
943.184	971
943.277	1289
943.369	1008
943.462	970
943.554	620
943.647	961
943.739	1023
943.832	1612
943.924	1096
944.017	1540
944.109	1088
944.201	1074
944.294	815
944.386	1089
944.478	1562
944.571	568
944.663	452
944.755	1850
944.847	1151
944.940	969
945.032	635
945.124	1599
945.216	793
945.308	262
945.400	963
945.492	18
945.584	1346
945.676	1086
945.768	642
945.860	1197
945.952	842
946.044	1300
946.136	1461
946.228	597
946.320	1186
946.412	780
946.503	1321
946.595	2010
946.687	902
946.779	989
946.870	142
946.962	318
947.054	1112
947.145	701
947.237	57
947.329	450
947.420	593
947.512	1342
947.603	669
947.695	1008
947.786	833
947.878	644
947.969	395
948.061	1219
948.152	897
948.243	1102
948.335	501
948.426	-562
948.517	381
948.609	739
948.700	1613
948.791	1105
948.882	601
948.973	-73
949.065	-682
949.156	1354
949.247	746
949.338	697
949.429	-275
949.520	880
949.611	196
949.702	854
949.793	1552
949.884	1032
949.975	446
950.066	1475
950.157	-696
950.247	-222
950.338	749
950.429	838
950.520	44
950.611	701
950.701	162
950.792	407
950.883	809
950.973	805
951.064	68
951.155	1082
951.245	748
951.336	882
951.427	208
951.517	573
951.608	248
951.698	1000
951.788	-269
951.879	1167
951.969	-291
952.060	-362
952.150	9
952.240	859
952.331	67
952.421	1221
952.511	957
952.602	77
952.692	27
952.782	634
952.872	-253
952.962	914
953.052	474
953.143	-84
953.233	336
953.323	479
953.413	-301
953.503	264
953.593	-857
953.683	329
953.773	-823
953.863	-358
953.953	-236
954.042	134
954.132	-317
954.222	707
954.312	576
954.402	657
954.492	483
954.581	519
954.671	547
954.761	172
954.850	431
954.940	1020
955.030	-1425
955.119	-474
955.209	-161
955.298	402
955.388	170
955.477	-255
955.567	355
955.656	-3
955.746	-290
955.835	-84
955.925	288
956.014	-734
956.103	214
956.193	124
956.282	341
956.371	359
956.461	249
956.550	-430
956.639	-505
956.728	-668
956.817	227
956.906	120
956.995	792
957.085	-14
957.174	1038
957.263	-490
957.352	-1405
957.441	1
957.530	-130
957.619	344
957.708	-48
957.796	152
957.885	-226
957.974	-679
958.063	-13
958.152	-557
958.241	-452
958.329	-360
958.418	-664
958.507	10
958.596	-217
958.684	88
958.773	384
958.861	-112
958.950	-807
959.039	-110
959.127	-377
959.216	29
959.304	250
959.393	256
959.481	-387
959.570	914
959.658	-1402
959.746	-857
959.835	-297
959.923	-192
960.011	-58
960.100	400
960.188	196
960.276	-366
960.365	-152
960.453	313
960.541	40
960.629	-973
960.717	-1013
960.805	-368
960.893	-368
960.981	-147
961.069	166
961.158	-371
961.245	259
961.333	-96
961.421	-37
961.509	-225
961.597	-295
961.685	739
961.773	-578
961.861	5
961.949	-790
962.036	246
962.124	-765
962.212	-875
962.299	-843
962.387	110
962.475	-973
962.562	-136
962.650	257
962.738	441
962.825	-18
962.913	283
963.000	-1175
963.088	-12
963.175	-315
963.263	-195
963.350	-573
963.438	-767
963.525	-888
963.612	369
963.700	-636
963.787	745
963.874	2852
963.962	1599
964.049	107
964.136	-198
964.223	-1024
964.310	-1282
964.398	-165
964.485	-210
964.572	-364
964.659	-193
964.746	-845
964.833	-219
964.920	-375
965.007	757
965.094	-1053
965.181	-641
965.268	-988
965.355	147
965.441	156
965.528	-169
965.615	-1048
965.702	-408
965.789	-614
965.875	-100
965.962	-579
966.049	-807
966.136	22
966.222	306
966.309	-514
966.395	867
966.482	199
966.569	317
966.655	-1102
966.742	-746
966.828	-499
966.915	-563
967.001	-551
967.087	-841
967.174	-598
967.260	17
967.347	-520
967.433	-342
967.519	912
967.605	1551
967.692	672
967.778	-619
967.864	-568
967.950	-400
968.036	-353
968.123	-720
968.209	-320
968.295	-32
968.381	-598
968.467	-42
968.553	-732
968.639	-818
968.725	-745
968.811	-196
968.897	-62
968.983	-91
969.069	-696
969.154	-863
969.240	-1032
969.326	-1201
969.412	-502
969.497	-1266
969.583	-1381
969.669	-1356
969.755	-996
969.840	-67
969.926	-527
970.012	-459
970.097	215
970.183	806
970.268	571
970.354	-287
970.439	-399
970.525	-125
970.610	992
970.696	569
970.781	-33
970.866	-527
970.952	-431
971.037	-24
971.122	-856
971.208	88
971.293	-1042
971.378	-1023
971.463	-265
971.549	153
971.634	-657
971.719	-127
971.804	-324
971.889	902
971.974	-87
972.059	-520
972.144	-819
972.229	-739
972.314	-528
972.399	81
972.484	-790
972.569	-615
972.654	-491
972.739	528
972.824	-1033
972.908	-454
972.993	170
973.078	-598
973.163	-549
973.247	-560
973.332	-40
973.417	-250
973.501	-1105
973.586	-65
973.671	-900
973.755	-928
973.840	177
973.924	533
974.009	44
974.093	21
974.178	167
974.262	373
974.346	-740
974.431	138
974.515	-585
974.600	-945
974.684	-239
974.768	178
974.852	-389
974.937	154
975.021	-444
975.105	-145
975.189	59
975.273	-638
975.358	-414
975.442	-504
975.526	-297
975.610	-510
975.694	-821
975.778	170
975.862	-943
975.946	-1051
976.030	-739
976.114	-202
976.198	-672
976.281	-796
976.365	-99
976.449	-570
976.533	-438
976.617	-150
976.700	-995
976.784	-580
976.868	-713
976.951	101
977.035	-1014
977.119	-419
977.202	-434
977.286	-352
977.369	-104
977.453	459
977.536	384
977.620	144
977.703	-646
977.787	-161
977.870	-302
977.953	-336
978.037	-744
978.120	120
978.203	46
978.287	-27
978.370	121
978.453	432
978.536	-966
978.620	-857
978.703	-680
978.786	-455
978.869	-395
978.952	-693
979.035	-14
979.118	-243
979.201	-536
979.284	-920
979.367	-1579
979.450	-797
979.533	-286
979.616	-1230
979.699	-651
979.782	-1263
979.865	-144
979.948	209
980.030	-139
980.113	-58
980.196	-1170
980.279	-73
980.361	-748
980.444	-609
980.526	-273
980.609	210
980.692	-153
980.774	1002
980.857	-74
980.939	435
981.022	372
981.104	-425
981.187	-777
981.269	138
981.352	-525
981.434	166
981.516	-1163
981.599	66
981.681	-457
981.763	-469
981.846	-673
981.928	-1393
982.010	-804
982.092	-299
982.174	-531
982.256	-134
982.339	-303
982.421	-1103
982.503	-321
982.585	-120
982.667	-695
982.749	-637
982.831	-781
982.913	-68
982.995	-167
983.077	-799
983.158	-299
983.240	-790
983.322	-938
983.404	422
983.486	56
983.568	147
983.649	-374
983.731	-57
983.813	-678
983.894	-87
983.976	63
984.058	-807
984.139	61
984.221	-177
984.302	-580
984.384	98
984.465	-869
984.547	-203
984.628	-734
984.710	-426
984.791	-721
984.872	-163
984.954	-304
985.035	-676
985.116	-1102
985.198	-852
985.279	-585
985.360	-174
985.441	-1061
985.522	-462
985.604	-536
985.685	-1604
985.766	-673
985.847	358
985.928	-929
986.009	215
986.090	-182
986.171	-828
986.252	-1409
986.333	-254
986.414	-799
986.495	-60
986.576	-641
986.656	-248
986.737	-37
986.818	-492
986.899	-1120
986.980	149
987.060	-508
987.141	-297
987.222	-366
987.302	134
987.383	399
987.464	-572
987.544	-510
987.625	653
987.705	-580
987.786	23
987.866	-153
987.947	-190
988.027	-459
988.108	-571
988.188	50
988.268	-14
988.349	-856
988.429	-366
988.509	20
988.589	-156
988.670	-815
988.750	85
988.830	-411
988.910	-40
988.990	-482
989.070	91
989.151	-577
989.231	-519
989.311	-213
989.391	-1075
989.471	255
989.551	-370
989.631	27
989.711	169
989.791	-847
989.870	285
989.950	-541
990.030	-672
990.110	-676
990.190	-515
990.269	-1269
990.349	-411
990.429	-620
990.509	82
990.588	-546
990.668	-448
990.747	-1124
990.827	-863
990.907	-1132
990.986	-824
991.066	-1405
991.145	-271
991.225	-605
991.304	-538
991.383	-1069
991.463	-587
991.542	-436
991.622	-89
991.701	-659
991.780	-372
991.859	-886
991.939	-669
992.018	-856
992.097	-310
992.176	-416
992.256	-1058
992.335	-986
992.414	-51
992.493	-533
992.572	-92
992.651	-1655
992.730	-1547
992.809	-989
992.888	-740
992.967	-1168
993.046	670
993.125	-941
993.203	-1187
993.282	-1787
993.361	-371
993.440	-583
993.519	-493
993.597	-934
993.676	-1567
993.755	-753
993.834	-865
993.912	-1828
993.991	-885
994.069	-1297
994.148	-326
994.226	-1890
994.305	-443
994.384	-783
994.462	-933
994.540	-388
994.619	-622
994.697	-1018
994.776	-576
994.854	-530
994.932	-404
995.011	-1730
995.089	-403
995.167	-293
995.245	-973
995.324	-1404
995.402	-49
995.480	-1311
995.558	-398
995.636	-1726
995.714	29
995.792	-1409
995.870	-339
995.948	-1282
996.026	-939
996.104	-1248
996.182	-1286
996.260	-1462
996.338	-1926
996.416	-130
996.494	-1111
996.572	-1101
996.649	-729
996.727	-1327
996.805	-390
996.883	-1308
996.960	-302
997.038	-752
997.116	-411
997.193	-1873
997.271	-487
997.348	-966
997.426	-121
997.504	-1448
997.581	-1518
997.658	-1278
997.736	-1705
997.813	-1390
997.891	-677
997.968	-898
998.046	-981
998.123	-1833
998.200	-770
998.277	-1782
998.355	-224
998.432	-911
998.509	-1160
998.586	-1692
998.663	-184
998.741	-1539
998.818	-406
998.895	-1044
998.972	-540
999.049	-1164
999.126	-1405
999.203	-236
999.280	-919
999.357	-1246
999.434	-98
999.511	-921
999.587	-724
999.664	-1272
999.741	-1680
999.818	-649
999.895	-815
999.971	-1560
1000.048	-1286
1000.125	-1132
1000.202	-1581
1000.278	-489
1000.355	-572
1000.431	-1724
1000.508	-1073
1000.584	-1023
1000.661	-968
1000.738	-1189
1000.814	-658
1000.890	-1039
1000.967	-738
1001.043	-1892
1001.120	-1259
1001.196	-1289
1001.272	-1039
1001.349	-1185
1001.425	-942
1001.501	-1250
1001.577	-1344
1001.654	-1497
1001.730	-1154
1001.806	-1282
1001.882	-1304
1001.958	-456
1002.034	-1151
1002.110	-1942
1002.186	-1011
1002.262	-710
1002.338	-1403
1002.414	-1141
1002.490	-1080
1002.566	-1122
1002.642	-1532
1002.718	-595
1002.794	-921
1002.870	-1680
1002.945	-1024
1003.021	-1871
1003.097	-1058
1003.173	-832
1003.248	-992
1003.324	-1350
1003.400	-795
1003.475	-1459
1003.551	-1526
1003.626	-1195
1003.702	-1736
1003.777	-1723
1003.853	-910
1003.928	-1500
1004.004	-1658
1004.079	-1231
1004.155	-391
1004.230	-1680
1004.305	-1012
1004.381	-1262
1004.456	-1168
1004.531	-1655
1004.607	-1412
1004.682	-1297
1004.757	-1691
1004.832	-1285
1004.907	-946
1004.982	-573
1005.057	-1470
1005.133	-1556
1005.208	-943
1005.283	-1793
1005.358	-840
1005.433	-2220
1005.508	-1712
1005.583	-1365
1005.657	-774
1005.732	-1106
1005.807	-436
1005.882	-1373
1005.957	-1096
1006.032	-1934
1006.106	-1643
1006.181	-1148
1006.256	-1159
1006.331	-1166
1006.405	-2063
1006.480	-1500
1006.554	-1942
1006.629	-987
1006.704	-1534
1006.778	-1771
1006.853	-1205
1006.927	-940
1007.002	-1313
1007.076	-2046
1007.150	-1210
1007.225	-1250
1007.299	-881
1007.373	-1463
1007.448	-736
1007.522	-822
1007.596	-1375
1007.671	-1085
1007.745	-1849
1007.819	-1995
1007.893	-1846
1007.967	-1388
1008.041	-1298
1008.115	-844
1008.190	-659
1008.264	-1741
1008.338	-1867
1008.412	-1642
1008.486	-1699
1008.560	-1377
1008.633	-1097
1008.707	-1658
1008.781	-989
1008.855	-1532
1008.929	-1264
1009.003	-2028
1009.076	-1633
1009.150	-1520
1009.224	-645
1009.298	-894
1009.371	-772
1009.445	-1297
1009.519	-628
1009.592	-1762
1009.666	-1052
1009.739	-837
1009.813	-1958
1009.886	-598
1009.960	-1154
1010.033	-1450
1010.107	-1199
1010.180	-2371
1010.253	-1192
1010.327	-2184
1010.400	-1539
1010.473	-1174
1010.547	-1037
1010.620	-1490
1010.693	-1438
1010.766	-2029
1010.840	-1176
1010.913	-1914
1010.986	-1197
1011.059	-1617
1011.132	-1615
1011.205	-1881
1011.278	-1320
1011.351	-1278
1011.424	-1449
1011.497	-1687
1011.570	-1102
1011.643	-1645
1011.716	-1514
1011.789	-1468
1011.862	-133
1011.934	-1982
1012.007	-1641
1012.080	-1655
1012.153	-1956
1012.225	-1420
1012.298	-1101
1012.371	-1863
1012.443	-1807
1012.516	-931
1012.588	-1191
1012.661	-1084
1012.733	-1366
1012.806	-649
1012.879	-1788
1012.951	-2038
1013.023	-1321
1013.096	-1620
1013.168	-1395
1013.241	-1133
1013.313	-928
1013.385	-1809
1013.458	-739
1013.530	-1637
1013.602	-1260
1013.674	-1407
1013.746	-1251
1013.819	-2188
1013.891	-575
1013.963	-1782
1014.035	-1174
1014.107	-1127
1014.179	-1411
1014.251	-2050
1014.323	-1444
1014.395	-1477
1014.467	-1461
1014.539	-1213
1014.611	-1051
1014.683	-1971
1014.754	-960
1014.826	-1309
1014.898	-1669
1014.970	-2131
1015.042	-161
1015.113	-894
1015.185	-1022
1015.257	-2145
1015.328	-1053
1015.400	-1745
1015.471	-1123
1015.543	-1780
1015.615	-741
1015.686	-2173
1015.757	-1906
1015.829	-1303
1015.901	-2154
1015.972	-1169
1016.043	-1264
1016.115	-1058
1016.186	-1431
1016.257	-2265
1016.328	-1296
1016.400	-2323
1016.471	-1559
1016.542	-1534
1016.613	-565
1016.685	-2092
1016.756	-1630
1016.827	-1707
1016.898	-1398
1016.969	-972
1017.040	-1731
1017.111	-1854
1017.182	-1687
1017.253	-2393
1017.324	-1677
1017.395	-2513
1017.466	-1160
1017.537	-1864
1017.608	-1676
1017.678	-1891
1017.749	-1755
1017.820	-2030
1017.891	-1727
1017.961	-1867
1018.032	-2205
1018.103	-1557
1018.173	-1827
1018.244	-1708
1018.315	-1977
1018.385	-1329
1018.456	-1567
1018.526	-1593
1018.597	-1527
1018.667	-1945
1018.738	-1614
1018.808	-1925
1018.878	-1550
1018.949	-1657
1019.019	-1464
1019.089	-2020
1019.160	-2196
1019.230	-1908
1019.300	-2330
1019.371	-1913
1019.441	-1467
1019.511	-1919
1019.581	-1220
1019.651	-1711
1019.721	-1717
1019.791	-1932
1019.861	-1579
1019.931	-2043
1020.001	-1550
1020.071	-2767
1020.141	-823
1020.211	-1307
1020.281	-2424
1020.351	-2621
1020.421	-1714
1020.491	-1598
1020.560	-1674
1020.630	-2031
1020.700	-1240
1020.770	-1763
1020.839	-2177
1020.909	-1440
1020.979	-1582
1021.048	-2118
1021.118	-1820
1021.187	-2021
1021.257	-1237
1021.326	-1801
1021.396	-1395
1021.465	-1815
1021.535	-1245
1021.604	-1195
1021.674	-815
1021.743	-1750
1021.812	-1822
1021.882	-2307
1021.951	-1608
1022.020	-2475
1022.089	-1920
1022.159	-2592
1022.228	-1045
1022.297	-1510
1022.366	-1223
1022.435	-2791
1022.504	-1606
1022.573	-1770
1022.642	-1035
1022.711	-2220
1022.781	-1324
1022.849	-1926
1022.918	-475
1022.987	-1469
1023.056	-2117
1023.125	-1047
1023.194	-1197
1023.263	-1356
1023.331	-1648
1023.400	-2751
1023.469	-2407
1023.538	-2376
1023.606	-1566
1023.675	-1931
1023.744	-1565
1023.812	-2413
1023.881	-1064
1023.949	-2025
1024.018	-1665
1024.086	-1774
1024.155	-2177
1024.223	-2333
1024.292	-1255
1024.360	-2108
1024.429	-2252
1024.497	-2604
1024.565	-1508
1024.634	-1605
1024.702	-1887
1024.770	-1920
1024.838	-1794
1024.907	-1613
1024.975	-1588
1025.043	-1475
1025.111	-1548
1025.179	-1191
1025.247	-1848
1025.315	-1100
1025.383	-1776
1025.451	-1041
1025.519	-1051
1025.587	-2103
1025.655	-1689
1025.723	-2477
1025.791	-1036
1025.859	-1600
1025.927	-1402
1025.995	-1730
1026.062	-2055
1026.130	-1522
1026.198	-2346
1026.266	-1965
1026.333	-1962
1026.401	-1737
1026.469	-855
1026.536	-2460
1026.604	-1978
1026.671	-2474
1026.739	-1462
1026.806	-2417
1026.874	-1810
1026.941	-2412
1027.009	-1476
1027.076	-2234
1027.144	-1173
1027.211	-2125
1027.278	-1928
1027.345	-2458
1027.413	-1440
1027.480	-2587
1027.547	-2516
1027.614	-1731
1027.682	-1623
1027.749	-2257
1027.816	-1247
1027.883	-2140
1027.950	-1635
1028.017	-2195
1028.084	-1796
1028.151	-2690
1028.218	-1507
1028.285	-2586
1028.352	-1525
1028.419	-1379
1028.486	-1902
1028.553	-1693
1028.619	-1928
1028.686	-1392
1028.753	-1795
1028.820	-1590
1028.886	-1790
1028.953	-2478
1029.020	-1881
1029.086	-2088
1029.153	-2139
1029.220	-1888
1029.286	-1703
1029.353	-1936
1029.419	-1819
1029.486	-1717
1029.552	-1079
1029.619	-1080
1029.685	-2167
1029.751	-2401
1029.818	-1352
1029.884	-1295
1029.951	-1353
1030.017	-2207
1030.083	-1396
1030.149	-1261
1030.216	-911
1030.282	-1665
1030.348	-1657
1030.414	-1652
1030.480	-1858
1030.546	-1969
1030.612	-1296
1030.678	-2088
1030.744	-2000
1030.810	-1328
1030.876	-2056
1030.942	-2415
1031.008	-1354
1031.074	-2418
1031.140	-643
1031.206	-2005
1031.272	-1881
1031.337	-1409
1031.403	-1793
1031.469	-1364
1031.534	-1686
1031.600	-1251
1031.666	-1403
1031.731	-2212
1031.797	-1013
1031.863	-2132
1031.928	-1402
1031.994	-2153
1032.059	-1647
1032.125	-2213
1032.190	-2100
1032.256	-1575
1032.321	-1523
1032.386	-2502
1032.452	-1249
1032.517	-1791
1032.582	-1999
1032.647	-2690
1032.713	-2164
1032.778	-1981
1032.843	-1733
1032.908	-2054
1032.974	-1656
1033.039	-2203
1033.104	-1074
1033.169	-1373
1033.234	-893
1033.299	-1802
1033.364	-699
1033.429	-1853
1033.494	-1202
1033.559	-606
1033.624	-1326
1033.688	-1665
1033.753	-1643
1033.818	-1939
1033.883	-1895
1033.948	-1775
1034.013	-1136
1034.077	-1502
1034.142	-1318
1034.207	-817
1034.271	108
1034.336	-321
1034.400	422
1034.465	71
1034.530	1501
1034.594	-352
1034.658	-937
1034.723	-897
1034.787	-1275
1034.852	-1665
1034.916	-1305
1034.981	-1808
1035.045	-1820
1035.109	-1664
1035.173	-1762
1035.238	-1928
1035.302	-1773
1035.366	-1779
1035.430	-1800
1035.495	-2420
1035.559	-2312
1035.623	-1822
1035.687	-1925
1035.751	-1620
1035.815	-1938
1035.879	-790
1035.943	-1219
1036.007	-1667
1036.071	-1923
1036.135	-1711
1036.198	-2278
1036.262	-1225
1036.326	-999
1036.390	-1544
1036.454	-888
1036.517	-1418
1036.581	-1355
1036.645	-1121
1036.709	202
1036.772	-804
1036.836	-399
1036.900	-884
1036.963	-1468
1037.026	-2129
1037.090	-1658
1037.154	-2009
1037.217	-1377
1037.280	-2512
1037.344	-1556
1037.407	-1872
1037.471	-1682
1037.534	-1979
1037.597	-1798
1037.661	-2419
1037.724	-2029
1037.787	-1859
1037.850	-1274
1037.913	-1562
1037.977	-1786
1038.040	-1912
1038.103	-1759
1038.166	-1398
1038.229	-1463
1038.292	-1363
1038.355	-1055
1038.418	-2121
1038.481	-1601
1038.544	-1722
1038.607	-1717
1038.670	-2051
1038.732	-1366
1038.795	-2594
1038.858	-2389
1038.921	-1874
1038.984	-1861
1039.046	-1980
1039.109	-1457
1039.172	-2004
1039.234	-2090
1039.297	-1794
1039.360	-1754
1039.422	-2303
1039.485	-1878
1039.547	-1937
1039.610	-1064
1039.672	-1689
1039.734	-1644
1039.797	-2115
1039.859	-1005
1039.922	-1874
1039.984	-2593
1040.046	-2131
1040.109	-2001
1040.171	-2328
1040.233	-1857
1040.295	-2011
1040.358	-1578
1040.420	-1736
1040.482	-1918
1040.544	-2694
1040.606	-2033
1040.668	-2144
1040.730	-1989
1040.792	-1768
1040.854	-1785
1040.916	-1660
1040.978	-1504
1041.040	-1350
1041.102	-1810
1041.164	-2340
1041.225	-1757
1041.287	-1875
1041.349	-1519
1041.411	-2591
1041.472	-1716
1041.534	-2190
1041.596	-1927
1041.657	-1899
1041.719	-3019
1041.781	-1484
1041.842	-2428
1041.904	-1585
1041.965	-2314
1042.027	-2593
1042.088	-1618
1042.150	-1708
1042.211	-1692
1042.272	-1914
1042.334	-1617
1042.395	-2300
1042.456	-1531
1042.518	-1829
1042.579	-1016
1042.640	-2142
1042.701	-2468
1042.763	-2441
1042.824	-1880
1042.885	-2706
1042.946	-1631
1043.007	-1750
1043.068	-1458
1043.129	-2096
1043.190	-1258
1043.251	-1105
1043.312	-1959
1043.373	-1684
1043.434	-2000
1043.495	-1623
1043.556	-2334
1043.616	-2011
1043.677	-1472
1043.738	-2239
1043.799	-1506
1043.859	-1633
1043.920	-2785
1043.981	-2460
1044.041	-1756
1044.102	-2354
1044.162	-1785
1044.223	-1869
1044.284	-1869
1044.344	-1301
1044.405	-2023
1044.465	-2402
1044.525	-1329
1044.586	-2864
1044.646	-2170
1044.707	-1977
1044.767	-2512
1044.827	-2309
1044.887	-1859
1044.948	-1854
1045.008	-1628
1045.068	-1912
1045.128	-1476
1045.188	-1718
1045.249	-1565
1045.309	-2319
1045.369	-1936
1045.429	-2180
1045.489	-1428
1045.549	-1372
1045.609	-1152
1045.669	-2147
1045.729	-1865
1045.789	-1788
1045.848	-1353
1045.908	-1804
1045.968	-1705
1046.028	-1823
1046.088	-1315
1046.147	-1562
1046.207	-1043
1046.267	-1817
1046.326	-1148
1046.386	-1896
1046.446	-1337
1046.505	-1379
1046.565	-1538
1046.624	-1518
1046.684	-685
1046.743	-810
1046.803	-130
1046.862	-923
1046.922	0
