'Start Wavelength	183.907
'End Wavelength	1046.922
'Gate Delay	5.000
'Gate Width (ms)	1.050
'Laser Output Level	0.000
'X Position	0.000
'Y Position	0.000
'Z Position	0.000
'Grid Point Number	1.000
'Shot Number	100.000
183.907	399.000
183.977	136.000
184.047	1037
184.116	422
184.186	480
184.256	228
184.325	578
184.395	-376
184.465	2
184.534	478
184.604	410
184.674	335
184.743	849
184.813	671
184.883	41
184.952	782
185.022	305
185.092	-8
185.161	1096
185.231	262
185.301	295
185.370	-25
185.440	87
185.509	254
185.579	-616
185.649	288
185.718	876
185.788	346
185.857	-16
185.927	501
185.996	46
186.066	155
186.136	394
186.205	534
186.275	555
186.344	412
186.414	-4
186.483	-130
186.553	730
186.622	520
186.692	344
186.761	808
186.831	-411
186.900	496
186.970	89
187.039	354
187.109	343
187.178	-392
187.248	510
187.317	-137
187.387	-306
187.456	-322
187.526	358
187.595	1066
187.664	747
187.734	889
187.803	-14
187.873	631
187.942	452
188.012	100
188.081	92
188.150	27
188.220	900
188.289	903
188.358	679
188.428	149
188.497	495
188.567	-76
188.636	553
188.705	-300
188.775	1098
188.844	479
188.913	880
188.983	205
189.052	321
189.121	-419
189.191	411
189.260	576
189.329	968
189.399	-63
189.468	523
189.537	369
189.606	107
189.676	-60
189.745	-4
189.814	230
189.883	-570
189.953	182
190.022	302
190.091	1278
190.161	1326
190.230	746
190.299	660
190.368	631
190.437	458
190.507	726
190.576	502
190.645	500
190.714	-34
190.783	936
190.853	115
190.922	401
190.991	381
191.060	532
191.129	924
191.198	306
191.268	-357
191.337	1100
191.406	1076
191.475	-91
191.544	784
191.613	481
191.682	254
191.752	621
191.821	356
191.890	590
191.959	454
192.028	449
192.097	407
192.166	383
192.235	4
192.304	495
192.373	75
192.442	-192
192.511	927
192.580	1058
192.650	955
192.719	-12
192.788	681
192.857	231
192.926	586
192.995	37
193.064	1148
193.133	792
193.202	1237
193.271	1354
193.340	519
193.409	545
193.478	373
193.547	512
193.615	2009
193.684	1530
193.753	1335
193.822	989
193.891	682
193.960	475
194.029	680
194.098	522
194.167	473
194.236	486
194.305	9
194.374	549
194.443	174
194.512	473
194.580	309
194.649	1261
194.718	456
194.787	275
194.856	863
194.925	637
194.994	207
195.062	530
195.131	878
195.200	1642
195.269	421
195.338	1007
195.407	412
195.475	887
195.544	1839
195.613	173
195.682	400
195.751	1791
195.819	651
195.888	1223
195.957	782
196.026	665
196.094	720
196.163	854
196.232	915
196.301	741
196.369	1070
196.438	502
196.507	628
196.576	750
196.644	675
196.713	758
196.782	1185
196.850	914
196.919	600
196.988	709
197.056	864
197.125	234
197.194	571
197.262	341
197.331	578
197.400	820
197.468	345
197.537	675
197.606	915
197.674	1379
197.743	1182
197.812	1254
197.880	2582
197.949	1454
198.017	2733
198.086	979
198.155	681
198.223	1541
198.292	2177
198.360	638
198.429	820
198.497	947
198.566	1944
198.635	897
198.703	1598
198.772	1206
198.840	3182
198.909	1100
198.977	948
199.046	450
199.114	595
199.183	681
199.251	693
199.320	838
199.388	861
199.457	227
199.525	677
199.594	138
199.662	743
199.731	321
199.799	1106
199.867	1238
199.936	269
200.004	549
200.073	1176
200.141	354
200.210	507
200.278	445
200.346	915
200.415	849
200.483	1606
200.552	733
200.620	171
200.688	204
200.757	1047
200.825	276
200.893	706
200.962	399
201.030	523
201.098	554
201.167	1086
201.235	679
201.303	1124
201.372	662
201.440	958
201.508	772
201.577	1336
201.645	886
201.713	484
201.781	776
201.850	937
201.918	577
201.986	211
202.055	-243
202.123	988
202.191	907
202.259	954
202.327	1052
202.396	654
202.464	691
202.532	1369
202.600	3353
202.669	853
202.737	889
202.805	956
202.873	673
202.941	549
203.009	341
203.078	680
203.146	1085
203.214	538
203.282	611
203.350	565
203.418	254
203.487	119
203.555	889
203.623	453
203.691	1243
203.759	45
203.827	863
203.895	959
203.963	780
204.031	797
204.099	1170
204.168	392
204.236	1413
204.304	1189
204.372	567
204.440	1038
204.508	938
204.576	813
204.644	861
204.712	457
204.780	496
204.848	1268
204.916	687
204.984	1126
205.052	983
205.120	835
205.188	909
205.256	638
205.324	753
205.392	1254
205.460	1386
205.528	958
205.596	644
205.664	1678
205.732	1251
205.799	4269
205.867	2260
205.935	943
206.003	712
206.071	1248
206.139	590
206.207	687
206.275	974
206.343	775
206.411	849
206.478	962
206.546	720
206.614	1278
206.682	622
206.750	909
206.818	1389
206.885	1211
206.953	329
207.021	1513
207.089	883
207.157	1446
207.225	768
207.292	1011
207.360	943
207.428	876
207.496	666
207.563	-254
207.631	264
207.699	673
207.767	1239
207.834	991
207.902	327
207.970	1008
208.038	1128
208.105	1263
208.173	1089
208.241	1727
208.309	1148
208.376	1615
208.444	2397
208.512	1430
208.579	653
208.647	1539
208.715	1502
208.782	592
208.850	1020
208.918	1348
208.985	1028
209.053	1641
209.120	1041
209.188	1005
209.256	474
209.323	837
209.391	1707
209.459	1015
209.526	1366
209.594	1250
209.661	1334
209.729	1327
209.796	1242
209.864	822
209.932	683
209.999	1288
210.067	1379
210.134	1022
210.202	943
210.269	1901
210.337	2122
210.404	1514
210.472	1055
210.539	1411
210.607	964
210.674	929
210.742	1398
210.809	1290
210.877	1241
210.944	1547
211.012	874
211.079	1521
211.146	1056
211.214	1505
211.281	1407
211.349	1124
211.416	1455
211.484	2116
211.551	1316
211.618	829
211.686	862
211.753	1662
211.821	1029
211.888	1695
211.955	971
212.023	1077
212.090	989
212.157	1764
212.225	1812
212.292	2334
212.359	6927
212.427	10307
212.494	2781
212.561	2114
212.629	1442
212.696	1171
212.763	1127
212.831	1944
212.898	1379
212.965	1359
213.032	1155
213.100	1674
213.167	2043
213.234	1658
213.301	1035
213.369	1273
213.436	1378
213.503	988
213.570	1523
213.638	1521
213.705	1306
213.772	1103
213.839	1244
213.906	1901
213.973	850
214.041	889
214.108	988
214.175	1520
214.242	610
214.309	1586
214.376	281
214.444	1930
214.511	2174
214.578	2369
214.645	1533
214.712	1777
214.779	834
214.846	2314
214.913	1793
214.980	2629
215.048	2203
215.115	2321
215.182	1821
215.249	1920
215.316	1450
215.383	1567
215.450	1410
215.517	1487
215.584	1152
215.651	1258
215.718	958
215.785	1260
215.852	864
215.919	1634
215.986	1045
216.053	1546
216.120	778
216.187	1017
216.254	1472
216.321	1025
216.388	1241
216.455	1399
216.522	1248
216.589	2486
216.656	3603
216.722	2189
216.789	2298
216.856	2254
216.923	1613
216.990	2347
217.057	2230
217.124	2434
217.191	2648
217.258	3136
217.324	3453
217.391	3422
217.458	2674
217.525	2166
217.592	2211
217.659	1328
217.725	1685
217.792	3107
217.859	2523
217.926	903
217.993	1188
218.059	1677
218.126	1971
218.193	1243
218.260	1453
218.327	575
218.393	1175
218.460	509
218.527	155
218.594	2057
218.660	2398
218.727	2322
218.794	528
218.860	1576
218.927	1125
218.994	1317
219.061	1070
219.127	1432
219.194	1888
219.261	1454
219.327	898
219.394	942
219.461	776
219.527	1142
219.594	2091
219.661	1421
219.727	947
219.794	1176
219.860	747
219.927	1722
219.994	2757
220.060	3742
220.127	2120
220.193	2737
220.260	2202
220.326	3080
220.393	5128
220.460	4785
220.526	3161
220.593	2761
220.659	2226
220.726	3656
220.792	7595
220.859	4868
220.925	8259
220.992	8822
221.058	9712
221.125	7879
221.191	4744
221.258	2759
221.324	2067
221.391	1827
221.457	1200
221.524	2035
221.590	3265
221.657	7862
221.723	3879
221.789	6164
221.856	3392
221.922	1771
221.989	1404
222.055	1275
222.121	1584
222.188	2219
222.254	1791
222.321	1336
222.387	1676
222.453	1521
222.520	1737
222.586	1008
222.652	1267
222.719	1131
222.785	813
222.851	1041
222.918	1380
222.984	704
223.050	205
223.116	960
223.183	1017
223.249	533
223.315	567
223.382	580
223.448	143
223.514	7
223.580	656
223.647	483
223.713	989
223.779	308
223.845	360
223.911	612
223.978	304
224.044	840
224.110	739
224.176	510
224.242	722
224.309	858
224.375	910
224.441	781
224.507	1127
224.573	136
224.639	898
224.705	1338
224.772	668
224.838	387
224.904	1097
224.970	406
225.036	69
225.102	1054
225.168	1203
225.234	1154
225.300	494
225.366	707
225.432	805
225.499	1202
225.565	794
225.631	1520
225.697	917
225.763	1339
225.829	2021
225.895	1953
225.961	2730
226.027	2034
226.093	2268
226.159	2755
226.225	4145
226.291	11159
226.357	12204
226.423	5460
226.489	2463
226.554	2553
226.620	2846
226.686	2753
226.752	4219
226.818	10524
226.884	20340
226.950	11344
227.016	4530
227.082	3087
227.148	2834
227.214	3059
227.279	2046
227.345	1356
227.411	1152
227.477	3407
227.543	7344
227.609	5695
227.674	2196
227.740	1851
227.806	1740
227.872	1429
227.938	1979
228.003	1961
228.069	737
228.135	1566
228.201	1059
228.267	1046
228.332	1436
228.398	1875
228.464	1095
228.530	1087
228.595	951
228.661	1733
228.727	1788
228.792	1056
228.858	578
228.924	1223
228.990	1241
229.055	1169
229.121	1232
229.187	965
229.252	1294
229.318	913
229.384	603
229.449	1339
229.515	659
229.581	257
229.646	875
229.712	1323
229.777	3421
229.843	2322
229.909	2168
229.974	2149
230.040	1805
230.105	1806
230.171	1376
230.236	3015
230.302	3046
230.368	2275
230.433	1650
230.499	647
230.564	614
230.630	1212
230.695	580
230.761	2095
230.826	987
230.892	1985
230.957	1005
231.023	1382
231.088	1137
231.154	1292
231.219	1575
231.284	2207
231.350	1638
231.415	934
231.481	544
231.546	410
231.612	1252
231.677	594
231.742	797
231.808	1253
231.873	430
231.939	1215
232.004	2426
232.069	1258
232.135	1452
232.200	501
232.265	868
232.331	841
232.396	1015
232.461	885
232.527	539
232.592	479
232.657	942
232.723	1508
232.788	835
232.853	897
232.918	780
232.984	996
233.049	913
233.114	1574
233.179	1478
233.245	2395
233.310	1777
233.375	634
233.440	672
233.506	250
233.571	692
233.636	333
233.701	1471
233.766	2419
233.832	973
233.897	489
233.962	161
234.027	694
234.092	384
234.157	1075
234.222	1303
234.288	3097
234.353	5149
234.418	4051
234.483	3129
234.548	1912
234.613	1691
234.678	1656
234.743	2040
234.808	5102
234.873	1892
234.938	1129
235.004	965
235.069	1043
235.134	974
235.199	1111
235.264	871
235.329	1738
235.394	1535
235.459	1589
235.524	1126
235.589	896
235.654	1460
235.719	659
235.784	1263
235.849	2356
235.913	2357
235.978	4045
236.043	2375
236.108	1139
236.173	649
236.238	1581
236.303	947
236.368	1079
236.433	3940
236.498	3507
236.563	3436
236.627	10070
236.692	24433
236.757	11758
236.822	5661
236.887	4438
236.952	2685
237.017	2827
237.081	3194
237.146	5299
237.211	10476
237.276	30958
237.341	29093
237.405	10556
237.470	5514
237.535	3674
237.600	2973
237.664	2402
237.729	1893
237.794	4668
237.859	4718
237.923	3260
237.988	1770
238.053	2424
238.118	3335
238.182	9718
238.247	4200
238.312	2463
238.376	2568
238.441	1044
238.506	1979
238.570	728
238.635	1146
238.700	1610
238.764	1303
238.829	4546
238.893	2623
238.958	2877
239.023	1184
239.087	2192
239.152	1528
239.216	1017
239.281	799
239.346	1185
239.410	1721
239.475	2652
239.539	8760
239.604	3228
239.668	1711
239.733	2358
239.797	6111
239.862	10746
239.926	6307
239.991	2548
240.055	1291
240.120	1393
240.184	1860
240.249	954
240.313	1170
240.378	1348
240.442	5603
240.507	4433
240.571	1678
240.635	3791
240.700	2064
240.764	1183
240.829	719
240.893	907
240.957	948
241.022	4937
241.086	4838
241.151	2024
241.215	358
241.279	3033
241.344	2814
241.408	1583
241.472	1612
241.537	2318
241.601	1343
241.665	1207
241.730	1466
241.794	1178
241.858	1324
241.922	1349
241.987	1201
242.051	1610
242.115	1114
242.179	837
242.244	1127
242.308	1485
242.372	2004
242.436	1790
242.501	886
242.565	1504
242.629	1000
242.693	989
242.757	1051
242.822	1001
242.886	1058
242.950	1176
243.014	1097
243.078	1553
243.142	1189
243.206	1377
243.271	1252
243.335	1347
243.399	3668
243.463	21756
243.527	23788
243.591	6114
243.655	3026
243.719	1717
243.783	2598
243.847	4393
243.911	3762
243.975	3520
244.040	1709
244.104	2151
244.168	1170
244.232	2365
244.296	3662
244.360	2645
244.424	1127
244.488	1379
244.552	844
244.615	1066
244.679	1230
244.743	2098
244.807	1028
244.871	1288
244.935	722
244.999	426
245.063	709
245.127	1961
245.191	3093
245.255	1929
245.319	2078
245.383	1592
245.446	1209
245.510	1309
245.574	1893
245.638	1202
245.702	1830
245.766	3349
245.829	1963
245.893	1483
245.957	1630
246.021	1691
246.085	1858
246.149	2900
246.212	7877
246.276	7402
246.340	3205
246.404	1996
246.467	2944
246.531	2815
246.595	2152
246.659	2152
246.722	1400
246.786	2265
246.850	3333
246.913	2265
246.977	1414
247.041	1897
247.104	1134
247.168	2886
247.232	8966
247.295	10661
247.359	3590
247.423	3278
247.486	3856
247.550	2782
247.614	2047
247.677	2290
247.741	1864
247.804	3061
247.868	2711
247.932	8872
247.995	8575
248.059	2818
248.122	1978
248.186	3521
248.249	7262
248.313	23877
248.376	15786
248.440	9314
248.503	2896
248.567	4204
248.630	5940
248.694	6211
248.757	13717
248.821	18824
248.884	9716
248.948	12630
249.011	16884
249.075	25456
249.138	13715
249.202	6046
249.265	4364
249.328	4626
249.392	4195
249.455	3797
249.519	3015
249.582	4260
249.645	5821
249.709	3875
249.772	3526
249.835	3184
249.899	3074
249.962	3180
250.025	3381
250.089	10719
250.152	6900
250.215	4542
250.279	4122
250.342	3545
250.405	3393
250.468	3686
250.532	4886
250.595	9928
250.658	47177
250.721	34505
250.785	11154
250.848	7585
250.911	4784
250.974	4617
251.038	10101
251.101	11140
251.164	7045
251.227	6405
251.290	5932
251.354	16032
251.417	53466
251.480	26179
251.543	38815
251.606	83567
251.669	34328
251.732	16105
251.795	19072
251.859	27090
251.922	46992
251.985	16305
252.048	8826
252.111	5843
252.174	6013
252.237	16564
252.300	22722
252.363	43005
252.426	51387
252.489	16254
252.552	8393
252.615	6416
252.678	10067
252.741	20171
252.804	41956
252.867	54903
252.930	24570
252.993	12999
253.056	8770
253.119	5620
253.182	6450
253.245	8562
253.308	6054
253.371	5921
253.434	5339
253.497	6905
253.559	10581
253.622	5668
253.685	7426
253.748	5486
253.811	3472
253.874	5136
253.937	4089
254.000	3991
254.062	10772
254.125	8804
254.188	10017
254.251	5058
254.314	4674
254.376	6327
254.439	5794
254.502	4410
254.565	10254
254.628	10264
254.690	5237
254.753	2711
254.816	3050
254.878	3977
254.941	10489
255.004	5335
255.067	3540
255.129	2221
255.192	1411
255.255	2222
255.317	1858
255.380	1453
255.443	1397
255.505	1359
255.568	2021
255.631	1714
255.693	1617
255.756	1480
255.819	1769
255.881	1298
255.944	1010
256.006	1298
256.069	1338
256.132	1191
256.194	2331
256.257	4180
256.319	3079
256.382	2367
256.444	2890
256.507	2098
256.569	1265
256.632	2662
256.694	3646
256.757	21792
256.819	26680
256.882	8597
256.944	3745
257.007	3377
257.069	2679
257.132	2753
257.194	2282
257.257	2185
257.319	1431
257.381	3155
257.444	14583
257.506	49591
257.569	27048
257.631	12498
257.693	6863
257.756	3482
257.818	2427
257.880	1653
257.943	1641
258.005	1814
258.067	1415
258.130	1793
258.192	2585
258.254	4091
258.317	1964
258.379	3449
258.441	7795
258.503	4744
258.566	9828
258.628	5454
258.690	1429
258.753	3333
258.815	2995
258.877	1828
258.939	1424
259.001	2207
259.064	1331
259.126	2550
259.188	2412
259.250	2778
259.312	3516
259.375	7197
259.437	2633
259.499	1704
259.561	1672
259.623	2118
259.685	582
259.747	2678
259.809	10365
259.872	10952
259.934	22434
259.996	9979
260.058	2790
260.120	3189
260.182	1484
260.244	1511
260.306	1158
260.368	2272
260.430	1230
260.492	3426
260.554	5322
260.616	3517
260.678	12875
260.740	7713
260.802	2558
260.864	2174
260.926	2362
260.988	2053
261.050	2237
261.112	5454
261.174	13484
261.236	5796
261.298	2471
261.359	7012
261.421	4657
261.483	981
261.545	1632
261.607	1513
261.669	714
261.731	4966
261.793	5790
261.854	2202
261.916	2653
261.978	1607
262.040	1576
262.102	1815
262.164	3192
262.225	1549
262.287	3090
262.349	5295
262.411	1524
262.472	1896
262.534	5496
262.596	4611
262.658	1024
262.719	1564
262.781	3928
262.843	5304
262.904	2107
262.966	1704
263.028	3432
263.090	29442
263.151	29306
263.213	9208
263.275	4306
263.336	2655
263.398	1773
263.459	1250
263.521	1862
263.583	3771
263.644	2058
263.706	2155
263.767	486
263.829	1290
263.891	290
263.952	1047
264.014	1019
264.075	2996
264.137	3142
264.198	1742
264.260	726
264.321	1570
264.383	4903
264.444	4363
264.506	1389
264.567	1448
264.629	4283
264.690	4065
264.752	1502
264.813	1886
264.875	752
264.936	1266
264.998	827
265.059	627
265.120	614
265.182	5288
265.243	21874
265.305	8865
265.366	2054
265.427	1558
265.489	2448
265.550	1147
265.611	1327
265.673	1884
265.734	1294
265.795	1043
265.857	1218
265.918	1427
265.979	9075
266.040	33448
266.102	11107
266.163	4547
266.224	2364
266.286	2332
266.347	608
266.408	1277
266.469	1533
266.530	1265
266.592	1124
266.653	3601
266.714	3099
266.775	1060
266.836	410
266.898	1277
266.959	1040
267.020	458
267.081	1484
267.142	922
267.203	571
267.264	1103
267.326	1555
267.387	1280
267.448	-185
267.509	1378
267.570	727
267.631	381
267.692	458
267.753	1273
267.814	-652
267.875	4823
267.936	4182
267.997	2604
268.058	1837
268.119	1196
268.180	920
268.241	700
268.302	849
268.363	680
268.424	840
268.485	978
268.546	188
268.607	459
268.668	70
268.729	1367
268.790	197
268.851	1705
268.912	3454
268.972	3174
269.033	757
269.094	264
269.155	1200
269.216	747
269.277	902
269.338	674
269.398	1363
269.459	988
269.520	1957
269.581	2125
269.642	950
269.702	1500
269.763	1459
269.824	1235
269.885	1507
269.945	2261
270.006	553
270.067	463
270.128	387
270.188	1145
270.249	170
270.310	829
270.370	1423
270.431	916
270.492	265
270.553	1406
270.613	4423
270.674	4178
270.734	1537
270.795	546
270.856	1862
270.916	1106
270.977	1369
271.038	1809
271.098	1257
271.159	2653
271.219	1316
271.280	1098
271.340	661
271.401	2134
271.462	2931
271.522	1650
271.583	1486
271.643	1058
271.704	697
271.764	1904
271.825	5977
271.885	24999
271.946	14846
272.006	5151
272.066	17768
272.127	13507
272.187	3969
272.248	3087
272.308	5680
272.369	12439
272.429	3690
272.489	3614
272.550	3078
272.610	3535
272.671	1889
272.731	3602
272.791	3246
272.852	1879
272.912	2831
272.972	1627
273.033	2176
273.093	1892
273.153	1734
273.214	1752
273.274	1833
273.334	15072
273.394	12094
273.455	4475
273.515	9897
273.575	10501
273.635	4424
273.696	13036
273.756	13782
273.816	4638
273.876	3500
273.936	9825
273.997	7124
274.057	2514
274.117	2688
274.177	7458
274.237	24940
274.297	11703
274.358	9982
274.418	13383
274.478	6080
274.538	3024
274.598	3320
274.658	11596
274.718	8363
274.778	3608
274.838	2206
274.898	9361
274.958	14854
275.018	18365
275.078	6640
275.138	3016
275.198	2213
275.258	1885
275.318	2453
275.378	3756
275.438	3878
275.498	2544
275.558	12057
275.618	16323
275.678	7539
275.738	6013
275.798	4048
275.858	1848
275.918	1382
275.978	2830
276.038	1938
276.098	1896
276.157	5729
276.217	7844
276.277	3411
276.337	2857
276.397	1536
276.457	2192
276.517	1645
276.576	1051
276.636	1928
276.696	3361
276.756	6778
276.815	3233
276.875	1786
276.935	2245
276.995	2128
277.055	1680
277.114	1560
277.174	5191
277.234	6136
277.293	1802
277.353	2141
277.413	2278
277.472	2534
277.532	1146
277.592	2966
277.651	17564
277.711	12169
277.771	8139
277.830	23825
277.890	9795
277.950	26263
278.009	33742
278.069	9734
278.128	20157
278.188	12620
278.248	10981
278.307	22312
278.367	7574
278.426	3284
278.486	2319
278.545	1791
278.605	2274
278.664	1387
278.724	3540
278.783	14149
278.843	14425
278.902	4847
278.962	2996
279.021	3502
279.081	6163
279.140	3716
279.199	3798
279.259	4699
279.318	4507
279.378	5794
279.437	15150
279.496	56513
279.556	134741
279.615	51672
279.675	17778
279.734	12204
279.793	24279
279.853	22178
279.912	7606
279.971	5093
280.031	4921
280.090	16966
280.149	14376
280.208	23322
280.268	104237
280.327	45836
280.386	14494
280.445	11499
280.505	6896
280.564	5181
280.623	3481
280.682	7949
280.742	5037
280.801	2387
280.860	2123
280.919	1823
280.978	1605
281.037	1444
281.097	2279
281.156	1551
281.215	1730
281.274	4365
281.333	14163
281.392	3623
281.451	1985
281.510	1758
281.569	2329
281.628	1657
281.688	2418
281.747	1749
281.806	1264
281.865	1602
281.924	1806
281.983	1784
282.042	1098
282.101	987
282.160	1808
282.219	1173
282.278	2682
282.337	5178
282.396	2576
282.454	1827
282.513	4166
282.572	7397
282.631	2800
282.690	960
282.749	948
282.808	1872
282.867	2122
282.926	1847
282.985	1414
283.043	895
283.102	1207
283.161	2007
283.220	7431
283.279	7695
283.338	1944
283.396	1742
283.455	2346
283.514	2446
283.573	3679
283.631	1817
283.690	2033
283.749	1504
283.808	4682
283.866	3106
283.925	1489
283.984	2503
284.043	2551
284.101	2531
284.160	1992
284.219	3006
284.277	2422
284.336	5730
284.395	12890
284.453	6328
284.512	4804
284.570	4807
284.629	4587
284.688	3920
284.746	4753
284.805	6213
284.863	8659
284.922	8134
284.981	10009
285.039	15100
285.098	32021
285.156	99616
285.215	186161
285.273	127158
285.332	55687
285.390	31389
285.449	19359
285.507	13286
285.566	9457
285.624	6829
285.683	5754
285.741	4367
285.799	4012
285.858	2924
285.916	3415
285.975	3111
286.033	2310
286.091	2071
286.150	2213
286.208	2876
286.267	3034
286.325	2134
286.383	3869
286.442	2494
286.500	2739
286.558	2102
286.616	2337
286.675	2509
286.733	2637
286.791	1704
286.850	2212
286.908	3639
286.966	4178
287.024	1959
287.083	1989
287.141	767
287.199	2052
287.257	2372
287.315	1916
287.374	2817
287.432	5048
287.490	2445
287.548	2129
287.606	984
287.664	2043
287.723	2339
287.781	2463
287.839	1698
287.897	2393
287.955	2781
288.013	4745
288.071	16432
288.129	118237
288.187	152465
288.245	43454
288.303	17408
288.361	10908
288.419	7088
288.477	4291
288.535	2436
288.593	2239
288.651	2114
288.709	1586
288.767	1342
288.825	1158
288.883	1067
288.941	1702
288.999	899
289.057	849
289.115	588
289.173	1680
289.231	1621
289.289	1653
289.346	1350
289.404	1292
289.462	2353
289.520	2282
289.578	836
289.636	693
289.694	551
289.751	865
289.809	1353
289.867	1419
289.925	1382
289.983	1006
290.040	916
290.098	1380
290.156	1404
290.214	680
290.271	400
290.329	1272
290.387	819
290.444	303
290.502	993
290.560	701
290.617	935
290.675	395
290.733	1051
290.790	444
290.848	711
290.906	646
290.963	206
291.021	469
291.078	205
291.136	1284
291.194	6770
291.251	6341
291.309	1392
291.366	540
291.424	993
291.481	382
291.539	643
291.596	1086
291.654	486
291.711	325
291.769	1028
291.826	2042
291.884	1117
291.941	374
291.999	1065
292.056	895
292.114	979
292.171	1045
292.228	711
292.286	1018
292.343	3232
292.401	2246
292.458	470
292.515	1466
292.573	1503
292.630	484
292.687	755
292.745	1194
292.802	1422
292.859	6033
292.917	9435
292.974	3106
293.031	563
293.089	780
293.146	889
293.203	576
293.260	880
293.318	2096
293.375	1276
293.432	920
293.489	513
293.546	851
293.604	2282
293.661	15579
293.718	19189
293.775	6094
293.832	3630
293.889	3288
293.947	2860
294.004	1773
294.061	1555
294.118	7192
294.175	8790
294.232	7006
294.289	2435
294.346	2123
294.403	2362
294.460	1753
294.517	589
294.574	747
294.631	795
294.688	2180
294.745	11766
294.802	26059
294.859	12975
294.916	6576
294.973	3681
295.030	3490
295.087	1730
295.144	1189
295.201	1207
295.258	1069
295.315	2688
295.372	15604
295.429	12680
295.486	3947
295.542	3148
295.599	9591
295.656	7907
295.713	12398
295.770	11493
295.827	3839
295.883	2117
295.940	2383
295.997	3318
296.054	1574
296.111	982
296.167	1142
296.224	1049
296.281	725
296.338	269
296.394	678
296.451	2432
296.508	9237
296.564	7896
296.621	8619
296.678	30010
296.734	19741
296.791	6465
296.848	3939
296.904	5699
296.961	11566
297.018	17857
297.074	7996
297.131	3496
297.187	2766
297.244	7256
297.301	35719
297.357	27442
297.414	8568
297.470	3930
297.527	3567
297.583	2308
297.640	1863
297.696	1288
297.753	880
297.809	577
297.866	1183
297.922	1256
297.979	869
298.035	951
298.092	5073
298.148	10757
298.204	5817
298.261	3471
298.317	15689
298.374	23689
298.430	10093
298.486	4525
298.543	3731
298.599	4461
298.656	4378
298.712	10980
298.768	18561
298.824	9263
298.881	4039
298.937	1844
298.993	1886
299.050	2045
299.106	1863
299.162	1671
299.218	2798
299.275	1281
299.331	2393
299.387	10705
299.443	29488
299.500	20021
299.556	8676
299.612	4197
299.668	4468
299.724	9741
299.780	5580
299.837	3099
299.893	7539
299.949	21178
300.005	15664
300.061	27304
300.117	29123
300.173	10944
300.229	6249
300.285	6651
300.341	5981
300.397	2548
300.453	2859
300.510	1763
300.566	2496
300.622	5612
300.678	21493
300.734	20663
300.790	22849
300.845	19104
300.901	17275
300.957	18022
301.013	9447
301.069	4272
301.125	4222
301.181	4019
301.237	2371
301.293	1804
301.349	2289
301.405	1751
301.461	2637
301.516	2963
301.572	3583
301.628	3586
301.684	3822
301.740	10141
301.796	8960
301.851	6754
301.907	9832
301.963	9382
302.019	40425
302.074	77022
302.130	51244
302.186	22922
302.242	9907
302.297	6756
302.353	7548
302.409	11973
302.464	7235
302.520	10159
302.576	25384
302.631	18605
302.687	8877
302.743	4377
302.798	2672
302.854	2102
302.910	2417
302.965	3265
303.021	5346
303.076	4927
303.132	6177
303.187	5881
303.243	2913
303.299	1911
303.354	1862
303.410	2166
303.465	1967
303.521	1445
303.576	1594
303.632	2109
303.687	11767
303.743	24016
303.798	13489
303.853	5615
303.909	2848
303.964	3320
304.020	5601
304.075	5048
304.130	5860
304.186	9718
304.241	8852
304.297	5681
304.352	4064
304.358	3877
304.407	2341
304.449	2761
304.463	2905
304.518	2307
304.539	2086
304.573	1699
304.629	2338
304.630	2439
304.684	7103
304.720	18605
304.739	24606
304.794	22234
304.811	19279
304.850	10916
304.902	5168
304.905	4859
304.960	3969
304.992	4082
305.015	4213
305.071	3378
305.083	3249
305.126	2607
305.173	2589
305.181	2613
305.236	1958
305.264	2242
305.292	2613
305.347	3723
305.354	3729
305.402	3705
305.445	4248
305.457	4408
305.512	4679
305.535	4688
305.567	4577
305.622	4348
305.626	4735
305.678	13386
305.716	23924
305.733	28125
305.788	24922
305.807	24726
305.843	22188
305.897	29622
305.898	29756
305.953	22753
305.988	17169
306.008	13125
306.063	7635
306.078	6548
306.118	5338
306.168	3901
306.173	3804
306.228	3327
306.259	3088
306.283	3045
306.338	3414
306.349	3427
306.393	3800
306.440	4785
306.448	4878
306.503	4258
306.530	4347
306.558	5619
306.613	11195
306.620	12142
306.668	20541
306.711	28060
306.723	28540
306.778	21422
306.801	18168
306.833	12678
306.888	6150
306.892	5721
306.943	4471
306.982	4176
306.997	4297
307.052	4014
307.072	4228
307.107	4573
307.162	5524
307.163	5526
307.217	7498
307.253	8701
307.272	9035
307.327	9169
307.343	9074
307.381	8275
307.434	8005
307.436	8248
307.491	15725
307.524	21260
307.546	24664
307.600	27866
307.614	27738
307.655	18142
307.704	9066
307.710	9015
307.765	9040
307.795	10780
307.819	13965
307.874	19889
307.885	20492
307.929	18391
307.975	16448
307.984	17329
308.038	24585
308.065	30488
308.093	51642
308.148	113297
308.156	124721
308.202	224457
308.246	276646
308.257	258953
308.312	150525
308.336	106768
308.366	83200
308.421	46953
308.426	43309
308.475	28735
308.517	18691
308.530	17879
308.585	15138
308.607	14108
308.639	13825
308.694	13960
308.697	14014
308.748	20170
308.787	25420
308.803	26132
308.857	24873
308.877	24402
308.912	23231
308.967	22694
308.967	22627
309.021	31770
309.058	39070
309.076	49349
309.130	83691
309.148	98278
309.185	172359
309.238	304351
309.239	306964
309.293	369263
309.328	385220
309.348	330837
309.402	180315
309.418	139747
309.457	100818
309.508	53009
309.511	52462
309.566	43798
309.598	39910
309.620	44551
309.674	58764
309.688	61624
309.729	63869
309.778	63535
309.783	62119
309.837	43939
309.868	33995
309.892	35248
309.946	41172
309.959	42752
310.001	63457
310.049	83946
310.055	81016
310.109	50937
310.139	34636
310.163	28339
310.218	15456
310.229	12934
310.272	11224
310.319	9182
310.326	9013
310.381	8242
310.409	7793
310.435	7617
310.489	7150
310.499	7061
310.543	6978
310.589	7053
310.598	7234
310.652	7995
310.679	8314
310.706	7977
310.760	7233
310.769	7102
310.814	6697
310.859	6321
310.868	6320
310.923	6051
310.948	6059
310.977	6800
311.031	7993
311.038	8137
311.085	8284
311.128	8367
311.139	8332
311.193	7870
311.218	7682
311.247	7483
311.301	6978
311.308	6898
311.356	6701
311.398	6534
311.410	6608
311.464	6742
311.488	6799
311.518	6606
311.572	6242
311.578	6185
311.626	8328
311.668	10120
311.680	10077
311.734	9682
311.758	9491
311.788	9608
311.842	9736
311.847	9716
311.896	10870
311.937	11803
311.950	12272
312.004	14137
312.027	14883
312.058	12926
312.112	9341
312.117	8950
312.165	8126
312.207	7373
312.297	10352
312.386	9793
312.476	8194
312.566	15630
312.656	12010
312.745	6820
312.835	7695
312.925	8472
313.015	8227
313.104	8635
313.194	7666
313.284	8762
313.374	9502
313.463	11363
313.553	9196
313.643	8820
313.732	8766
313.822	8558
313.912	9795
314.001	10619
314.091	10883
314.180	14129
314.270	13280
314.360	13227
314.449	13032
314.539	10102
314.628	9922
314.718	10260
314.808	12282
314.897	10152
314.987	10888
315.076	12312
315.166	14701
315.255	13349
315.345	13338
315.434	12181
315.524	12079
315.613	13310
315.703	16976
315.792	27260
315.881	86162
315.971	57751
316.060	20098
316.150	20302
316.239	21192
316.328	14362
316.418	10964
316.507	11912
316.597	12748
316.686	14310
316.775	13729
316.865	22330
316.954	12171
317.043	9140
317.133	10166
317.222	9125
317.311	8683
317.400	8590
317.490	11235
317.579	13344
317.668	11414
317.757	17159
317.847	42359
317.936	152311
318.025	90601
318.114	36736
318.203	29188
318.293	20710
318.382	45883
318.471	43604
318.560	46945
318.649	69758
318.738	30524
318.828	11610
318.917	13372
319.006	11019
319.095	27021
319.184	73230
319.273	65076
319.362	32362
319.451	11539
319.540	9727
319.629	17047
319.718	35202
319.807	16576
319.896	26145
319.985	95251
320.074	62223
320.163	13552
320.252	14799
320.341	14894
320.430	17084
320.519	17694
320.608	16227
320.697	12415
320.786	13587
320.875	15853
320.964	20073
321.053	26248
321.142	34264
321.230	43880
321.319	30605
321.408	59122
321.497	41757
321.586	28594
321.675	27337
321.764	28826
321.852	21750
321.941	32852
322.030	33187
322.119	25996
322.207	59924
322.296	47490
322.385	30366
322.474	32840
322.562	72363
322.651	60094
322.740	29223
322.829	41815
322.917	31420
323.006	26980
323.095	23761
323.183	18082
323.272	19247
323.361	28165
323.449	69791
323.538	38940
323.626	42963
323.715	47902
323.804	15486
323.892	39412
323.981	41771
324.069	12779
324.158	19644
324.246	31236
324.335	13386
324.424	24277
324.512	12697
324.601	13449
324.689	26355
324.778	72841
324.866	30612
324.954	12574
325.043	9634
325.131	13849
325.220	19117
325.308	23233
325.397	17717
325.485	17260
325.574	8540
325.662	8764
325.750	9126
325.839	9162
325.927	7411
326.015	9326
326.104	9640
326.192	14022
326.280	8675
326.369	7914
326.457	10209
326.545	18774
326.634	13434
326.722	6923
326.810	8227
326.898	8212
326.987	9279
327.075	15888
327.163	18761
327.251	10464
327.340	18740
327.428	46962
327.516	14473
327.604	11020
327.692	9062
327.781	8311
327.869	11045
327.957	9495
328.045	10076
328.133	7048
328.221	7043
328.309	8271
328.397	8051
328.485	8668
328.574	12392
328.662	37387
328.750	31295
328.838	11789
328.926	8262
329.014	6894
329.102	9023
329.190	19022
329.278	20972
329.366	7468
329.454	6325
329.542	8527
329.630	7782
329.718	8199
329.806	9423
329.893	10734
329.981	12317
330.069	18232
330.157	63694
330.245	253788
330.333	203233
330.421	36762
330.509	14963
330.597	39915
330.684	41071
330.772	13554
330.860	13983
330.948	18418
331.036	13276
331.123	6657
331.211	6986
331.299	8180
331.387	11865
331.475	30836
331.562	12744
331.650	6569
331.738	7376
331.825	9223
331.913	7010
332.001	6806
332.089	7600
332.176	11956
332.264	18581
332.352	24815
332.439	10593
332.527	9157
332.614	7037
332.702	7596
332.790	7344
332.877	11060
332.965	25258
333.052	16109
333.140	10852
333.228	27229
333.315	15348
333.403	7961
333.490	12878
333.578	19821
333.665	33338
333.753	28740
333.840	10717
333.928	11287
334.015	17035
334.103	27495
334.190	94783
334.278	56080
334.365	26243
334.452	27585
334.540	19526
334.627	18802
334.715	22479
334.802	32012
334.889	83472
334.977	147824
335.064	53616
335.151	26470
335.239	18575
335.326	18718
335.413	39525
335.501	98648
335.588	24319
335.675	18191
335.762	21766
335.850	33184
335.937	34627
336.024	54353
336.111	134518
336.199	125882
336.286	48146
336.373	25021
336.460	17014
336.547	14994
336.635	13038
336.722	13175
336.809	11154
336.896	11704
336.983	25760
337.070	68937
337.157	113137
337.245	62781
337.332	56713
337.419	13414
337.506	9731
337.593	9139
337.680	15442
337.767	74090
337.854	33072
337.941	24206
338.028	23416
338.115	14080
338.202	10959
338.289	15862
338.376	48380
338.463	31583
338.550	30465
338.637	62664
338.724	13634
338.811	18977
338.898	8873
338.984	6750
339.071	7929
339.158	9308
339.245	19322
339.332	19704
339.419	10838
339.506	16725
339.593	6762
339.679	8102
339.766	7343
339.853	8915
339.940	17764
340.027	10587
340.113	7433
340.200	9467
340.287	8884
340.374	8925
340.460	17059
340.547	10003
340.634	9051
340.720	34897
340.807	40427
340.894	7321
340.980	6682
341.067	7154
341.154	7716
341.240	9162
341.327	23352
341.414	12310
341.500	11672
341.587	9017
341.674	5896
341.760	12664
341.847	20582
341.933	10635
342.020	5950
342.106	6212
342.193	5871
342.279	13127
342.366	8972
342.452	16558
342.539	11044
342.625	14369
342.712	45574
342.798	28639
342.885	12363
342.971	6286
343.058	5439
343.144	6249
343.230	5706
343.317	6673
343.403	6618
343.490	5352
343.576	5410
343.662	6137
343.749	7521
343.835	8370
343.921	11162
344.008	49259
344.094	210254
344.180	81986
344.267	16588
344.353	37252
344.439	75119
344.525	26232
344.612	13574
344.698	10612
344.784	9710
344.870	6485
344.957	5918
345.043	9639
345.129	7204
345.215	14255
345.301	11927
345.387	8941
345.474	4955
345.560	5538
345.646	6639
345.732	6725
345.818	6507
345.904	8393
345.990	7300
346.076	7099
346.162	10337
346.249	8649
346.335	6319
346.421	5915
346.507	13528
346.593	78620
346.679	39990
346.765	8636
346.851	10076
346.937	12882
347.023	7925
347.108	7308
347.194	8412
347.280	7612
347.366	8630
347.452	20272
347.538	92250
347.624	85581
347.710	71427
347.796	15853
347.882	7859
347.967	6843
348.053	8360
348.139	7868
348.225	6142
348.311	6793
348.397	6243
348.482	6956
348.568	10353
348.654	8427
348.740	16720
348.825	31219
348.911	15877
348.997	27503
349.083	97628
349.168	29670
349.254	8076
349.340	9235
349.425	5810
349.511	7940
349.597	10067
349.682	13176
349.768	46506
349.854	46031
349.939	9033
350.025	6514
350.110	6359
350.196	6236
350.282	5953
350.367	5417
350.453	6442
350.538	9801
350.624	7524
350.709	9415
350.795	6292
350.880	6164
350.966	6003
351.051	8180
351.137	7175
351.222	6524
351.308	10844
351.393	49715
351.479	24496
351.564	9227
351.649	6642
351.735	6227
351.820	5333
351.906	6573
351.991	6200
352.076	19554
352.162	57787
352.247	16543
352.332	7810
352.418	12835
352.503	16305
352.588	47786
352.673	77451
352.759	17855
352.844	9324
352.929	7965
353.014	12233
353.100	8614
353.185	12268
353.270	18259
353.355	20340
353.441	8376
353.526	6559
353.611	12508
353.696	20682
353.781	11900
353.866	8575
353.952	6530
354.037	10886
354.122	30824
354.207	31658
354.292	18445
354.377	7590
354.462	6661
354.547	8182
354.632	9007
354.717	9758
354.802	18749
354.887	10888
354.972	7043
355.057	5039
355.142	6065
355.227	6904
355.312	9523
355.397	17488
355.482	44577
355.567	38318
355.652	17228
355.737	20313
355.822	43975
355.907	79546
355.991	14514
356.076	7132
356.161	7682
356.246	6426
356.331	7696
356.416	11407
356.501	60816
356.585	146467
356.670	27670
356.755	12313
356.840	13002
356.924	38652
357.009	206908
357.094	158505
357.179	24291
357.263	17541
357.348	12860
357.433	15021
357.517	13835
357.602	13596
357.687	9748
357.771	12964
357.856	42936
357.941	43325
358.025	30099
358.110	183486
358.195	183615
358.279	26515
358.364	13483
358.448	26477
358.533	99578
358.617	105705
358.702	82812
358.787	52578
358.871	17896
358.956	20157
359.040	9694
359.125	6713
359.209	7970
359.294	15618
359.378	48801
359.462	26148
359.547	13548
359.631	8523
359.716	7053
359.800	7657
359.885	10560
359.969	10106
360.053	7917
360.138	7594
360.222	9884
360.306	15736
360.391	17460
360.475	17818
360.559	60184
360.644	42802
360.728	44392
360.812	30929
360.896	145821
360.981	90723
361.065	44398
361.149	13702
361.233	11885
361.318	10826
361.402	12231
361.486	11400
361.570	10010
361.654	11249
361.739	18398
361.823	59631
361.907	177529
361.991	59832
362.075	19523
362.159	38613
362.243	44717
362.327	57474
362.411	100019
362.495	59302
362.580	26663
362.664	20069
362.748	22558
362.832	29621
362.916	51892
363.000	128385
363.084	274997
363.168	291400
363.252	106510
363.336	33127
363.420	27067
363.503	52146
363.587	116571
363.671	35319
363.755	19751
363.839	25960
363.923	22101
364.007	26160
364.091	39886
364.175	44713
364.258	136009
364.342	221225
364.426	341912
364.510	272204
364.594	89817
364.677	47284
364.761	103002
364.845	149979
364.929	40007
365.013	34490
365.096	23430
365.180	31258
365.264	22200
365.347	97234
365.431	86935
365.515	22104
365.598	12130
365.682	10267
365.766	12529
365.849	22389
365.933	13149
366.017	12872
366.100	14456
366.184	8991
366.267	8460
366.351	8949
366.435	9003
366.518	7816
366.602	7681
366.685	7952
366.769	9670
366.852	11180
366.936	21900
367.019	17967
367.103	10969
367.186	19928
367.270	12440
367.353	8064
367.436	9307
367.520	8020
367.603	10530
367.687	13523
367.770	21203
367.853	17349
367.937	23874
368.020	80426
368.104	31761
368.187	14253
368.270	21525
368.353	23410
368.437	19605
368.520	30229
368.603	33829
368.687	29221
368.770	94745
368.853	40795
368.936	17886
369.020	22960
369.103	13500
369.186	7753
369.269	10114
369.352	11902
369.436	20369
369.519	15580
369.602	10782
369.685	8135
369.768	10172
369.851	9227
369.934	7421
370.018	7623
370.101	16428
370.184	17577
370.267	11697
370.350	16510
370.433	26718
370.516	49422
370.599	125135
370.682	57904
370.765	37882
370.848	52687
370.931	97538
371.014	70755
371.097	15015
371.180	10488
371.263	7719
371.346	6894
371.429	7617
371.511	8358
371.594	11841
371.677	17357
371.760	23485
371.843	17863
371.926	43614
372.009	196214
372.091	114245
372.174	32510
372.257	90382
372.340	71983
372.423	24910
372.505	35764
372.588	21151
372.671	19384
372.754	83919
372.836	88983
372.919	26403
373.002	70674
373.085	39859
373.167	17813
373.250	33896
373.332	88847
373.415	102140
373.498	243260
373.580	166438
373.663	94694
373.746	242328
373.828	82181
373.911	24101
373.993	18342
374.076	44407
374.159	84232
374.241	29731
374.324	66600
374.406	87385
374.489	44176
374.571	188556
374.654	158476
374.736	37900
374.819	98415
374.901	161605
374.983	231044
375.066	76429
375.148	18866
375.231	32574
375.313	108792
375.395	65328
375.478	20210
375.560	13009
375.643	14003
375.725	23962
375.807	115312
375.890	166965
375.972	53695
376.054	27786
376.136	30093
376.219	23060
376.301	23831
376.383	124443
376.465	98645
376.548	30345
376.630	34103
376.712	95024
376.794	101924
376.877	15827
376.959	8479
377.041	9235
377.123	11667
377.205	21591
377.287	10030
377.369	7204
377.452	7881
377.534	8867
377.616	7055
377.698	7889
377.780	7215
377.862	8651
377.944	7766
378.026	6768
378.108	6195
378.190	6741
378.272	6161
378.354	6395
378.436	5444
378.518	7618
378.600	23947
378.682	30845
378.764	43297
378.846	70834
378.928	18480
379.010	20511
379.091	16701
379.173	8882
379.255	7604
379.337	8668
379.419	17441
379.501	74347
379.583	65836
379.664	12563
379.746	17281
379.828	43658
379.910	77888
379.991	91498
380.073	28595
380.155	11341
380.237	10343
380.318	7862
380.400	8790
380.482	11734
380.564	21901
380.645	21664
380.727	26271
380.809	16411
380.890	11995
380.972	11233
381.053	10291
381.135	10512
381.217	15195
381.298	54020
381.380	52378
381.461	21675
381.543	66580
381.624	183229
381.706	60171
381.787	18042
381.869	19547
381.951	28306
382.032	145833
382.113	189342
382.195	48567
382.276	23728
382.358	30473
382.439	93379
382.521	116365
382.602	183393
382.684	124903
382.765	116843
382.846	196524
382.928	254466
383.009	234502
383.090	106704
383.172	255752
383.253	626377
383.334	320560
383.416	175186
383.497	155328
383.578	63689
383.659	84814
383.741	218322
383.822	714647
383.903	665184
383.984	182309
384.066	195130
384.147	195733
384.228	59915
384.309	30439
384.390	28899
384.471	23530
384.553	21917
384.634	22417
384.715	26530
384.796	18381
384.877	17521
384.958	38718
385.039	85636
385.120	44014
385.201	18875
385.282	18581
385.363	19484
385.444	19864
385.525	23833
385.606	63724
385.687	110507
385.768	34809
385.849	23196
385.930	53399
386.011	169315
386.092	95543
386.173	22445
386.254	16007
386.335	15565
386.416	15160
386.496	25683
386.577	68896
386.658	41605
386.739	19068
386.820	19252
386.901	16441
386.981	17088
387.062	15763
387.143	17615
387.224	45805
387.304	81247
387.385	36162
387.466	24594
387.547	25320
387.627	25661
387.708	25386
387.789	71677
387.869	155579
387.950	78347
388.031	19776
388.111	15315
388.192	20657
388.273	30083
388.353	26829
388.434	18044
388.514	17305
388.595	60483
388.676	144604
388.756	90973
388.837	50559
388.917	56547
388.998	17499
389.078	12871
389.159	11739
389.239	11796
389.320	13649
389.400	16152
389.480	17916
389.561	55858
389.641	59006
389.722	16726
389.802	20215
389.883	23501
389.963	60540
390.043	75152
390.124	24594
390.204	18732
390.284	54544
390.365	69309
390.445	36654
390.525	105019
390.605	167840
390.686	69698
390.766	24258
390.846	14501
390.927	11948
391.007	12894
391.087	13282
391.167	15204
391.247	14164
391.328	14952
391.408	18710
391.488	21489
391.568	13991
391.648	14842
391.728	20760
391.808	20068
391.888	22631
391.969	29041
392.049	69554
392.129	48384
392.209	29836
392.289	71800
392.369	75681
392.449	42473
392.529	41689
392.609	32270
392.689	35942
392.769	68711
392.849	111529
392.929	69223
393.009	117596
393.089	171979
393.169	168162
393.248	337772
393.328	920627
393.408	1389133
393.488	839145
393.568	305380
393.648	139733
393.728	84872
393.807	60660
393.887	47454
393.967	41009
394.047	38347
394.127	40267
394.206	48558
394.286	87959
394.366	345562
394.446	731223
394.525	331563
394.605	82279
394.685	44526
394.764	46897
394.844	75825
394.924	99747
395.003	48623
395.083	27100
395.163	24310
395.242	20165
395.322	23290
395.402	20912
395.481	22916
395.561	29666
395.640	81304
395.720	129947
395.799	123722
395.879	121557
395.958	71636
396.038	126966
396.117	468930
396.197	917041
396.276	480779
396.356	152813
396.435	89396
396.515	75416
396.594	79625
396.673	125769
396.753	286055
396.832	863789
396.912	1121562
396.991	482070
397.070	147271
397.150	73808
397.229	52544
397.308	51618
397.388	119725
397.467	108473
397.546	37019
397.625	23095
397.705	22138
397.784	21826
397.863	20178
397.942	14181
398.022	14438
398.101	17641
398.180	62286
398.259	67267
398.338	22303
398.417	14325
398.497	12496
398.576	10356
398.655	10074
398.734	8989
398.813	8699
398.892	12572
398.971	59119
399.050	72317
399.129	15810
399.208	8115
399.287	7578
399.366	6344
399.445	7708
399.524	7349
399.603	7016
399.682	9035
399.761	17963
399.840	53467
399.919	96592
399.998	24899
400.077	7621
400.156	5753
400.235	6842
400.313	7013
400.392	8016
400.471	15665
400.550	53146
400.629	30966
400.708	9379
400.786	7692
400.865	12317
400.944	22210
401.023	15916
401.102	6294
401.180	5710
401.259	5335
401.338	6005
401.416	7065
401.495	8759
401.574	7085
401.652	6164
401.731	7000
401.810	8881
401.888	7105
401.967	4928
402.046	5302
402.124	6454
402.203	9285
402.281	8532
402.360	6528
402.438	15241
402.517	22974
402.596	9362
402.674	7031
402.753	5683
402.831	5037
402.910	5945
402.988	10303
403.066	63108
403.145	86191
403.223	24057
403.302	54406
403.380	71570
403.459	54661
403.537	41305
403.615	13117
403.694	6931
403.772	5645
403.850	6096
403.929	4267
404.007	5935
404.085	8450
404.164	16407
404.242	10372
404.320	7019
404.398	16304
404.477	30686
404.555	83275
404.633	182379
404.711	56572
404.789	16840
404.868	8540
404.946	7907
405.024	5816
405.102	4718
405.180	4622
405.258	4896
405.336	4421
405.415	3997
405.493	7544
405.571	12088
405.649	7428
405.727	4807
405.805	6638
405.883	8279
405.961	7731
406.039	8784
406.117	7073
406.195	7433
406.273	13374
406.351	83764
406.429	126168
406.507	26610
406.585	8007
406.663	5660
406.740	7668
406.818	8707
406.896	6311
406.974	4617
407.052	6835
407.130	31824
407.208	116578
407.285	53366
407.363	7797
407.441	6028
407.519	5832
407.596	5630
407.674	8610
407.752	29297
407.830	56518
407.907	26543
407.985	9640
408.063	6684
408.141	3781
408.218	5103
408.296	9649
408.373	8227
408.451	6912
408.529	8315
408.606	5561
408.684	5214
408.762	4348
408.839	5254
408.917	4999
408.994	6126
409.072	6485
409.149	8301
409.227	10176
409.304	18042
409.382	20680
409.459	20954
409.537	26562
409.614	31428
409.692	26573
409.769	22461
409.846	26384
409.924	36996
410.001	36993
410.079	28359
410.156	18611
410.233	14943
410.311	12502
410.388	10827
410.465	9545
410.543	11412
410.620	9141
410.697	6821
410.775	8849
410.852	7377
410.929	7256
411.006	11634
411.083	9517
411.161	10983
411.238	18418
411.315	11755
411.392	6865
411.469	7106
411.547	9972
411.624	8298
411.701	8098
411.778	5238
411.855	9189
411.932	10933
412.009	5687
412.086	5143
412.163	4240
412.240	6769
412.317	6580
412.394	8271
412.471	5679
412.548	3495
412.625	3481
412.702	4056
412.779	7906
412.856	9578
412.933	4132
413.010	3575
413.087	4628
413.164	14107
413.241	46759
413.318	25022
413.395	6516
413.471	9431
413.548	8755
413.625	4188
413.702	4611
413.779	5463
413.855	2471
413.932	2759
414.009	2521
414.086	3152
414.162	3190
414.239	3886
414.316	10960
414.393	50184
414.469	49015
414.546	7866
414.623	3160
414.699	3730
414.776	4258
414.853	4580
414.929	3410
415.006	3075
415.082	4019
415.159	4199
415.236	3229
415.312	3611
415.389	4330
415.465	8893
415.542	8003
415.618	3335
415.695	5292
415.771	5726
415.848	4399
415.924	4458
416.000	3476
416.077	3171
416.153	1469
416.230	1387
416.306	1856
416.383	2580
416.459	2702
416.535	1821
416.612	1414
416.688	3208
416.764	2183
416.841	2798
416.917	2740
416.993	3521
417.069	3231
417.146	5215
417.222	7088
417.298	6692
417.374	3689
417.451	3964
417.527	4262
417.603	6549
417.679	4908
417.755	5165
417.831	3389
417.908	3152
417.984	2523
418.060	2480
418.136	4555
418.212	11958
418.288	7770
418.364	3257
418.440	3044
418.516	4975
418.592	5766
418.668	9735
418.744	16131
418.820	19314
418.896	8409
418.972	3920
419.048	3352
419.124	5871
419.200	9724
419.276	5413
419.352	2996
419.428	3568
419.504	2724
419.579	5797
419.655	4848
419.731	4876
419.807	7553
419.883	19218
419.959	23498
420.034	9901
420.110	6252
420.186	21996
420.262	47817
420.337	16334
420.413	7638
420.489	6875
420.565	6098
420.640	5972
420.716	7282
420.792	6409
420.867	7126
420.943	7058
421.019	8979
421.094	11963
421.170	9277
421.245	8744
421.321	9766
421.397	10739
421.472	12640
421.548	23797
421.623	35760
421.699	20425
421.774	17612
421.850	18917
421.925	22878
422.001	28551
422.076	28996
422.152	35681
422.227	48134
422.302	64653
422.378	89379
422.453	145500
422.529	265564
422.604	522409
422.679	664904
422.755	634208
422.830	583723
422.905	312042
422.981	170931
423.056	107295
423.131	75020
423.207	54934
423.282	43583
423.357	39952
423.432	35739
423.508	27344
423.583	30809
423.658	36634
423.733	21605
423.808	18950
423.883	18369
423.959	18140
424.034	18508
424.109	19331
424.184	14423
424.259	11437
424.334	9720
424.409	8305
424.484	7924
424.559	8185
424.634	7295
424.709	8247
424.784	9396
424.859	7430
424.934	6474
425.009	14815
425.084	40069
425.159	38196
425.234	9267
425.309	5558
425.384	6861
425.459	22260
425.534	17753
425.609	5508
425.683	5114
425.758	3881
425.833	4421
425.908	5750
425.983	7307
426.058	31773
426.132	41411
426.207	9940
426.282	6086
426.357	8492
426.431	5351
426.506	4354
426.581	3519
426.655	4482
426.730	3319
426.805	3885
426.879	4202
426.954	4104
427.029	5893
427.103	17138
427.178	76975
427.253	98982
427.327	19788
427.402	6167
427.476	16523
427.551	23723
427.625	7004
427.700	5235
427.774	4531
427.849	5136
427.923	4569
427.998	4256
428.072	5725
428.147	10339
428.221	25313
428.296	136630
428.370	227575
428.444	53797
428.519	13044
428.593	15002
428.667	19938
428.742	17023
428.816	22119
428.890	52592
428.965	216178
429.039	156181
429.113	33285
429.188	19636
429.262	7039
429.336	6199
429.410	15180
429.485	23825
429.559	12814
429.633	17836
429.707	10657
429.781	12787
429.855	52923
429.930	208950
430.004	150348
430.078	66555
430.152	94084
430.226	154128
430.300	361867
430.374	166950
430.448	29901
430.522	17863
430.596	51033
430.670	77129
430.744	85777
430.818	290763
430.892	160636
430.966	20397
431.040	8656
431.114	5823
431.188	4973
431.262	5535
431.336	4344
431.410	4820
431.484	13271
431.557	23334
431.631	8841
431.705	7531
431.779	16648
431.853	105229
431.927	229300
432.000	69305
432.074	9703
432.148	5725
432.222	5593
432.295	4031
432.369	3998
432.443	3987
432.516	12255
432.590	77487
432.664	93749
432.737	15562
432.811	3296
432.885	2336
432.958	1937
433.032	1984
433.106	2030
433.179	1615
433.253	1665
433.326	1461
433.400	1428
433.473	1037
433.547	1037
433.620	1784
433.694	3358
433.767	5846
433.841	3030
433.914	1591
433.988	2049
434.061	2199
434.134	2056
434.208	1952
434.281	1810
434.355	500
434.428	1811
434.501	2870
434.575	1915
434.648	2455
434.721	998
434.795	1371
434.868	1353
434.941	768
435.014	1475
435.088	2287
435.161	2992
435.234	5581
435.307	9091
435.381	8428
435.454	6420
435.527	9632
435.600	14051
435.673	14990
435.746	11249
435.819	9124
435.892	6421
435.966	5727
436.039	4179
436.112	4405
436.185	2521
436.258	2945
436.331	836
436.404	1685
436.477	1068
436.550	1323
436.623	942
436.696	1811
436.769	1734
436.842	1879
436.915	1946
436.987	2925
437.060	2907
437.133	1664
437.206	1325
437.279	2535
437.352	1029
437.425	1950
437.498	983
437.570	3045
437.643	6471
437.716	4385
437.789	1014
437.861	2291
437.934	11423
438.007	16963
438.080	3787
438.152	2306
438.225	3717
438.298	13414
438.370	101763
438.443	140214
438.516	34581
438.588	9818
438.661	1952
438.734	2159
438.806	1842
438.879	2851
438.951	3167
439.024	8218
439.096	7650
439.169	2371
439.241	1327
439.314	1157
439.386	2753
439.459	4503
439.531	5844
439.604	7860
439.676	2206
439.749	1380
439.821	822
439.893	1066
439.966	1185
440.038	1730
440.110	3757
440.183	3424
440.255	1702
440.327	2735
440.400	6156
440.472	43874
440.544	107232
440.617	31811
440.689	6571
440.761	6511
440.833	11551
440.905	14264
440.978	5188
441.050	1509
441.122	2355
441.194	1946
441.266	2047
441.338	2779
441.411	2844
441.483	9767
441.555	44897
441.627	30589
441.699	6203
441.771	6582
441.843	4868
441.915	3117
441.987	3392
442.059	2659
442.131	3955
442.203	7244
442.275	8359
442.347	11656
442.419	15320
442.491	48206
442.563	226297
442.635	272705
442.706	66193
442.778	33611
442.850	14932
442.922	7883
442.994	7386
443.066	9349
443.137	11534
443.209	11718
443.281	14650
443.353	25806
443.425	65457
443.496	269815
443.568	573032
443.640	399954
443.711	110050
443.783	27197
443.855	14710
443.926	10394
443.998	8024
444.070	8314
444.141	7643
444.213	7712
444.285	9737
444.356	8949
444.428	8313
444.499	6847
444.571	4847
444.642	5864
444.714	6051
444.785	7111
444.857	9465
444.928	12187
445.000	17709
445.071	12650
445.143	19742
445.214	20710
445.285	24287
445.357	52628
445.428	142096
445.500	469929
445.571	600189
445.642	407003
445.714	189283
445.785	65323
445.856	31495
445.928	15991
445.999	14133
446.070	12077
446.141	9180
446.213	9890
446.284	8488
446.355	6153
446.426	5289
446.497	4619
446.569	4486
446.640	7804
446.711	8937
446.782	5388
446.853	2707
446.924	4413
446.995	3812
447.066	3673
447.138	3623
447.209	5820
447.280	1412
447.351	1915
447.422	1042
447.493	1785
447.564	2704
447.635	4647
447.706	5315
447.777	1504
447.847	1331
447.918	806
447.989	1315
448.060	2778
448.131	4281
448.202	8630
448.273	7576
448.344	4879
448.414	913
448.485	1471
448.556	1842
448.627	1137
448.698	936
448.768	459
448.839	215
448.910	1721
448.981	5756
449.051	2656
449.122	467
449.193	844
449.263	904
449.334	887
449.405	1406
449.475	5002
449.546	7529
449.616	4702
449.687	6631
449.758	4542
449.828	1448
449.899	1915
449.969	1743
450.040	1498
450.110	1603
450.181	2593
450.251	2279
450.322	1968
450.392	1972
450.463	1386
450.533	1745
450.604	1496
450.674	1324
450.744	1979
450.815	1898
450.885	2479
450.955	1498
451.026	2375
451.096	1776
451.166	3149
451.237	3195
451.307	11128
451.377	12596
451.447	4045
451.518	1775
451.588	1531
451.658	1488
451.728	2051
451.799	5021
451.869	19274
451.939	9921
452.009	2476
452.079	891
452.149	1119
452.219	1818
452.289	7689
452.360	19698
452.430	7284
452.500	3115
452.570	5350
452.640	8101
452.710	18926
452.780	42922
452.850	37115
452.920	24755
452.990	16239
453.060	5937
453.129	4810
453.199	6019
453.269	7323
453.339	48238
453.409	89205
453.479	46260
453.549	74760
453.619	88719
453.688	74761
453.758	16294
453.828	3519
453.898	2045
453.968	2519
454.037	1376
454.087	1630
454.107	1732
454.168	1660
454.177	1650
454.247	1553
454.249	1526
454.316	616
454.330	801
454.386	1509
454.411	1890
454.456	2426
454.492	7166
454.525	11407
454.574	9527
454.595	8745
454.655	3385
454.665	2509
454.734	2151
454.736	2173
454.804	2645
454.817	3275
454.873	5737
454.898	10041
454.943	17956
454.979	14130
455.013	10717
455.060	6057
455.082	3930
455.141	2522
455.152	2264
455.221	3474
455.222	3625
455.291	14645
455.303	14993
455.360	16750
455.384	17148
455.430	16905
455.465	21193
455.499	25722
455.546	15981
455.569	11251
455.627	12814
455.638	13217
455.707	5330
455.708	5312
455.777	1609
455.789	1581
455.846	1659
455.869	1590
455.916	1306
455.950	1377
455.985	1460
456.031	1381
456.054	1315
456.112	862
456.124	794
456.193	799
456.193	791
456.262	1460
456.274	1556
456.332	2021
456.355	1957
456.401	1606
456.436	1738
456.470	2028
456.516	1179
456.540	673
456.597	722
456.609	770
456.678	1304
456.678	1297
456.747	1301
456.759	1185
456.817	1080
456.840	1177
456.886	1055
456.920	1167
456.955	1484
457.001	1381
457.024	1229
457.082	1354
457.093	1406
457.162	2823
457.163	2830
457.232	2657
457.243	2678
457.301	3009
457.324	2758
457.370	2042
457.405	1989
457.439	2064
457.485	2234
457.508	2313
457.566	2079
457.577	2171
457.646	3811
457.647	3838
457.715	6476
457.727	7079
457.784	11321
457.808	14484
457.853	18677
457.889	31369
457.922	40816
457.969	39926
457.991	42057
458.050	28205
458.060	26111
458.129	32969
458.130	33723
458.198	57170
458.211	58092
458.267	63247
458.292	47826
458.336	24629
458.372	17885
458.405	14008
458.453	16097
458.474	18322
458.533	29541
458.543	30591
458.611	56263
458.614	58151
458.680	90305
458.694	80462
458.749	53377
458.775	38714
458.818	16263
458.855	11150
458.887	7237
458.936	5512
458.955	4778
459.016	3681
459.024	3591
459.093	3841
459.097	3821
459.162	2602
459.177	2628
459.230	3514
459.257	3653
459.299	3359
459.338	3259
459.368	3467
459.418	3586
459.437	3326
459.499	3396
459.505	3516
459.574	2840
459.579	2847
459.643	1945
459.659	1875
459.711	2415
459.740	2592
459.780	2403
459.820	2352
459.849	2561
459.900	3025
459.917	3097
459.981	2991
459.986	3019
460.054	3383
460.061	3438
460.123	2830
460.141	2609
460.191	2998
460.222	3509
460.260	3746
460.302	3839
460.328	3715
460.382	3926
460.397	4068
460.462	3322
460.465	3377
460.534	4725
460.543	5007
460.602	9681
460.623	11566
460.671	18569
460.703	24782
460.739	22373
460.783	28471
460.808	31810
460.864	16196
460.876	14247
460.944	3085
460.945	2963
461.013	2575
461.024	2625
461.081	2285
461.104	2201
461.150	2352
461.184	2681
461.218	2664
461.264	2233
461.286	2285
461.345	2153
461.355	2036
461.423	2073
461.425	2066
461.491	2680
461.505	2812
461.559	3274
461.585	3565
461.628	5156
461.665	6657
461.696	6672
461.745	8279
461.764	8199
461.825	8074
461.832	8330
461.901	3739
461.905	3625
461.969	2659
461.985	2826
462.037	2931
462.065	2731
462.105	2744
462.145	2655
462.173	2988
462.225	4206
462.241	4510
462.305	5592
462.310	5433
462.378	4996
462.385	4600
462.446	4112
462.465	3777
462.514	2810
462.545	2915
462.582	3001
462.625	3071
462.650	2933
462.705	2442
462.718	2459
462.785	2695
462.786	2698
462.854	2775
462.865	2769
462.922	3174
462.945	3683
462.990	3438
463.025	2893
463.058	3172
463.104	2995
463.126	2483
463.184	1566
463.194	1696
463.262	2459
463.264	2506
463.330	2487
463.344	2415
463.398	2685
463.424	2684
463.466	2410
463.504	2168
463.533	2198
463.583	2785
463.601	2968
463.663	3146
463.669	3211
463.737	3979
463.743	4027
463.805	4252
463.823	4460
463.873	6550
463.903	7742
463.940	7913
463.982	8797
464.008	7905
464.062	5721
464.076	5721
464.142	3071
464.144	3031
464.211	2447
464.221	2518
464.279	2623
464.301	2587
464.347	2423
464.381	2409
464.414	2515
464.461	2716
464.482	3282
464.540	4812
464.550	4839
464.617	5002
464.620	5000
464.685	4485
464.699	4335
464.753	4660
464.779	4828
464.820	5456
464.859	6152
464.888	5799
464.938	5177
464.956	5258
465.018	5142
465.023	5116
465.091	5157
465.098	5136
465.158	5142
465.177	5124
465.226	4659
465.257	4436
465.293	4900
465.336	5342
465.361	5213
465.416	4897
465.428	5198
465.495	6967
465.496	6981
465.563	7945
465.575	8049
465.631	9853
465.654	10957
465.698	8333
465.734	5937
465.765	6186
465.813	5476
465.833	4946
465.893	4144
465.900	4219
465.968	4965
465.972	5018
466.035	4763
466.052	4679
466.102	4434
466.131	4315
466.170	4486
466.210	4583
466.237	4835
466.290	5432
466.304	5518
466.369	5779
466.372	5810
466.439	6651
466.449	6739
466.506	6412
466.528	6327
466.573	7543
466.607	8390
466.641	10100
466.687	12538
466.708	13899
466.766	17627
466.775	16634
466.842	9496
466.845	9139
466.909	8744
466.925	8631
466.977	7453
467.004	6987
467.044	7198
467.083	7391
467.111	7628
467.163	8063
467.178	8309
467.242	9307
467.245	9252
467.312	7904
467.321	7721
467.379	7672
467.400	7637
467.446	6983
467.480	6500
467.559	6955
467.638	4859
467.717	6536
467.796	6309
467.875	7352
467.955	6204
468.034	8910
468.113	13728
468.192	19658
468.271	8534
468.350	9026
468.429	9984
468.508	12794
468.588	7970
468.667	6753
468.746	5748
468.825	6253
468.904	4791
468.983	6505
469.062	7007
469.141	8474
469.220	5041
469.299	5840
469.378	4900
469.456	6304
469.535	6157
469.614	6093
469.693	5845
469.772	7455
469.851	8023
469.930	7196
470.009	5535
470.088	7152
470.166	6795
470.245	12484
470.324	13643
470.403	8671
470.482	5763
470.560	6293
470.639	5197
470.718	6823
470.797	4865
470.875	5845
470.954	6687
471.033	7609
471.111	4535
471.190	5699
471.269	3466
471.347	4327
471.426	4792
471.505	6014
471.583	6205
471.662	6761
471.740	5585
471.819	5319
471.898	5130
471.976	5265
472.055	4518
472.133	5414
472.212	5506
472.290	6834
472.369	4261
472.447	5112
472.526	3711
472.604	4918
472.683	4711
472.761	6866
472.839	4371
472.918	5048
472.996	5252
473.075	5370
473.153	4378
473.231	4346
473.310	5003
473.388	5345
473.466	4560
473.545	6316
473.623	6730
473.701	7036
473.780	4956
473.858	5512
473.936	5304
474.014	4632
474.093	5160
474.171	6446
474.249	7042
474.327	5703
474.405	3880
474.484	4747
474.562	3998
474.640	4967
474.718	4609
474.796	5689
474.874	5189
474.952	5092
475.030	4766
475.108	5471
475.187	5403
475.265	6463
475.343	7530
475.421	9068
475.499	4365
475.577	5340
475.655	5457
475.733	8002
475.811	10579
475.889	11126
475.966	7323
476.044	5259
476.122	5297
476.200	8121
476.278	4786
476.356	4471
476.434	4683
476.512	6119
476.590	7259
476.667	6673
476.745	3870
476.823	5048
476.901	4562
476.979	4901
477.056	3784
477.134	4651
477.212	4285
477.290	4608
477.367	3818
477.445	3815
477.523	3398
477.601	3611
477.678	3220
477.756	4774
477.834	3754
477.911	4438
477.989	3564
478.066	3148
478.144	3703
478.222	6219
478.299	8375
478.377	8488
478.454	3720
478.532	3955
478.609	4448
478.687	4711
478.764	3683
478.842	4321
478.919	4033
478.997	4978
479.074	3478
479.152	4224
479.229	4611
479.307	3561
479.384	2704
479.461	4258
479.539	3920
479.616	4548
479.694	2331
479.771	4266
479.848	3798
479.926	5113
480.003	4680
480.080	3709
480.157	3216
480.235	3208
480.312	3433
480.389	4229
480.467	4691
480.544	6857
480.621	3401
480.698	4213
480.775	3844
480.853	4621
480.930	3690
481.007	4409
481.084	3609
481.161	5739
481.238	4590
481.315	4370
481.392	2814
481.470	3748
481.547	3537
481.624	4574
481.701	2685
481.778	3463
481.855	3868
481.932	5574
482.009	6901
482.086	6277
482.163	4594
482.240	7782
482.317	11411
482.393	8284
482.470	4170
482.547	5206
482.624	3918
482.701	4527
482.778	3745
482.855	4097
482.932	3890
483.009	4109
483.085	4060
483.162	6084
483.239	5504
483.316	5596
483.393	4500
483.469	4324
483.546	4153
483.623	4527
483.699	3321
483.776	4109
483.853	4167
483.930	5425
484.006	9663
484.083	18166
484.160	12589
484.236	22475
484.313	16999
484.389	12823
484.466	11462
484.543	11487
484.619	11600
484.696	13570
484.772	11558
484.849	11400
484.925	9336
485.002	11474
485.078	10459
485.155	11172
485.231	8994
485.308	9281
485.384	9688
485.461	10990
485.537	13667
485.614	15722
485.690	9341
485.766	9589
485.843	9289
485.919	12504
485.995	12628
486.072	8944
486.148	7994
486.224	8972
486.301	8854
486.377	9960
486.453	9708
486.530	9314
486.606	11977
486.682	14258
486.758	13984
486.835	15608
486.911	11737
486.987	18088
487.063	20873
487.139	26798
487.215	19735
487.292	11832
487.368	10052
487.444	12260
487.520	14902
487.596	18663
487.672	34748
487.748	96595
487.824	155311
487.900	54140
487.976	17717
488.052	14522
488.128	13711
488.204	10878
488.280	9058
488.356	10784
488.432	14009
488.508	21181
488.584	10012
488.660	9028
488.736	9044
488.812	9059
488.888	10374
488.964	13951
489.039	24695
489.115	36735
489.191	21383
489.267	8179
489.343	7579
489.418	6621
489.494	6481
489.570	8020
489.646	6671
489.722	7107
489.797	6742
489.873	9751
489.949	14843
490.024	14063
490.100	6672
490.176	6221
490.251	8265
490.327	10765
490.403	6512
490.478	6873
490.554	5529
490.629	6329
490.705	6105
490.781	6929
490.856	5879
490.932	6604
491.007	6757
491.083	7830
491.158	5961
491.234	8011
491.309	11631
491.385	11846
491.460	6195
491.536	7044
491.611	6199
491.686	6559
491.762	8006
491.837	15602
491.913	23777
491.988	33611
492.063	43134
492.139	11558
492.214	7885
492.289	5729
492.365	5547
492.440	7142
492.515	4421
492.590	5773
492.666	4721
492.741	6157
492.816	7600
492.891	5762
492.967	4506
493.042	5599
493.117	4839
493.192	5887
493.267	9396
493.342	23528
493.418	33213
493.493	8111
493.568	3973
493.643	5481
493.718	4871
493.793	7715
493.868	8125
493.943	6261
494.018	4712
494.093	5137
494.168	3953
494.243	5064
494.318	3130
494.393	4190
494.468	3638
494.543	4739
494.618	4870
494.693	4725
494.768	3520
494.842	4699
494.917	3084
494.992	4623
495.067	3437
495.142	4495
495.217	4276
495.292	3948
495.366	3531
495.441	6014
495.516	6231
495.591	10264
495.665	29586
495.740	74482
495.815	28997
495.890	6536
495.964	4584
496.039	5593
496.114	5043
496.188	5695
496.263	5107
496.338	4847
496.412	5154
496.487	6575
496.561	5954
496.636	7327
496.710	5393
496.785	6417
496.860	6188
496.934	6671
497.009	5235
497.083	6660
497.158	5546
497.232	7397
497.307	8487
497.381	8179
497.455	8364
497.530	10844
497.604	8649
497.679	9246
497.753	13696
497.827	17871
497.902	18743
497.976	20336
498.050	34176
498.125	100054
498.199	113304
498.273	31237
498.348	26181
498.422	20125
498.496	17540
498.570	14554
498.645	10569
498.719	9596
498.793	8814
498.867	12096
498.941	16492
499.016	39731
499.090	103194
499.164	42263
499.238	6511
499.312	6428
499.386	7809
499.460	7142
499.534	6658
499.609	7258
499.683	8484
499.757	8971
499.831	17629
499.905	61693
499.979	63726
500.053	11295
500.127	10786
500.201	9341
500.275	5071
500.349	5986
500.422	5433
500.496	9489
500.570	18471
500.644	35729
500.718	66983
500.792	17161
500.866	5013
500.940	5654
501.013	5133
501.087	4897
501.161	7805
501.235	11897
501.309	18869
501.382	51727
501.456	51430
501.530	12759
501.603	17048
501.677	8170
501.751	3186
501.825	5907
501.898	8499
501.972	20974
502.046	14115
502.119	5262
502.193	10346
502.266	23500
502.340	12025
502.413	9846
502.487	18971
502.561	12741
502.634	4377
502.708	5170
502.781	4770
502.855	3424
502.928	2387
503.002	3142
503.075	2768
503.149	2996
503.222	2916
503.295	3374
503.369	3780
503.442	6987
503.516	15600
503.589	38024
503.662	26041
503.736	9411
503.809	18435
503.882	17757
503.956	25284
504.029	33500
504.102	51690
504.175	80944
504.249	31528
504.322	11093
504.395	6762
504.468	4513
504.542	4596
504.615	3734
504.688	2415
504.761	3125
504.834	3187
504.907	4810
504.980	7521
505.053	4601
505.127	5177
505.200	4640
505.273	4061
505.346	4023
505.419	2152
505.492	2910
505.565	2336
505.638	2683
505.711	1904
505.784	2030
505.857	1335
505.930	2675
506.003	1447
506.076	3405
506.149	2764
506.221	4158
506.294	3819
506.367	8311
506.440	26296
506.513	17835
506.586	3461
506.659	3400
506.731	2594
506.804	4201
506.877	4327
506.950	4446
507.022	2999
507.095	2895
507.168	3670
507.241	3411
507.313	1337
507.386	3238
507.459	3795
507.531	2249
507.604	2406
507.677	2242
507.749	1896
507.822	3587
507.894	7353
507.967	9807
508.040	5377
508.112	5036
508.185	4141
508.257	5022
508.330	5696
508.402	4310
508.475	3358
508.547	4190
508.620	4113
508.692	5536
508.765	3739
508.837	3074
508.909	2815
508.982	3886
509.054	3747
509.127	3202
509.199	2135
509.271	3153
509.344	3178
509.416	2787
509.488	2588
509.560	3191
509.633	2873
509.705	3789
509.777	3831
509.849	5413
509.922	3341
509.994	4045
510.066	3209
510.138	4198
510.210	7928
510.283	8236
510.355	6066
510.427	6479
510.499	4434
510.571	5077
510.643	4828
510.715	6859
510.787	6112
510.859	5832
510.931	4889
511.003	6826
511.076	5834
511.148	5177
511.219	4389
511.291	6187
511.363	6265
511.435	4520
511.507	3541
511.579	3858
511.651	3983
511.723	4817
511.795	3228
511.867	4303
511.939	4277
512.010	6665
512.082	5609
512.154	4357
512.226	4212
512.298	7295
512.369	9744
512.441	7640
512.513	7113
512.585	6080
512.656	5057
512.728	6182
512.800	4908
512.871	4755
512.943	3867
513.015	4305
513.086	4139
513.158	5519
513.230	5278
513.301	7468
513.373	7505
513.444	5796
513.516	4357
513.588	4461
513.659	4739
513.731	6220
513.802	5412
513.874	10192
513.945	16206
514.016	6506
514.088	4277
514.159	5266
514.231	5282
514.302	8571
514.374	6547
514.445	6596
514.516	8830
514.588	7847
514.659	4797
514.730	8346
514.802	7998
514.873	8655
514.944	8765
515.016	7162
515.087	6604
515.158	7008
515.229	9552
515.301	9611
515.372	12504
515.443	8349
515.514	6225
515.585	5380
515.656	5518
515.728	4476
515.799	4105
515.870	4970
515.941	4862
516.012	5354
516.083	6440
516.154	7778
516.225	8782
516.296	7710
516.367	6026
516.438	8426
516.509	11528
516.580	20852
516.651	57382
516.722	196309
516.793	83157
516.864	12855
516.935	12087
517.006	15455
517.077	25723
517.148	69894
517.219	245446
517.289	397779
517.360	67048
517.431	20156
517.502	8021
517.573	8139
517.643	6357
517.714	7900
517.785	7403
517.856	7880
517.926	9489
517.997	11012
518.068	15161
518.138	25446
518.209	53835
518.280	177683
518.350	618150
518.421	240179
518.492	23237
518.562	13732
518.633	15227
518.703	19441
518.774	36022
518.845	90946
518.915	103229
518.986	30354
519.056	13977
519.127	17141
519.197	21702
519.268	35015
519.338	24957
519.408	8221
519.479	9422
519.549	8489
519.620	4886
519.690	4583
519.760	4870
519.831	4322
519.901	4179
519.971	5074
520.042	4033
520.112	5058
520.182	5623
520.253	6334
520.323	5313
520.393	11997
520.463	18761
520.534	12546
520.604	27552
520.674	10168
520.744	9687
520.814	30376
520.885	23271
520.955	11329
521.025	34848
521.095	18732
521.165	4176
521.235	4141
521.305	2950
521.375	4256
521.445	4187
521.515	5648
521.585	5998
521.655	5805
521.725	4524
521.795	5503
521.865	3198
521.935	4724
522.005	4602
522.075	3219
522.145	3392
522.215	4175
522.285	4466
522.355	5702
522.424	9126
522.494	9882
522.564	6521
522.634	12203
522.704	31980
522.774	15139
522.843	3931
522.913	3892
522.983	4215
523.053	5374
523.122	3689
523.192	6604
523.262	16415
523.331	18509
523.401	5034
523.471	3702
523.540	2818
523.610	3115
523.680	2929
523.749	3679
523.819	3584
523.888	3992
523.958	2930
524.027	2978
524.097	2886
524.166	3195
524.236	3075
524.305	4658
524.375	2615
524.444	2596
524.514	3773
524.583	4029
524.653	2908
524.722	4839
524.791	2742
524.861	3894
524.930	3405
524.999	3645
525.069	4954
525.138	3675
525.207	3926
525.277	4885
525.346	3280
525.415	3899
525.484	4656
525.554	4586
525.623	4365
525.692	5043
525.761	4718
525.830	6114
525.900	8499
525.969	14593
526.038	32048
526.107	66180
526.176	193115
526.245	185226
526.314	54118
526.383	92224
526.452	156559
526.522	199559
526.591	243327
526.660	43746
526.729	19232
526.797	25011
526.867	51194
526.935	168205
527.004	399186
527.073	306810
527.142	27521
527.211	10223
527.280	6897
527.349	6987
527.418	3979
527.487	4491
527.555	3529
527.624	3861
527.693	3745
527.762	4168
527.831	2295
527.899	3975
527.968	2992
528.037	3071
528.106	3480
528.174	6915
528.243	5502
528.312	6354
528.380	8179
528.449	3841
528.518	2752
528.586	2488
528.655	1763
528.723	2791
528.792	1770
528.861	2488
528.929	2025
528.998	2946
529.066	1383
529.135	2774
529.203	2029
529.272	2167
529.340	3397
529.409	2600
529.477	2649
529.545	2652
529.614	3716
529.682	4753
529.751	3534
529.819	5294
529.887	4123
529.956	3051
530.024	2555
530.092	2285
530.161	2835
530.229	4679
530.297	2501
530.365	3551
530.434	1485
530.502	2140
530.570	2362
530.638	1367
530.707	2768
530.775	3548
530.843	2214
530.911	2717
530.979	1301
531.047	2557
531.115	3683
531.183	2504
531.252	2665
531.320	2592
531.388	2045
531.456	3127
531.524	1764
531.592	2484
531.660	2555
531.728	2608
531.796	1757
531.864	2940
531.932	1937
532.000	2535
532.067	1718
532.135	2998
532.203	3301
532.271	3802
532.339	5358
532.407	13847
532.475	9174
532.542	5007
532.610	5127
532.678	8525
532.746	24661
532.814	66511
532.881	20204
532.949	4518
533.017	3407
533.084	2371
533.152	2489
533.220	3062
533.287	3348
533.355	3251
533.423	2416
533.490	3402
533.558	2939
533.625	3639
533.693	3279
533.761	3626
533.828	2683
533.896	3226
533.963	5117
534.031	7359
534.098	9169
534.166	6861
534.233	3953
534.300	4788
534.368	4230
534.435	4199
534.503	3965
534.570	6203
534.637	5642
534.705	7435
534.772	10638
534.840	23392
534.907	77181
534.974	134584
535.041	18653
535.109	6179
535.176	3742
535.243	4251
535.310	3389
535.378	3447
535.445	3702
535.512	4176
535.579	3464
535.646	3220
535.714	3869
535.781	6113
535.848	5268
535.915	5356
535.982	3980
536.049	4737
536.116	4078
536.183	4168
536.250	3556
536.317	4530
536.384	4993
536.451	6848
536.518	6950
536.585	5694
536.652	6101
536.719	7560
536.786	6079
536.853	5771
536.920	6296
536.987	11149
537.053	11820
537.120	30412
537.187	32256
537.254	5977
537.321	3685
537.388	5207
537.454	4134
537.521	3791
537.588	4305
537.654	5482
537.721	5582
537.788	5918
537.855	4046
537.921	4414
537.988	4401
538.055	5041
538.121	3860
538.188	5124
538.254	6056
538.321	10880
538.388	7727
538.454	4778
538.521	4790
538.587	4716
538.654	4070
538.720	5115
538.787	4948
538.853	5107
538.920	4428
538.986	5846
539.053	4137
539.119	4670
539.185	4982
539.252	6267
539.318	6907
539.385	6282
539.451	6144
539.517	6439
539.583	6969
539.650	11059
539.716	25028
539.782	10420
539.849	4470
539.915	5238
539.981	4993
540.047	6079
540.114	4073
540.180	5693
540.246	6033
540.312	7139
540.378	9840
540.444	13046
540.510	11831
540.576	26968
540.643	12683
540.709	5226
540.775	5334
540.841	5560
540.907	6340
540.973	11142
541.039	8372
541.105	8799
541.171	5924
541.237	5573
541.303	5324
541.369	7734
541.435	7276
541.500	10767
541.566	7016
541.632	4390
541.698	4149
541.764	5228
541.830	4318
541.896	4719
541.961	5179
542.027	5046
542.093	5370
542.159	6207
542.224	5309
542.290	7561
542.356	9381
542.421	11724
542.487	7039
542.553	5011
542.618	5423
542.684	6409
542.750	5830
542.815	6262
542.881	9088
542.947	22019
543.012	21945
543.078	5754
543.143	4013
543.209	5776
543.274	5773
543.340	6530
543.405	10366
543.471	18112
543.536	6494
543.602	5446
543.667	4408
543.732	5441
543.798	4069
543.863	5795
543.928	5039
543.994	5782
544.059	4992
544.124	5808
544.190	5206
544.255	6289
544.320	5338
544.386	6755
544.451	7358
544.516	7732
544.581	8693
544.646	15611
544.712	26680
544.777	9609
544.842	5689
544.907	6537
544.972	5709
545.037	6132
545.102	6129
545.168	6561
545.233	6320
545.298	7747
545.363	8365
545.428	9593
545.493	11706
545.558	21675
545.623	12455
545.688	7817
545.753	7585
545.818	7373
545.883	7634
545.947	7780
546.012	8157
546.077	8327
546.142	9369
546.207	9050
546.272	10533
546.337	10857
546.401	9393
546.466	10097
546.531	9073
546.596	11422
546.661	10607
546.725	11234
546.790	11225
546.855	12155
546.919	12300
546.984	14080
547.049	15635
547.113	17387
547.178	17579
547.243	22450
547.307	25854
547.372	28049
547.436	29569
547.501	27841
547.565	31336
547.630	30431
547.695	28259
547.759	29188
547.823	28826
547.888	28360
547.952	29379
548.017	30057
548.081	31331
548.146	32419
548.210	32496
548.274	33800
548.339	33549
548.403	31219
548.468	28925
548.532	28269
548.596	28280
548.660	28801
548.725	31000
548.789	35180
548.853	34546
548.917	32455
548.982	30914
549.046	30680
549.110	25201
549.174	26054
549.238	28558
549.303	31657
549.367	34166
549.431	32599
549.495	31098
549.559	30792
549.623	35198
549.687	39825
549.751	40035
549.815	43935
549.879	46672
549.943	44092
550.007	46042
550.071	45286
550.135	43250
550.199	38964
550.263	37902
550.327	36993
550.391	37233
550.455	40502
550.519	42991
550.582	45314
550.646	51759
550.710	54784
550.774	51329
550.838	52199
550.901	52784
550.965	58230
551.029	60688
551.093	66061
551.156	72650
551.220	84467
551.284	99668
551.347	79417
551.411	64592
551.475	64230
551.538	56805
551.602	53432
551.666	49235
551.729	47331
551.793	45216
551.856	44404
551.920	42611
551.983	43711
552.047	42360
552.110	43473
552.174	43432
552.237	45310
552.301	41453
552.364	40321
552.428	38312
552.491	39337
552.554	40985
552.618	40085
552.681	42004
552.745	42605
552.808	47410
552.871	56824
552.934	46323
552.998	42006
553.061	39848
553.124	39338
553.187	37477
553.251	40913
553.314	40545
553.377	41073
553.440	44757
553.503	51256
553.567	66094
553.630	47348
553.693	40953
553.756	42103
553.819	41573
553.882	40138
553.945	38189
554.008	40027
554.071	39206
554.134	40376
554.197	37804
554.260	36406
554.323	37819
554.386	38336
554.449	38985
554.512	40597
554.575	38472
554.638	38663
554.701	36798
554.764	38132
554.827	35391
554.889	35615
554.952	32226
555.015	30987
555.078	30510
555.141	33741
555.203	32070
555.266	32207
555.329	31507
555.391	31666
555.454	30583
555.517	30331
555.580	28808
555.642	28084
555.705	26974
555.768	27474
555.830	26752
555.893	25546
555.955	23337
556.018	23908
556.080	24134
556.143	24950
556.206	25191
556.268	24627
556.330	24203
556.393	24290
556.455	22320
556.518	23565
556.580	23482
556.643	21879
556.705	20611
556.767	19840
556.830	20841
556.892	21046
556.955	21453
557.017	21189
557.079	19232
557.142	18780
557.204	19225
557.266	23482
557.328	22020
557.391	16690
557.453	15859
557.515	17575
557.577	16368
557.639	18515
557.701	16672
557.764	15993
557.826	16198
557.888	18512
557.950	19961
558.012	25633
558.074	35255
558.136	60380
558.198	155279
558.260	87571
558.322	19492
558.384	18932
558.446	20909
558.508	23367
558.570	31199
558.632	45474
558.694	76705
558.756	121471
558.818	238084
558.880	642415
558.942	319757
559.003	162428
559.065	113854
559.127	31269
559.189	32284
559.251	45178
559.312	73977
559.374	132837
559.436	385036
559.498	310025
559.559	44593
559.621	35112
559.683	46859
559.744	77391
559.806	170119
559.868	352287
559.929	100858
559.991	42263
560.052	57803
560.114	147560
560.176	147275
560.237	79282
560.299	161211
560.360	54492
560.422	13190
560.483	10790
560.545	10045
560.606	10284
560.667	8783
560.729	8571
560.790	8097
560.852	8608
560.913	9135
560.974	8966
561.036	7363
561.097	8146
561.158	7918
561.220	9680
561.281	8788
561.342	8174
561.403	9983
561.465	11200
561.526	14227
561.587	23181
561.648	9976
561.709	8249
561.771	6411
561.832	6845
561.893	7474
561.954	7432
562.015	7014
562.076	7206
562.137	6940
562.198	7885
562.259	7031
562.320	7473
562.381	8038
562.442	9545
562.503	8541
562.564	7417
562.625	5933
562.686	6830
562.747	6402
562.808	6912
562.869	6150
562.930	7690
562.991	6717
563.051	6484
563.112	6469
563.173	7119
563.234	5808
563.294	6555
563.355	6454
563.416	7178
563.477	5983
563.537	6203
563.598	6908
563.659	6995
563.720	6204
563.780	6330
563.841	6123
563.901	6237
563.962	6525
564.023	6085
564.083	6660
564.144	6805
564.204	6309
564.265	6758
564.325	7302
564.386	9792
564.446	10356
564.507	6860
564.567	5749
564.628	6556
564.688	5784
564.749	6702
564.809	7357
564.869	7621
564.930	6657
564.990	7312
565.050	5824
565.111	7040
565.171	5597
565.231	8229
565.292	6452
565.352	6048
565.412	6812
565.472	6508
565.532	6927
565.593	6748
565.653	6086
565.713	8139
565.773	7807
565.833	7974
565.893	10168
565.953	7862
566.013	6707
566.074	7797
566.134	8072
566.194	10121
566.254	12024
566.314	10011
566.374	7848
566.434	8165
566.494	7474
566.554	8311
566.614	9021
566.673	9973
566.733	9888
566.793	10408
566.853	10376
566.913	10656
566.973	11157
567.033	12358
567.092	11210
567.152	12498
567.212	11000
567.272	11679
567.331	11854
567.391	12903
567.451	14005
567.511	14094
567.570	14308
567.630	12223
567.690	11782
567.749	12115
567.809	12612
567.868	14043
567.928	14849
567.988	19193
568.047	22594
568.107	29139
568.166	39396
568.226	56584
568.285	82458
568.345	75522
568.404	56873
568.464	49355
568.523	44057
568.582	47453
568.642	53977
568.701	68397
568.761	91341
568.820	140046
568.879	150298
568.939	107810
568.998	78587
569.057	61165
569.116	47438
569.176	39929
569.235	33143
569.294	28613
569.353	23752
569.413	22946
569.472	20022
569.531	18316
569.590	15172
569.649	15674
569.708	14422
569.767	14943
569.827	14248
569.886	13504
569.945	11115
570.004	11990
570.063	10809
570.122	11075
570.181	11218
570.240	10741
570.299	10716
570.358	11413
570.417	9697
570.475	8944
570.534	8527
570.593	9703
570.652	8534
570.711	9919
570.770	8784
570.829	9368
570.887	8291
570.946	10402
571.005	8549
571.064	8701
571.122	8477
571.181	8912
571.240	7483
571.299	8290
571.357	8064
571.416	8514
571.475	7877
571.533	8802
571.592	7582
571.650	8119
571.709	7809
571.768	8498
571.826	8049
571.885	7772
571.943	7201
572.002	5920
572.060	7004
572.119	6268
572.177	6437
572.236	7492
572.294	6194
572.352	7930
572.411	6774
572.469	6873
572.528	6627
572.586	8191
572.644	7317
572.703	9751
572.761	7346
572.819	7828
572.877	5845
572.936	7128
572.994	6308
573.052	6438
573.110	6157
573.169	7573
573.227	6438
573.285	6427
573.343	5887
573.401	7349
573.459	6926
573.517	6932
573.576	6983
573.634	7869
573.692	6973
573.750	7121
573.808	6374
573.866	6663
573.924	7149
573.982	8206
574.040	6890
574.098	6635
574.155	6001
574.213	6958
574.271	6315
574.329	8083
574.387	5438
574.445	6465
574.503	5791
574.560	6100
574.618	6631
574.676	6607
574.734	6084
574.792	6767
574.849	5869
574.907	5885
574.965	5222
575.022	5362
575.080	6382
575.138	6890
575.195	5293
575.253	5624
575.311	6000
575.368	5956
575.426	4492
575.483	5920
575.541	4959
575.598	5908
575.656	4825
575.713	5832
575.771	5399
575.828	6506
575.886	5843
575.943	5268
576.001	5257
576.058	6254
576.115	6047
576.173	7117
576.230	7070
576.287	8301
576.345	7640
576.402	6532
576.459	6912
576.517	6454
576.574	5463
576.631	7393
576.688	5279
576.746	6182
576.803	5428
576.860	6128
576.917	5378
576.974	6215
577.031	6112
577.089	6375
577.146	4458
577.203	5597
577.260	6382
577.317	6683
577.374	6246
577.431	6602
577.488	5943
577.545	6010
577.602	5786
577.659	5998
577.716	5364
577.773	5828
577.830	4958
577.886	6501
577.943	5842
578.000	5569
578.057	5228
578.114	6469
578.171	6065
578.227	6361
578.284	5803
578.341	6913
578.398	5736
578.454	7255
578.511	6870
578.568	7193
578.625	5878
578.681	6860
578.738	5985
578.794	6542
578.851	5569
578.908	6659
578.964	6061
579.021	7234
579.077	5791
579.134	6741
579.190	5759
579.247	6855
579.303	6024
579.360	6479
579.416	5889
579.473	6539
579.529	5419
579.586	5902
579.642	5930
579.698	6390
579.755	5880
579.811	6311
579.867	6084
579.924	6396
579.980	5331
580.036	7368
580.093	6660
580.149	6828
580.205	7566
580.261	7733
580.317	6759
580.374	7870
580.430	7216
580.486	8338
580.542	6864
580.598	8202
580.619	7453
580.654	6137
580.692	6869
580.710	7209
580.765	7120
580.767	7099
580.823	7241
580.838	7193
580.879	6998
580.911	7139
580.935	7217
580.984	7879
580.991	7951
581.047	7785
581.057	7741
581.103	7468
581.130	7953
581.159	8423
581.203	7828
581.215	7646
581.270	8795
581.276	8741
581.326	8037
581.349	7889
581.382	7624
581.422	8025
581.438	8181
581.494	8540
581.494	8563
581.550	8919
581.567	9068
581.606	9384
581.640	9399
581.661	9345
581.713	10085
581.717	10127
581.773	8374
581.786	8605
581.829	9370
581.859	9497
581.885	9569
581.932	9727
581.940	9729
581.996	10243
582.004	10390
582.052	11096
582.077	10861
582.107	10534
582.150	10514
582.163	10513
582.219	10465
582.223	10556
582.274	11445
582.296	11350
582.330	11210
582.368	12193
582.386	12568
582.441	11932
582.441	11917
582.497	12150
582.514	12078
582.552	12064
582.587	12572
582.608	12889
582.659	12230
582.663	12139
582.719	13258
582.732	13164
582.774	12875
582.805	13365
582.830	13864
582.877	13874
582.885	13860
582.941	14313
582.950	14244
582.996	13781
583.023	14434
583.052	15271
583.095	15865
583.107	15948
583.162	16517
583.168	16541
583.218	16882
583.240	16794
583.273	16667
583.313	16871
583.328	16885
583.384	16954
583.385	16960
583.439	17272
583.458	17579
583.494	18200
583.531	18087
583.549	18081
583.603	18939
583.605	18958
583.660	19166
583.676	19209
583.715	19699
583.748	19950
583.770	20040
583.820	21064
583.825	21199
583.881	20521
583.893	20763
583.936	21531
583.965	21514
583.991	21411
584.038	21837
584.046	21989
584.101	22433
584.110	22597
584.156	23641
584.183	23597
584.211	23479
584.255	24392
584.266	24645
584.321	24721
584.328	24789
584.376	25942
584.400	26201
584.431	26438
584.472	27096
584.486	27420
584.541	27360
584.545	27368
584.596	28304
584.617	28541
584.651	29073
584.689	30703
584.706	31632
584.761	31989
584.762	31952
584.816	33354
584.834	33673
584.871	34331
584.906	34666
584.926	35208
584.978	37494
584.980	37657
585.035	40253
585.051	40508
585.090	42632
585.123	45177
585.145	47242
585.195	51740
585.200	52410
585.254	59584
585.267	61139
585.309	68956
585.340	76134
585.364	83236
585.412	97217
585.419	99479
585.473	119398
585.484	124250
585.528	153455
585.556	174029
585.583	215944
585.628	287473
585.637	336382
585.692	664314
585.700	724559
585.747	1340934
585.772	1600936
585.801	1426030
585.845	1099661
585.856	962168
585.910	360768
585.917	290108
585.965	191076
585.989	142148
586.019	125963
586.061	102911
586.074	100310
586.128	89693
586.133	88528
586.183	85074
586.205	83780
586.237	83602
586.277	81479
586.292	81430
586.346	81915
586.349	81669
586.401	81769
586.421	81901
586.455	83516
586.493	84202
586.509	86018
586.564	92312
586.565	92210
586.618	110089
586.637	116018
586.672	124817
586.709	129839
586.727	126378
586.781	118147
586.781	118536
586.835	122593
586.853	123519
586.889	118937
586.925	114105
586.944	113743
586.996	112047
586.998	112477
587.052	114679
587.068	115013
587.106	118483
587.140	120913
587.161	123074
587.212	127380
587.215	128135
587.269	135059
587.284	136379
587.323	141872
587.356	145873
587.377	149269
587.427	156011
587.431	157209
587.485	166516
587.499	168516
587.539	177456
587.571	183144
587.593	188621
587.643	199607
587.648	201690
587.702	215993
587.715	219126
587.755	232503
587.786	241234
587.810	251207
587.858	269418
587.864	272828
587.917	297276
587.930	301854
587.971	326096
588.001	342105
588.025	359224
588.073	390442
588.079	396585
588.133	438902
588.145	446966
588.187	493910
588.217	524421
588.241	557985
588.288	619210
588.295	632024
588.348	722528
588.360	739649
588.402	837409
588.431	901432
588.456	974840
588.503	1111124
588.510	1141672
588.564	1362059
588.575	1404534
588.617	1659819
588.646	1830909
588.671	2054627
588.718	2467640
588.725	2559673
588.778	3225104
588.789	3352639
588.832	3912247
588.861	4280052
588.886	4420505
588.932	4606644
588.939	4541968
588.993	3787500
589.004	3640776
589.047	4024559
589.075	4251284
589.100	4409292
589.147	4582036
589.154	4524254
589.207	3958506
589.218	3833078
589.261	3457781
589.290	3189172
589.314	3150014
589.361	3054443
589.368	3108028
589.421	3468683
589.433	3537047
589.475	4062172
589.504	4411327
589.528	4510224
589.576	4586198
589.582	4567364
589.635	4231240
589.647	4138629
589.689	4394918
589.718	4521364
589.742	4111512
589.790	3260052
589.795	3183761
589.849	2349636
589.861	2148055
589.902	1811554
589.932	1549184
589.955	1434922
590.004	1175913
590.009	1163921
590.062	979431
590.075	930027
590.115	843498
590.146	769519
590.168	736937
590.218	654478
590.222	652509
590.275	589334
590.289	570177
590.328	537707
590.360	507270
590.381	493583
590.431	453651
590.435	453685
590.488	419497
590.503	408182
590.541	393680
590.574	377672
590.594	370809
590.645	347493
590.647	348394
590.700	330121
590.716	323171
590.753	314650
590.787	303876
590.806	300700
590.859	286971
590.859	288109
590.912	276383
590.930	271457
590.965	266420
591.001	258830
591.018	257760
591.071	250967
591.072	249736
591.124	242111
591.143	237898
591.177	233906
591.214	227281
591.230	227467
591.283	224736
591.285	223569
591.336	218916
591.356	215710
591.389	215383
591.427	212546
591.442	211351
591.495	203378
591.498	201830
591.547	198122
591.569	195125
591.600	194369
591.640	191091
591.653	191099
591.706	187487
591.711	186190
591.759	185621
591.782	184145
591.811	187776
591.853	190771
591.864	191426
591.917	190126
591.924	189013
591.969	183025
591.995	178287
592.022	177986
592.066	175125
592.075	176131
592.127	177182
592.137	176531
592.180	183552
592.208	186743
592.233	187152
592.279	185127
592.285	184975
592.338	176207
592.350	173355
592.390	172591
592.421	170576
592.443	171318
592.491	170249
592.495	171079
592.548	171094
592.562	170268
592.600	169574
592.633	167441
592.653	167828
592.704	165776
592.705	166739
592.775	166621
592.846	166412
592.916	168788
592.987	168723
593.058	167170
593.128	164202
593.199	160629
593.270	158374
593.341	156897
593.411	159124
593.482	163063
593.553	163083
593.623	160816
593.694	162005
593.764	167005
593.835	167084
593.906	161412
593.976	159853
594.047	165489
594.117	168767
594.188	180439
594.258	175005
594.329	166286
594.399	165116
594.470	169149
594.540	171407
594.611	174332
594.681	174429
594.751	173654
594.822	174803
594.892	182517
594.963	187328
595.033	189081
595.103	192525
595.174	193940
595.244	203859
595.314	235830
595.384	229637
595.455	201863
595.525	207165
595.595	211249
595.665	219066
595.736	211256
595.806	209765
595.876	213953
595.946	216252
596.016	218146
596.087	224574
596.157	229166
596.227	225731
596.297	229689
596.367	241702
596.437	260022
596.507	270521
596.577	285710
596.647	285285
596.717	270748
596.787	283299
596.857	278433
596.927	280074
596.997	282080
597.067	286266
597.137	291194
597.207	293964
597.277	292561
597.347	290551
597.417	277475
597.487	273631
597.557	276789
597.626	281824
597.696	288264
597.766	293904
597.836	302865
597.906	291251
597.975	256551
598.045	253355
598.115	259408
598.185	270160
598.254	291935
598.324	324082
598.394	345390
598.464	345163
598.533	331677
598.603	324854
598.672	299962
598.742	301973
598.812	306303
598.881	309430
598.951	315171
599.020	310643
599.090	315884
599.159	327782
599.229	327803
599.299	313338
599.368	311179
599.437	321748
599.507	309861
599.576	287585
599.646	282063
599.715	276710
599.785	273882
599.854	272927
599.924	270910
599.993	266189
600.062	263451
600.132	265641
600.201	271503
600.270	299701
600.340	341999
600.409	341813
600.478	334042
600.547	334977
600.617	344208
600.686	286876
600.755	245174
600.824	230535
600.894	222045
600.963	216734
601.032	216717
601.101	212099
601.170	202397
601.239	196786
601.308	194235
601.378	199727
601.447	195176
601.516	192764
601.585	193988
601.654	202266
601.723	207272
601.792	200337
601.861	207684
601.930	216627
601.999	223489
602.068	221973
602.137	222217
602.206	234589
602.275	229571
602.343	231362
602.412	238737
602.481	235379
602.550	231000
602.619	231783
602.688	241711
602.756	240938
602.825	241388
602.894	242813
602.963	249522
603.032	254646
603.100	257681
603.169	255513
603.238	257644
603.307	257852
603.375	257902
603.444	261900
603.513	268712
603.581	272450
603.650	278710
603.719	277321
603.787	273628
603.856	283290
603.924	289972
603.993	304675
604.061	307650
604.130	324685
604.198	331952
604.267	336477
604.335	342107
604.404	346749
604.472	354674
604.541	356251
604.609	359864
604.678	362808
604.746	361144
604.815	367142
604.883	380137
604.951	380849
605.020	382716
605.088	388207
605.156	396200
605.225	406806
605.293	409046
605.361	408513
605.429	411259
605.498	417608
605.566	426376
605.634	441664
605.702	458077
605.771	475318
605.839	483600
605.907	478826
605.975	466969
606.043	447431
606.111	443491
606.180	443231
606.248	445193
606.316	440883
606.384	437515
606.452	440356
606.520	450864
606.588	474179
606.656	462937
606.724	463619
606.792	447117
606.860	415428
606.928	369875
606.996	346911
607.064	332675
607.132	335500
607.200	346129
607.267	370357
607.335	372256
607.403	388774
607.471	386233
607.539	369798
607.607	369979
607.674	354499
607.742	327890
607.810	332231
607.878	329672
607.946	329334
608.013	341347
608.081	355793
608.149	360959
608.216	360312
608.284	376154
608.352	378804
608.419	383522
608.487	377143
608.555	380517
608.622	367308
608.690	378768
608.757	412791
608.825	448226
608.893	445798
608.960	437018
609.028	423253
609.095	413583
609.163	411335
609.230	385054
609.298	337499
609.365	323971
609.432	350977
609.500	376940
609.567	414824
609.635	472979
609.702	538720
609.769	549341
609.837	509430
609.904	397764
609.971	389522
610.039	438309
610.106	557237
610.173	935071
610.241	2185157
610.308	4180440
610.375	1849151
610.442	723815
610.509	483696
610.577	418367
610.644	397458
610.711	395479
610.778	402143
610.845	406092
610.912	425004
610.980	447401
611.047	465572
611.114	468996
611.181	447847
611.248	428819
611.315	432282
611.382	456680
611.449	466504
611.516	484237
611.583	483972
611.650	487955
611.717	493415
611.784	509469
611.851	535919
611.918	588910
611.984	686677
612.051	920990
612.118	1570376
612.185	3502123
612.252	5768470
612.319	3185744
612.386	1141948
612.452	800428
612.519	666671
612.586	612764
612.653	592387
612.719	575075
612.786	579197
612.853	539961
612.919	496730
612.986	497419
613.053	488621
613.120	459929
613.186	427923
613.253	424055
613.319	419637
613.386	427067
613.453	429013
613.519	440729
613.586	442469
613.652	459522
613.719	465060
613.785	456728
613.852	447954
613.918	439653
613.985	433412
614.051	449588
614.118	477064
614.184	506244
614.250	454222
614.317	442016
614.383	435932
614.449	441708
614.516	442143
614.582	441041
614.648	440041
614.715	429074
614.781	430945
614.847	418838
614.914	424359
614.980	418732
615.046	410285
615.112	413517
615.179	431042
615.245	442165
615.311	459307
615.377	497987
615.443	608373
615.509	615384
615.575	547500
615.642	523188
615.708	511579
615.774	531438
615.840	577755
615.906	655996
615.972	813034
616.038	1211123
616.104	2205250
616.170	4232259
616.236	6020968
616.302	4748740
616.368	1892204
616.434	1303427
616.500	885768
616.565	774198
616.631	916221
616.697	1118606
616.763	900069
616.829	1008037
616.895	1747991
616.961	2968717
617.026	2493904
617.092	1085477
617.158	666686
617.224	545830
617.289	488450
617.355	434615
617.421	406297
617.487	397614
617.552	381875
617.618	359135
617.684	355579
617.749	353639
617.815	347590
617.880	331780
617.946	326218
618.012	327972
618.077	335677
618.143	332592
618.208	317910
618.274	326936
618.339	353272
618.405	332222
618.470	280904
618.536	286360
618.601	283514
618.667	280892
618.732	255322
618.798	245351
618.863	241270
618.928	236998
618.994	237843
619.059	244188
619.124	255520
619.190	273828
619.255	241796
619.320	235547
619.386	237702
619.451	235010
619.516	233040
619.581	224976
619.647	233199
619.712	239035
619.777	230993
619.842	221204
619.907	227101
619.972	232378
620.038	237875
620.103	229652
620.168	224663
620.233	223133
620.298	228041
620.363	229008
620.428	233769
620.493	238428
620.558	245949
620.623	245355
620.688	248001
620.753	245195
620.818	245945
620.883	249560
620.948	251748
621.013	246856
621.078	247028
621.143	242035
621.207	251036
621.272	247859
621.337	247159
621.402	240625
621.467	241020
621.532	247897
621.596	245608
621.661	240228
621.726	223624
621.791	223903
621.855	227831
621.920	229449
621.985	230822
622.049	238432
622.114	242336
622.179	241716
622.243	241399
622.308	250241
622.373	255090
622.437	261617
622.502	249519
622.566	237125
622.631	237011
622.695	239181
622.760	239873
622.824	239385
622.889	238614
622.953	243322
623.018	254982
623.082	306942
623.147	275588
623.211	255763
623.276	250410
623.340	248269
623.404	233190
623.469	226397
623.533	228246
623.597	231796
623.662	225382
623.726	222845
623.790	202819
623.854	190374
623.919	191065
623.983	193107
624.047	200417
624.111	200770
624.176	204661
624.240	209016
624.304	225188
624.368	220935
624.432	206842
624.496	207334
624.560	218309
624.625	235887
624.689	236267
624.753	226877
624.817	236760
624.881	220605
624.945	215782
625.009	190688
625.073	190738
625.137	196367
625.201	215510
625.265	235050
625.329	217073
625.393	202966
625.456	211884
625.520	207979
625.584	218837
625.648	230969
625.712	244953
625.776	295098
625.839	397437
625.903	358496
625.967	198411
626.031	187931
626.095	243956
626.158	288984
626.222	195704
626.286	154054
626.349	145234
626.413	139196
626.477	135230
626.540	137531
626.604	138815
626.668	134314
626.731	130359
626.795	130422
626.858	135799
626.922	136136
626.986	132098
627.049	129365
627.113	134459
627.176	134347
627.240	129729
627.303	129211
627.366	131358
627.430	129836
627.493	135339
627.557	131429
627.620	129966
627.684	132060
627.747	140851
627.810	139108
627.874	125849
627.937	116365
628.000	115482
628.064	120892
628.127	113461
628.190	103573
628.253	101632
628.317	100443
628.380	96681
628.443	93152
628.506	92378
628.569	93423
628.632	87567
628.696	83418
628.759	85694
628.822	83061
628.885	81499
628.948	79561
629.011	79639
629.074	79771
629.137	77541
629.200	76004
629.263	76748
629.326	77356
629.389	74779
629.452	73907
629.515	75597
629.578	74361
629.641	74445
629.704	77048
629.767	77361
629.830	74746
629.892	71040
629.955	71276
630.018	71734
630.081	76212
630.144	81574
630.207	83796
630.269	78850
630.332	76423
630.395	78455
630.458	72460
630.520	68875
630.583	69213
630.646	67720
630.708	69139
630.771	70582
630.834	71205
630.896	74558
630.959	71922
631.021	73201
631.084	74013
631.146	74565
631.209	79715
631.272	79893
631.334	76857
631.397	78659
631.459	82010
631.522	86063
631.584	92900
631.646	96767
631.709	104511
631.771	111640
631.834	119286
631.896	103635
631.958	95028
632.021	88353
632.083	81678
632.145	79556
632.208	76957
632.270	76228
632.332	73808
632.395	71647
632.457	72045
632.519	72016
632.581	69944
632.643	68641
632.706	70788
632.768	69393
632.830	67829
632.892	67981
632.954	69949
633.016	72568
633.078	69710
633.141	69399
633.203	71099
633.265	70555
633.327	69954
633.389	71502
633.451	73217
633.513	78379
633.575	83590
633.637	82985
633.698	84304
633.760	82929
633.822	82467
633.884	85169
633.946	89629
634.008	94889
634.070	102534
634.132	109304
634.193	122652
634.255	131666
634.317	139172
634.379	142834
634.441	134959
634.502	121521
634.564	107621
634.626	98070
634.687	89409
634.749	83542
634.811	79542
634.873	77870
634.934	75552
634.996	75477
635.057	75183
635.119	75716
635.181	77404
635.242	80836
635.304	82090
635.365	79907
635.427	81491
635.488	80962
635.550	81887
635.611	81895
635.673	83870
635.734	91545
635.796	96799
635.857	106258
635.918	117439
635.980	129262
636.041	141592
636.102	155506
636.164	162282
636.225	161304
636.286	151656
636.348	131934
636.409	115681
636.470	100513
636.531	92047
636.593	86880
636.654	84162
636.715	75200
636.776	69113
636.838	68035
636.899	64960
636.960	62959
637.021	62610
637.082	59829
637.143	59400
637.204	57739
637.265	56158
637.326	57516
637.387	57066
637.448	59318
637.509	57742
637.570	57409
637.631	55890
637.692	54211
637.753	52951
637.814	51392
637.875	51659
637.936	51054
637.997	49793
638.058	50956
638.119	52149
638.179	51138
638.240	50452
638.301	49091
638.362	48403
638.423	46434
638.483	47401
638.544	46572
638.605	45689
638.666	45667
638.726	46267
638.787	45329
638.848	44756
638.908	45754
638.969	43726
639.030	43020
639.090	43310
639.151	43617
639.211	44796
639.272	47872
639.332	55751
639.393	73704
639.453	53979
639.514	57648
639.574	56914
639.635	46297
639.695	44219
639.756	42147
639.816	43064
639.877	43710
639.937	49263
639.997	64965
640.058	68173
640.118	45101
640.178	41407
640.239	41546
640.299	41827
640.359	42787
640.420	45012
640.480	50118
640.540	57954
640.600	70377
640.661	70986
640.721	62871
640.781	64763
640.841	64948
640.901	53142
640.961	45603
641.021	46033
641.082	53332
641.142	61973
641.202	60448
641.262	43442
641.322	39318
641.382	38639
641.442	37705
641.502	37652
641.562	38500
641.622	39516
641.682	43569
641.742	50366
641.802	60478
641.861	51723
641.921	45168
641.981	41044
642.041	40074
642.101	41470
642.161	46609
642.221	37795
642.280	35529
642.340	34861
642.400	35857
642.460	37712
642.519	37996
642.579	38202
642.639	37972
642.698	37729
642.758	41186
642.818	40768
642.877	40882
642.937	41393
642.997	42676
643.056	47622
643.116	55821
643.175	44092
643.235	42927
643.294	44670
643.354	47818
643.414	52178
643.473	63064
643.532	77969
643.592	105870
643.651	158574
643.711	266733
643.770	489703
643.830	969932
643.889	2358227
643.948	3318373
644.008	830805
644.067	234063
644.126	133488
644.186	97704
644.245	76501
644.304	63177
644.363	57466
644.423	52827
644.482	50670
644.541	51484
644.600	54001
644.659	62705
644.719	79433
644.778	115737
644.837	189893
644.896	352645
644.955	789044
645.014	1490147
645.073	348163
645.132	104819
645.191	75284
645.250	63471
645.309	59417
645.368	61363
645.427	75507
645.486	108814
645.545	232496
645.604	324944
645.663	76692
645.722	51983
645.781	54557
645.840	58803
645.898	70912
645.957	96112
646.016	145693
646.075	248367
646.134	461100
646.192	914829
646.251	2370817
646.310	2374835
646.369	439078
646.427	162956
646.486	124623
646.545	82379
646.603	61668
646.662	52370
646.721	47728
646.779	47248
646.838	49643
646.896	56916
646.955	75824
647.014	117166
647.072	204701
647.131	432662
647.189	1100955
647.248	348234
647.306	67860
647.365	47232
647.423	38644
647.481	35433
647.540	32808
647.598	32130
647.657	30809
647.715	30858
647.773	29534
647.832	28752
647.890	27594
647.948	26856
648.007	26609
648.065	25375
648.123	25435
648.181	26695
648.240	27244
648.298	28448
648.356	26717
648.414	25931
648.472	25811
648.531	25138
648.589	25044
648.647	24336
648.705	24264
648.763	25498
648.821	27084
648.879	29727
648.937	32074
648.995	39153
649.053	51712
649.111	73410
649.169	117452
649.227	213603
649.285	401493
649.343	884758
649.401	2133417
649.459	751229
649.516	173993
649.574	92754
649.632	70370
649.690	81470
649.748	87185
649.806	97062
649.863	158981
649.921	298132
649.979	822530
650.037	373787
650.094	58564
650.152	37842
650.210	31504
650.268	28264
650.325	26361
650.383	26709
650.440	26921
650.498	23154
650.556	21057
650.613	21785
650.671	20412
650.728	22525
650.786	23609
650.843	27910
650.901	39293
650.958	26602
651.016	19489
651.073	18753
651.131	18197
651.188	18156
651.246	17998
651.303	17359
651.360	17626
651.418	16861
651.475	18399
651.532	16893
651.590	17185
651.647	17054
651.704	17533
651.762	16992
651.819	17512
651.876	17449
651.933	16724
651.990	16205
652.048	16804
652.105	15583
652.162	16456
652.219	17018
652.276	15725
652.333	16039
652.390	15277
652.448	16158
652.505	16115
652.562	16397
652.619	16756
652.676	16516
652.733	22086
652.790	20128
652.847	15602
652.904	15376
652.961	14342
653.017	15650
653.074	15828
653.131	15267
653.188	15914
653.245	14624
653.302	15439
653.359	15806
653.415	15237
653.472	14803
653.529	14318
653.586	14828
653.642	14893
653.699	15356
653.756	15346
653.813	15599
653.869	16074
653.926	16342
653.983	15411
654.039	16449
654.096	14866
654.152	15169
654.209	14646
654.266	15305
654.322	14544
654.379	14768
654.435	16012
654.492	15991
654.548	17862
654.605	22511
654.661	30537
654.717	17549
654.774	15066
654.830	14961
654.887	14904
654.943	14659
655.000	16012
655.056	17035
655.112	16134
655.168	15131
655.225	16544
655.281	16954
655.337	17688
655.394	20985
655.450	27097
655.506	19194
655.562	18895
655.618	27543
655.675	20157
655.731	15350
655.787	14768
655.843	14542
655.899	13912
655.955	14150
656.011	13873
656.067	14328
656.123	13607
656.179	14624
656.235	13882
656.291	15044
656.347	14745
656.403	15324
656.459	15857
656.515	15269
656.571	15629
656.627	15850
656.683	13947
656.739	15617
656.795	14290
656.850	14623
656.906	15069
656.962	15772
657.018	15299
657.074	16266
657.129	19958
657.185	25821
657.241	38763
657.297	89023
657.352	40655
657.408	15458
657.464	15094
657.519	15198
657.575	14119
657.630	12711
657.686	12609
657.742	13109
657.797	12243
657.853	12608
657.908	14324
657.964	12519
658.019	13272
658.075	12879
658.130	12928
658.186	12641
658.241	12078
658.297	12968
658.352	11662
658.407	13363
658.463	12079
658.518	12856
658.573	12082
658.629	12812
658.684	11043
658.739	11266
658.795	11585
658.850	12272
658.905	10753
658.960	12087
659.016	11890
659.071	11514
659.126	12283
659.181	12875
659.236	14436
659.291	20152
659.346	19151
659.401	14410
659.457	14249
659.512	14475
659.567	16553
659.622	12204
659.677	11787
659.732	11421
659.787	11531
659.842	12464
659.897	13259
659.952	15425
660.007	11863
660.061	10762
660.116	11369
660.171	11787
660.226	11448
660.281	11346
660.336	10640
660.391	10678
660.445	10634
660.500	11004
660.555	11018
660.610	10963
660.664	11793
660.719	11231
660.774	10769
660.828	11394
660.883	11112
660.938	11747
660.992	10323
661.047	10998
661.101	10556
661.156	9927
661.211	11329
661.265	10828
661.320	10424
661.374	10703
661.429	10208
661.483	10924
661.538	10809
661.592	11001
661.647	10574
661.701	11767
661.755	11688
661.810	11144
661.864	10031
661.919	10836
661.973	9960
662.027	10752
662.081	10975
662.136	10703
662.190	10443
662.244	10939
662.299	11129
662.353	9879
662.407	10869
662.461	10505
662.515	11595
662.569	10841
662.624	10344
662.678	10353
662.732	10244
662.786	10738
662.840	11032
662.894	11789
662.948	10051
663.002	11021
663.056	10192
663.110	10061
663.164	10798
663.218	11142
663.272	10587
663.326	11472
663.380	11909
663.434	11001
663.488	11462
663.542	11073
663.595	10294
663.649	11163
663.703	11076
663.757	11993
663.811	9525
663.864	11567
663.918	10413
663.972	10095
664.026	10785
664.079	10178
664.133	11167
664.187	10864
664.240	10977
664.294	9751
664.348	10305
664.401	11383
664.455	10794
664.508	10905
664.562	9939
664.615	10811
664.669	10862
664.722	10091
664.776	9949
664.829	10064
664.883	10655
664.936	10944
664.990	10694
665.043	11184
665.097	10864
665.150	12487
665.203	12180
665.257	12032
665.310	12304
665.363	11988
665.417	11587
665.470	12643
665.523	11635
665.576	12351
665.630	12523
665.683	11813
665.736	12788
665.789	13078
665.842	10955
665.895	11333
665.949	11524
666.002	10741
666.055	11474
666.108	12032
666.161	11640
666.214	11884
666.267	12048
666.320	12246
666.373	14684
666.426	13083
666.479	12161
666.532	12917
666.585	13123
666.638	14670
666.691	14855
666.744	14027
666.796	14228
666.849	14055
666.902	13749
666.955	12092
667.008	11192
667.060	11096
667.113	10746
667.166	10603
667.219	10603
667.271	11083
667.324	11877
667.377	10877
667.430	11790
667.482	11639
667.535	12864
667.587	12838
667.640	12117
667.693	12472
667.745	14474
667.798	21180
667.850	20096
667.903	12153
667.955	11784
668.008	11679
668.060	12540
668.113	13327
668.165	12177
668.218	11948
668.270	11688
668.322	11214
668.375	11045
668.427	12092
668.479	11668
668.532	11323
668.584	11455
668.636	11793
668.689	11277
668.741	11425
668.793	11206
668.845	10955
668.898	11800
668.950	12048
669.002	12040
669.054	11250
669.106	11532
669.158	11968
669.211	11301
669.263	12022
669.315	12484
669.367	13521
669.419	14279
669.471	14842
669.523	14391
669.575	16687
669.627	19054
669.679	17443
669.731	14987
669.783	14524
669.835	14656
669.886	15865
669.938	15773
669.990	14511
670.042	14607
670.094	14613
670.146	14449
670.197	16155
670.249	17490
670.301	20397
670.353	25757
670.404	32971
670.456	45926
670.508	67565
670.560	106131
670.611	178979
670.663	306268
670.715	525969
670.766	1183074
670.818	1702169
670.869	557988
670.921	118041
670.972	63791
671.024	46613
671.075	35465
671.127	28080
671.178	24466
671.230	22983
671.281	24006
671.333	22885
671.384	24391
671.436	28167
671.487	33498
671.538	43188
671.590	60753
671.641	91051
671.692	139592
671.744	234122
671.795	409687
671.846	343459
671.897	165913
671.949	87446
672.000	56157
672.051	39878
672.102	31302
672.153	24520
672.204	22072
672.256	20060
672.307	17693
672.358	17107
672.409	15920
672.460	14918
672.511	13988
672.562	13678
672.613	12341
672.664	12406
672.715	12148
672.766	11776
672.817	11078
672.868	11032
672.919	10822
672.970	10052
673.021	10653
673.071	9812
673.122	10872
673.173	10216
673.224	9910
673.275	9856
673.326	10150
673.376	9659
673.427	8549
673.478	9898
673.528	10670
673.579	10352
673.630	9825
673.680	10063
673.731	10553
673.782	9941
673.832	9500
673.883	9906
673.934	9472
673.984	10445
674.035	9494
674.085	9937
674.136	10709
674.186	10497
674.237	11970
674.287	12386
674.338	16470
674.388	11801
674.438	10876
674.489	11258
674.539	11731
674.589	12939
674.640	11531
674.690	12062
674.740	11583
674.791	11912
674.841	10983
674.891	11575
674.942	9409
674.992	9390
675.042	9033
675.092	8954
675.142	7676
675.193	8524
675.243	8750
675.293	9508
675.343	9803
675.393	9668
675.443	8765
675.493	8764
675.543	9108
675.593	9125
675.643	9376
675.693	9012
675.743	8921
675.793	9250
675.843	8210
675.893	8270
675.943	8683
675.993	8607
676.043	7353
676.093	8606
676.142	8230
676.192	7824
676.242	7346
676.292	7668
676.341	7960
676.391	7993
676.441	7609
676.491	7967
676.540	6721
676.590	7282
676.640	6596
676.689	7761
676.739	7210
676.789	7433
676.838	7370
676.888	7477
676.937	6490
676.987	7272
677.037	6985
677.086	6996
677.136	7265
677.185	5976
677.235	6891
677.284	6080
677.333	6398
677.383	6639
677.432	7008
677.482	6144
677.531	6439
677.580	6872
677.630	7076
677.679	6344
677.728	6193
677.778	6903
677.827	6828
677.876	7164
677.925	5991
677.975	6192
678.024	7613
678.073	7407
678.122	7318
678.171	7907
678.220	8487
678.269	9486
678.319	9951
678.368	11508
678.417	11260
678.466	10169
678.515	8484
678.564	7489
678.613	7242
678.662	7219
678.711	6546
678.760	7148
678.809	7297
678.857	7292
678.906	7500
678.955	7044
679.004	7586
679.053	6989
679.102	6473
679.151	7789
679.199	6956
679.248	6897
679.297	6822
679.346	6805
679.394	6788
679.443	6716
679.492	6694
679.540	6157
679.589	6094
679.638	7558
679.686	6669
679.735	6962
679.784	6887
679.832	9061
679.881	10200
679.929	7663
679.978	6778
680.026	6306
680.075	6212
680.123	6334
680.172	5701
680.220	5730
680.268	6053
680.317	5977
680.365	5143
680.414	5370
680.462	5227
680.510	5259
680.559	5533
680.607	5686
680.655	5694
680.703	5345
680.752	5782
680.800	6181
680.848	4845
680.896	6451
680.945	5846
680.993	6305
681.041	5271
681.089	5983
681.137	5549
681.185	4613
681.233	5123
681.258	5414
681.281	5658
681.329	5550
681.377	4887
681.380	4947
681.425	5453
681.473	5813
681.502	5749
681.521	5655
681.569	6083
681.617	6079
681.624	6190
681.665	6657
681.713	6602
681.745	6574
681.761	6509
681.809	5725
681.857	6215
681.867	6217
681.904	6133
681.952	6904
681.989	6791
682.000	6713
682.048	6334
682.096	6744
682.111	6560
682.143	6061
682.191	6754
682.233	6664
682.239	6618
682.286	6456
682.334	6968
682.354	6982
682.382	6943
682.430	7442
682.476	7778
682.477	7756
682.525	7450
682.572	6738
682.598	7078
682.620	7339
682.667	6695
682.715	7378
682.720	7359
682.763	6895
682.810	7666
682.841	7695
682.857	7696
682.905	8237
682.952	7401
682.963	7488
683.000	7561
683.047	6981
683.085	8115
683.095	8410
683.142	7524
683.190	8029
683.206	8080
683.237	8100
683.284	8568
683.328	7962
683.332	7879
683.379	8426
683.426	8233
683.449	8165
683.473	8073
683.521	8068
683.568	7688
683.571	7801
683.615	8984
683.662	8071
683.693	8282
683.709	8354
683.757	8777
683.804	8882
683.814	8728
683.851	8090
683.898	8366
683.936	8666
683.945	8712
683.992	9039
684.039	8929
684.057	8892
684.086	8848
684.133	9453
684.179	9127
684.180	9094
684.227	8908
684.274	9581
684.300	9699
684.321	9729
684.368	8812
684.415	9467
684.422	9508
684.462	9556
684.509	9220
684.543	9302
684.556	9293
684.603	9586
684.649	9055
684.665	8971
684.696	8866
684.743	9100
684.786	10024
684.790	10082
684.837	10173
684.883	10136
684.908	9973
684.930	9875
684.977	10587
685.023	10263
685.029	10346
685.070	10708
685.117	10140
685.150	10563
685.164	10663
685.210	10580
685.257	11060
685.272	11048
685.303	11198
685.350	11342
685.393	11194
685.396	11153
685.443	11419
685.490	11399
685.514	11811
685.536	12281
685.583	12572
685.629	12455
685.636	12397
685.675	11473
685.722	11149
685.757	10741
685.768	10661
685.815	11547
685.861	11285
685.878	11304
685.908	11398
685.954	11246
686.000	11698
686.000	11694
686.047	11749
686.093	12512
686.121	12964
686.139	13536
686.185	13530
686.232	13877
686.242	14006
686.278	13581
686.324	13373
686.363	12960
686.370	12861
686.416	11809
686.463	11526
686.484	11480
686.509	11738
686.555	11670
686.601	11350
686.606	11404
686.647	11846
686.693	12334
686.727	12064
686.739	11918
686.785	12263
686.831	11907
686.848	11897
686.877	11938
686.923	11664
686.969	11955
686.969	11955
687.015	11748
687.061	12173
687.090	12563
687.107	12802
687.153	12656
687.199	12960
687.211	12842
687.245	12591
687.291	12309
687.332	13038
687.336	13082
687.382	12950
687.428	12979
687.453	13021
687.474	13226
687.520	13099
687.565	13538
687.574	13476
687.611	12826
687.657	12620
687.695	12992
687.702	13159
687.748	13390
687.794	13425
687.816	14085
687.839	14801
687.885	15055
687.931	14727
687.937	14789
687.976	14456
688.022	14066
688.058	13893
688.067	13922
688.113	13799
688.158	13524
688.179	13590
688.204	13722
688.249	13816
688.295	13852
688.300	13829
688.340	13639
688.386	13944
688.421	13669
688.431	13689
688.477	13500
688.522	14177
688.542	14310
688.567	14355
688.613	14699
688.658	14832
688.663	14812
688.703	14735
688.749	14654
688.784	14791
688.794	14762
688.839	14098
688.884	14185
688.905	14157
688.930	14373
688.975	14021
689.020	14316
689.026	14325
689.065	14345
689.110	14759
689.146	14738
689.155	14774
689.201	14527
689.246	14649
689.267	14708
689.291	14751
689.336	14938
689.381	14879
689.388	14892
689.426	15010
689.471	14702
689.509	14806
689.516	14839
689.561	14475
689.606	14290
689.630	14394
689.651	14575
689.696	14531
689.741	14873
689.750	14854
689.785	14753
689.830	15132
689.871	15022
689.875	15023
689.920	15116
689.965	14487
689.992	14626
690.010	14759
690.054	14632
690.099	14778
690.112	14864
690.144	15251
690.189	14998
690.233	15053
690.233	15070
690.278	15247
690.323	15297
690.354	15268
690.367	15337
690.412	15470
690.457	15321
690.474	15405
690.501	15486
690.546	15205
690.590	15293
690.595	15262
690.635	15351
690.680	15654
690.716	15590
690.724	15559
690.769	15656
690.813	15645
690.836	15637
690.857	15914
690.902	16619
690.946	16929
690.957	17077
690.991	18095
691.035	19361
691.077	20854
691.080	21057
691.124	24818
691.168	27424
691.198	28989
691.213	29021
691.257	29147
691.301	29456
691.318	29462
691.346	27769
691.390	25067
691.434	22368
691.439	22067
691.478	21058
691.522	19441
691.559	18379
691.567	18404
691.611	18571
691.655	18560
691.680	18421
691.699	18345
691.743	17861
691.787	18057
691.800	17972
691.831	17802
691.875	17518
691.919	17474
691.921	17434
691.964	17430
692.008	17709
692.041	17903
692.052	18015
692.096	18056
692.139	18287
692.162	18349
692.183	18231
692.227	18048
692.271	17955
692.282	17840
692.315	17784
692.359	17877
692.402	17717
692.403	17745
692.447	17497
692.490	17412
692.523	17362
692.534	17518
692.578	18111
692.622	18418
692.643	18605
692.666	18564
692.709	18230
692.753	17747
692.763	17721
692.797	18002
692.840	17636
692.884	17875
692.884	17908
692.928	17766
692.971	17592
693.004	17446
693.015	17592
693.059	17887
693.102	18079
693.124	18227
693.146	18324
693.189	18383
693.233	18556
693.245	18578
693.276	18776
693.320	19132
693.363	19289
693.365	19254
693.407	19292
693.450	19643
693.485	19625
693.493	19740
693.537	20454
693.580	20971
693.605	21157
693.624	21337
693.667	22164
693.710	22482
693.725	22655
693.753	24280
693.797	27007
693.840	30026
693.845	30389
693.883	37231
693.926	43851
693.966	49676
693.970	49742
694.013	49104
694.056	48880
694.086	48732
694.099	46712
694.142	40044
694.185	33340
694.206	30067
694.229	28889
694.272	26772
694.315	24312
694.326	23730
694.358	23665
694.401	23240
694.444	22911
694.446	22856
694.487	23082
694.530	23006
694.566	23063
694.573	23017
694.616	22241
694.659	21560
694.686	20997
694.702	20743
694.745	20069
694.787	19358
694.806	19018
694.830	19116
694.873	19291
694.916	19318
694.926	19284
694.959	19404
695.002	19507
695.044	19711
695.046	19675
695.087	19778
695.130	19940
695.166	19994
695.172	20054
695.215	20132
695.258	20143
695.286	20178
695.301	20299
695.343	20384
695.386	20685
695.406	20709
695.428	20618
695.471	20240
695.514	20071
695.526	19996
695.556	20361
695.599	20877
695.641	21199
695.646	21186
695.684	21754
695.726	22400
695.766	22903
695.769	22912
695.811	22409
695.854	21807
695.886	21333
695.896	21369
695.938	21291
695.981	21075
696.005	21083
696.023	21172
696.065	21071
696.108	21167
696.125	21078
696.150	21552
696.192	22458
696.235	23137
696.245	23306
696.277	23398
696.319	23272
696.361	23117
696.365	23079
696.404	23473
696.446	23489
696.485	23436
696.488	23472
696.530	23364
696.572	23316
696.604	23099
696.614	23185
696.656	23426
696.698	23774
696.724	23768
696.740	23648
696.783	23262
696.825	23045
696.844	22826
696.867	23009
696.909	23260
696.951	23542
696.964	23594
696.992	23801
697.034	23937
697.076	24068
697.083	24044
697.118	24159
697.160	24177
697.202	24224
697.203	24168
697.244	24338
697.286	24421
697.323	24457
697.327	24531
697.369	24761
697.411	24814
697.442	24929
697.453	24990
697.494	24897
697.536	24864
697.562	24750
697.578	25037
697.620	25733
697.661	26232
697.682	26483
697.703	26248
697.744	25668
697.786	25118
697.801	24836
697.828	25622
697.869	26786
697.911	27931
697.921	28132
697.952	28356
697.994	28591
698.035	28901
698.040	28860
698.077	27722
698.118	26393
698.160	24990
698.160	24921
698.201	25488
698.243	26014
698.279	26461
698.284	26532
698.325	26527
698.367	26585
698.399	26524
698.408	26613
698.449	26760
698.491	26864
698.518	26890
698.532	26975
698.573	27031
698.614	27075
698.638	27027
698.656	27040
698.697	26958
698.738	26827
698.757	26708
698.779	26973
698.820	27347
698.862	27732
698.877	27807
698.903	27916
698.944	27969
698.985	28031
698.996	27981
699.026	28377
699.067	28829
699.116	29299
699.235	27780
699.354	27352
699.474	28085
699.593	26792
699.713	27766
699.832	27465
699.951	27393
700.070	28930
700.190	26311
700.309	26564
700.428	25735
700.547	26815
700.667	25611
700.786	25238
700.905	26851
701.024	24614
701.143	25965
701.262	25683
701.381	24174
701.500	25018
701.619	25325
701.738	27847
701.857	25784
701.976	25493
702.095	23470
702.214	23522
702.333	25582
702.452	26364
702.571	25883
702.690	25438
702.809	23840
702.928	24825
703.047	23087
703.165	23714
703.284	22659
703.403	23263
703.522	23468
703.640	24475
703.759	24399
703.878	26160
703.997	29558
704.115	23977
704.234	22802
704.353	23841
704.471	22702
704.590	22792
704.708	21417
704.827	21140
704.946	21111
705.064	21394
705.183	22921
705.301	21200
705.420	23052
705.538	25770
705.656	24381
705.775	23254
705.893	23248
706.012	31134
706.130	34664
706.249	24878
706.367	23946
706.485	23308
706.604	23225
706.722	23928
706.840	23102
706.958	27887
707.077	29353
707.195	24306
707.313	22092
707.431	22262
707.549	20957
707.668	21457
707.786	20945
707.904	22055
708.022	20728
708.140	21311
708.258	21497
708.376	21860
708.494	21816
708.612	21123
708.730	22932
708.848	27930
708.966	25370
709.084	25788
709.202	24595
709.320	23052
709.438	23152
709.556	24036
709.674	23125
709.791	22856
709.909	23149
710.027	22251
710.145	21677
710.263	22337
710.380	21783
710.498	22944
710.616	22065
710.733	21994
710.851	21496
710.969	21966
711.086	22247
711.204	21780
711.322	22080
711.439	21010
711.557	22405
711.674	21880
711.792	21311
711.909	21956
712.027	21694
712.144	22067
712.262	20037
712.379	20774
712.497	22027
712.614	26278
712.732	26361
712.849	23062
712.966	22654
713.084	25659
713.201	29090
713.318	25121
713.436	24722
713.553	24589
713.670	24825
713.787	26480
713.905	27156
714.022	28695
714.139	25879
714.256	28342
714.373	36655
714.490	52479
714.608	100564
714.725	264252
714.842	1195141
714.959	1308528
715.076	113566
715.193	46173
715.310	33879
715.427	31383
715.544	24570
715.661	24742
715.778	24248
715.895	23369
716.011	24109
716.128	24671
716.245	21858
716.362	22152
716.479	23065
716.596	25142
716.713	20415
716.829	20674
716.946	20428
717.063	19218
717.180	18608
717.296	19201
717.413	18370
717.530	18542
717.646	18674
717.763	19596
717.880	18693
717.996	17153
718.113	17631
718.229	18249
718.346	17529
718.462	17513
718.579	18459
718.695	22245
718.812	32257
718.928	27413
719.045	23880
719.161	19466
719.277	16905
719.394	18549
719.510	17520
719.626	19995
719.743	21896
719.859	27953
719.975	43928
720.092	89282
720.208	368009
720.324	922706
720.440	115841
720.557	30183
720.673	25681
720.789	30746
720.905	35770
721.021	60562
721.137	27328
721.253	17572
721.369	17364
721.486	17380
721.602	18831
721.718	23883
721.834	16742
721.950	15611
722.066	15648
722.181	15846
722.297	15421
722.413	16375
722.529	15135
722.645	15004
722.761	14644
722.877	14860
722.993	16035
723.108	16072
723.224	20057
723.340	17293
723.456	15077
723.571	14815
723.687	13776
723.803	14050
723.918	13830
724.034	13914
724.150	14393
724.265	14135
724.381	15402
724.497	24196
724.612	32083
724.728	14582
724.843	13564
724.959	13949
725.074	13749
725.190	23321
725.305	29041
725.421	14663
725.536	13751
725.651	13218
725.767	12259
725.882	12866
725.997	11643
726.113	12290
726.228	13335
726.343	12997
726.459	12481
726.574	12310
726.689	12329
726.804	12275
726.920	12188
727.035	12153
727.150	12138
727.265	13358
727.380	11872
727.495	12328
727.610	12107
727.725	11149
727.841	12514
727.956	13048
728.071	17348
728.186	16601
728.301	12024
728.416	11911
728.531	12393
728.645	11881
728.760	11909
728.875	13068
728.990	13463
729.105	13077
729.220	12394
729.335	13018
729.449	12920
729.564	12054
729.679	11435
729.794	10878
729.908	11079
730.023	12790
730.138	11443
730.253	10449
730.367	11338
730.482	11321
730.596	11025
730.711	11791
730.826	12478
730.940	13941
731.055	13988
731.169	13897
731.284	12686
731.398	13285
731.513	13078
731.627	14900
731.742	15638
731.856	18385
731.970	21613
732.085	20528
732.199	27125
732.313	40548
732.428	72199
732.542	188591
732.656	549771
732.771	337512
732.885	64562
732.999	33356
733.113	26182
733.227	23707
733.342	22451
733.456	20722
733.570	19567
733.684	18605
733.798	17565
733.912	16709
734.026	16727
734.140	16800
734.254	15979
734.368	17783
734.482	21107
734.596	24408
734.710	15792
734.824	15767
734.938	15479
735.052	15748
735.166	15335
735.280	16859
735.393	15229
735.507	15049
735.621	15056
735.735	16951
735.849	23075
735.962	16770
736.076	13266
736.190	16606
736.303	15265
736.417	17536
736.531	19322
736.644	14135
736.758	14174
736.872	14638
736.985	13563
737.099	14043
737.212	12863
737.326	13166
737.439	12949
737.553	12834
737.666	12224
737.780	13138
737.893	12407
738.007	13348
738.120	12177
738.233	12940
738.347	11738
738.460	13594
738.573	11799
738.687	13921
738.800	13897
738.913	12966
739.026	15558
739.140	13376
739.253	12808
739.366	13096
739.479	11658
739.592	12635
739.705	11795
739.818	11711
739.932	12906
740.045	11575
740.158	12742
740.271	12357
740.384	12177
740.497	12224
740.610	11541
740.723	12805
740.836	12512
740.949	12685
741.062	13715
741.174	15079
741.287	14017
741.400	12387
741.513	11839
741.626	11591
741.739	12882
741.851	12780
741.964	12312
742.077	11891
742.189	11423
742.302	12303
742.415	13065
742.527	12726
742.640	12079
742.753	11837
742.865	10470
742.978	11218
743.090	10510
743.203	11464
743.316	11378
743.428	11104
743.541	10024
743.653	10661
743.766	9480
743.878	10620
743.990	10018
744.103	11946
744.215	12109
744.327	10411
744.440	11175
744.552	13563
744.664	14617
744.777	11579
744.889	10422
745.001	9033
745.113	9150
745.226	10542
745.338	9436
745.450	8821
745.562	10617
745.674	9272
745.786	9618
745.898	9714
746.010	10084
746.122	9335
746.234	10400
746.347	10680
746.459	9711
746.570	9334
746.682	9057
746.794	9919
746.906	10255
747.018	8538
747.130	9380
747.242	9664
747.354	8977
747.466	9326
747.577	9355
747.689	9138
747.801	9739
747.913	10021
748.024	8655
748.136	8720
748.248	8281
748.359	8717
748.471	8794
748.583	8769
748.694	8362
748.806	9188
748.918	9226
749.029	10772
749.141	9335
749.252	10212
749.364	8643
749.475	9441
749.587	15637
749.698	13403
749.809	9695
749.921	8810
750.032	8353
750.144	8411
750.255	7345
750.366	7744
750.478	7659
750.589	8571
750.700	7700
750.811	9062
750.923	9428
751.034	9658
751.145	15377
751.256	18328
751.367	8397
751.479	7792
751.590	8375
751.701	8062
751.812	7557
751.923	7952
752.034	7731
752.145	8954
752.256	8276
752.367	7801
752.478	7880
752.589	8020
752.700	6955
752.811	7833
752.922	7228
753.032	7562
753.143	8720
753.254	9529
753.365	7323
753.476	8278
753.586	8089
753.697	7358
753.808	7427
753.919	7777
754.029	6625
754.140	7381
754.251	7389
754.361	7225
754.472	7409
754.582	7233
754.693	7302
754.804	7262
754.914	7224
755.025	7452
755.135	5920
755.246	7791
755.356	6682
755.466	7209
755.577	6687
755.687	6507
755.798	6279
755.908	6540
756.018	6558
756.129	7089
756.239	6523
756.349	7390
756.460	7329
756.570	7900
756.680	8718
756.790	8092
756.900	7966
757.011	7332
757.121	6797
757.231	6857
757.341	6807
757.451	7236
757.561	6478
757.671	7779
757.781	7104
757.891	8465
758.001	7600
758.111	7321
758.221	7942
758.331	7831
758.441	8579
758.551	9176
758.661	10095
758.771	11298
758.880	8758
758.990	9193
759.100	7408
759.210	8569
759.320	7758
759.429	8284
759.539	8463
759.649	9397
759.758	8831
759.868	11357
759.978	11643
760.087	11858
760.197	12466
760.307	12835
760.416	11645
760.526	10739
760.635	10281
760.745	11235
760.854	12176
760.964	12664
761.073	13724
761.182	14111
761.292	13488
761.401	12084
761.511	11320
761.620	9635
761.729	7987
761.839	10076
761.948	8396
762.057	8813
762.166	9117
762.276	8336
762.385	8832
762.494	9047
762.603	8559
762.712	8762
762.822	8653
762.931	9023
763.040	8346
763.149	7472
763.258	8337
763.367	8559
763.476	8193
763.585	8137
763.694	8228
763.803	8932
763.912	9173
764.021	9085
764.130	8717
764.238	10286
764.347	10725
764.456	10572
764.565	11413
764.674	11362
764.783	11319
764.891	12482
765.000	12245
765.109	13110
765.217	13302
765.326	16434
765.435	17874
765.543	22731
765.652	23872
765.761	29271
765.869	37221
765.978	51940
766.086	78287
766.195	133675
766.303	263886
766.412	607253
766.520	1257083
766.629	1171369
766.737	510932
766.846	194339
766.954	106975
767.062	71661
767.171	51671
767.279	40247
767.387	30905
767.496	24885
767.604	21852
767.712	20005
767.820	17720
767.928	16303
768.037	14974
768.145	14681
768.253	14400
768.361	13770
768.469	12406
768.577	12984
768.685	13990
768.793	14510
768.901	14848
769.009	15635
769.117	17189
769.225	19700
769.333	25128
769.441	35483
769.549	54560
769.657	99628
769.765	222898
769.873	611814
769.981	1072657
770.088	564510
770.196	155637
770.304	72303
770.412	47535
770.519	34425
770.627	26461
770.735	21896
770.842	17705
770.950	16940
771.058	14820
771.165	14296
771.273	13984
771.380	13313
771.488	12217
771.595	14180
771.703	14681
771.810	13414
771.918	12398
772.025	12496
772.133	13187
772.240	14698
772.348	13623
772.455	15488
772.562	13945
772.670	12754
772.777	12447
772.884	12796
772.991	12970
773.099	12365
773.206	12466
773.313	11805
773.420	11778
773.528	11203
773.635	11050
773.742	12051
773.849	11003
773.956	11092
774.063	11148
774.170	10807
774.277	10488
774.384	11397
774.491	10991
774.598	11108
774.705	10663
774.812	11543
774.919	12725
775.026	10819
775.133	10841
775.239	11243
775.346	9940
775.453	9614
775.560	9704
775.667	9279
775.773	10169
775.880	10217
775.987	9747
776.093	9735
776.200	9658
776.307	10432
776.413	8781
776.520	8770
776.627	10116
776.733	9013
776.840	8118
776.946	9820
777.053	9926
777.159	9414
777.266	9669
777.372	9306
777.478	9730
777.585	9656
777.691	9285
777.798	8709
777.904	10029
778.010	9149
778.117	10753
778.223	11197
778.329	8100
778.435	8710
778.542	7399
778.648	8785
778.754	8172
778.860	7700
778.966	8046
779.072	8720
779.178	7428
779.284	8434
779.391	6797
779.497	7968
779.603	9727
779.708	8700
779.815	10504
779.920	13767
780.026	35053
780.132	66635
780.238	15451
780.344	8602
780.450	8024
780.556	8880
780.661	7019
780.767	7677
780.873	8812
780.979	6827
781.085	7106
781.190	7819
781.296	7473
781.402	6904
781.507	7440
781.613	7266
781.719	6255
781.824	7330
781.930	7191
782.035	6477
782.141	7184
782.246	7724
782.352	6621
782.457	6689
782.563	6618
782.668	7145
782.773	7367
782.879	6805
782.984	6577
783.090	7747
783.195	6690
783.300	8820
783.405	8915
783.511	6901
783.616	6260
783.721	6470
783.826	7265
783.932	7221
784.037	5935
784.142	7180
784.247	5975
784.352	6410
784.457	6632
784.562	5881
784.667	6594
784.772	6609
784.877	5576
784.982	6280
785.087	6466
785.192	7351
785.297	4980
785.402	6690
785.507	6375
785.611	6159
785.716	5662
785.821	5723
785.926	5718
786.031	6395
786.135	5304
786.240	5627
786.345	5673
786.450	5971
786.554	5632
786.659	6217
786.763	4906
786.868	5032
786.973	5472
787.077	5925
787.182	5945
787.286	5734
787.391	5485
787.495	6001
787.600	3670
787.704	4502
787.809	4864
787.913	5139
788.017	5406
788.122	5218
788.226	6239
788.330	4743
788.435	4037
788.539	5357
788.643	5706
788.747	4793
788.852	4091
788.956	4718
789.060	4759
789.164	4592
789.268	5539
789.372	5389
789.476	4967
789.580	4578
789.684	4164
789.788	4366
789.892	4586
789.996	5113
790.100	4671
790.204	4197
790.308	4446
790.412	5018
790.516	3946
790.620	4469
790.724	5075
790.828	5526
790.931	5079
791.035	4048
791.139	4162
791.242	4974
791.346	4736
791.450	3927
791.554	5491
791.657	4086
791.761	4069
791.864	5227
791.968	5171
792.072	4943
792.175	4084
792.279	4139
792.382	3927
792.486	4191
792.589	4079
792.693	4409
792.796	5127
792.899	4607
793.003	4251
793.106	4440
793.209	4220
793.313	4581
793.416	4124
793.519	4153
793.623	4236
793.726	6583
793.829	8111
793.932	5942
794.035	3760
794.138	4394
794.242	5195
794.345	6050
794.448	5071
794.551	6302
794.654	10502
794.757	18293
794.860	30660
794.963	9470
795.066	5182
795.169	4382
795.272	4196
795.375	3849
795.477	4861
795.580	4208
795.683	2420
795.786	3649
795.889	3311
795.991	4409
796.094	3648
796.197	4582
796.300	4811
796.402	4253
796.505	4593
796.608	3640
796.710	3315
796.813	3177
796.915	4364
797.018	4150
797.120	4698
797.223	4114
797.326	4625
797.428	3774
797.530	3652
797.633	3805
797.735	3659
797.838	4456
797.940	5969
798.042	5986
798.145	3575
798.247	4179
798.349	2479
798.452	4393
798.554	2476
798.656	4193
798.758	3755
798.860	4573
798.962	4460
799.065	3270
799.167	3446
799.269	3573
799.371	3439
799.473	4440
799.575	5197
799.677	5260
799.779	5436
799.881	4474
799.983	6115
800.085	5282
800.187	3542
800.289	2915
800.390	2923
800.492	3816
800.594	4311
800.696	3358
800.798	1893
800.899	3068
801.001	2936
801.103	3131
801.205	3311
801.306	3483
801.408	3339
801.509	3569
801.611	3515
801.713	3260
801.814	3068
801.916	2949
802.017	3356
802.119	2845
802.220	3013
802.322	2894
802.423	3590
802.525	3916
802.626	3443
802.727	3470
802.829	2652
802.930	3087
803.031	3155
803.133	3393
803.234	2926
803.335	3322
803.436	2471
803.538	3241
803.639	2096
803.740	3146
803.841	2808
803.942	3529
804.043	3533
804.144	2672
804.245	2924
804.346	3183
804.447	2674
804.548	3026
804.649	4485
804.750	4787
804.851	3375
804.952	3540
805.053	2806
805.154	2570
805.255	2433
805.355	2805
805.456	1927
805.557	2323
805.658	2052
805.758	3253
805.859	2908
805.960	2067
806.061	2667
806.161	2527
806.262	2515
806.362	2358
806.463	2869
806.564	2664
806.664	2814
806.765	2810
806.865	3156
806.966	2699
807.066	1957
807.166	2929
807.267	2029
807.367	2855
807.468	2801
807.568	1857
807.668	1809
807.769	2464
807.869	3085
807.969	2850
808.069	2665
808.170	3069
808.270	2690
808.370	2393
808.470	2542
808.570	3251
808.670	3794
808.770	2649
808.870	2372
808.970	2857
809.070	2378
809.170	2471
809.271	2581
809.370	2801
809.470	2580
809.570	2738
809.670	2064
809.770	1786
809.870	1896
809.970	3491
810.070	2086
810.169	2811
810.269	2081
810.369	3036
810.469	2706
810.568	2714
810.668	2377
810.768	2185
810.867	2351
810.967	2271
811.066	2767
811.166	2009
811.265	3051
811.365	2311
811.464	2818
811.564	3029
811.663	3031
811.763	3319
811.862	2571
811.962	2580
812.061	3458
812.160	2125
812.260	2466
812.359	3189
812.458	3158
812.557	5172
812.657	9481
812.756	15139
812.855	7477
812.954	4291
813.053	3689
813.153	2902
813.252	2774
813.351	3372
813.450	2902
813.549	3584
813.648	2997
813.747	2968
813.846	3058
813.945	3093
814.044	3078
814.143	3237
814.242	2785
814.341	2850
814.439	3544
814.538	3837
814.637	3769
814.736	4148
814.835	3988
814.933	4323
815.032	4253
815.131	5944
815.229	6200
815.328	7899
815.427	9287
815.525	7583
815.624	7762
815.722	7420
815.821	7277
815.919	8438
816.018	9004
816.116	8926
816.215	8296
816.313	9057
816.412	9438
816.510	10568
816.609	10853
816.707	11518
816.805	13349
816.904	12640
817.002	12675
817.100	14162
817.198	14665
817.296	16944
817.395	17895
817.493	20664
817.591	20707
817.689	25247
817.787	30551
817.885	42291
817.983	59648
818.081	97936
818.179	185636
818.277	385365
818.375	799058
818.473	854749
818.571	403948
818.669	176884
818.767	108916
818.865	85830
818.963	81859
819.061	89571
819.158	119957
819.256	185623
819.354	333267
819.452	642083
819.549	1105547
819.647	973237
819.745	505455
819.842	242638
819.940	140681
820.038	96026
820.135	67663
820.233	52077
820.330	42597
820.428	34003
820.525	28442
820.623	25049
820.720	22403
820.818	20484
820.915	17771
821.012	17510
821.110	15059
821.207	13403
821.304	12445
821.402	12188
821.499	11640
821.596	11418
821.693	10082
821.791	10426
821.888	9738
821.985	10933
822.082	11746
822.179	12879
822.276	8225
822.373	8182
822.470	7973
822.567	7246
822.664	6699
822.761	7484
822.858	6538
822.955	7154
823.052	6196
823.149	6303
823.246	5853
823.343	6912
823.440	5403
823.536	4887
823.633	6037
823.730	6555
823.827	5658
823.923	5988
824.020	5986
824.117	4699
824.213	4878
824.310	5991
824.407	4970
824.503	5356
824.600	5592
824.696	5705
824.793	4521
824.889	5621
824.986	5448
825.082	5315
825.179	4028
825.275	4101
825.371	4553
825.468	5474
825.564	3542
825.660	3972
825.757	4313
825.853	5358
825.949	4415
826.045	3911
826.142	3991
826.238	4841
826.334	4068
826.430	3973
826.526	4321
826.622	3368
826.718	3335
826.814	4949
826.910	4871
827.006	4179
827.102	3281
827.198	2576
827.294	3913
827.390	4299
827.486	4354
827.582	4218
827.678	2729
827.774	3923
827.869	4057
827.965	3796
828.061	3147
828.157	3478
828.252	3705
828.348	3764
828.444	3699
828.539	3032
828.635	2538
828.731	4198
828.826	3412
828.922	3560
829.017	3705
829.113	4632
829.208	4424
829.304	3975
829.399	4144
829.495	4896
829.590	3866
829.685	3625
829.781	3186
829.876	3653
829.971	3579
830.066	2835
830.162	2606
830.257	2649
830.352	3885
830.447	3665
830.543	2551
830.638	3221
830.733	3674
830.828	4697
830.923	3198
831.018	3664
831.113	3161
831.208	3890
831.303	3378
831.398	2338
831.493	2598
831.588	2438
831.683	3361
831.778	3627
831.873	2228
831.967	2609
832.062	3114
832.157	3689
832.252	4305
832.346	2774
832.441	3292
832.536	3949
832.631	4064
832.725	6712
832.820	7957
832.914	2514
833.009	2183
833.104	2156
833.198	2428
833.293	3778
833.387	3512
833.482	2963
833.576	2042
833.670	2908
833.765	3019
833.859	3619
833.954	4322
834.048	3910
834.142	2907
834.237	3127
834.331	2014
834.425	1974
834.519	2707
834.613	3078
834.708	1626
834.802	1686
834.896	2310
834.990	2252
835.084	2665
835.178	1227
835.272	2782
835.366	2413
835.460	3310
835.554	2543
835.648	2146
835.742	1766
835.836	2092
835.930	1917
836.024	2322
836.117	2617
836.211	2390
836.305	2533
836.399	2380
836.493	3403
836.586	3366
836.680	3022
836.774	2764
836.867	2863
836.961	1506
837.055	2144
837.148	1773
837.242	1569
837.335	1832
837.429	2324
837.522	2043
837.616	2355
837.709	2639
837.803	3216
837.896	3465
837.989	2697
838.083	3352
838.176	3079
838.269	4271
838.363	5261
838.456	2735
838.549	3005
838.642	2699
838.735	5158
838.829	7783
838.922	5401
839.015	1696
839.108	2242
839.201	2278
839.294	2059
839.387	2266
839.480	2059
839.573	2048
839.666	2841
839.759	2981
839.852	2441
839.945	1892
840.038	3172
840.131	1170
840.223	1826
840.316	2222
840.409	1973
840.502	2238
840.594	2362
840.687	1584
840.780	1911
840.873	1384
840.965	1546
841.058	1886
841.150	2605
841.243	3609
841.336	3951
841.428	1394
841.521	1271
841.613	1781
841.706	2181
841.798	2058
841.890	1925
841.983	1127
842.075	1795
842.167	1161
842.260	2068
842.352	1862
842.444	2797
842.537	3522
842.629	3966
842.721	5977
842.813	2779
842.905	1118
842.997	2466
843.090	1811
843.182	1643
843.274	2401
843.366	4493
843.458	7629
843.550	15560
843.642	13358
843.734	4147
843.826	1855
843.918	2818
844.009	1834
844.101	1863
844.193	1706
844.285	2307
844.377	1467
844.469	2020
844.560	400
844.652	1458
844.744	1656
844.835	2153
844.927	1276
845.019	1609
845.110	2580
845.202	2009
845.293	1663
845.385	1410
845.476	1218
845.568	1175
845.659	2535
845.751	1900
845.842	1319
845.934	1660
846.025	1725
846.116	1820
846.208	836
846.299	1453
846.390	1470
846.482	1396
846.573	1239
846.664	2395
846.755	2654
846.846	3333
846.937	3594
847.029	1995
847.120	1301
847.211	1235
847.302	1088
847.393	1376
847.484	1339
847.575	1930
847.666	1715
847.757	1166
847.847	1792
847.938	2093
848.029	1081
848.120	1927
848.211	700
848.302	1252
848.392	1218
848.483	1338
848.574	1198
848.664	1327
848.755	1958
848.846	2676
848.936	1751
849.027	1291
849.118	2188
849.208	2611
849.299	2023
849.389	3909
849.480	6432
849.570	12728
849.661	25133
849.751	43675
849.841	86114
849.932	47902
850.022	7655
850.112	3509
850.203	3231
850.293	2649
850.383	1923
850.474	2224
850.564	948
850.654	1229
850.744	1512
850.834	2340
850.924	1578
851.014	2463
851.104	1692
851.194	2244
851.284	1624
851.374	2437
851.464	1723
851.554	1945
851.644	1388
851.734	2349
851.824	2034
851.914	3183
852.004	1146
852.094	1451
852.183	1295
852.273	2250
852.363	1486
852.452	1363
852.542	1625
852.632	1972
852.721	1368
852.811	2464
852.901	1883
852.990	2335
853.080	2264
853.169	2560
853.259	2727
853.348	3015
853.438	3991
853.527	5119
853.617	6497
853.706	10646
853.795	17405
853.885	31317
853.974	67523
854.063	129899
854.152	212926
854.242	373286
854.331	214729
854.420	47542
854.509	17485
854.598	11460
854.687	8921
854.777	7347
854.866	5191
854.955	5299
855.044	3402
855.133	2533
855.222	2522
855.311	2819
855.400	2789
855.488	2878
855.577	1600
855.666	2097
855.755	2250
855.844	2054
855.933	1877
856.021	2548
856.110	2905
856.199	1659
856.288	722
856.376	1858
856.465	1051
856.554	2413
856.642	1205
856.731	1518
856.819	1959
856.908	2122
856.996	1209
857.085	1362
857.173	1509
857.262	1523
857.350	1466
857.438	1492
857.527	921
857.615	1550
857.703	1688
857.792	1554
857.880	782
857.968	1016
858.056	191
858.145	906
858.233	1302
858.321	1277
858.409	1764
858.497	1373
858.585	1261
858.673	1223
858.761	1130
858.849	1235
858.937	1067
859.025	1475
859.113	739
859.201	1052
859.289	1852
859.377	1879
859.465	1348
859.552	1952
859.640	864
859.728	2229
859.816	1956
859.903	1412
859.991	767
860.079	1638
860.166	812
860.254	2024
860.342	1476
860.429	1801
860.517	1350
860.604	2081
860.692	979
860.779	1076
860.867	816
860.954	1109
861.042	794
861.129	1275
861.216	1909
861.304	1348
861.391	1124
861.478	1090
861.565	1581
861.653	1089
861.740	1294
861.827	1744
861.914	1232
862.001	688
862.089	1080
862.176	1379
862.263	476
862.350	1477
862.437	814
862.524	925
862.611	1252
862.698	1148
862.785	917
862.871	1440
862.958	1516
863.045	1393
863.132	1360
863.219	1448
863.306	803
863.392	1883
863.479	747
863.566	1225
863.652	2100
863.739	2099
863.826	1025
863.912	1594
863.999	674
864.086	1861
864.172	1264
864.259	1393
864.345	1951
864.432	2093
864.518	1325
864.604	2256
864.691	1712
864.777	1834
864.863	2784
864.950	3196
865.036	3134
865.122	3848
865.209	5684
865.295	6771
865.381	6127
865.467	6504
865.553	6853
865.639	8016
865.726	11476
865.812	19288
865.898	34997
865.984	68206
866.070	101962
866.156	164705
866.242	234914
866.328	95627
866.414	23112
866.499	10587
866.585	8659
866.671	7301
866.757	5706
866.843	6192
866.928	4976
867.014	4992
867.100	5280
867.186	5097
867.271	4433
867.357	5216
867.442	5490
867.528	5595
867.614	3904
867.699	3693
867.785	4253
867.870	4374
867.956	3534
868.041	5226
868.127	4512
868.212	3983
868.297	4083
868.383	3979
868.468	3814
868.553	4669
868.639	6501
868.724	6981
868.809	9541
868.894	11612
868.979	4746
869.065	4031
869.150	3249
869.235	4066
869.320	2887
869.405	3556
869.490	2908
869.575	3535
869.660	3024
869.745	2320
869.830	2953
869.915	4191
870.000	2382
870.085	2991
870.169	3033
870.254	3501
870.339	2851
870.424	3094
870.509	2206
870.593	3705
870.678	3850
870.763	3217
870.847	2915
870.932	2152
871.016	3559
871.101	3200
871.186	2028
871.270	3063
871.355	4234
871.439	2180
871.523	2206
871.608	3462
871.692	2326
871.777	2361
871.861	2660
871.945	2436
872.030	2102
872.114	2299
872.198	2780
872.282	2605
872.367	3263
872.451	2626
872.535	2524
872.619	2593
872.703	2376
872.787	2030
872.871	2138
872.955	2677
873.039	2366
873.123	1638
873.207	2296
873.291	2630
873.375	1481
873.459	2358
873.543	2830
873.627	1683
873.711	2140
873.794	2246
873.878	1863
873.962	1969
874.045	1756
874.129	2107
874.137	2069
874.213	1691
874.245	1790
874.296	1953
874.352	2249
874.380	2396
874.460	1564
874.464	1531
874.547	1631
874.568	1646
874.631	1690
874.676	1941
874.714	2139
874.784	1844
874.798	1796
874.881	3086
874.892	2897
874.965	1592
874.999	1552
875.048	1478
875.107	1645
875.131	1712
875.215	2995
875.215	2994
875.298	1526
875.323	1662
875.381	1968
875.430	1956
875.465	1969
875.538	2219
875.548	2253
875.631	2076
875.646	2117
875.714	2230
875.753	2086
875.798	1962
875.861	1587
875.881	1469
875.964	2018
875.968	2015
876.047	1927
876.076	1838
876.130	1712
876.183	1860
876.213	1926
876.291	2189
876.296	2207
876.379	1821
876.398	1946
876.462	2360
876.506	1829
876.545	1335
876.613	1724
876.628	1818
876.711	1931
876.721	1914
876.794	1775
876.828	1737
876.877	1662
876.935	1769
876.960	1867
877.043	1719
877.043	1720
877.125	1505
877.150	1554
877.208	1819
877.258	2552
877.291	3009
877.365	2297
877.374	2211
877.456	2341
877.472	2261
877.539	1831
877.579	1885
877.622	2016
877.687	2067
877.704	2086
877.787	2403
877.794	2345
877.869	1657
877.901	1734
877.952	1835
878.008	1737
878.034	1701
878.115	1598
878.117	1596
878.199	1927
878.222	1792
878.282	1423
878.329	1789
878.364	2025
878.437	2186
878.447	2216
878.529	1578
878.544	1615
878.611	1713
878.651	1425
878.694	1201
878.758	1919
878.776	2069
878.858	1541
878.865	1556
878.941	1784
878.972	1594
879.023	1290
879.078	1380
879.105	1470
879.185	1504
879.187	1496
879.269	1501
879.292	1373
879.351	1472
879.399	1800
879.433	1865
879.506	1680
879.516	1660
879.598	1057
879.613	1072
879.680	1151
879.720	1264
879.762	1342
879.827	1126
879.844	1074
879.926	1184
879.933	1196
880.007	1544
880.040	1617
880.089	1540
880.147	1673
880.171	1783
880.253	2402
880.254	2413
880.335	3888
880.360	4619
880.417	6036
880.467	6187
880.499	6481
880.574	10008
880.580	10257
880.662	14458
880.680	12961
880.744	7151
880.787	4194
880.825	1930
880.893	1182
880.907	1039
880.989	1360
881.000	1355
881.070	1372
881.106	1393
881.152	1153
881.213	1008
881.233	1021
881.315	1119
881.319	1094
881.396	764
881.426	869
881.478	1113
881.532	1504
881.559	1571
881.639	981
881.641	976
881.722	1384
881.745	1335
881.803	1065
881.852	1139
881.885	1083
881.958	1044
881.966	1077
882.047	1427
882.064	1428
882.129	1158
882.171	1223
882.210	1399
882.277	1572
882.291	1626
882.372	2462
882.383	2388
882.454	1566
882.489	1583
882.535	1614
882.596	1005
882.616	903
882.697	1437
882.702	1448
882.778	1758
882.808	1874
882.859	1289
882.914	551
882.940	510
883.020	831
883.021	832
883.102	900
883.127	916
883.183	1167
883.233	1268
883.264	1196
883.339	1232
883.345	1246
883.426	804
883.445	876
883.507	780
883.551	479
883.587	451
883.657	950
883.668	1005
883.749	900
883.763	938
883.830	1210
883.869	1027
883.910	799
883.975	911
883.991	833
884.072	683
884.081	592
884.152	747
884.187	940
884.233	882
884.292	1150
884.314	1157
884.394	610
884.398	580
884.475	383
884.504	373
884.555	438
884.610	771
884.636	914
884.716	1065
884.716	1063
884.797	962
884.821	789
884.877	1066
884.927	1600
884.958	1620
885.033	1316
885.038	1295
885.118	912
885.139	874
885.199	997
885.244	976
885.279	856
885.350	716
885.359	732
885.439	930
885.456	931
885.520	658
885.561	691
885.600	883
885.667	882
885.680	848
885.760	837
885.773	791
885.840	717
885.878	840
885.920	784
885.984	546
886.000	588
886.080	971
886.089	1019
886.160	1466
886.195	1496
886.240	1246
886.300	1168
886.320	1057
886.400	510
886.406	487
886.480	758
886.511	800
886.560	564
886.616	304
886.640	427
886.720	929
886.722	938
886.800	420
886.827	320
886.879	259
886.932	172
886.959	380
887.038	946
887.039	946
887.119	949
887.143	959
887.198	731
887.248	455
887.278	408
887.354	460
887.358	478
887.437	814
887.459	871
887.517	738
887.564	739
887.596	720
887.669	602
887.676	616
887.755	786
887.774	825
887.835	380
887.880	96
887.914	315
887.985	763
887.994	725
888.073	377
888.090	320
888.153	768
888.195	990
888.232	835
888.300	649
888.311	635
888.391	467
888.405	443
888.470	672
888.510	845
888.549	585
888.615	115
888.628	149
888.708	348
888.720	404
888.787	456
888.825	382
888.866	513
888.930	842
888.945	700
889.024	-129
889.035	-223
889.103	181
889.140	378
889.182	273
889.245	104
889.261	104
889.340	198
889.349	208
889.419	-235
889.454	-436
889.498	-176
889.559	194
889.577	274
889.656	651
889.664	691
889.735	1021
889.768	1177
889.814	809
889.873	322
889.978	591
890.083	659
890.187	1148
890.292	470
890.397	591
890.501	858
890.606	392
890.710	236
890.815	1503
890.919	336
891.024	542
891.128	422
891.233	140
891.337	387
891.442	1163
891.546	273
891.650	-259
891.755	80
891.859	570
891.963	511
892.068	309
892.172	421
892.276	435
892.380	1092
892.484	675
892.589	1260
892.693	91
892.797	737
892.901	289
893.005	20
893.109	654
893.213	1339
893.317	855
893.421	388
893.525	261
893.629	1142
893.733	796
893.837	468
893.941	-9
894.045	802
894.148	142
894.252	279
894.356	-122
894.460	-290
894.564	769
894.667	-78
894.771	341
894.875	502
894.978	152
895.082	549
895.186	638
895.289	1150
895.393	712
895.496	401
895.600	-322
895.703	-93
895.807	49
895.910	502
896.014	333
896.117	136
896.221	28
896.324	945
896.427	-213
896.531	181
896.634	383
896.737	283
896.840	453
896.944	151
897.047	592
897.150	26
897.253	-95
897.356	1051
897.460	251
897.563	367
897.666	756
897.769	384
897.872	-93
897.975	1048
898.078	143
898.181	915
898.284	141
898.387	398
898.490	703
898.593	321
898.695	-496
898.798	-186
898.901	587
899.004	29
899.107	569
899.209	121
899.312	578
899.415	462
899.518	-167
899.620	344
899.723	902
899.826	-171
899.928	178
900.031	570
900.133	639
900.236	803
900.338	-34
900.441	247
900.543	966
900.646	-78
900.748	-269
900.851	265
900.953	775
901.055	726
901.158	-35
901.260	492
901.362	-48
901.465	457
901.567	508
901.669	150
901.771	329
901.873	967
901.976	653
902.078	459
902.180	249
902.282	-245
902.384	-5
902.486	598
902.588	935
902.690	379
902.792	570
902.894	59
902.996	311
903.098	-62
903.200	366
903.302	-72
903.404	295
903.505	492
903.607	-317
903.709	371
903.811	721
903.913	385
904.014	959
904.116	408
904.218	124
904.319	295
904.421	-69
904.523	483
904.624	411
904.726	1038
904.827	-33
904.929	161
905.030	119
905.132	-77
905.233	-105
905.335	257
905.436	-448
905.537	-82
905.639	472
905.740	77
905.841	90
905.943	437
906.044	570
906.145	-37
906.247	41
906.348	-320
906.449	-334
906.550	289
906.651	796
906.752	230
906.854	-27
906.955	462
907.056	515
907.157	7
907.258	202
907.359	-273
907.460	169
907.561	319
907.662	-254
907.762	540
907.863	312
907.964	520
908.065	489
908.166	-294
908.267	388
908.367	286
908.468	559
908.569	357
908.670	-358
908.770	585
908.871	-31
908.971	667
909.072	-13
909.173	251
909.273	10
909.374	207
909.474	541
909.575	409
909.675	-107
909.776	418
909.876	408
909.977	610
910.077	576
910.177	731
910.278	-110
910.378	351
910.478	23
910.579	616
910.679	58
910.779	568
910.879	327
910.980	99
911.080	189
911.180	-94
911.280	-465
911.380	313
911.480	-204
911.580	265
911.680	893
911.780	-26
911.880	-45
911.980	-88
912.080	-124
912.180	160
912.280	-95
912.380	24
912.480	-101
912.580	512
912.679	469
912.779	99
912.879	208
912.979	356
913.078	446
913.178	-90
913.278	268
913.377	664
913.477	495
913.577	-163
913.676	-107
913.776	355
913.875	449
913.975	833
914.074	-271
914.174	4
914.273	-79
914.373	-424
914.472	154
914.572	443
914.671	2
914.770	722
914.870	264
914.969	177
915.068	-571
915.167	52
915.267	222
915.366	775
915.465	-43
915.564	-87
915.663	24
915.763	-220
915.862	176
915.961	-425
916.060	389
916.159	-265
916.258	-11
916.357	18
916.456	-303
916.555	174
916.654	39
916.752	323
916.851	-575
916.950	-749
917.049	-302
917.148	182
917.247	-764
917.345	333
917.444	-572
917.543	89
917.642	6
917.740	48
917.839	86
917.937	174
918.036	-282
918.135	158
918.233	342
918.332	-40
918.430	599
918.529	392
918.627	-31
918.726	48
918.824	168
918.923	-733
919.021	-298
919.119	165
919.218	486
919.316	-286
919.414	842
919.512	-630
919.611	133
919.709	-420
919.807	-304
919.905	-249
920.003	562
920.102	-71
920.200	191
920.298	-445
920.396	-201
920.494	221
920.592	186
920.690	505
920.788	220
920.886	438
920.984	499
921.082	-129
921.180	-279
921.277	64
921.375	458
921.473	395
921.571	662
921.669	609
921.766	948
921.864	27
921.962	493
922.060	825
922.157	673
922.255	-268
922.352	-387
922.450	478
922.548	957
922.645	1269
922.743	950
922.840	1165
922.938	1136
923.035	1569
923.133	1091
923.230	686
923.327	1764
923.425	1748
923.522	1172
923.619	1421
923.717	351
923.814	600
923.911	1878
924.008	1056
924.106	1821
924.203	1444
924.300	1385
924.397	1408
924.494	843
924.591	1498
924.688	832
924.786	1147
924.883	1559
924.979	1331
925.077	1342
925.173	1374
925.270	1435
925.367	867
925.464	1566
925.561	1526
925.658	1061
925.755	1474
925.852	674
925.948	895
926.045	784
926.142	1404
926.239	1038
926.335	805
926.432	500
926.529	684
926.625	566
926.722	1712
926.818	549
926.915	1641
927.011	896
927.108	892
927.204	1218
927.301	680
927.397	507
927.494	376
927.590	939
927.687	-624
927.783	1275
927.879	969
927.976	1319
928.072	1131
928.168	487
928.264	1457
928.361	1154
928.457	752
928.553	943
928.649	819
928.745	1172
928.841	867
928.937	978
929.033	866
929.129	1079
929.225	50
929.321	1742
929.417	753
929.513	976
929.609	885
929.705	1338
929.801	956
929.897	1770
929.993	695
930.089	726
930.184	441
930.280	-569
930.376	981
930.471	18
930.567	558
930.663	1123
930.758	1140
930.854	753
930.950	275
931.045	538
931.141	189
931.236	1267
931.332	921
931.427	1125
931.523	389
931.618	1205
931.714	-120
931.809	742
931.905	457
932.000	1066
932.095	1106
932.191	85
932.286	1458
932.381	331
932.476	512
932.572	-78
932.667	540
932.762	131
932.857	671
932.952	652
933.047	841
933.142	-199
933.237	189
933.332	1343
933.427	670
933.522	703
933.617	657
933.712	549
933.807	362
933.902	276
933.997	-437
934.092	721
934.187	373
934.282	669
934.376	649
934.471	742
934.566	618
934.661	455
934.755	408
934.850	1004
934.945	378
935.039	-43
935.134	121
935.228	-71
935.323	252
935.417	497
935.512	66
935.606	369
935.701	225
935.795	598
935.890	222
935.984	420
936.079	535
936.173	916
936.267	480
936.362	-81
936.456	161
936.550	264
936.644	810
936.738	287
936.833	-323
936.927	159
937.021	-136
937.115	130
937.209	578
937.303	398
937.397	398
937.491	-541
937.585	1102
937.679	796
937.773	1065
937.867	57
937.961	788
938.055	-586
938.149	1094
938.243	-371
938.337	73
938.430	-237
938.524	306
938.618	457
938.712	1834
938.805	41
938.899	-364
938.993	146
939.086	1082
939.180	258
939.274	952
939.367	1801
939.461	569
939.554	-72
939.648	45
939.741	-379
939.835	-217
939.928	468
940.022	231
940.115	382
940.208	550
940.302	-40
940.395	366
940.488	486
940.582	36
940.675	21
940.768	104
940.861	254
940.954	566
941.048	-603
941.141	-72
941.234	127
941.327	643
941.420	952
941.513	224
941.606	233
941.699	-269
941.792	489
941.885	-612
941.978	-468
942.071	-591
942.164	-382
942.257	389
942.349	-412
942.442	665
942.535	159
942.628	119
942.721	402
942.813	-119
942.906	265
942.999	-180
943.091	312
943.184	-189
943.277	-48
943.369	-1015
943.462	469
943.554	34
943.647	-157
943.739	32
943.832	468
943.924	-114
944.017	-76
944.109	-569
944.201	335
944.294	428
944.386	-82
944.478	486
944.571	101
944.663	-132
944.755	558
944.847	671
944.940	-317
945.032	105
945.124	-836
945.216	-741
945.308	-501
945.400	188
945.492	155
945.584	181
945.676	-483
945.768	552
945.860	295
945.952	440
946.044	549
946.136	-136
946.228	-38
946.320	-17
946.412	782
946.503	274
946.595	-400
946.687	537
946.779	-511
946.870	-361
946.962	290
947.054	284
947.145	350
947.237	19
947.329	377
947.420	-771
947.512	-141
947.603	-19
947.695	108
947.786	-204
947.878	-515
947.969	298
948.061	54
948.152	-232
948.243	-481
948.335	-205
948.426	527
948.517	-879
948.609	-826
948.700	686
948.791	-294
948.882	-56
948.973	-338
949.065	-700
949.156	-422
949.247	510
949.338	40
949.429	-80
949.520	53
949.611	-745
949.702	-314
949.793	-128
949.884	-41
949.975	-193
950.066	-73
950.157	-10
950.247	-90
950.338	738
950.429	-620
950.520	109
950.611	416
950.701	-542
950.792	-316
950.883	161
950.973	-637
951.064	-175
951.155	445
951.245	-95
951.336	699
951.427	59
951.517	-654
951.608	-446
951.698	-823
951.788	-648
951.879	-557
951.969	-292
952.060	-680
952.150	-636
952.240	-654
952.331	96
952.421	-9
952.511	-1092
952.602	-165
952.692	-431
952.782	-92
952.872	194
952.962	-484
953.052	-834
953.143	-223
953.233	-297
953.323	-151
953.413	-1003
953.503	-602
953.593	-660
953.683	-255
953.773	-313
953.863	-554
953.953	118
954.042	-353
954.132	210
954.222	-233
954.312	-607
954.402	-274
954.492	461
954.581	-978
954.671	-797
954.761	-1025
954.850	16
954.940	-526
955.030	-131
955.119	-592
955.209	-214
955.298	34
955.388	-525
955.477	-734
955.567	-132
955.656	-1039
955.746	106
955.835	-971
955.925	120
956.014	-495
956.103	-1171
956.193	-170
956.282	-291
956.371	-87
956.461	-81
956.550	-744
956.639	-256
956.728	-291
956.817	-399
956.906	-580
956.995	-949
957.085	-1103
957.174	-87
957.263	-472
957.352	-282
957.441	501
957.530	-477
957.619	-195
957.708	-807
957.796	-464
957.885	-758
957.974	-784
958.063	-83
958.152	-575
958.241	-895
958.329	-1035
958.418	-236
958.507	-756
958.596	-914
958.684	-531
958.773	-724
958.861	35
958.950	-365
959.039	-213
959.127	226
959.216	-336
959.304	-244
959.393	-809
959.481	-12
959.570	-836
959.658	-563
959.746	-826
959.835	-530
959.923	-456
960.011	-492
960.100	-446
960.188	-352
960.276	-555
960.365	-568
960.453	-966
960.541	148
960.629	-850
960.717	-1037
960.805	-674
960.893	-363
960.981	-626
961.069	-334
961.158	-574
961.245	614
961.333	-690
961.421	-339
961.509	-393
961.597	-51
961.685	-1155
961.773	-151
961.861	-244
961.949	-371
962.036	-741
962.124	-535
962.212	-524
962.299	-861
962.387	-657
962.475	-434
962.562	-577
962.650	-494
962.738	-731
962.825	-730
962.913	-540
963.000	-913
963.088	-132
963.175	145
963.263	-937
963.350	-334
963.438	118
963.525	-696
963.612	-103
963.700	-545
963.787	188
963.874	227
963.962	-127
964.049	-546
964.136	-328
964.223	-1055
964.310	-821
964.398	-481
964.485	-359
964.572	-882
964.659	-12
964.746	-2
964.833	-605
964.920	-599
965.007	-473
965.094	-884
965.181	-389
965.268	-533
965.355	-750
965.441	-628
965.528	-522
965.615	-60
965.702	-961
965.789	-741
965.875	-113
965.962	-989
966.049	-1188
966.136	-471
966.222	-446
966.309	-486
966.395	-29
966.482	-350
966.569	-464
966.655	-754
966.742	-954
966.828	122
966.915	-152
967.001	-820
967.087	-15
967.174	-459
967.260	-523
967.347	-972
967.433	-486
967.519	-657
967.605	-336
967.692	-940
967.778	-938
967.864	-637
967.950	-462
968.036	-603
968.123	-426
968.209	-211
968.295	-241
968.381	-103
968.467	33
968.553	-566
968.639	-515
968.725	-799
968.811	-621
968.897	-193
968.983	-190
969.069	40
969.154	-496
969.240	10
969.326	-454
969.412	-885
969.497	-1137
969.583	-571
969.669	-630
969.755	-760
969.840	-953
969.926	-184
970.012	-126
970.097	-276
970.183	-211
970.268	-170
970.354	-971
970.439	-336
970.525	195
970.610	-189
970.696	-788
970.781	-387
970.866	-1072
970.952	-690
971.037	-1114
971.122	-1029
971.208	-391
971.293	-158
971.378	-962
971.463	-788
971.549	-1106
971.634	-264
971.719	-1145
971.804	79
971.889	-613
971.974	-1232
972.059	-692
972.144	119
972.229	332
972.314	-464
972.399	-990
972.484	-309
972.569	289
972.654	-769
972.739	-56
972.824	-959
972.908	-130
972.993	-1120
973.078	-520
973.163	161
973.247	-144
973.332	-648
973.417	-5
973.501	-395
973.586	-672
973.671	-556
973.755	-218
973.840	-420
973.924	-612
974.009	69
974.093	-1509
974.178	31
974.262	-580
974.346	-1188
974.431	-92
974.515	-526
974.600	-948
974.684	-547
974.768	-830
974.852	-1141
974.937	10
975.021	-54
975.105	-219
975.189	-185
975.273	-1419
975.358	-1246
975.442	-905
975.526	-154
975.610	-1594
975.694	-1345
975.778	-809
975.862	-238
975.946	-1156
976.030	-98
976.114	-1068
976.198	-426
976.281	-568
976.365	-537
976.449	-727
976.533	-904
976.617	-569
976.700	-162
976.784	-706
976.868	-1041
976.951	207
977.035	-1380
977.119	-856
977.202	-486
977.286	-1157
977.369	-440
977.453	199
977.536	-743
977.620	-856
977.703	-595
977.787	-1074
977.870	-234
977.953	-615
978.037	-813
978.120	-1061
978.203	-432
978.287	-556
978.370	-35
978.453	-903
978.536	-544
978.620	-911
978.703	-705
978.786	-904
978.869	-97
978.952	-802
979.035	-484
979.118	-74
979.201	117
979.284	-1048
979.367	-783
979.450	-1181
979.533	-847
979.616	-1600
979.699	-79
979.782	143
979.865	-866
979.948	342
980.030	-302
980.113	-1060
980.196	-1139
980.279	-856
980.361	-601
980.444	-283
980.526	-457
980.609	-183
980.692	191
980.774	-244
980.857	-1391
980.939	-770
981.022	-574
981.104	-657
981.187	-464
981.269	-403
981.352	-692
981.434	4
981.516	-775
981.599	-719
981.681	-949
981.763	-506
981.846	440
981.928	109
982.010	-730
982.092	-725
982.174	-384
982.256	-1437
982.339	-1290
982.421	-597
982.503	-939
982.585	132
982.667	-121
982.749	-1164
982.831	-135
982.913	-565
982.995	-355
983.077	-150
983.158	-576
983.240	-1167
983.322	-413
983.404	-530
983.486	-730
983.568	-188
983.649	-714
983.731	-853
983.813	-339
983.894	-1076
983.976	-1292
984.058	-168
984.139	-680
984.221	-856
984.302	-803
984.384	-1331
984.465	-381
984.547	-530
984.628	-634
984.710	-229
984.791	-704
984.872	-588
984.954	-500
985.035	-1139
985.116	-706
985.198	-875
985.279	-670
985.360	-390
985.441	-413
985.522	-860
985.604	-76
985.685	-1965
985.766	-730
985.847	-862
985.928	-1173
986.009	-505
986.090	-710
986.171	-780
986.252	-568
986.333	-752
986.414	-1144
986.495	-1021
986.576	-449
986.656	-693
986.737	-776
986.818	-1044
986.899	-1175
986.980	-800
987.060	-288
987.141	-787
987.222	-763
987.302	-475
987.383	-1113
987.464	-423
987.544	55
987.625	-389
987.705	-1279
987.786	-112
987.866	-765
987.947	-930
988.027	-366
988.108	-973
988.188	-673
988.268	-500
988.349	-932
988.429	-1142
988.509	-710
988.589	-124
988.670	-749
988.750	-879
988.830	-617
988.910	-441
988.990	-476
989.070	-92
989.151	-533
989.231	-671
989.311	-639
989.391	-833
989.471	-1149
989.551	-1276
989.631	-457
989.711	-830
989.791	-1173
989.870	-483
989.950	-1280
990.030	-1145
990.110	-984
990.190	-1048
990.269	-37
990.349	-803
990.429	-1062
990.509	-796
990.588	-416
990.668	-567
990.747	-624
990.827	-216
990.907	-1229
990.986	-606
991.066	-1036
991.145	-433
991.225	-1081
991.304	-1504
991.383	-561
991.463	-672
991.542	-1084
991.622	-627
991.701	-529
991.780	-695
991.859	-1060
991.939	-415
992.018	-375
992.097	-906
992.176	-79
992.256	-1162
992.335	-1214
992.414	-394
992.493	-453
992.572	-789
992.651	-885
992.730	-1255
992.809	-905
992.888	-673
992.967	-1014
993.046	-903
993.125	-1117
993.203	-960
993.282	-1175
993.361	-1319
993.440	-354
993.519	-1022
993.597	508
993.676	-1127
993.755	-1159
993.834	-1777
993.912	-391
993.991	-500
994.069	-811
994.148	-950
994.226	-1454
994.305	-854
994.384	-884
994.462	-135
994.540	-1213
994.619	-693
994.697	-930
994.776	-1085
994.854	-1137
994.932	-927
995.011	-837
995.089	-1239
995.167	-811
995.245	-1094
995.324	-734
995.402	-482
995.480	-1150
995.558	-756
995.636	-1839
995.714	-1064
995.792	-741
995.870	-1358
995.948	-381
996.026	-1148
996.104	-1241
996.182	-972
996.260	-898
996.338	-1040
996.416	-1294
996.494	-505
996.572	-1095
996.649	-1422
996.727	-1433
996.805	-277
996.883	-819
996.960	-940
997.038	-720
997.116	-1406
997.193	-2001
997.271	-813
997.348	-1102
997.426	-1035
997.504	-1826
997.581	204
997.658	-420
997.736	-686
997.813	-326
997.891	-1136
997.968	-667
998.046	-1278
998.123	-567
998.200	-1132
998.277	-1074
998.355	-379
998.432	-1929
998.509	-879
998.586	-834
998.663	-1666
998.741	-1486
998.818	-1714
998.895	-1770
998.972	-1164
999.049	-1289
999.126	-1449
999.203	-948
999.280	-975
999.357	-1004
999.434	-843
999.511	-1049
999.587	-1469
999.664	-1768
999.741	-501
999.818	-1136
999.895	-1232
999.971	-1741
1000.048	-1091
1000.125	-558
1000.202	-1682
1000.278	-1240
1000.355	-264
1000.431	-1074
1000.508	-1047
1000.584	-1065
1000.661	-1241
1000.738	-1282
1000.814	-1408
1000.890	-491
1000.967	-1577
1001.043	-1204
1001.120	-488
1001.196	-727
1001.272	-1020
1001.349	-1292
1001.425	-1277
1001.501	-958
1001.577	-1159
1001.654	-837
1001.730	-1244
1001.806	-955
1001.882	-1300
1001.958	-1130
1002.034	-903
1002.110	-1083
1002.186	-2516
1002.262	-914
1002.338	-1154
1002.414	-1124
1002.490	-540
1002.566	-1697
1002.642	-1242
1002.718	-1539
1002.794	-474
1002.870	-1045
1002.945	-1119
1003.021	-1115
1003.097	-1271
1003.173	-575
1003.248	-1572
1003.324	-1693
1003.400	-749
1003.475	-1225
1003.551	-746
1003.626	-743
1003.702	-1099
1003.777	-1092
1003.853	-2005
1003.928	-976
1004.004	-1412
1004.079	-185
1004.155	-1467
1004.230	-1106
1004.305	-1531
1004.381	-1750
1004.456	-620
1004.531	-1232
1004.607	-1331
1004.682	-1348
1004.757	-1187
1004.832	-897
1004.907	-1070
1004.982	-705
1005.057	-939
1005.133	-820
1005.208	-1222
1005.283	-1285
1005.358	-1721
1005.433	-875
1005.508	-1251
1005.583	-1206
1005.657	-1901
1005.732	-1135
1005.807	-1014
1005.882	-991
1005.957	-1031
1006.032	-760
1006.106	-1827
1006.181	-974
1006.256	-1818
1006.331	-1933
1006.405	-1880
1006.480	-1341
1006.554	-1857
1006.629	-1453
1006.704	-943
1006.778	-921
1006.853	-1516
1006.927	-783
1007.002	-1726
1007.076	-962
1007.150	-1225
1007.225	-420
1007.299	-493
1007.373	-1121
1007.448	-1165
1007.522	-1181
1007.596	-1485
1007.671	-771
1007.745	-1289
1007.819	-1450
1007.893	-1163
1007.967	-923
1008.041	-1699
1008.115	-216
1008.190	-1229
1008.264	-1004
1008.338	-1191
1008.412	-1485
1008.486	-1124
1008.560	-1877
1008.633	-1106
1008.707	-1635
1008.781	-269
1008.855	-1571
1008.929	-738
1009.003	-619
1009.076	-1616
1009.150	-1735
1009.224	-377
1009.298	-933
1009.371	-1561
1009.445	-1418
1009.519	-1199
1009.592	-1441
1009.666	-1346
1009.739	-1124
1009.813	-1461
1009.886	-626
1009.960	-998
1010.033	121
1010.107	-1371
1010.180	-1423
1010.253	-1620
1010.327	-1192
1010.400	-995
1010.473	-1342
1010.547	-514
1010.620	-1331
1010.693	-1462
1010.766	-1342
1010.840	-1473
1010.913	-718
1010.986	-827
1011.059	-1398
1011.132	-1729
1011.205	-1055
1011.278	-829
1011.351	-1020
1011.424	-1393
1011.497	-1169
1011.570	-1193
1011.643	-833
1011.716	-1114
1011.789	-1762
1011.862	-1212
1011.934	-1150
1012.007	-1349
1012.080	-1441
1012.153	-969
1012.225	-855
1012.298	-1317
1012.371	-1161
1012.443	-783
1012.516	-1731
1012.588	-1646
1012.661	-1174
1012.733	-1028
1012.806	-943
1012.879	-1734
1012.951	-1008
1013.023	-1521
1013.096	-867
1013.168	-972
1013.241	-475
1013.313	-1208
1013.385	-1370
1013.458	-1156
1013.530	-735
1013.602	-1284
1013.674	-1010
1013.746	-606
1013.819	-823
1013.891	-763
1013.963	-1641
1014.035	-887
1014.107	-681
1014.179	-362
1014.251	-1570
1014.323	-1382
1014.395	-298
1014.467	-1537
1014.539	-1187
1014.611	-985
1014.683	-574
1014.754	-683
1014.826	-1511
1014.898	-966
1014.970	-1293
1015.042	-1790
1015.113	-312
1015.185	-1109
1015.257	-795
1015.328	-960
1015.400	-1184
1015.471	-1248
1015.543	-1406
1015.615	-389
1015.686	-669
1015.757	-1826
1015.829	-258
1015.901	-1120
1015.972	-1535
1016.043	-1112
1016.115	-1182
1016.186	-126
1016.257	-1976
1016.328	-391
1016.400	-1691
1016.471	-1243
1016.542	-1143
1016.613	-416
1016.685	-1059
1016.756	-615
1016.827	-1416
1016.898	-1689
1016.969	-1054
1017.040	-762
1017.111	-509
1017.182	-1546
1017.253	-1614
1017.324	-889
1017.395	-2088
1017.466	-1266
1017.537	-908
1017.608	-1205
1017.678	-671
1017.749	-1298
1017.820	-789
1017.891	-1458
1017.961	-1386
1018.032	-1364
1018.103	-1119
1018.173	-1052
1018.244	-1537
1018.315	-1369
1018.385	-1009
1018.456	-1473
1018.526	-996
1018.597	-1437
1018.667	-857
1018.738	-1341
1018.808	-945
1018.878	-1783
1018.949	-581
1019.019	-1263
1019.089	-2096
1019.160	-808
1019.230	-1442
1019.300	-1359
1019.371	-1083
1019.441	-928
1019.511	-959
1019.581	-1630
1019.651	-1250
1019.721	-999
1019.791	-1412
1019.861	-1353
1019.931	-1438
1020.001	-1259
1020.071	-978
1020.141	-1521
1020.211	-1543
1020.281	-1628
1020.351	-1429
1020.421	-1077
1020.491	-1565
1020.560	-1057
1020.630	-838
1020.700	-1402
1020.770	-1364
1020.839	-178
1020.909	-1520
1020.979	-1279
1021.048	-1251
1021.118	-1808
1021.187	-1577
1021.257	-1433
1021.326	-863
1021.396	-1406
1021.465	-1050
1021.535	-1088
1021.604	-1552
1021.674	-642
1021.743	-1117
1021.812	-843
1021.882	-1071
1021.951	-709
1022.020	-592
1022.089	-663
1022.159	-1266
1022.228	-1598
1022.297	-1206
1022.366	-1791
1022.435	-1177
1022.504	-958
1022.573	-1388
1022.642	-1073
1022.711	-1105
1022.781	-1287
1022.849	-1018
1022.918	-1438
1022.987	-1528
1023.056	-1372
1023.125	-1865
1023.194	-1729
1023.263	-982
1023.331	-766
1023.400	-1906
1023.469	-2357
1023.538	-726
1023.606	-1089
1023.675	-1746
1023.744	-1757
1023.812	-1638
1023.881	-1164
1023.949	-848
1024.018	-1435
1024.086	-1530
1024.155	-885
1024.223	-950
1024.292	-1098
1024.360	-776
1024.429	-882
1024.497	-1150
1024.565	-983
1024.634	-1382
1024.702	-458
1024.770	-1021
1024.838	-2116
1024.907	-1004
1024.975	-1484
1025.043	-1277
1025.111	-1776
1025.179	-924
1025.247	-1062
1025.315	-1062
1025.383	-1941
1025.451	-538
1025.519	-1536
1025.587	-1739
1025.655	-960
1025.723	-1452
1025.791	-1313
1025.859	-1704
1025.927	-1243
1025.995	-1565
1026.062	-1252
1026.130	-805
1026.198	-1479
1026.266	-1119
1026.333	-1847
1026.401	-1195
1026.469	-1632
1026.536	-1324
1026.604	-1781
1026.671	-673
1026.739	-1530
1026.806	-2171
1026.874	-1160
1026.941	-1687
1027.009	-1369
1027.076	-1611
1027.144	-1111
1027.211	-1595
1027.278	-1965
1027.345	-1305
1027.413	-1178
1027.480	-1091
1027.547	-1147
1027.614	-1849
1027.682	-1525
1027.749	-1804
1027.816	-1083
1027.883	-1199
1027.950	-448
1028.017	-832
1028.084	-1347
1028.151	-1560
1028.218	-2327
1028.285	-1113
1028.352	-1058
1028.419	-1686
1028.486	-1285
1028.553	-1142
1028.619	-1823
1028.686	-1163
1028.753	-1507
1028.820	-805
1028.886	-1348
1028.953	-543
1029.020	-2099
1029.086	-1936
1029.153	-1021
1029.220	-1542
1029.286	-723
1029.353	-1313
1029.419	-1929
1029.486	-1840
1029.552	-1535
1029.619	-1261
1029.685	-1550
1029.751	-1541
1029.818	-1369
1029.884	-1896
1029.951	-893
1030.017	-559
1030.083	-1076
1030.149	-1403
1030.216	-1054
1030.282	-1101
1030.348	-1768
1030.414	-1557
1030.480	-1743
1030.546	-1243
1030.612	-1859
1030.678	-1070
1030.744	-1522
1030.810	-1459
1030.876	-1818
1030.942	-2050
1031.008	-661
1031.074	-1551
1031.140	-537
1031.206	-881
1031.272	-1139
1031.337	-1059
1031.403	-825
1031.469	-1475
1031.534	-1047
1031.600	-1441
1031.666	-1144
1031.731	-2256
1031.797	-1236
1031.863	-1582
1031.928	-1455
1031.994	-1990
1032.059	-1273
1032.125	-848
1032.190	-1364
1032.256	-1483
1032.321	-1325
1032.386	-1913
1032.452	-1173
1032.517	-1524
1032.582	-1458
1032.647	-1349
1032.713	-1533
1032.778	-1189
1032.843	-1339
1032.908	-1325
1032.974	-1695
1033.039	-1149
1033.104	-912
1033.169	-1900
1033.234	-1128
1033.299	-1735
1033.364	-634
1033.429	-1243
1033.494	-1106
1033.559	-2036
1033.624	-1663
1033.688	-1043
1033.753	-1460
1033.818	-694
1033.883	-1749
1033.948	-1500
1034.013	-872
1034.077	-695
1034.142	-1180
1034.207	-1372
1034.271	-707
1034.336	-1683
1034.400	-379
1034.465	-639
1034.530	-872
1034.594	-1974
1034.658	-1198
1034.723	-1820
1034.787	-1567
1034.852	-942
1034.916	-1330
1034.981	-1413
1035.045	-1003
1035.109	-1706
1035.173	-1307
1035.238	-2106
1035.302	-1963
1035.366	-2697
1035.430	-1135
1035.495	-1879
1035.559	-761
1035.623	-997
1035.687	-1861
1035.751	-1602
1035.815	-1626
1035.879	-1385
1035.943	-2164
1036.007	-1496
1036.071	-1618
1036.135	-697
1036.198	-1180
1036.262	-1489
1036.326	-1035
1036.390	-911
1036.454	-1898
1036.517	-1137
1036.581	-1533
1036.645	-1984
1036.709	-1588
1036.772	-549
1036.836	-1106
1036.900	-1609
1036.963	-1711
1037.026	-1845
1037.090	-1559
1037.154	-1832
1037.217	-1622
1037.280	-1709
1037.344	-1545
1037.407	-1417
1037.471	-868
1037.534	-1750
1037.597	-1227
1037.661	-1530
1037.724	-1755
1037.787	-1378
1037.850	-1824
1037.913	-1415
1037.977	-1809
1038.040	-1757
1038.103	-1232
1038.166	-2035
1038.229	-1645
1038.292	-2322
1038.355	-1181
1038.418	-1918
1038.481	-1315
1038.544	-1884
1038.607	-1344
1038.670	-1855
1038.732	-1490
1038.795	-1744
1038.858	-1208
1038.921	-1790
1038.984	-1221
1039.046	-1191
1039.109	-1336
1039.172	-1772
1039.234	-1499
1039.297	-1487
1039.360	-2228
1039.422	-1350
1039.485	-1892
1039.547	-2637
1039.610	-2005
1039.672	-1145
1039.734	-2255
1039.797	-1742
1039.859	-1484
1039.922	-1530
1039.984	-1555
1040.046	-1279
1040.109	-1489
1040.171	-1451
1040.233	-1800
1040.295	-1463
1040.358	-1774
1040.420	-1436
1040.482	-2417
1040.544	-1156
1040.606	-1967
1040.668	-1722
1040.730	-1777
1040.792	-1262
1040.854	-1938
1040.916	-1678
1040.978	-1260
1041.040	-1106
1041.102	-1409
1041.164	-1798
1041.225	-1672
1041.287	-1460
1041.349	-2108
1041.411	-1566
1041.472	-1444
1041.534	-1547
1041.596	-1202
1041.657	-1931
1041.719	-706
1041.781	-2121
1041.842	-1871
1041.904	-1417
1041.965	-1362
1042.027	-1378
1042.088	-1608
1042.150	-1772
1042.211	-2249
1042.272	-1254
1042.334	-1923
1042.395	-1533
1042.456	-1088
1042.518	-2041
1042.579	-997
1042.640	-1778
1042.701	-1531
1042.763	-1915
1042.824	-1131
1042.885	-1552
1042.946	-1461
1043.007	-1230
1043.068	-1582
1043.129	-1364
1043.190	-1597
1043.251	-1274
1043.312	-1744
1043.373	-1116
1043.434	-1652
1043.495	-1773
1043.556	-1432
1043.616	-1231
1043.677	-1644
1043.738	-1801
1043.799	-1499
1043.859	-1179
1043.920	-1479
1043.981	-1607
1044.041	-1949
1044.102	-1191
1044.162	-1400
1044.223	-1350
1044.284	-1563
1044.344	-1968
1044.405	-1417
1044.465	-1744
1044.525	-1688
1044.586	-1427
1044.646	-1501
1044.707	-1104
1044.767	-1617
1044.827	-1728
1044.887	-1217
1044.948	-1410
1045.008	-1382
1045.068	-706
1045.128	-1831
1045.188	-1978
1045.249	-1237
1045.309	-1443
1045.369	-1553
1045.429	-1437
1045.489	-1118
1045.549	-720
1045.609	-2175
1045.669	-1761
1045.729	-1802
1045.789	-1188
1045.848	-1617
1045.908	-723
1045.968	-1222
1046.028	-1277
1046.088	-1411
1046.147	-1058
1046.207	-1018
1046.267	-590
1046.326	-613
1046.386	-1084
1046.446	-662
1046.505	-937
1046.565	-736
1046.624	-505
1046.684	-376
1046.743	-1735
1046.803	-1028
1046.862	-638
1046.922	0
