'Start Wavelength	183.907
'End Wavelength	1046.922
'Gate Delay	5.000
'Gate Width (ms)	1.050
'Laser Output Level	0.000
'X Position	0.000
'Y Position	0.000
'Z Position	0.000
'Grid Point Number	1.000
'Shot Number	100.000
183.907	497.000
183.977	54.000
184.047	1089
184.116	870
184.186	352
184.256	-350
184.325	-105
184.395	259
184.465	238
184.534	256
184.604	-211
184.674	-233
184.743	244
184.813	103
184.883	99
184.952	202
185.022	630
185.092	-276
185.161	11
185.231	-124
185.301	463
185.370	959
185.440	656
185.509	31
185.579	177
185.649	157
185.718	870
185.788	571
185.857	41
185.927	15
185.996	350
186.066	525
186.136	-288
186.205	527
186.275	-84
186.344	-12
186.414	-144
186.483	-110
186.553	485
186.622	473
186.692	189
186.761	-280
186.831	267
186.900	30
186.970	432
187.039	366
187.109	200
187.178	249
187.248	-317
187.317	112
187.387	486
187.456	297
187.526	755
187.595	266
187.664	311
187.734	237
187.803	189
187.873	374
187.942	447
188.012	-130
188.081	383
188.150	391
188.220	299
188.289	409
188.358	482
188.428	159
188.497	184
188.567	389
188.636	256
188.705	213
188.775	-85
188.844	-322
188.913	1007
188.983	-278
189.052	121
189.121	-132
189.191	-168
189.260	406
189.329	931
189.399	217
189.468	106
189.537	425
189.606	733
189.676	-56
189.745	933
189.814	-102
189.883	771
189.953	12
190.022	331
190.091	1091
190.161	1283
190.230	-225
190.299	-160
190.368	-142
190.437	246
190.507	381
190.576	-51
190.645	-265
190.714	-14
190.783	217
190.853	395
190.922	203
190.991	-192
191.060	-20
191.129	554
191.198	-328
191.268	474
191.337	-341
191.406	619
191.475	637
191.544	-467
191.613	302
191.682	-209
191.752	282
191.821	301
191.890	383
191.959	137
192.028	183
192.097	91
192.166	737
192.235	-303
192.304	242
192.373	64
192.442	449
192.511	-291
192.580	-197
192.650	-351
192.719	102
192.788	960
192.857	225
192.926	-25
192.995	365
193.064	60
193.133	743
193.202	552
193.271	845
193.340	997
193.409	788
193.478	903
193.547	2224
193.615	1206
193.684	1334
193.753	968
193.822	657
193.891	1127
193.960	616
194.029	25
194.098	651
194.167	422
194.236	791
194.305	137
194.374	204
194.443	-413
194.512	-339
194.580	483
194.649	780
194.718	179
194.787	369
194.856	72
194.925	792
194.994	462
195.062	657
195.131	542
195.200	391
195.269	1640
195.338	613
195.407	645
195.475	134
195.544	664
195.613	350
195.682	536
195.751	1238
195.819	338
195.888	570
195.957	1040
196.026	390
196.094	541
196.163	-165
196.232	558
196.301	310
196.369	296
196.438	869
196.507	1305
196.576	-29
196.644	812
196.713	-411
196.782	269
196.850	641
196.919	436
196.988	780
197.056	485
197.125	451
197.194	1022
197.262	10
197.331	14
197.400	282
197.468	-54
197.537	170
197.606	1233
197.674	903
197.743	1956
197.812	1273
197.880	1453
197.949	649
198.017	1241
198.086	961
198.155	659
198.223	306
198.292	1734
198.360	35
198.429	133
198.497	-63
198.566	1164
198.635	1367
198.703	488
198.772	413
198.840	2227
198.909	866
198.977	-148
199.046	894
199.114	751
199.183	421
199.251	-406
199.320	630
199.388	348
199.457	-33
199.525	590
199.594	34
199.662	304
199.731	121
199.799	477
199.867	500
199.936	919
200.004	671
200.073	-193
200.141	172
200.210	239
200.278	681
200.346	668
200.415	82
200.483	691
200.552	321
200.620	803
200.688	43
200.757	410
200.825	431
200.893	309
200.962	715
201.030	-110
201.098	108
201.167	485
201.235	829
201.303	1379
201.372	800
201.440	520
201.508	770
201.577	271
201.645	941
201.713	496
201.781	206
201.850	1130
201.918	515
201.986	492
202.055	459
202.123	765
202.191	242
202.259	477
202.327	440
202.396	302
202.464	443
202.532	495
202.600	2753
202.669	1330
202.737	649
202.805	249
202.873	759
202.941	1481
203.009	-83
203.078	-83
203.146	93
203.214	596
203.282	809
203.350	259
203.418	1209
203.487	900
203.555	329
203.623	778
203.691	568
203.759	136
203.827	387
203.895	472
203.963	336
204.031	681
204.099	867
204.168	-423
204.236	-110
204.304	530
204.372	333
204.440	396
204.508	174
204.576	248
204.644	1128
204.712	459
204.780	724
204.848	416
204.916	119
204.984	489
205.052	844
205.120	495
205.188	932
205.256	329
205.324	-23
205.392	690
205.460	196
205.528	310
205.596	979
205.664	557
205.732	823
205.799	2141
205.867	2270
205.935	-206
206.003	254
206.071	277
206.139	406
206.207	531
206.275	462
206.343	150
206.411	150
206.478	87
206.546	82
206.614	250
206.682	545
206.750	235
206.818	1216
206.885	992
206.953	-173
207.021	469
207.089	791
207.157	553
207.225	919
207.292	616
207.360	1293
207.428	283
207.496	115
207.563	571
207.631	650
207.699	487
207.767	501
207.834	542
207.902	745
207.970	-45
208.038	440
208.105	1348
208.173	272
208.241	1825
208.309	866
208.376	1487
208.444	1476
208.512	471
208.579	451
208.647	860
208.715	506
208.782	675
208.850	802
208.918	576
208.985	915
209.053	688
209.120	895
209.188	166
209.256	492
209.323	624
209.391	1030
209.459	1478
209.526	1162
209.594	261
209.661	619
209.729	-139
209.796	564
209.864	1247
209.932	41
209.999	1475
210.067	1006
210.134	910
210.202	1403
210.269	1680
210.337	1108
210.404	566
210.472	174
210.539	1360
210.607	595
210.674	1113
210.742	528
210.809	-45
210.877	886
210.944	1016
211.012	200
211.079	1375
211.146	833
211.214	549
211.281	1785
211.349	502
211.416	1034
211.484	1737
211.551	887
211.618	1043
211.686	744
211.753	688
211.821	1330
211.888	1089
211.955	2070
212.023	844
212.090	681
212.157	637
212.225	976
212.292	2088
212.359	3231
212.427	8614
212.494	2387
212.561	1705
212.629	1303
212.696	777
212.763	1148
212.831	1359
212.898	719
212.965	1362
213.032	1067
213.100	1865
213.167	493
213.234	993
213.301	597
213.369	741
213.436	1026
213.503	398
213.570	850
213.638	435
213.705	620
213.772	721
213.839	1218
213.906	1440
213.973	1229
214.041	766
214.108	1183
214.175	770
214.242	1507
214.309	572
214.376	1206
214.444	1184
214.511	1706
214.578	772
214.645	1057
214.712	976
214.779	1528
214.846	1176
214.913	1013
214.980	1607
215.048	1985
215.115	1937
215.182	2048
215.249	1343
215.316	859
215.383	1294
215.450	468
215.517	512
215.584	283
215.651	1259
215.718	953
215.785	1947
215.852	970
215.919	1331
215.986	1398
216.053	686
216.120	1019
216.187	1014
216.254	1574
216.321	1055
216.388	1133
216.455	1397
216.522	1509
216.589	2080
216.656	3003
216.722	2484
216.789	1796
216.856	1786
216.923	1237
216.990	1785
217.057	2011
217.124	2143
217.191	1131
217.258	2686
217.324	2623
217.391	2658
217.458	1691
217.525	1626
217.592	1018
217.659	1458
217.725	1606
217.792	2102
217.859	1431
217.926	1441
217.993	1198
218.059	1703
218.126	1584
218.193	1073
218.260	624
218.327	569
218.393	757
218.460	301
218.527	1123
218.594	1128
218.660	2222
218.727	1523
218.794	840
218.860	1343
218.927	493
218.994	917
219.061	922
219.127	1695
219.194	2326
219.261	1108
219.327	743
219.394	149
219.461	496
219.527	898
219.594	1473
219.661	1253
219.727	317
219.794	983
219.860	982
219.927	1463
219.994	2352
220.060	3097
220.127	1883
220.193	1258
220.260	1454
220.326	2181
220.393	4244
220.460	4239
220.526	1785
220.593	1912
220.659	1541
220.726	2006
220.792	4682
220.859	4049
220.925	6010
220.992	7219
221.058	6516
221.125	6181
221.191	5233
221.258	2230
221.324	1097
221.391	1216
221.457	675
221.524	1743
221.590	2366
221.657	5914
221.723	2979
221.789	3942
221.856	3256
221.922	2191
221.989	940
222.055	1260
222.121	1220
222.188	1777
222.254	952
222.321	1466
222.387	686
222.453	1173
222.520	1209
222.586	1079
222.652	978
222.719	1174
222.785	1392
222.851	1037
222.918	605
222.984	670
223.050	1312
223.116	131
223.183	610
223.249	758
223.315	306
223.382	948
223.448	1188
223.514	572
223.580	655
223.647	1167
223.713	628
223.779	688
223.845	385
223.911	1051
223.978	25
224.044	993
224.110	749
224.176	1089
224.242	679
224.309	-85
224.375	821
224.441	568
224.507	403
224.573	550
224.639	470
224.705	200
224.772	935
224.838	88
224.904	920
224.970	476
225.036	191
225.102	529
225.168	874
225.234	1113
225.300	806
225.366	391
225.432	515
225.499	1218
225.565	838
225.631	1466
225.697	1374
225.763	1594
225.829	838
225.895	2031
225.961	2344
226.027	1827
226.093	1608
226.159	2425
226.225	2949
226.291	8818
226.357	11132
226.423	5809
226.489	3085
226.554	1853
226.620	2014
226.686	2904
226.752	4197
226.818	7057
226.884	16004
226.950	12120
227.016	3909
227.082	2577
227.148	1842
227.214	2388
227.279	2110
227.345	1905
227.411	1062
227.477	1723
227.543	4833
227.609	4173
227.674	2714
227.740	1046
227.806	1709
227.872	500
227.938	1689
228.003	2067
228.069	1163
228.135	829
228.201	964
228.267	1057
228.332	1304
228.398	2075
228.464	1328
228.530	527
228.595	300
228.661	997
228.727	1687
228.792	917
228.858	866
228.924	517
228.990	2214
229.055	985
229.121	1389
229.187	1261
229.252	882
229.318	1030
229.384	1219
229.449	1832
229.515	-89
229.581	718
229.646	1433
229.712	1754
229.777	3549
229.843	2349
229.909	2823
229.974	2401
230.040	2033
230.105	1971
230.171	1524
230.236	2901
230.302	3091
230.368	1706
230.433	1407
230.499	1145
230.564	1542
230.630	917
230.695	1277
230.761	1021
230.826	102
230.892	2578
230.957	483
231.023	969
231.088	1283
231.154	1045
231.219	1557
231.284	2256
231.350	1079
231.415	884
231.481	600
231.546	1156
231.612	911
231.677	530
231.742	136
231.808	1768
231.873	274
231.939	508
232.004	2048
232.069	1802
232.135	1184
232.200	955
232.265	1429
232.331	-103
232.396	522
232.461	695
232.527	537
232.592	174
232.657	772
232.723	1437
232.788	654
232.853	1421
232.918	902
232.984	871
233.049	681
233.114	1472
233.179	1740
233.245	2131
233.310	2412
233.375	744
233.440	240
233.506	906
233.571	438
233.636	821
233.701	799
233.766	2283
233.832	1871
233.897	844
233.962	588
234.027	1294
234.092	1133
234.157	1334
234.222	970
234.288	2671
234.353	4797
234.418	3229
234.483	2292
234.548	1816
234.613	1285
234.678	1468
234.743	1286
234.808	5350
234.873	2607
234.938	1604
235.004	1672
235.069	1281
235.134	1431
235.199	1381
235.264	1166
235.329	549
235.394	683
235.459	1711
235.524	1023
235.589	1148
235.654	1452
235.719	444
235.784	579
235.849	1311
235.913	2417
235.978	3065
236.043	2040
236.108	1416
236.173	1556
236.238	1165
236.303	1063
236.368	1304
236.433	2496
236.498	3100
236.563	2345
236.627	6651
236.692	19973
236.757	11578
236.822	4510
236.887	3337
236.952	3330
237.017	2355
237.081	2759
237.146	3855
237.211	8419
237.276	21573
237.341	28427
237.405	11018
237.470	5049
237.535	3253
237.600	2155
237.664	1945
237.729	1605
237.794	2966
237.859	5321
237.923	3311
237.988	883
238.053	3445
238.118	2203
238.182	7725
238.247	4675
238.312	2530
238.376	2032
238.441	1413
238.506	1954
238.570	815
238.635	1284
238.700	1934
238.764	1708
238.829	2957
238.893	2882
238.958	2248
239.023	2133
239.087	1950
239.152	1788
239.216	523
239.281	676
239.346	1168
239.410	427
239.475	1900
239.539	7380
239.604	3446
239.668	1910
239.733	825
239.797	2441
239.862	6708
239.926	5474
239.991	2405
240.055	1455
240.120	832
240.184	1385
240.249	479
240.313	770
240.378	1230
240.442	4666
240.507	5818
240.571	2584
240.635	3318
240.700	3076
240.764	1006
240.829	1172
240.893	252
240.957	1282
241.022	4489
241.086	5408
241.151	2141
241.215	893
241.279	2076
241.344	2589
241.408	1448
241.472	1145
241.537	1970
241.601	1292
241.665	1558
241.730	1162
241.794	1201
241.858	1551
241.922	1598
241.987	1324
242.051	752
242.115	998
242.179	1752
242.244	1184
242.308	1212
242.372	2080
242.436	2157
242.501	1564
242.565	1073
242.629	730
242.693	508
242.757	272
242.822	651
242.886	1555
242.950	1285
243.014	854
243.078	1955
243.142	886
243.206	1055
243.271	1643
243.335	1502
243.399	2701
243.463	13739
243.527	24714
243.591	6148
243.655	3370
243.719	1006
243.783	2688
243.847	4513
243.911	4228
243.975	5353
244.040	2047
244.104	2632
244.168	1325
244.232	3333
244.296	3895
244.360	4061
244.424	1635
244.488	1226
244.552	1143
244.615	833
244.679	1302
244.743	1728
244.807	2198
244.871	1382
244.935	1092
244.999	503
245.063	849
245.127	1890
245.191	3122
245.255	2535
245.319	2530
245.383	1065
245.446	1732
245.510	902
245.574	1480
245.638	1822
245.702	2007
245.766	5314
245.829	2628
245.893	517
245.957	1448
246.021	1740
246.085	1614
246.149	2609
246.212	7975
246.276	8434
246.340	3752
246.404	2241
246.467	3479
246.531	4100
246.595	3155
246.659	2782
246.722	2184
246.786	3321
246.850	3723
246.913	4258
246.977	1333
247.041	1416
247.104	2125
247.168	2698
247.232	7456
247.295	13172
247.359	5176
247.423	2916
247.486	5421
247.550	2557
247.614	2489
247.677	3238
247.741	1385
247.804	2036
247.868	2241
247.932	7298
247.995	11286
248.059	3865
248.122	2136
248.186	3138
248.249	5783
248.313	23676
248.376	19580
248.440	12485
248.503	3505
248.567	4503
248.630	5762
248.694	8401
248.757	12212
248.821	20974
248.884	11873
248.948	12295
249.011	16463
249.075	27347
249.138	18694
249.202	7619
249.265	3803
249.328	4875
249.392	3938
249.455	3156
249.519	3634
249.582	4412
249.645	7996
249.709	4324
249.772	3026
249.835	3916
249.899	2935
249.962	3671
250.025	2481
250.089	9832
250.152	9937
250.215	4346
250.279	3066
250.342	4203
250.405	2607
250.468	2792
250.532	4049
250.595	7014
250.658	34148
250.721	35879
250.785	13059
250.848	7603
250.911	4017
250.974	4068
251.038	7594
251.101	11730
251.164	5888
251.227	6056
251.290	5759
251.354	9031
251.417	42807
251.480	28023
251.543	27010
251.606	71233
251.669	38802
251.732	16980
251.795	17821
251.859	20252
251.922	43624
251.985	18761
252.048	8648
252.111	5628
252.174	5851
252.237	14527
252.300	25324
252.363	31999
252.426	51367
252.489	17225
252.552	9294
252.615	5944
252.678	7833
252.741	19885
252.804	30485
252.867	52432
252.930	27713
252.993	14984
253.056	9011
253.119	5802
253.182	5172
253.245	7638
253.308	5990
253.371	6492
253.434	5068
253.497	6502
253.559	12328
253.622	6903
253.685	9812
253.748	8254
253.811	4308
253.874	6033
253.937	4481
254.000	3887
254.062	9136
254.125	10357
254.188	12893
254.251	8019
254.314	4382
254.376	8415
254.439	8101
254.502	6143
254.565	9916
254.628	12587
254.690	6712
254.753	3828
254.816	2924
254.878	2730
254.941	9918
255.004	7297
255.067	3666
255.129	3934
255.192	1969
255.255	1759
255.317	2467
255.380	1739
255.443	1169
255.505	1038
255.568	1232
255.631	1349
255.693	2233
255.756	-346
255.819	1780
255.881	965
255.944	1267
256.006	846
256.069	981
256.132	1256
256.194	2373
256.257	4084
256.319	2912
256.382	3211
256.444	1806
256.507	1788
256.569	946
256.632	1351
256.694	2281
256.757	14232
256.819	26874
256.882	8349
256.944	3565
257.007	3680
257.069	2831
257.132	2478
257.194	1943
257.257	2100
257.319	1421
257.381	2028
257.444	8202
257.506	40185
257.569	30135
257.631	14657
257.693	8096
257.756	3648
257.818	2872
257.880	2142
257.943	1313
258.005	1741
258.067	1607
258.130	1862
258.192	2983
258.254	4054
258.317	1777
258.379	2516
258.441	8838
258.503	5707
258.566	7905
258.628	6913
258.690	1279
258.753	3151
258.815	6026
258.877	2390
258.939	2031
259.001	2297
259.064	1147
259.126	1597
259.188	2543
259.250	2772
259.312	3067
259.375	7909
259.437	3331
259.499	1667
259.561	1736
259.623	2239
259.685	1517
259.747	1947
259.809	8264
259.872	10482
259.934	22455
259.996	15181
260.058	4166
260.120	2004
260.182	1315
260.244	1153
260.306	90
260.368	1737
260.430	797
260.492	5784
260.554	7740
260.616	4293
260.678	13228
260.740	10200
260.802	2293
260.864	2452
260.926	1045
260.988	2338
261.050	1470
261.112	7249
261.174	16777
261.236	7691
261.298	2414
261.359	6229
261.421	5742
261.483	2079
261.545	1602
261.607	1123
261.669	1752
261.731	4628
261.793	7838
261.854	3030
261.916	3039
261.978	2502
262.040	2032
262.102	1372
262.164	2830
262.225	1476
262.287	1533
262.349	7087
262.411	3882
262.472	1678
262.534	4257
262.596	5877
262.658	1805
262.719	940
262.781	3113
262.843	6061
262.904	2089
262.966	2037
263.028	2459
263.090	21466
263.151	34771
263.213	11488
263.275	6171
263.336	2290
263.398	2484
263.459	637
263.521	1086
263.583	6122
263.644	2663
263.706	1281
263.767	1052
263.829	617
263.891	376
263.952	655
264.014	227
264.075	4005
264.137	7492
264.198	2698
264.260	1271
264.321	618
264.383	6246
264.444	11635
264.506	2362
264.567	1805
264.629	6963
264.690	8637
264.752	3800
264.813	2268
264.875	826
264.936	1958
264.998	1288
265.059	1207
265.120	958
265.182	3074
265.243	18475
265.305	9927
265.366	2360
265.427	1193
265.489	1683
265.550	-99
265.611	1582
265.673	1320
265.734	1180
265.795	1104
265.857	396
265.918	519
265.979	4680
266.040	29165
266.102	13671
266.163	4973
266.224	4433
266.286	1836
266.347	324
266.408	1317
266.469	718
266.530	854
266.592	170
266.653	4551
266.714	5796
266.775	2218
266.836	672
266.898	607
266.959	3065
267.020	1037
267.081	1741
267.142	958
267.203	828
267.264	837
267.326	1748
267.387	837
267.448	-120
267.509	1769
267.570	890
267.631	667
267.692	561
267.753	1036
267.814	-32
267.875	4590
267.936	6779
267.997	4681
268.058	2974
268.119	1104
268.180	1035
268.241	575
268.302	801
268.363	51
268.424	962
268.485	1573
268.546	1023
268.607	124
268.668	430
268.729	-493
268.790	463
268.851	897
268.912	5885
268.972	5195
269.033	1684
269.094	814
269.155	643
269.216	411
269.277	557
269.338	439
269.398	956
269.459	177
269.520	1986
269.581	3487
269.642	3243
269.702	1472
269.763	1151
269.824	498
269.885	2510
269.945	3062
270.006	1185
270.067	408
270.128	585
270.188	1095
270.249	422
270.310	648
270.370	1267
270.431	747
270.492	218
270.553	705
270.613	3689
270.674	7612
270.734	2131
270.795	1212
270.856	2161
270.916	177
270.977	1726
271.038	1852
271.098	864
271.159	3729
271.219	1392
271.280	823
271.340	795
271.401	910
271.462	2595
271.522	1834
271.583	1358
271.643	941
271.704	506
271.764	2035
271.825	6560
271.885	24366
271.946	21252
272.006	6658
272.066	16132
272.127	17297
272.187	5019
272.248	2332
272.308	4044
272.369	15367
272.429	4791
272.489	5325
272.550	4506
272.610	5823
272.671	3034
272.731	3414
272.791	4790
272.852	2515
272.912	1964
272.972	806
273.033	1550
273.093	2223
273.153	2075
273.214	1644
273.274	1587
273.334	15056
273.394	18350
273.455	6199
273.515	10649
273.575	17628
273.635	5443
273.696	10538
273.756	17109
273.816	5057
273.876	2747
273.936	8612
273.997	9511
274.057	2330
274.117	1797
274.177	5579
274.237	28940
274.297	15306
274.358	10439
274.418	17615
274.478	9133
274.538	3312
274.598	2258
274.658	10123
274.718	10012
274.778	3578
274.838	1349
274.898	5784
274.958	14420
275.018	18981
275.078	8865
275.138	3844
275.198	1975
275.258	1049
275.318	2144
275.378	4177
275.438	4481
275.498	2228
275.558	9382
275.618	18479
275.678	10290
275.738	8187
275.798	5201
275.858	2451
275.918	879
275.978	2530
276.038	1254
276.098	1120
276.157	5444
276.217	13330
276.277	4364
276.337	3036
276.397	859
276.457	2556
276.517	846
276.576	1666
276.636	1176
276.696	2850
276.756	8834
276.815	4482
276.875	2335
276.935	2238
276.995	946
277.055	927
277.114	1750
277.174	4849
277.234	11312
277.293	3419
277.353	1731
277.413	865
277.472	1262
277.532	766
277.592	2896
277.651	16114
277.711	16031
277.771	6572
277.830	28810
277.890	13107
277.950	18102
278.009	38376
278.069	10252
278.128	19182
278.188	16807
278.248	8016
278.307	25416
278.367	9366
278.426	3038
278.486	2339
278.545	1201
278.605	1807
278.664	1442
278.724	1435
278.783	11325
278.843	19995
278.902	3427
278.962	3038
279.021	3037
279.081	3738
279.140	2822
279.199	2474
279.259	3786
279.318	2782
279.378	4153
279.437	9402
279.496	38903
279.556	103738
279.615	52340
279.675	14815
279.734	9828
279.793	17469
279.853	22749
279.912	7211
279.971	4239
280.031	3350
280.090	12688
280.149	15643
280.208	13524
280.268	77223
280.327	46824
280.386	12305
280.445	12734
280.505	8173
280.564	3890
280.623	2732
280.682	7667
280.742	7890
280.801	1907
280.860	2483
280.919	1654
280.978	1256
281.037	1090
281.097	945
281.156	1688
281.215	567
281.274	2932
281.333	17833
281.392	7537
281.451	2200
281.510	1208
281.569	921
281.628	885
281.688	797
281.747	2201
281.806	803
281.865	671
281.924	1154
281.983	786
282.042	820
282.101	1195
282.160	1028
282.219	508
282.278	765
282.337	8051
282.396	2897
282.454	1236
282.513	3047
282.572	12721
282.631	4299
282.690	1366
282.749	706
282.808	1929
282.867	2000
282.926	1545
282.985	1089
283.043	406
283.102	1318
283.161	494
283.220	8671
283.279	11911
283.338	2709
283.396	1981
283.455	1312
283.514	1880
283.573	3740
283.631	1723
283.690	1345
283.749	1583
283.808	5232
283.866	4668
283.925	1243
283.984	1425
284.043	2891
284.101	1436
284.160	1168
284.219	2643
284.277	1828
284.336	4646
284.395	18583
284.453	10069
284.512	4817
284.570	6147
284.629	4691
284.688	4318
284.746	4579
284.805	5629
284.863	8491
284.922	10323
284.981	11183
285.039	17717
285.098	34085
285.156	91613
285.215	136982
285.273	129457
285.332	72703
285.390	39939
285.449	23615
285.507	15936
285.566	10844
285.624	7976
285.683	5328
285.741	3703
285.799	4755
285.858	3280
285.916	3094
285.975	2591
286.033	1590
286.091	1950
286.150	1849
286.208	1562
286.267	2614
286.325	2034
286.383	4538
286.442	2466
286.500	1229
286.558	1282
286.616	1494
286.675	2207
286.733	1452
286.791	1479
286.850	2375
286.908	3997
286.966	4570
287.024	1493
287.083	1449
287.141	86
287.199	1521
287.257	2096
287.315	1000
287.374	2416
287.432	6778
287.490	2926
287.548	1896
287.606	1191
287.664	1434
287.723	2312
287.781	2305
287.839	1686
287.897	1862
287.955	1736
288.013	2980
288.071	10151
288.129	73630
288.187	138947
288.245	43559
288.303	15834
288.361	9322
288.419	6178
288.477	4012
288.535	1811
288.593	2116
288.651	1345
288.709	802
288.767	838
288.825	1026
288.883	903
288.941	948
288.999	738
289.057	496
289.115	530
289.173	1146
289.231	511
289.289	560
289.346	859
289.404	892
289.462	3337
289.520	2470
289.578	1418
289.636	411
289.694	599
289.751	434
289.809	419
289.867	-20
289.925	2041
289.983	1227
290.040	932
290.098	247
290.156	927
290.214	1814
290.271	698
290.329	167
290.387	212
290.444	314
290.502	-137
290.560	1104
290.617	579
290.675	315
290.733	127
290.790	593
290.848	-14
290.906	432
290.963	281
291.021	1160
291.078	-30
291.136	833
291.194	9373
291.251	13294
291.309	2590
291.366	664
291.424	724
291.481	924
291.539	993
291.596	260
291.654	8
291.711	1186
291.769	494
291.826	3068
291.884	1121
291.941	136
291.999	295
292.056	1830
292.114	901
292.171	-25
292.228	910
292.286	1296
292.343	2764
292.401	3836
292.458	1309
292.515	1150
292.573	1641
292.630	1441
292.687	1322
292.745	198
292.802	2269
292.859	8258
292.917	14658
292.974	5585
293.031	2044
293.089	1214
293.146	553
293.203	1042
293.260	-257
293.318	1569
293.375	2299
293.432	1460
293.489	352
293.546	191
293.604	1141
293.661	11128
293.718	22507
293.775	8572
293.832	4251
293.889	3156
293.947	2690
294.004	1341
294.061	2224
294.118	7216
294.175	16638
294.232	16832
294.289	4814
294.346	2636
294.403	2362
294.460	1892
294.517	1125
294.574	794
294.631	-69
294.688	849
294.745	8261
294.802	32404
294.859	24717
294.916	8358
294.973	3814
295.030	3883
295.087	2623
295.144	1929
295.201	1864
295.258	666
295.315	2306
295.372	13608
295.429	16973
295.486	5844
295.542	3132
295.599	17506
295.656	19536
295.713	16248
295.770	16695
295.827	5350
295.883	2407
295.940	2686
295.997	5435
296.054	4089
296.111	1988
296.167	1265
296.224	1536
296.281	1086
296.338	577
296.394	567
296.451	877
296.508	11429
296.564	13479
296.621	9090
296.678	26237
296.734	24426
296.791	8920
296.848	4395
296.904	5882
296.961	14538
297.018	23817
297.074	12116
297.131	4521
297.187	2957
297.244	4733
297.301	29382
297.357	31748
297.414	9318
297.470	4845
297.527	3032
297.583	2398
297.640	1625
297.696	1553
297.753	996
297.809	1342
297.866	179
297.922	558
297.979	1085
298.035	1710
298.092	4422
298.148	14958
298.204	8690
298.261	3600
298.317	13360
298.374	24571
298.430	11268
298.486	4385
298.543	3337
298.599	2701
298.656	4139
298.712	9713
298.768	20602
298.824	9466
298.881	3404
298.937	2131
298.993	2282
299.050	2361
299.106	1618
299.162	2592
299.218	2237
299.275	1339
299.331	1420
299.387	7217
299.443	27332
299.500	19176
299.556	7192
299.612	4215
299.668	2958
299.724	6319
299.780	5286
299.837	1401
299.893	6184
299.949	24232
300.005	18629
300.061	23375
300.117	31235
300.173	11919
300.229	5840
300.285	7811
300.341	7711
300.397	2770
300.453	1864
300.510	2005
300.566	1712
300.622	2904
300.678	15441
300.734	20944
300.790	21313
300.845	20265
300.901	15310
300.957	22603
301.013	12501
301.069	4687
301.125	3969
301.181	3384
301.237	2586
301.293	1433
301.349	2075
301.405	1100
301.461	1935
301.516	1866
301.572	2534
301.628	4912
301.684	3939
301.740	10472
301.796	12688
301.851	8912
301.907	14524
301.963	10834
302.019	30443
302.074	69368
302.130	52450
302.186	21108
302.242	9438
302.297	6657
302.353	7422
302.409	14285
302.464	8689
302.520	9490
302.576	26347
302.631	23402
302.687	12570
302.743	5013
302.798	3270
302.854	1931
302.910	1705
302.965	3136
303.021	6954
303.076	5865
303.132	10158
303.187	8600
303.243	4115
303.299	1856
303.354	1016
303.410	871
303.465	1656
303.521	1379
303.576	1136
303.632	1637
303.687	9178
303.743	22540
303.798	13608
303.853	4795
303.909	2888
303.964	3194
304.020	6408
304.075	5661
304.130	7378
304.186	13412
304.241	12025
304.297	8218
304.352	4674
304.358	4436
304.407	2506
304.449	2899
304.463	3035
304.518	2288
304.539	2370
304.573	2488
304.629	1685
304.630	1767
304.684	5549
304.720	14856
304.739	19604
304.794	19924
304.811	16537
304.850	8291
304.902	4158
304.905	3903
304.960	2769
304.992	2628
305.015	2543
305.071	2595
305.083	2438
305.126	1811
305.173	641
305.181	461
305.236	946
305.264	1111
305.292	1266
305.347	2580
305.354	2517
305.402	2142
305.445	2713
305.457	2887
305.512	4075
305.535	3725
305.567	3208
305.622	3536
305.626	3810
305.678	9124
305.716	20489
305.733	25006
305.788	20912
305.807	18703
305.843	14407
305.897	21855
305.898	21954
305.953	16499
305.988	11328
306.008	8362
306.063	5109
306.078	4611
306.118	3665
306.168	2265
306.173	2156
306.228	1588
306.259	1602
306.283	1549
306.338	1436
306.349	1420
306.393	1504
306.440	1948
306.448	2026
306.503	1524
306.530	2128
306.558	3165
306.613	9985
306.620	10671
306.668	15537
306.711	20792
306.723	21600
306.778	14485
306.801	11339
306.833	7222
306.888	4423
306.892	4195
306.943	2423
306.982	2370
306.997	2326
307.052	2007
307.072	1945
307.107	2071
307.162	3464
307.163	3480
307.217	5229
307.253	6439
307.272	6790
307.327	6947
307.343	6307
307.381	4802
307.434	4077
307.436	4163
307.491	10433
307.524	15687
307.546	18081
307.600	16693
307.614	15135
307.655	8778
307.704	4242
307.710	4025
307.765	4323
307.795	5845
307.819	7707
307.874	12610
307.885	12452
307.929	9128
307.975	6394
307.984	6356
308.038	7465
308.065	9749
308.093	15992
308.148	42021
308.156	48424
308.202	90350
308.246	100827
308.257	95636
308.312	49885
308.336	34613
308.366	26730
308.421	17110
308.426	16281
308.475	10213
308.517	6949
308.530	6239
308.585	5261
308.607	4773
308.639	4449
308.694	4988
308.697	5151
308.748	9661
308.787	13943
308.803	14614
308.857	11119
308.877	9870
308.912	7971
308.967	6914
308.967	6914
309.021	9311
309.058	12124
309.076	15094
309.130	27148
309.148	32930
309.185	59605
309.238	114035
309.239	114692
309.293	134459
309.328	126792
309.348	105541
309.402	47507
309.418	33202
309.457	22938
309.508	14018
309.511	13727
309.566	12641
309.598	12968
309.620	15324
309.674	24120
309.688	25965
309.729	24915
309.778	20218
309.783	19606
309.837	12921
309.868	9793
309.892	10571
309.946	15933
309.959	17770
310.001	25964
310.049	31409
310.055	30354
310.109	17719
310.139	11431
310.163	8885
310.218	4846
310.229	4167
310.272	3202
310.319	2492
310.326	2457
310.381	2343
310.409	2289
310.435	2329
310.489	2613
310.499	2693
310.543	2594
310.589	2329
310.598	2339
310.652	2654
310.679	2712
310.706	2503
310.760	1716
310.769	1681
310.814	1943
310.859	2020
310.868	1988
310.923	1891
310.948	1841
310.977	1956
311.031	2194
311.038	2222
311.085	2220
311.128	2252
311.139	2270
311.193	2253
311.218	2268
311.247	2117
311.301	1816
311.308	1785
311.356	1830
311.398	1789
311.410	1774
311.464	1783
311.488	1770
311.518	1688
311.572	1580
311.578	1571
311.626	2315
311.668	2976
311.680	3051
311.734	3282
311.758	3418
311.788	3280
311.842	3019
311.847	2995
311.896	2973
311.937	2986
311.950	3122
312.004	3750
312.027	4015
312.058	3232
312.112	1863
312.117	1734
312.165	1498
312.207	1314
312.297	2812
312.386	2979
312.476	2771
312.566	4496
312.656	2665
312.745	1951
312.835	2400
312.925	1570
313.015	1815
313.104	2331
313.194	1641
313.284	1116
313.374	3144
313.463	2418
313.553	1771
313.643	1974
313.732	2136
313.822	1012
313.912	1960
314.001	1615
314.091	2742
314.180	3826
314.270	2769
314.360	2360
314.449	2058
314.539	1072
314.628	1779
314.718	2610
314.808	2517
314.897	2033
314.987	1791
315.076	2725
315.166	3072
315.255	2633
315.345	2546
315.434	2741
315.524	2570
315.613	2406
315.703	3795
315.792	4383
315.881	8009
315.971	4115
316.060	4969
316.150	6890
316.239	6611
316.328	3582
316.418	1689
316.507	1371
316.597	2582
316.686	2386
316.775	3040
316.865	6922
316.954	2158
317.043	1390
317.133	1768
317.222	2130
317.311	1664
317.400	693
317.490	2718
317.579	2346
317.668	1625
317.757	2827
317.847	5880
317.936	15552
318.025	8189
318.114	4985
318.203	3301
318.293	6071
318.382	13940
318.471	10706
318.560	13365
318.649	25169
318.738	7204
318.828	2220
318.917	2429
319.006	3238
319.095	9941
319.184	30008
319.273	19207
319.362	8203
319.451	2069
319.540	2076
319.629	4741
319.718	8375
319.807	4351
319.896	9029
319.985	36395
320.074	16959
320.163	3232
320.252	3886
320.341	4318
320.430	3751
320.519	4223
320.608	3187
320.697	2499
320.786	2039
320.875	2735
320.964	3922
321.053	4882
321.142	7329
321.230	9738
321.319	6838
321.408	15660
321.497	8681
321.586	6713
321.675	6772
321.764	6702
321.852	4898
321.941	8659
322.030	6710
322.119	5166
322.207	15459
322.296	11674
322.385	5281
322.474	6170
322.562	18669
322.651	12627
322.740	6284
322.829	9659
322.917	9483
323.006	6540
323.095	4872
323.183	3913
323.272	4794
323.361	9654
323.449	30321
323.538	11588
323.626	18108
323.715	15310
323.804	3951
323.892	17510
323.981	11666
324.069	2821
324.158	8718
324.246	11371
324.335	3353
324.424	5190
324.512	2849
324.601	3805
324.689	8316
324.778	21867
324.866	7836
324.954	3237
325.043	1483
325.131	3959
325.220	8140
325.308	8943
325.397	6424
325.485	4819
325.574	1088
325.662	1066
325.750	2249
325.839	2233
325.927	1538
326.015	1937
326.104	2306
326.192	4824
326.280	1606
326.369	1597
326.457	2420
326.545	4711
326.634	2406
326.722	1701
326.810	1803
326.898	1910
326.987	1530
327.075	4144
327.163	4817
327.251	2421
327.340	5975
327.428	12726
327.516	2185
327.604	1547
327.692	1720
327.781	854
327.869	3018
327.957	2237
328.045	2391
328.133	669
328.221	1601
328.309	1712
328.397	1448
328.485	2162
328.574	2611
328.662	10890
328.750	5914
328.838	2537
328.926	1173
329.014	1234
329.102	2251
329.190	6436
329.278	5607
329.366	1760
329.454	1114
329.542	1475
329.630	1940
329.718	1724
329.806	2031
329.893	2104
329.981	2741
330.069	3562
330.157	17362
330.245	67420
330.333	44091
330.421	5668
330.509	3601
330.597	11511
330.684	9244
330.772	2471
330.860	4235
330.948	6101
331.036	3184
331.123	1740
331.211	1411
331.299	1918
331.387	3432
331.475	9131
331.562	2884
331.650	1113
331.738	872
331.825	2371
331.913	1409
332.001	876
332.089	1468
332.176	3710
332.264	7577
332.352	8811
332.439	1935
332.527	1961
332.614	828
332.702	1941
332.790	1422
332.877	2836
332.965	9317
333.052	3500
333.140	2628
333.228	7059
333.315	2102
333.403	1675
333.490	4648
333.578	5642
333.665	9303
333.753	5320
333.840	1236
333.928	1607
334.015	5129
334.103	10092
334.190	37221
334.278	12140
334.365	3457
334.452	3325
334.540	1699
334.627	2049
334.715	2839
334.802	5359
334.889	30064
334.977	44513
335.064	7820
335.151	3219
335.239	2286
335.326	3386
335.413	15619
335.501	32377
335.588	3932
335.675	2495
335.762	3304
335.850	5583
335.937	3039
336.024	8255
336.111	39852
336.199	25326
336.286	4761
336.373	3401
336.460	1537
336.547	1685
336.635	2676
336.722	2411
336.809	1749
336.896	2171
336.983	8267
337.070	26424
337.157	44043
337.245	25775
337.332	20400
337.419	2356
337.506	1712
337.593	2063
337.680	6181
337.767	28146
337.854	8338
337.941	7068
338.028	8213
338.115	3386
338.202	2986
338.289	5100
338.376	22689
338.463	9631
338.550	13851
338.637	20099
338.724	3718
338.811	7834
338.898	2394
338.984	1528
339.071	2038
339.158	2647
339.245	6026
339.332	4738
339.419	4513
339.506	5286
339.593	1455
339.679	1225
339.766	1547
339.853	1560
339.940	4591
340.027	1733
340.113	478
340.200	2182
340.287	1453
340.374	1928
340.460	4063
340.547	2151
340.634	2083
340.720	10806
340.807	9331
340.894	2153
340.980	1220
341.067	1256
341.154	2086
341.240	1859
341.327	6030
341.414	2257
341.500	1973
341.587	1375
341.674	1023
341.760	3634
341.847	5072
341.933	1725
342.020	220
342.106	1402
342.193	1416
342.279	3059
342.366	1779
342.452	4327
342.539	2295
342.625	4058
342.712	12606
342.798	6857
342.885	1580
342.971	412
343.058	1311
343.144	1088
343.230	964
343.317	1192
343.403	1030
343.490	954
343.576	1052
343.662	888
343.749	1681
343.835	1811
343.921	3034
344.008	24885
344.094	81325
344.180	22310
344.267	4297
344.353	16228
344.439	23982
344.525	6648
344.612	2563
344.698	1917
344.784	1346
344.870	1389
344.957	824
345.043	2131
345.129	1130
345.215	4210
345.301	1746
345.387	1733
345.474	862
345.560	1285
345.646	1519
345.732	890
345.818	894
345.904	1487
345.990	1682
346.076	1277
346.162	3124
346.249	1794
346.335	1174
346.421	1608
346.507	5585
346.593	30244
346.679	9792
346.765	1489
346.851	1333
346.937	1332
347.023	321
347.108	1209
347.194	1289
347.280	1844
347.366	1274
347.452	5714
347.538	33872
347.624	27247
347.710	23349
347.796	3777
347.882	1600
347.967	1922
348.053	1427
348.139	1261
348.225	645
348.311	1131
348.397	999
348.482	1051
348.568	2374
348.654	219
348.740	1151
348.825	1655
348.911	3106
348.997	11029
349.083	36741
349.168	6598
349.254	1557
349.340	1584
349.425	1264
349.511	1072
349.597	1605
349.682	3436
349.768	16797
349.854	11456
349.939	2192
350.025	730
350.110	107
350.196	249
350.282	584
350.367	573
350.453	625
350.538	1925
350.624	1090
350.709	2124
350.795	617
350.880	607
350.966	984
351.051	1701
351.137	1184
351.222	1342
351.308	3900
351.393	14990
351.479	5043
351.564	1497
351.649	1097
351.735	946
351.820	302
351.906	540
351.991	1191
352.076	7322
352.162	17064
352.247	2431
352.332	1254
352.418	2728
352.503	4123
352.588	17620
352.673	19710
352.759	3332
352.844	1382
352.929	1697
353.014	2057
353.100	1877
353.185	2871
353.270	3853
353.355	4563
353.441	1324
353.526	1383
353.611	2572
353.696	4609
353.781	2874
353.866	739
353.952	1425
354.037	3582
354.122	8437
354.207	7460
354.292	3407
354.377	946
354.462	681
354.547	922
354.632	1952
354.717	2152
354.802	3186
354.887	1549
354.972	630
355.057	-430
355.142	465
355.227	1452
355.312	2044
355.397	4300
355.482	14098
355.567	8235
355.652	4402
355.737	5489
355.822	17105
355.907	22600
355.991	2605
356.076	1049
356.161	1270
356.246	997
356.331	1156
356.416	3041
356.501	30215
356.585	48865
356.670	5945
356.755	2987
356.840	3131
356.924	17004
357.009	83757
357.094	44206
357.179	6121
357.263	3867
357.348	3647
357.433	3305
357.517	2757
357.602	2749
357.687	2637
357.771	3474
357.856	13643
357.941	10246
358.025	12841
358.110	78930
358.195	52132
358.279	5047
358.364	3729
358.448	10043
358.533	35095
358.617	29924
358.702	27331
358.787	11729
358.871	4609
358.956	3641
359.040	1382
359.125	1108
359.209	1504
359.294	4726
359.378	12589
359.462	4624
359.547	2031
359.631	1041
359.716	871
359.800	997
359.885	2102
359.969	1707
360.053	1271
360.138	618
360.222	2508
360.306	4195
360.391	3913
360.475	5085
360.559	16161
360.644	11982
360.728	10604
360.812	14150
360.896	58440
360.981	26073
361.065	11258
361.149	3284
361.233	2988
361.318	1288
361.402	1780
361.486	2392
361.570	1814
361.654	1732
361.739	4316
361.823	26712
361.907	65807
361.991	13544
362.075	4250
362.159	7110
362.243	7256
362.327	6063
362.411	10683
362.495	5815
362.580	2838
362.664	1447
362.748	1595
362.832	2535
362.916	3249
363.000	12518
363.084	41098
363.168	75754
363.252	20059
363.336	4526
363.420	5859
363.503	22202
363.587	40069
363.671	6690
363.755	2004
363.839	4750
363.923	2873
364.007	3971
364.091	6951
364.175	6589
364.258	43092
364.342	37559
364.426	33882
364.510	24014
364.594	8893
364.677	8481
364.761	43341
364.845	47281
364.929	9134
365.013	8049
365.096	5388
365.180	7102
365.264	8128
365.347	44885
365.431	27584
365.515	5081
365.598	1879
365.682	1885
365.766	3264
365.849	5557
365.933	2458
366.017	3032
366.100	3726
366.184	372
366.267	1330
366.351	860
366.435	1187
366.518	1093
366.602	666
366.685	-58
366.769	1246
366.852	3308
366.936	6424
367.019	3612
367.103	2096
367.186	6677
367.270	2329
367.353	1045
367.436	959
367.520	727
367.603	1344
367.687	2034
367.770	5108
367.853	2876
367.937	10540
368.020	26830
368.104	6065
368.187	2470
368.270	5522
368.353	6267
368.437	5519
368.520	13333
368.603	10526
368.687	11106
368.770	31271
368.853	10270
368.936	4117
369.020	6719
369.103	2498
369.186	1841
369.269	1231
369.352	2892
369.436	5384
369.519	3253
369.602	1232
369.685	1720
369.768	2017
369.851	1844
369.934	1112
370.018	1298
370.101	4151
370.184	4890
370.267	2844
370.350	4395
370.433	7632
370.516	20531
370.599	35719
370.682	9412
370.765	12208
370.848	17436
370.931	36547
371.014	19626
371.097	3529
371.180	2418
371.263	1392
371.346	580
371.429	1495
371.511	978
371.594	2711
371.677	4924
371.760	6821
371.843	5335
371.926	22388
372.009	75206
372.091	30855
372.174	11524
372.257	36863
372.340	20729
372.423	7321
372.505	10862
372.588	5200
372.671	7747
372.754	33208
372.836	25400
372.919	10380
373.002	27137
373.085	10329
373.167	4987
373.250	12468
373.332	35564
373.415	42066
373.498	100963
373.580	46784
373.663	34112
373.746	69877
373.828	17949
373.911	5967
373.993	4972
374.076	20288
374.159	27918
374.241	9948
374.324	26523
374.406	23980
374.489	21376
374.571	82147
374.654	47438
374.736	13020
374.819	46975
374.901	68098
374.983	86069
375.066	18816
375.148	4597
375.231	15528
375.313	43029
375.395	18639
375.478	4166
375.560	2415
375.643	3291
375.725	10208
375.807	54841
375.890	57544
375.972	17645
376.054	7527
376.136	10903
376.219	6729
376.301	11548
376.383	53301
376.465	29426
376.548	8517
376.630	12132
376.712	40391
376.794	29349
376.877	2856
376.959	1243
377.041	2116
377.123	3269
377.205	6547
377.287	1710
377.369	1139
377.452	798
377.534	989
377.616	712
377.698	1212
377.780	525
377.862	1285
377.944	825
378.026	509
378.108	351
378.190	675
378.272	507
378.354	494
378.436	207
378.518	932
378.600	8016
378.682	9121
378.764	17266
378.846	20218
378.928	4445
379.010	6161
379.091	3198
379.173	1253
379.255	1277
379.337	1504
379.419	6077
379.501	27991
379.583	17318
379.664	2656
379.746	5195
379.828	16367
379.910	27318
379.991	27783
380.073	6154
380.155	1736
380.237	1042
380.318	1158
380.400	1064
380.482	1985
380.564	5048
380.645	4923
380.727	5202
380.809	2656
380.890	2518
380.972	1165
381.053	1534
381.135	1757
381.217	4502
381.298	20025
381.380	13240
381.461	6918
381.543	33368
381.624	63576
381.706	14260
381.787	4971
381.869	5031
381.951	13605
382.032	70109
382.113	62295
382.195	11454
382.276	6528
382.358	11478
382.439	37504
382.521	45365
382.602	76645
382.684	39795
382.765	46386
382.846	59756
382.928	74740
383.009	55655
383.090	24698
383.172	84867
383.253	187847
383.334	75435
383.416	61379
383.497	43950
383.578	12944
383.659	20151
383.741	68642
383.822	239162
383.903	174017
383.984	41785
384.066	70294
384.147	55577
384.228	11393
384.309	5927
384.390	5188
384.471	4099
384.553	4524
384.634	4871
384.715	5652
384.796	2991
384.877	3187
384.958	15161
385.039	25401
385.120	9537
385.201	3655
385.282	3753
385.363	4106
385.444	3830
385.525	6489
385.606	27502
385.687	36407
385.768	7731
385.849	6279
385.930	26030
386.011	65333
386.092	23159
386.173	4226
386.254	1808
386.335	3234
386.416	2465
386.496	8830
386.577	20729
386.658	9415
386.739	3405
386.820	3587
386.901	2548
386.981	2665
387.062	1652
387.143	3490
387.224	15459
387.304	22333
387.385	7294
387.466	2966
387.547	5312
387.627	3616
387.708	5517
387.789	29783
387.869	51236
387.950	18429
388.031	2733
388.111	1014
388.192	5167
388.273	8813
388.353	5523
388.434	3025
388.514	5557
388.595	29853
388.676	53711
388.756	24947
388.837	15809
388.917	13389
388.998	1878
389.078	1912
389.159	1012
389.239	864
389.320	2785
389.400	2055
389.480	5453
389.561	20604
389.641	16724
389.722	3639
389.802	4372
389.883	6487
389.963	25022
390.043	22117
390.124	5141
390.204	5215
390.284	19176
390.365	16755
390.445	12492
390.525	32959
390.605	34558
390.686	13359
390.766	4587
390.846	2964
390.927	1355
391.007	1057
391.087	1859
391.167	2292
391.247	851
391.328	2356
391.408	4579
391.488	4351
391.568	-210
391.648	2324
391.728	3333
391.808	3392
391.888	4110
391.969	9256
392.049	21187
392.129	11103
392.209	7513
392.289	25324
392.369	18927
392.449	10196
392.529	7964
392.609	5083
392.689	5994
392.769	21587
392.849	27429
392.929	13522
393.009	32706
393.089	34620
393.169	18641
393.248	49087
393.328	220538
393.408	335672
393.488	102544
393.568	21201
393.648	10400
393.728	6630
393.807	5005
393.887	4402
393.967	3929
394.047	4686
394.127	5812
394.206	7950
394.286	24678
394.366	125517
394.446	194960
394.525	51114
394.605	9724
394.685	6785
394.764	13141
394.844	25214
394.924	23471
395.003	6994
395.083	3244
395.163	3540
395.242	2939
395.322	3060
395.402	1950
395.481	3393
395.561	7456
395.640	28647
395.720	27009
395.799	30286
395.879	33440
395.958	13608
396.038	34922
396.117	166948
396.197	255504
396.276	81035
396.356	21011
396.435	14136
396.515	10251
396.594	8895
396.673	16238
396.753	53666
396.832	221142
396.912	227840
396.991	57661
397.070	12691
397.150	5486
397.229	4479
397.308	5098
397.388	10940
397.467	7506
397.546	2929
397.625	467
397.705	3326
397.784	2794
397.863	1219
397.942	1272
398.022	1656
398.101	5943
398.180	26477
398.259	19506
398.338	3721
398.417	1730
398.497	1292
398.576	1641
398.655	917
398.734	749
398.813	724
398.892	5430
398.971	28815
399.050	22303
399.129	2433
399.208	325
399.287	1402
399.366	-163
399.445	323
399.524	815
399.603	-785
399.682	2198
399.761	6853
399.840	29158
399.919	35162
399.998	5358
400.077	297
400.156	-255
400.235	1971
400.313	-16
400.392	398
400.471	6605
400.550	16382
400.629	5807
400.708	1621
400.786	1145
400.865	4430
400.944	5070
401.023	3662
401.102	84
401.180	-367
401.259	-539
401.338	71
401.416	841
401.495	103
401.574	905
401.652	-281
401.731	1337
401.810	706
401.888	113
401.967	-708
402.046	453
402.124	494
402.203	1790
402.281	897
402.360	1351
402.438	6721
402.517	5769
402.596	2138
402.674	539
402.753	438
402.831	242
402.910	478
402.988	4503
403.066	24190
403.145	22036
403.223	6503
403.302	19770
403.380	19479
403.459	16440
403.537	8028
403.615	1286
403.694	-1306
403.772	307
403.850	-966
403.929	-544
404.007	-323
404.085	1519
404.164	2558
404.242	600
404.320	694
404.398	1574
404.477	6020
404.555	43232
404.633	62500
404.711	10899
404.789	1541
404.868	612
404.946	173
405.024	582
405.102	26
405.180	-835
405.258	-1079
405.336	617
405.415	-761
405.493	1991
405.571	1819
405.649	-288
405.727	-657
405.805	633
405.883	945
405.961	1351
406.039	1088
406.117	-144
406.195	1593
406.273	6204
406.351	39491
406.429	37525
406.507	5586
406.585	788
406.663	107
406.740	527
406.818	397
406.896	-124
406.974	990
407.052	1213
407.130	18145
407.208	40720
407.285	11939
407.363	405
407.441	619
407.519	-110
407.596	1126
407.674	1486
407.752	5072
407.830	8551
407.907	4545
407.985	664
408.063	368
408.141	-402
408.218	889
408.296	1503
408.373	357
408.451	873
408.529	1088
408.606	-427
408.684	-974
408.762	-6
408.839	-1074
408.917	-1354
408.994	-129
409.072	-818
409.149	-188
409.227	851
409.304	2038
409.382	893
409.459	1113
409.537	2311
409.614	1664
409.692	338
409.769	-242
409.846	1483
409.924	3996
410.001	2375
410.079	522
410.156	-12
410.233	844
410.311	266
410.388	-486
410.465	42
410.543	1146
410.620	470
410.697	252
410.775	-458
410.852	-659
410.929	260
411.006	1625
411.083	-375
411.161	2549
411.238	3501
411.315	1968
411.392	-507
411.469	754
411.547	1373
411.624	-683
411.701	397
411.778	-114
411.855	798
411.932	556
412.009	-400
412.086	119
412.163	218
412.240	-305
412.317	1158
412.394	611
412.471	128
412.548	-866
412.625	-908
412.702	340
412.779	878
412.856	1652
412.933	-1206
413.010	-586
413.087	-496
413.164	5324
413.241	14931
413.318	3681
413.395	1457
413.471	1404
413.548	459
413.625	-98
413.702	-662
413.779	50
413.855	-404
413.932	-570
414.009	-1463
414.086	-1618
414.162	-1155
414.239	175
414.316	5023
414.393	18697
414.469	10506
414.546	-237
414.623	-86
414.699	-1349
414.776	-138
414.853	-1281
414.929	-761
415.006	-442
415.082	-741
415.159	-588
415.236	-786
415.312	632
415.389	394
415.465	1154
415.542	804
415.618	-1225
415.695	1207
415.771	-329
415.848	-81
415.924	219
416.000	-505
416.077	-371
416.153	-1231
416.230	-1993
416.306	-399
416.383	-1052
416.459	383
416.535	-972
416.612	-1120
416.688	-1117
416.764	-1334
416.841	-896
416.917	-248
416.993	-516
417.069	-632
417.146	-377
417.222	1116
417.298	470
417.374	-267
417.451	-444
417.527	-450
417.603	-311
417.679	-146
417.755	-123
417.831	-754
417.908	109
417.984	-866
418.060	-1562
418.136	674
418.212	1856
418.288	390
418.364	-291
418.440	-506
418.516	629
418.592	545
418.668	2213
418.744	3742
418.820	3682
418.896	-76
418.972	-885
419.048	-632
419.124	809
419.200	328
419.276	329
419.352	-966
419.428	-300
419.504	-1429
419.579	-286
419.655	-653
419.731	-443
419.807	1065
419.883	4309
419.959	4632
420.034	1200
420.110	1048
420.186	8760
420.262	12916
420.337	2186
420.413	79
420.489	16
420.565	13
420.640	-224
420.716	-244
420.792	-1562
420.867	43
420.943	-296
421.019	-25
421.094	377
421.170	348
421.245	-639
421.321	51
421.397	-525
421.472	1021
421.548	2459
421.623	3353
421.699	1154
421.774	237
421.850	1065
421.925	2384
422.001	2299
422.076	1357
422.152	1565
422.227	4009
422.302	5836
422.378	8356
422.453	15184
422.529	35427
422.604	107381
422.679	223767
422.755	181467
422.830	70102
422.905	24311
422.981	12074
423.056	7502
423.131	5540
423.207	2707
423.282	2956
423.357	4622
423.432	3694
423.508	2253
423.583	5070
423.658	5593
423.733	1028
423.808	1722
423.883	1866
423.959	934
424.034	923
424.109	974
424.184	-133
424.259	-120
424.334	-47
424.409	-521
424.484	-249
424.559	209
424.634	-753
424.709	251
424.784	581
424.859	64
424.934	-182
425.009	5747
425.084	14933
425.159	8226
425.234	806
425.309	54
425.384	1825
425.459	6277
425.534	1719
425.609	-467
425.683	-49
425.758	-651
425.833	-155
425.908	-60
425.983	2863
426.058	13591
426.132	9145
426.207	1049
426.282	1526
426.357	965
426.431	-422
426.506	280
426.581	-205
426.655	247
426.730	-279
426.805	-543
426.879	237
426.954	-2
427.029	657
427.103	9468
427.178	36515
427.253	29193
427.327	3210
427.402	1151
427.476	6036
427.551	4626
427.625	386
427.700	963
427.774	-557
427.849	821
427.923	-351
427.998	-495
428.072	-181
428.147	1751
428.221	8232
428.296	36786
428.370	34139
428.444	5157
428.519	1848
428.593	4852
428.667	6564
428.742	5730
428.816	6783
428.890	18557
428.965	47504
429.039	22163
429.113	8529
429.188	4065
429.262	243
429.336	1316
429.410	5843
429.485	6740
429.559	4090
429.633	4909
429.707	1392
429.781	3351
429.855	18969
429.930	47844
430.004	27490
430.078	28696
430.152	34340
430.226	47078
430.300	76555
430.374	19049
430.448	4043
430.522	6144
430.596	26868
430.670	26927
430.744	32602
430.818	78358
430.892	29164
430.966	1994
431.040	896
431.114	-116
431.188	-498
431.262	-363
431.336	-786
431.410	1610
431.484	5128
431.557	7831
431.631	619
431.705	208
431.779	3688
431.853	29877
431.927	38859
432.000	6474
432.074	-277
432.148	228
432.222	521
432.295	317
432.369	-62
432.443	-63
432.516	9177
432.590	39945
432.664	28648
432.737	3353
432.811	-478
432.885	-786
432.958	-388
433.032	-909
433.106	-1017
433.179	-748
433.253	-1183
433.326	-551
433.400	-503
433.473	-821
433.547	-1511
433.620	-915
433.694	-234
433.767	1378
433.841	-787
433.914	-623
433.988	-690
434.061	-705
434.134	-862
434.208	-924
434.281	-1403
434.355	-1513
434.428	-1215
434.501	-991
434.575	-837
434.648	-1166
434.721	-983
434.795	-977
434.868	-1278
434.941	-1889
435.014	-1423
435.088	-1011
435.161	-510
435.234	413
435.307	2167
435.381	874
435.454	280
435.527	222
435.600	1200
435.673	641
435.746	-693
435.819	263
435.892	524
435.966	-934
436.039	-1043
436.112	-97
436.185	-1198
436.258	-1520
436.331	-2158
436.404	-1663
436.477	-1346
436.550	-891
436.623	-1948
436.696	-1210
436.769	-961
436.842	-1015
436.915	-414
436.987	7
437.060	-795
437.133	-992
437.206	-1090
437.279	506
437.352	-1187
437.425	-1240
437.498	-255
437.570	682
437.643	1784
437.716	70
437.789	-930
437.861	72
437.934	5955
438.007	5380
438.080	68
438.152	-544
438.225	943
438.298	12283
438.370	62592
438.443	49716
438.516	10756
438.588	2819
438.661	-504
438.734	-353
438.806	-585
438.879	196
438.951	-329
439.024	3053
439.096	1985
439.169	-190
439.241	-730
439.314	-1158
439.386	-420
439.459	1183
439.531	2369
439.604	1841
439.676	-84
439.749	-1056
439.821	-1449
439.893	-854
439.966	-1328
440.038	-214
440.110	485
440.183	-336
440.255	-736
440.327	714
440.400	4062
440.472	30421
440.544	43394
440.617	8183
440.689	2645
440.761	2382
440.833	5565
440.905	5866
440.978	1748
441.050	-924
441.122	61
441.194	-1364
441.266	-237
441.338	-678
441.411	-86
441.483	6199
441.555	20914
441.627	9782
441.699	1361
441.771	1799
441.843	28
441.915	354
441.987	-354
442.059	-818
442.131	130
442.203	1182
442.275	1554
442.347	2043
442.419	2056
442.491	11392
442.563	46840
442.635	41898
442.706	13119
442.778	11985
442.850	3543
442.922	244
442.994	964
443.066	1651
443.137	2158
443.209	847
443.281	1352
443.353	4666
443.425	16190
443.496	72858
443.568	117089
443.640	60817
443.711	14758
443.783	3825
443.855	1318
443.926	174
443.998	-236
444.070	669
444.141	873
444.213	1549
444.285	2383
444.356	1514
444.428	2183
444.499	312
444.571	-403
444.642	77
444.714	-414
444.785	1132
444.857	1873
444.928	5319
445.000	7047
445.071	4073
445.143	6847
445.214	5400
445.285	5312
445.357	15391
445.428	44649
445.500	141889
445.571	137917
445.642	72966
445.714	29259
445.785	17558
445.856	9400
445.928	3460
445.999	3098
446.070	3970
446.141	2245
446.213	3435
446.284	2218
446.355	1236
446.426	1278
446.497	908
446.569	883
446.640	2503
446.711	3466
446.782	1026
446.853	-245
446.924	1151
446.995	811
447.066	122
447.138	1964
447.209	2656
447.280	-216
447.351	-1142
447.422	-1116
447.493	-6
447.564	140
447.635	1491
447.706	1135
447.777	-250
447.847	-516
447.918	-828
447.989	127
448.060	1003
448.131	3457
448.202	5484
448.273	3708
448.344	2310
448.414	-314
448.485	-284
448.556	-413
448.627	-122
448.698	3
448.768	-1002
448.839	-718
448.910	605
448.981	2944
449.051	1369
449.122	-432
449.193	-362
449.263	403
449.334	345
449.405	265
449.475	1702
449.546	4041
449.616	2414
449.687	4275
449.758	1814
449.828	-145
449.899	-172
449.969	-632
450.040	-55
450.110	-373
450.181	853
450.251	-49
450.322	-366
450.392	534
450.463	-569
450.533	-390
450.604	-556
450.674	-617
450.744	91
450.815	54
450.885	232
450.955	441
451.026	-560
451.096	-50
451.166	684
451.237	1099
451.307	8156
451.377	8561
451.447	1252
451.518	52
451.588	-281
451.658	-467
451.728	536
451.799	5750
451.869	15962
451.939	7321
452.009	1009
452.079	-518
452.149	83
452.219	746
452.289	7912
452.360	14864
452.430	5182
452.500	426
452.570	1073
452.640	2312
452.710	6580
452.780	15893
452.850	13881
452.920	9787
452.990	6056
453.060	1456
453.129	1987
453.199	2517
453.269	7627
453.339	37576
453.409	67574
453.479	43851
453.549	66906
453.619	82008
453.688	61103
453.758	13871
453.828	1461
453.898	1355
453.968	65
454.037	864
454.087	532
454.107	386
454.168	549
454.177	564
454.247	708
454.249	677
454.316	-486
454.330	-133
454.386	1132
454.411	2035
454.456	3332
454.492	6800
454.525	9891
454.574	8506
454.595	7952
454.655	2168
454.665	1230
454.734	691
454.736	745
454.804	1554
454.817	2803
454.873	7276
454.898	10436
454.943	16173
454.979	12468
455.013	9257
455.060	4591
455.082	2558
455.141	1556
455.152	1302
455.221	5168
455.222	5336
455.291	14121
455.303	13651
455.360	12204
455.384	9044
455.430	3344
455.465	3522
455.499	3475
455.546	6960
455.569	8230
455.627	10832
455.638	11473
455.707	3658
455.708	3648
455.777	1138
455.789	1139
455.846	1065
455.869	836
455.916	337
455.950	130
455.985	-107
456.031	310
456.054	518
456.112	417
456.124	379
456.193	245
456.193	233
456.262	282
456.274	480
456.332	1304
456.355	1427
456.401	1398
456.436	1247
456.470	1128
456.516	420
456.540	113
456.597	154
456.609	143
456.678	768
456.678	763
456.747	225
456.759	164
456.817	-310
456.840	-33
456.886	583
456.920	451
456.955	240
457.001	313
457.024	458
457.082	754
457.093	778
457.162	1844
457.163	1859
457.232	1854
457.243	1880
457.301	1775
457.324	1243
457.370	587
457.405	837
457.439	998
457.485	744
457.508	660
457.566	1369
457.577	1538
457.646	1757
457.647	1781
457.715	3324
457.727	3648
457.784	6349
457.808	7856
457.853	8992
457.889	11414
457.922	12468
457.969	10248
457.991	10818
458.050	11039
458.060	11158
458.129	17186
458.130	17422
458.198	17333
458.211	16226
458.267	13384
458.292	10019
458.336	6393
458.372	5160
458.405	5445
458.453	7576
458.474	9427
458.533	17005
458.543	17516
458.611	26410
458.614	26797
458.680	22729
458.694	18928
458.749	12005
458.775	8452
458.818	3739
458.855	2930
458.887	2231
458.936	2074
458.955	1962
459.016	1411
459.024	1382
459.093	2066
459.097	2056
459.162	1445
459.177	1587
459.230	2338
459.257	2554
459.299	2841
459.338	2734
459.368	2445
459.418	2782
459.437	2770
459.499	2604
459.505	2668
459.574	1908
459.579	1938
459.643	1827
459.659	1726
459.711	1772
459.740	1949
459.780	1987
459.820	1922
459.849	2063
459.900	2491
459.917	2497
459.981	2694
459.986	2730
460.054	3324
460.061	3279
460.123	2264
460.141	2229
460.191	3192
460.222	3661
460.260	3934
460.302	4668
460.328	4433
460.382	4000
460.397	4190
460.462	3277
460.465	3281
460.534	4448
460.543	4651
460.602	9237
460.623	10887
460.671	17210
460.703	22948
460.739	19749
460.783	17029
460.808	16499
460.864	7665
460.876	6928
460.944	2476
460.945	2421
461.013	2585
461.024	2539
461.081	2177
461.104	2212
461.150	2358
461.184	2491
461.218	2450
461.264	2137
461.286	2136
461.345	2140
461.355	2155
461.423	2725
461.425	2722
461.491	2177
461.505	2258
461.559	5171
461.585	6305
461.628	9995
461.665	13571
461.696	14217
461.745	17450
461.764	15688
461.825	8999
461.832	9270
461.901	4681
461.905	4578
461.969	2679
461.985	2690
462.037	2864
462.065	2739
462.105	3213
462.145	3696
462.173	4774
462.225	7037
462.241	7805
462.305	11480
462.310	11167
462.378	7623
462.385	6906
462.446	5033
462.465	4045
462.514	2516
462.545	2432
462.582	2463
462.625	2515
462.650	2491
462.705	2335
462.718	2468
462.785	3763
462.786	3786
462.854	4579
462.865	4743
462.922	5734
462.945	6298
462.990	5390
463.025	4459
463.058	4251
463.104	3288
463.126	2869
463.184	2016
463.194	2089
463.262	3141
463.264	3172
463.330	3451
463.344	3463
463.398	3405
463.424	3438
463.466	3099
463.504	2813
463.533	3049
463.583	3455
463.601	3454
463.663	3432
463.669	3575
463.737	4998
463.743	5167
463.805	9222
463.823	10335
463.873	15000
463.903	17984
463.940	17378
463.982	17522
464.008	14628
464.062	7971
464.076	8018
464.142	4556
464.144	4482
464.211	3422
464.221	3390
464.279	3255
464.301	3247
464.347	3705
464.381	4170
464.414	4556
464.461	4937
464.482	5061
464.540	5461
464.550	5432
464.617	5097
464.620	5076
464.685	5360
464.699	5389
464.753	6379
464.779	7025
464.820	7694
464.859	8203
464.888	7955
464.938	7519
464.956	7561
465.018	7471
465.023	7332
465.091	5647
465.098	5440
465.158	5889
465.177	6063
465.226	6556
465.257	6866
465.293	6086
465.336	5159
465.361	6057
465.416	8094
465.428	8605
465.495	11272
465.496	11338
465.563	19165
465.575	20511
465.631	23012
465.654	24371
465.698	15699
465.734	8057
465.765	7910
465.813	6651
465.833	6404
465.893	6475
465.900	6420
465.968	6220
465.972	6196
466.035	6039
466.052	5964
466.102	6340
466.131	6592
466.170	6384
466.210	6136
466.237	6286
466.290	6549
466.304	6589
466.369	6695
466.372	6730
466.439	7607
466.449	7716
466.506	9314
466.528	9903
466.573	13185
466.607	15651
466.641	21309
466.687	29126
466.708	31468
466.766	37962
466.775	35218
466.842	14472
466.845	13462
466.909	11129
466.925	10566
466.977	9708
467.004	9402
467.044	9347
467.083	9291
467.111	10111
467.163	11628
467.178	11793
467.242	12417
467.245	12373
467.312	11153
467.321	10979
467.379	10914
467.400	10864
467.446	11554
467.480	12026
467.559	9250
467.638	8316
467.717	8770
467.796	9226
467.875	10850
467.955	9876
468.034	16931
468.113	33033
468.192	45493
468.271	10858
468.350	10031
468.429	11649
468.508	11723
468.588	8875
468.667	7995
468.746	8113
468.825	7787
468.904	7648
468.983	8155
469.062	13183
469.141	15143
469.220	7405
469.299	7683
469.378	7742
469.456	9616
469.535	8694
469.614	8280
469.693	9262
469.772	11369
469.851	14581
469.930	9681
470.009	7339
470.088	7834
470.166	8658
470.245	12113
470.324	13018
470.403	8914
470.482	7712
470.560	6902
470.639	7401
470.718	9062
470.797	7704
470.875	8739
470.954	12050
471.033	13034
471.111	6045
471.190	6013
471.269	5367
471.347	6506
471.426	7174
471.505	7677
471.583	7999
471.662	7081
471.740	7218
471.819	6787
471.898	6581
471.976	6964
472.055	6378
472.133	7430
472.212	9455
472.290	10256
472.369	7473
472.447	5716
472.526	5566
472.604	6664
472.683	6544
472.761	6620
472.839	6166
472.918	6727
472.996	6945
473.075	6953
473.153	6801
473.231	6382
473.310	7717
473.388	6169
473.466	6135
473.545	8490
473.623	8846
473.701	8250
473.780	7121
473.858	5771
473.936	7249
474.014	6404
474.093	7289
474.171	10431
474.249	14402
474.327	9409
474.405	5468
474.484	5886
474.562	5296
474.640	5331
474.718	5923
474.796	6975
474.874	6082
474.952	4647
475.030	6004
475.108	7388
475.187	8255
475.265	7835
475.343	9703
475.421	10035
475.499	6033
475.577	6901
475.655	8753
475.733	16783
475.811	27656
475.889	25756
475.966	14522
476.044	5850
476.122	7219
476.200	8814
476.278	7723
476.356	5897
476.434	6907
476.512	8495
476.590	8651
476.667	7468
476.745	4887
476.823	6284
476.901	5738
476.979	6105
477.056	6001
477.134	6624
477.212	6102
477.290	5966
477.367	4416
477.445	6116
477.523	5163
477.601	5675
477.678	5657
477.756	6946
477.834	8123
477.911	4896
477.989	5649
478.066	5804
478.144	7159
478.222	7602
478.299	10384
478.377	8211
478.454	5210
478.532	4661
478.609	5556
478.687	5784
478.764	4917
478.842	6726
478.919	5821
478.997	5925
479.074	4656
479.152	5782
479.229	8033
479.307	4553
479.384	4245
479.461	5007
479.539	5318
479.616	6549
479.694	4479
479.771	6419
479.848	5715
479.926	8461
480.003	8788
480.080	5444
480.157	3974
480.235	5253
480.312	4459
480.389	6228
480.467	8888
480.544	11020
480.621	6533
480.698	5516
480.775	7132
480.853	6153
480.930	5350
481.007	5959
481.084	5671
481.161	6982
481.238	6331
481.315	5128
481.392	4598
481.470	6053
481.547	5330
481.624	5420
481.701	5051
481.778	5033
481.855	6227
481.932	9199
482.009	15479
482.086	9772
482.163	6365
482.240	8389
482.317	13763
482.393	9592
482.470	5268
482.547	5854
482.624	4914
482.701	5863
482.778	4838
482.855	4730
482.932	4796
483.009	5453
483.085	5272
483.162	7318
483.239	6726
483.316	5008
483.393	5378
483.469	4487
483.546	5431
483.623	5214
483.699	4536
483.776	4523
483.853	6244
483.930	10286
484.006	24257
484.083	41611
484.160	20935
484.236	31503
484.313	22800
484.389	16483
484.466	15562
484.543	15106
484.619	15893
484.696	16207
484.772	16462
484.849	17026
484.925	13779
485.002	13090
485.078	14628
485.155	14935
485.231	12919
485.308	12484
485.384	14253
485.461	17414
485.537	26758
485.614	29414
485.690	12460
485.766	12823
485.843	12257
485.919	16238
485.995	16711
486.072	11338
486.148	10683
486.224	11722
486.301	11686
486.377	14257
486.453	13476
486.530	13833
486.606	18846
486.682	19174
486.758	22590
486.835	24894
486.911	20445
486.987	32494
487.063	29524
487.139	33319
487.215	23316
487.292	14529
487.368	13066
487.444	14489
487.520	17475
487.596	18362
487.672	30398
487.748	71681
487.824	101643
487.900	29333
487.976	15258
488.052	15112
488.128	17290
488.204	14809
488.280	12131
488.356	15606
488.432	27997
488.508	42770
488.584	13921
488.660	10656
488.736	11000
488.812	12234
488.888	14130
488.964	17299
489.039	33075
489.115	46889
489.191	26400
489.267	10508
489.343	11389
489.418	9084
489.494	9341
489.570	9591
489.646	10265
489.722	9661
489.797	10223
489.873	16747
489.949	33767
490.024	26288
490.100	9610
490.176	8945
490.251	10507
490.327	13229
490.403	8770
490.478	8671
490.554	7308
490.629	8147
490.705	7725
490.781	8587
490.856	8257
490.932	9827
491.007	9420
491.083	8974
491.158	9073
491.234	11928
491.309	24843
491.385	23534
491.460	8460
491.536	8788
491.611	7086
491.686	9355
491.762	11623
491.837	20538
491.913	34467
491.988	46147
492.063	54987
492.139	17250
492.214	11345
492.289	7329
492.365	7306
492.440	8103
492.515	7836
492.590	7982
492.666	6587
492.741	10249
492.816	14198
492.891	7114
492.967	6455
493.042	4773
493.117	5534
493.192	5829
493.267	5446
493.342	7771
493.418	7963
493.493	5978
493.568	4996
493.643	6334
493.718	7901
493.793	11547
493.868	12684
493.943	7752
494.018	6198
494.093	6130
494.168	6395
494.243	5266
494.318	5176
494.393	5779
494.468	4860
494.543	5183
494.618	6804
494.693	4845
494.768	6068
494.842	5618
494.917	4571
494.992	4371
495.067	5012
495.142	4470
495.217	4809
495.292	5365
495.366	5547
495.441	8249
495.516	10034
495.591	16339
495.665	42337
495.740	93190
495.815	33835
495.890	8808
495.964	6698
496.039	8076
496.114	7276
496.188	8309
496.263	7861
496.338	7643
496.412	8767
496.487	10086
496.561	9342
496.636	10219
496.710	8366
496.785	10381
496.860	11562
496.934	8383
497.009	8315
497.083	8688
497.158	9265
497.232	10742
497.307	12760
497.381	11772
497.455	13038
497.530	17485
497.604	12958
497.679	13955
497.753	22232
497.827	28125
497.902	27431
497.976	32765
498.050	73066
498.125	236049
498.199	222305
498.273	42548
498.348	32732
498.422	25051
498.496	21903
498.570	18667
498.645	14394
498.719	14344
498.793	15164
498.867	23213
498.941	35338
499.016	98115
499.090	248470
499.164	73193
499.238	10548
499.312	9587
499.386	11395
499.460	10389
499.534	9296
499.609	11615
499.683	17589
499.757	18616
499.831	46236
499.905	165436
499.979	140715
500.053	20766
500.127	19167
500.201	11921
500.275	8961
500.349	8403
500.422	10555
500.496	15717
500.570	35006
500.644	88381
500.718	164291
500.792	30235
500.866	9109
500.940	11557
501.013	8916
501.087	8551
501.161	15381
501.235	24128
501.309	55728
501.382	147562
501.456	115487
501.530	27173
501.603	45049
501.677	14540
501.751	6537
501.825	10146
501.898	20537
501.972	57404
502.046	30492
502.119	9398
502.193	24937
502.266	61348
502.340	27182
502.413	27773
502.487	51186
502.561	27150
502.634	7643
502.708	8000
502.781	5766
502.855	4706
502.928	4665
503.002	5001
503.075	4509
503.149	4881
503.222	5019
503.295	5805
503.369	8070
503.442	13347
503.516	42519
503.589	102033
503.662	61850
503.736	20211
503.809	47807
503.882	38604
503.956	59350
504.029	52408
504.102	41852
504.175	52116
504.249	15822
504.322	9882
504.395	7540
504.468	6089
504.542	4857
504.615	4045
504.688	3465
504.761	4174
504.834	5762
504.907	6414
504.980	10141
505.053	5582
505.127	6120
505.200	8975
505.273	9147
505.346	5112
505.419	3920
505.492	3878
505.565	3929
505.638	3653
505.711	4136
505.784	3132
505.857	3124
505.930	4216
506.003	2502
506.076	5121
506.149	5279
506.221	7311
506.294	8740
506.367	23427
506.440	78825
506.513	35899
506.586	7851
506.659	4628
506.731	3812
506.804	4514
506.877	6267
506.950	4734
507.022	4315
507.095	5509
507.168	5693
507.241	3665
507.313	3680
507.386	3539
507.459	5665
507.531	2806
507.604	3680
507.677	3487
507.749	2759
507.822	4477
507.894	9895
507.967	12742
508.040	6670
508.112	6609
508.185	6062
508.257	4933
508.330	8213
508.402	5777
508.475	5059
508.547	5920
508.620	6035
508.692	9814
508.765	6401
508.837	4234
508.909	4283
508.982	4046
509.054	5376
509.127	3884
509.199	4019
509.271	3452
509.344	3213
509.416	4077
509.488	3534
509.560	3917
509.633	4877
509.705	5318
509.777	5130
509.849	6087
509.922	4424
509.994	3407
510.066	4326
510.138	4613
510.210	10884
510.283	9115
510.355	7441
510.427	5797
510.499	5665
510.571	5507
510.643	5626
510.715	10003
510.787	7627
510.859	6824
510.931	7151
511.003	8518
511.076	7910
511.148	5774
511.219	5942
511.291	8682
511.363	10891
511.435	4778
511.507	4930
511.579	5381
511.651	4901
511.723	3861
511.795	4145
511.867	5543
511.939	6748
512.010	13527
512.082	9248
512.154	4072
512.226	5529
512.298	7904
512.369	12178
512.441	8882
512.513	7342
512.585	6247
512.656	7252
512.728	6855
512.800	5510
512.871	6712
512.943	6637
513.015	5210
513.086	5592
513.158	5698
513.230	5863
513.301	8451
513.373	9338
513.444	5600
513.516	5301
513.588	5094
513.659	5701
513.731	7110
513.802	6782
513.874	12284
513.945	19082
514.016	6943
514.088	5154
514.159	5843
514.231	8164
514.302	10971
514.374	8007
514.445	7522
514.516	16280
514.588	11196
514.659	9110
514.730	15243
514.802	11335
514.873	9171
514.944	10722
515.016	8223
515.087	8240
515.158	11120
515.229	15713
515.301	11181
515.372	14672
515.443	8537
515.514	6400
515.585	5553
515.656	6386
515.728	5893
515.799	5165
515.870	5559
515.941	4948
516.012	5634
516.083	8243
516.154	8553
516.225	10774
516.296	8617
516.367	8147
516.438	7855
516.509	12509
516.580	22020
516.651	65285
516.722	196062
516.793	79878
516.864	15039
516.935	14598
517.006	18176
517.077	29095
517.148	75137
517.219	239113
517.289	348673
517.360	101932
517.431	29801
517.502	9345
517.573	9039
517.643	8788
517.714	9891
517.785	9894
517.856	9818
517.926	11870
517.997	11609
518.068	17048
518.138	26083
518.209	51626
518.280	172339
518.350	540630
518.421	192438
518.492	18530
518.562	12434
518.633	13348
518.703	15663
518.774	27375
518.845	63260
518.915	57577
518.986	18552
519.056	13980
519.127	21855
519.197	36093
519.268	82858
519.338	49949
519.408	12310
519.479	12907
519.549	10081
519.620	6656
519.690	5849
519.760	6233
519.831	5903
519.901	6735
519.971	5192
520.042	6499
520.112	7278
520.182	7106
520.253	7787
520.323	5157
520.393	8002
520.463	11650
520.534	7791
520.604	15704
520.674	8788
520.744	8445
520.814	18108
520.885	19240
520.955	30445
521.025	97605
521.095	34102
521.165	6032
521.235	6676
521.305	4722
521.375	5851
521.445	5082
521.515	6537
521.585	8732
521.655	7323
521.725	6752
521.795	6634
521.865	4563
521.935	8932
522.005	7369
522.075	4668
522.145	5568
522.215	5398
522.285	9010
522.355	12724
522.424	22770
522.494	18446
522.564	9583
522.634	16840
522.704	44625
522.774	16921
522.843	5790
522.913	4945
522.983	6230
523.053	5125
523.122	5005
523.192	7463
523.262	23377
523.331	22062
523.401	5394
523.471	3982
523.540	4345
523.610	3317
523.680	3738
523.749	3873
523.819	5364
523.888	6330
523.958	3734
524.027	4144
524.097	5221
524.166	4484
524.236	4619
524.305	5452
524.375	4138
524.444	3958
524.514	5085
524.583	5313
524.653	6446
524.722	7087
524.791	4352
524.861	4411
524.930	3915
524.999	3989
525.069	6407
525.138	5361
525.207	6474
525.277	4572
525.346	4567
525.415	5224
525.484	4999
525.554	5386
525.623	4465
525.692	5312
525.761	5085
525.830	5467
525.900	7406
525.969	12747
526.038	22551
526.107	46139
526.176	123580
526.245	92512
526.314	31683
526.383	65337
526.452	89360
526.522	143761
526.591	132372
526.660	28914
526.729	15909
526.797	23843
526.867	53538
526.935	181612
527.004	319961
527.073	164031
527.142	13273
527.211	6523
527.280	6897
527.349	6626
527.418	3346
527.487	4624
527.555	3042
527.624	2807
527.693	3101
527.762	4439
527.831	3154
527.899	3779
527.968	4298
528.037	2380
528.106	4929
528.174	8324
528.243	7590
528.312	9419
528.380	11354
528.449	3967
528.518	3626
528.586	2629
528.655	3157
528.723	2360
528.792	1866
528.861	3427
528.929	1701
528.998	2687
529.066	2896
529.135	2677
529.203	2097
529.272	2017
529.340	3113
529.409	3912
529.477	3137
529.545	4434
529.614	6542
529.682	4714
529.751	5938
529.819	7222
529.887	3942
529.956	3399
530.024	3539
530.092	2695
530.161	3520
530.229	5180
530.297	3533
530.365	3168
530.434	3077
530.502	2493
530.570	3383
530.638	1630
530.707	4162
530.775	4153
530.843	3296
530.911	3077
530.979	3220
531.047	2539
531.115	4148
531.183	3563
531.252	3932
531.320	2250
531.388	3740
531.456	3401
531.524	2431
531.592	4331
531.660	4083
531.728	2787
531.796	2792
531.864	2422
531.932	3683
532.000	2400
532.067	3981
532.135	3829
532.203	4423
532.271	4952
532.339	7580
532.407	17539
532.475	10031
532.542	5727
532.610	7591
532.678	11941
532.746	40833
532.814	89268
532.881	20939
532.949	5073
533.017	3735
533.084	3129
533.152	3252
533.220	3308
533.287	3977
533.355	4113
533.423	3684
533.490	2418
533.558	3421
533.625	3960
533.693	3357
533.761	5475
533.828	4489
533.896	4378
533.963	7175
534.031	9085
534.098	12944
534.166	6432
534.233	3844
534.300	4295
534.368	3690
534.435	3670
534.503	4549
534.570	4336
534.637	4521
534.705	5727
534.772	7968
534.840	15435
534.907	56306
534.974	68355
535.041	9132
535.109	5916
535.176	4143
535.243	4820
535.310	3649
535.378	3583
535.445	3680
535.512	3978
535.579	3848
535.646	3023
535.714	3917
535.781	5261
535.848	5372
535.915	5026
535.982	3510
536.049	3900
536.116	4989
536.183	4084
536.250	3356
536.317	4094
536.384	6031
536.451	6831
536.518	6601
536.585	4086
536.652	7064
536.719	8664
536.786	6227
536.853	5686
536.920	8804
536.987	14509
537.053	14421
537.120	44731
537.187	39593
537.254	4827
537.321	4487
537.388	4771
537.454	2983
537.521	4056
537.588	3693
537.654	5584
537.721	5696
537.788	6121
537.855	3827
537.921	4517
537.988	4875
538.055	4689
538.121	4875
538.188	5113
538.254	6919
538.321	11398
538.388	7698
538.454	4578
538.521	5103
538.587	5151
538.654	4096
538.720	5116
538.787	4598
538.853	4344
538.920	5814
538.986	5997
539.053	4704
539.119	4399
539.185	5590
539.252	5446
539.318	7317
539.385	6825
539.451	5822
539.517	6570
539.583	8012
539.650	15022
539.716	33542
539.782	10347
539.849	4929
539.915	5499
539.981	4977
540.047	5355
540.114	4774
540.180	5467
540.246	5233
540.312	6642
540.378	12198
540.444	13983
540.510	16124
540.576	38381
540.643	12879
540.709	4024
540.775	4190
540.841	4647
540.907	6984
540.973	10917
541.039	8621
541.105	8526
541.171	4758
541.237	4935
541.303	5263
541.369	6447
541.435	7640
541.500	10672
541.566	7805
541.632	4412
541.698	4782
541.764	5126
541.830	3929
541.896	4282
541.961	4532
542.027	4359
542.093	4320
542.159	5898
542.224	5381
542.290	8308
542.356	10048
542.421	12433
542.487	6962
542.553	5184
542.618	6223
542.684	5430
542.750	5485
542.815	7581
542.881	11491
542.947	32465
543.012	25716
543.078	4978
543.143	5084
543.209	5027
543.274	5647
543.340	7248
543.405	13948
543.471	20370
543.536	6454
543.602	5424
543.667	3846
543.732	4800
543.798	4396
543.863	4004
543.928	4162
543.994	4580
544.059	5084
544.124	4940
544.190	3665
544.255	5064
544.320	5553
544.386	5156
544.451	6369
544.516	8479
544.581	9309
544.646	21129
544.712	33747
544.777	8338
544.842	6373
544.907	7229
544.972	6712
545.037	5790
545.102	7110
545.168	6882
545.233	7086
545.298	8572
545.363	9080
545.428	9726
545.493	15276
545.558	27682
545.623	13891
545.688	7358
545.753	7169
545.818	6157
545.883	7649
545.947	7208
546.012	7427
546.077	8094
546.142	8434
546.207	7373
546.272	9662
546.337	9642
546.401	9424
546.466	8263
546.531	7565
546.596	9212
546.661	8474
546.725	8702
546.790	9804
546.855	9468
546.919	9580
546.984	10368
547.049	11431
547.113	12906
547.178	13459
547.243	15466
547.307	17641
547.372	19977
547.436	20816
547.501	18891
547.565	20060
547.630	19982
547.695	18896
547.759	20228
547.823	19183
547.888	18365
547.952	18639
548.017	19772
548.081	21075
548.146	22933
548.210	21608
548.274	21446
548.339	19758
548.403	19026
548.468	18075
548.532	17814
548.596	18493
548.660	19037
548.725	20749
548.789	22954
548.853	23456
548.917	20764
548.982	21335
549.046	21820
549.110	16399
549.174	16854
549.238	18415
549.303	20109
549.367	20359
549.431	19045
549.495	18846
549.559	18890
549.623	22246
549.687	24973
549.751	27205
549.815	27964
549.879	29923
549.943	26434
550.007	27593
550.071	28580
550.135	27657
550.199	23351
550.263	23435
550.327	22997
550.391	25887
550.455	25724
550.519	25827
550.582	28163
550.646	33783
550.710	34272
550.774	31781
550.838	30434
550.901	32531
550.965	33987
551.029	36501
551.093	39727
551.156	44999
551.220	60298
551.284	67840
551.347	47659
551.411	51985
551.475	52881
551.538	35279
551.602	31928
551.666	28695
551.729	26080
551.793	27056
551.856	27035
551.920	25978
551.983	26130
552.047	26779
552.110	26787
552.174	26286
552.237	27491
552.301	25329
552.364	24328
552.428	23725
552.491	23404
552.554	25828
552.618	25379
552.681	26703
552.745	26648
552.808	32693
552.871	36541
552.934	29228
552.998	25071
553.061	26210
553.124	24731
553.187	24206
553.251	24570
553.314	24440
553.377	24024
553.440	26710
553.503	27473
553.567	28566
553.630	26708
553.693	26536
553.756	26868
553.819	25340
553.882	24939
553.945	25654
554.008	24558
554.071	24641
554.134	25606
554.197	23080
554.260	23026
554.323	23920
554.386	25270
554.449	25183
554.512	25197
554.575	23787
554.638	23760
554.701	23669
554.764	22814
554.827	23678
554.889	21139
554.952	21144
555.015	20240
555.078	20577
555.141	21020
555.203	20832
555.266	20449
555.329	21444
555.391	19520
555.454	19162
555.517	20290
555.580	17832
555.642	18021
555.705	17690
555.768	16734
555.830	17431
555.893	16869
555.955	16275
556.018	16205
556.080	16562
556.143	16667
556.206	15730
556.268	16274
556.330	16302
556.393	16440
556.455	16082
556.518	17578
556.580	18246
556.643	13892
556.705	14744
556.767	13052
556.830	15011
556.892	13798
556.955	17912
557.017	15311
557.079	13586
557.142	13600
557.204	13842
557.266	19033
557.328	16979
557.391	11558
557.453	10837
557.515	11616
557.577	12949
557.639	12458
557.701	12171
557.764	10004
557.826	11278
557.888	13102
557.950	13236
558.012	16840
558.074	22088
558.136	39426
558.198	87885
558.260	33930
558.322	13144
558.384	12966
558.446	14820
558.508	16140
558.570	21819
558.632	34029
558.694	55011
558.756	79290
558.818	174484
558.880	409957
558.942	134661
559.003	89277
559.065	46523
559.127	18775
559.189	21340
559.251	28837
559.312	47086
559.374	88110
559.436	258028
559.498	133374
559.559	21251
559.621	21384
559.683	30618
559.744	50113
559.806	121444
559.868	186206
559.929	38077
559.991	24951
560.052	35323
560.114	88255
560.176	62943
560.237	51406
560.299	81893
560.360	21097
560.422	10122
560.483	9228
560.545	9241
560.606	8404
560.667	8771
560.729	7716
560.790	7491
560.852	8688
560.913	8855
560.974	8246
561.036	7338
561.097	7332
561.158	8474
561.220	7808
561.281	7996
561.342	8031
561.403	10889
561.465	11356
561.526	18562
561.587	24065
561.648	10184
561.709	8328
561.771	7798
561.832	7009
561.893	7516
561.954	7076
562.015	7591
562.076	8185
562.137	7921
562.198	7115
562.259	8485
562.320	7723
562.381	8374
562.442	10131
562.503	9590
562.564	8192
562.625	7256
562.686	7291
562.747	8665
562.808	8860
562.869	7725
562.930	9530
562.991	9546
563.051	7972
563.112	7925
563.173	7919
563.234	7324
563.294	8174
563.355	7562
563.416	8087
563.477	8157
563.537	7742
563.598	8208
563.659	7506
563.720	7289
563.780	8290
563.841	7793
563.901	8210
563.962	7819
564.023	8039
564.083	8049
564.144	8738
564.204	8546
564.265	8301
564.325	10068
564.386	15727
564.446	15165
564.507	7829
564.567	8352
564.628	7635
564.688	7347
564.749	8013
564.809	8837
564.869	10316
564.930	8271
564.990	7833
565.050	7537
565.111	8030
565.171	8185
565.231	7639
565.292	8845
565.352	7608
565.412	8577
565.472	8061
565.532	8663
565.593	8638
565.653	7094
565.713	9141
565.773	9296
565.833	10639
565.893	11755
565.953	8762
566.013	9360
566.074	9905
566.134	12574
566.194	16297
566.254	16824
566.314	12320
566.374	9737
566.434	10947
566.494	9614
566.554	10738
566.614	11161
566.673	11463
566.733	11810
566.793	12614
566.853	13139
566.913	12997
566.973	14103
567.033	14346
567.092	13552
567.152	13941
567.212	14148
567.272	14094
567.331	15621
567.391	15918
567.451	17534
567.511	18459
567.570	19745
567.630	14190
567.690	14462
567.749	13661
567.809	15806
567.868	16687
567.928	18752
567.988	23627
568.047	28336
568.107	36347
568.166	49736
568.226	74657
568.285	103325
568.345	84265
568.404	63395
568.464	54218
568.523	51860
568.582	54850
568.642	66118
568.701	83852
568.761	117076
568.820	177640
568.879	171273
568.939	119646
568.998	86537
569.057	66412
569.116	53280
569.176	42185
569.235	36353
569.294	31189
569.353	27945
569.413	23853
569.472	23059
569.531	20231
569.590	18702
569.649	18613
569.708	16234
569.767	16431
569.827	17305
569.886	15373
569.945	13486
570.004	13420
570.063	12166
570.122	13426
570.181	13525
570.240	13108
570.299	13441
570.358	14137
570.417	11164
570.475	11174
570.534	11617
570.593	11511
570.652	10814
570.711	12058
570.770	9966
570.829	10664
570.887	10597
570.946	10976
571.005	10137
571.064	10505
571.122	11184
571.181	10995
571.240	10283
571.299	8689
571.357	10363
571.416	9772
571.475	10227
571.533	12146
571.592	10159
571.650	10852
571.709	8722
571.768	9979
571.826	9632
571.885	9299
571.943	9412
572.002	8805
572.060	8699
572.119	8632
572.177	7907
572.236	9048
572.294	8621
572.352	8478
572.411	8984
572.469	8888
572.528	9320
572.586	9569
572.644	9296
572.703	12575
572.761	9892
572.819	8843
572.877	7839
572.936	7811
572.994	8448
573.052	7172
573.110	9256
573.169	9313
573.227	7923
573.285	8769
573.343	8308
573.401	8076
573.459	9108
573.517	8651
573.576	8827
573.634	8143
573.692	9148
573.750	9147
573.808	8094
573.866	9839
573.924	9856
573.982	10065
574.040	8939
574.098	8513
574.155	8070
574.213	8213
574.271	8015
574.329	8505
574.387	8897
574.445	7907
574.503	7341
574.560	7235
574.618	7445
574.676	7437
574.734	7815
574.792	7453
574.849	8249
574.907	6811
574.965	7577
575.022	7052
575.080	7143
575.138	8287
575.195	7505
575.253	8443
575.311	8260
575.368	7713
575.426	8063
575.483	8184
575.541	7900
575.598	7141
575.656	8540
575.713	7526
575.771	8102
575.828	7476
575.886	8222
575.943	8178
576.001	8412
576.058	7962
576.115	8924
576.173	9490
576.230	9376
576.287	10223
576.345	8952
576.402	9176
576.459	8785
576.517	7738
576.574	8941
576.631	9742
576.688	9738
576.746	9358
576.803	8707
576.860	8044
576.917	8462
576.974	8520
577.031	8495
577.089	8690
577.146	8556
577.203	8684
577.260	9350
577.317	9060
577.374	10250
577.431	9722
577.488	8132
577.545	9045
577.602	8462
577.659	8398
577.716	8282
577.773	8222
577.830	8193
577.886	8449
577.943	8348
578.000	8701
578.057	9019
578.114	9208
578.171	7994
578.227	8279
578.284	8577
578.341	9024
578.398	9576
578.454	10035
578.511	9174
578.568	10900
578.625	9862
578.681	8838
578.738	9024
578.794	9057
578.851	9904
578.908	8914
578.964	9047
579.021	9856
579.077	9187
579.134	9101
579.190	9188
579.247	8376
579.303	9722
579.360	8558
579.416	9247
579.473	9170
579.529	7907
579.586	8644
579.642	9697
579.698	8886
579.755	10252
579.811	10142
579.867	9127
579.924	8904
579.980	8672
580.036	10201
580.093	9334
580.149	9748
580.205	9374
580.261	9914
580.317	9919
580.374	10284
580.430	11320
580.486	11735
580.542	8931
580.598	10400
580.619	10560
580.654	10846
580.692	10353
580.710	10128
580.765	10116
580.767	10124
580.823	10496
580.838	10337
580.879	9947
580.911	10056
580.935	10151
580.984	10800
580.991	10905
581.047	10951
581.057	11035
581.103	11377
581.130	11010
581.159	10683
581.203	11120
581.215	11240
581.270	10675
581.276	10658
581.326	10603
581.349	10539
581.382	10425
581.422	11113
581.438	11425
581.494	12096
581.494	12086
581.550	11663
581.567	11484
581.606	11132
581.640	11134
581.661	11144
581.713	11714
581.717	11766
581.773	11081
581.786	11142
581.829	11298
581.859	11752
581.885	12192
581.932	11637
581.940	11531
581.996	12312
582.004	12149
582.052	11362
582.077	11631
582.107	11901
582.150	12083
582.163	12165
582.219	11803
582.223	11819
582.274	11963
582.296	12010
582.330	12172
582.368	12275
582.386	12295
582.441	11718
582.441	11720
582.497	11695
582.514	11973
582.552	12494
582.587	12679
582.608	12818
582.659	11698
582.663	11624
582.719	12689
582.732	12813
582.774	13109
582.805	12403
582.830	11830
582.877	12944
582.885	13121
582.941	12087
582.950	12206
582.996	12907
583.023	12942
583.052	13022
583.095	13392
583.107	13470
583.162	13334
583.168	13343
583.218	13392
583.240	13381
583.273	13415
583.313	13433
583.328	13477
583.384	13339
583.385	13350
583.439	13235
583.458	13266
583.494	13557
583.531	13740
583.549	13759
583.603	13911
583.605	13925
583.660	13641
583.676	13786
583.715	13940
583.748	14249
583.770	14526
583.820	15492
583.825	15574
583.881	13510
583.893	13616
583.936	14112
583.965	14144
583.991	14121
584.038	14703
584.046	14822
584.101	14835
584.110	14814
584.156	14481
584.183	14502
584.211	14629
584.255	14945
584.266	14986
584.321	15503
584.328	15478
584.376	15667
584.400	15908
584.431	15986
584.472	16106
584.486	16150
584.541	15704
584.545	15770
584.596	16782
584.617	16521
584.651	16367
584.689	16961
584.706	17098
584.761	17234
584.762	17241
584.816	18138
584.834	18202
584.871	18274
584.906	18980
584.926	19193
584.978	18793
584.980	18781
585.035	18956
585.051	19062
585.090	19831
585.123	21101
585.145	21812
585.195	21312
585.200	21276
585.254	22615
585.267	23005
585.309	24278
585.340	25262
585.364	26106
585.412	28917
585.419	29358
585.473	35515
585.484	36813
585.528	42680
585.556	47860
585.583	54901
585.628	68939
585.637	75366
585.692	134116
585.700	147373
585.747	224376
585.772	212129
585.801	150934
585.845	70003
585.856	57489
585.910	34237
585.917	31997
585.965	29463
585.989	28933
586.019	28498
586.061	27882
586.074	27886
586.128	27996
586.133	28067
586.183	28873
586.205	28952
586.237	29297
586.277	30264
586.292	30412
586.346	30558
586.349	30588
586.401	31272
586.421	31582
586.455	32230
586.493	33401
586.509	34465
586.564	37680
586.565	37873
586.618	48142
586.637	49500
586.672	48159
586.709	43513
586.727	40962
586.781	39184
586.781	39181
586.835	38517
586.853	38575
586.889	38648
586.925	38530
586.944	38925
586.996	40341
586.998	40383
587.052	42072
587.068	42888
587.106	44233
587.140	44980
587.161	45594
587.212	46932
587.215	46979
587.269	48597
587.284	49067
587.323	50788
587.356	52437
587.377	53371
587.427	55855
587.431	56033
587.485	58640
587.499	59363
587.539	61660
587.571	63556
587.593	65060
587.643	68472
587.648	68785
587.702	72852
587.715	73887
587.755	77471
587.786	81072
587.810	83854
587.858	88830
587.864	89490
587.917	96872
587.930	98811
587.971	106088
588.001	111489
588.025	115994
588.073	126081
588.079	127541
588.133	141598
588.145	144993
588.187	157247
588.217	166437
588.241	175619
588.288	195988
588.295	199057
588.348	227505
588.360	234167
588.402	261803
588.431	283513
588.456	304331
588.503	347010
588.510	354410
588.564	423527
588.575	439246
588.617	512891
588.646	565660
588.671	627391
588.718	753405
588.725	779178
588.778	986332
588.789	1029737
588.832	1236663
588.861	1370216
588.886	1405512
588.932	1405603
588.939	1375618
588.993	1089776
589.004	1062482
589.047	1307055
589.075	1439756
589.100	1424183
589.147	1328197
589.154	1295550
589.207	1034701
589.218	983845
589.261	883954
589.290	826264
589.314	824056
589.361	831933
589.368	847216
589.421	993789
589.433	1027032
589.475	1209328
589.504	1325173
589.528	1324887
589.576	1250690
589.582	1245036
589.635	1262434
589.647	1258464
589.689	1198864
589.718	1125252
589.742	979595
589.790	694177
589.795	675095
589.849	505494
589.861	468265
589.902	397948
589.932	348168
589.955	320927
590.004	265604
590.009	261716
590.062	223929
590.075	214940
590.115	195580
590.146	181042
590.168	172436
590.218	154300
590.222	153205
590.275	139607
590.289	136394
590.328	128100
590.360	121053
590.381	117459
590.431	109197
590.435	108684
590.488	100877
590.503	98714
590.541	95096
590.574	91773
590.594	89549
590.645	84426
590.647	84243
590.700	79278
590.716	77807
590.753	74582
590.787	71836
590.806	71047
590.859	68873
590.859	68826
590.912	65689
590.930	64647
590.965	63029
591.001	61557
591.018	60739
591.071	58321
591.072	58295
591.124	56504
591.143	55870
591.177	55205
591.214	54712
591.230	54364
591.283	53082
591.285	53022
591.336	51532
591.356	50953
591.389	50633
591.427	50142
591.442	49573
591.495	47458
591.498	47305
591.547	46151
591.569	45621
591.600	45017
591.640	44105
591.653	44054
591.706	43927
591.711	43914
591.759	43002
591.782	42480
591.811	43679
591.853	45597
591.864	45058
591.917	42046
591.924	41586
591.969	40920
591.995	40628
592.022	40446
592.066	40090
592.075	40262
592.127	41271
592.137	41448
592.180	42568
592.208	43262
592.233	42253
592.279	40162
592.285	39999
592.338	38567
592.350	38227
592.390	37966
592.421	37753
592.443	37371
592.491	36484
592.495	36461
592.548	36030
592.562	35904
592.600	35895
592.633	35864
592.653	35551
592.704	34514
592.705	34703
592.775	34270
592.846	36282
592.916	34302
592.987	34964
593.058	34072
593.128	33117
593.199	32933
593.270	32359
593.341	31937
593.411	33071
593.482	32373
593.553	32554
593.623	31423
593.694	32763
593.764	33153
593.835	32850
593.906	31316
593.976	30678
594.047	31975
594.117	34758
594.188	36283
594.258	32622
594.329	30871
594.399	31341
594.470	31064
594.540	31339
594.611	31305
594.681	31878
594.751	31982
594.822	32126
594.892	33459
594.963	33707
595.033	34397
595.103	34054
595.174	34073
595.244	39099
595.314	47548
595.384	38816
595.455	33800
595.525	35556
595.595	35828
595.665	36665
595.736	35546
595.806	35782
595.876	35670
595.946	35699
596.016	35401
596.087	37043
596.157	37233
596.227	36433
596.297	38702
596.367	39458
596.437	41394
596.507	44558
596.577	50428
596.647	44326
596.717	42297
596.787	43203
596.857	41971
596.927	42978
596.997	42034
597.067	42743
597.137	44101
597.207	44002
597.277	44753
597.347	44201
597.417	42562
597.487	42804
597.557	43160
597.626	43514
597.696	44441
597.766	46627
597.836	49228
597.906	46214
597.975	40196
598.045	39495
598.115	39865
598.185	42735
598.254	45470
598.324	49576
598.394	49584
598.464	50512
598.533	49528
598.603	46333
598.672	44590
598.742	45593
598.812	45127
598.881	45551
598.951	45879
599.020	45016
599.090	45708
599.159	48263
599.229	46926
599.299	45328
599.368	45793
599.437	46100
599.507	43954
599.576	41844
599.646	41638
599.715	42096
599.785	41600
599.854	41468
599.924	41952
599.993	41293
600.062	40439
600.132	41154
600.201	41801
600.270	46986
600.340	50681
600.409	48724
600.478	49079
600.547	49540
600.617	49422
600.686	41471
600.755	37273
600.824	37375
600.894	35061
600.963	35583
601.032	34655
601.101	34678
601.170	33545
601.239	33309
601.308	32969
601.378	33943
601.447	32363
601.516	32816
601.585	32910
601.654	35773
601.723	33529
601.792	33298
601.861	34646
601.930	35744
601.999	37978
602.068	36266
602.137	37371
602.206	38957
602.275	37416
602.343	37756
602.412	39125
602.481	38531
602.550	36463
602.619	38000
602.688	38223
602.756	39451
602.825	39140
602.894	39005
602.963	40055
603.032	41054
603.100	39866
603.169	40283
603.238	40902
603.307	40697
603.375	40004
603.444	41516
603.513	40449
603.581	42315
603.650	42750
603.719	41216
603.787	40623
603.856	42810
603.924	43285
603.993	45668
604.061	44736
604.130	47450
604.198	47763
604.267	48459
604.335	49557
604.404	50351
604.472	49987
604.541	51495
604.609	50564
604.678	52663
604.746	51195
604.815	52896
604.883	53418
604.951	52973
605.020	53185
605.088	54488
605.156	54963
605.225	55064
605.293	54663
605.361	55699
605.429	55784
605.498	56660
605.566	58473
605.634	60026
605.702	62114
605.771	64668
605.839	65166
605.907	63303
605.975	61379
606.043	61513
606.111	60416
606.180	60115
606.248	58429
606.316	58291
606.384	60106
606.452	61175
606.520	62078
606.588	62201
606.656	59983
606.724	60748
606.792	56918
606.860	52569
606.928	47033
606.996	46120
607.064	43901
607.132	45287
607.200	47089
607.267	49838
607.335	49689
607.403	50520
607.471	50848
607.539	47790
607.607	49302
607.674	45701
607.742	43135
607.810	44498
607.878	43696
607.946	44959
608.013	45402
608.081	47400
608.149	47857
608.216	47549
608.284	49302
608.352	48593
608.419	51002
608.487	52123
608.555	50029
608.622	49015
608.690	50066
608.757	54616
608.825	58399
608.893	58172
608.960	56215
609.028	57364
609.095	56937
609.163	54576
609.230	49456
609.298	43411
609.365	43922
609.432	47311
609.500	50929
609.567	56265
609.635	63279
609.702	70520
609.769	69101
609.837	60569
609.904	49424
609.971	50050
610.039	54245
610.106	69612
610.173	120634
610.241	290136
610.308	353803
610.375	178959
610.442	75514
610.509	54228
610.577	51182
610.644	49564
610.711	49715
610.778	51483
610.845	51661
610.912	55582
610.980	56549
611.047	57792
611.114	58051
611.181	56732
611.248	54371
611.315	57261
611.382	58775
611.449	60196
611.516	61791
611.583	61099
611.650	61691
611.717	62172
611.784	62724
611.851	66704
611.918	71959
611.984	82986
612.051	111116
612.118	210031
612.185	535260
612.252	650948
612.319	143766
612.386	84000
612.452	76283
612.519	72386
612.586	72700
612.653	72536
612.719	70052
612.786	70245
612.853	64370
612.919	62298
612.986	63441
613.053	60639
613.120	56584
613.186	54824
613.253	55536
613.319	54408
613.386	54026
613.453	56537
613.519	57459
613.586	57293
613.652	63541
613.719	61191
613.785	60344
613.852	57565
613.918	56142
613.985	55323
614.051	58349
614.118	57942
614.184	57821
614.250	55294
614.317	56109
614.383	55941
614.449	56681
614.516	57880
614.582	57985
614.648	57286
614.715	56456
614.781	55595
614.847	55113
614.914	57176
614.980	54662
615.046	53316
615.112	54271
615.179	57941
615.245	58686
615.311	63669
615.377	79254
615.443	100696
615.509	72069
615.575	63909
615.642	62471
615.708	62828
615.774	66260
615.840	72591
615.906	81720
615.972	107530
616.038	177633
616.104	327528
616.170	642771
616.236	972193
616.302	241386
616.368	118205
616.434	88216
616.500	74780
616.565	75804
616.631	95544
616.697	89077
616.763	80767
616.829	103266
616.895	187547
616.961	242103
617.026	119754
617.092	66620
617.158	61252
617.224	58850
617.289	55231
617.355	53025
617.421	51799
617.487	52621
617.552	50349
617.618	47600
617.684	48775
617.749	49323
617.815	47349
617.880	45378
617.946	45667
618.012	45636
618.077	48233
618.143	46856
618.208	46238
618.274	48039
618.339	51491
618.405	45557
618.470	42067
618.536	43286
618.601	43418
618.667	41457
618.732	39722
618.798	38300
618.863	38386
618.928	36927
618.994	37499
619.059	39246
619.124	42087
619.190	41289
619.255	37834
619.320	36506
619.386	37631
619.451	37092
619.516	36288
619.581	36548
619.647	37873
619.712	38155
619.777	36018
619.842	36278
619.907	37777
619.972	37986
620.038	38276
620.103	35987
620.168	36883
620.233	36171
620.298	36162
620.363	37152
620.428	37356
620.493	37857
620.558	38471
620.623	37537
620.688	39635
620.753	37950
620.818	39853
620.883	37861
620.948	38855
621.013	38100
621.078	38918
621.143	37880
621.207	41443
621.272	37942
621.337	39463
621.402	39149
621.467	41929
621.532	43537
621.596	40510
621.661	39144
621.726	37882
621.791	36992
621.855	39280
621.920	38616
621.985	39600
622.049	41618
622.114	41449
622.179	40226
622.243	40587
622.308	42065
622.373	43156
622.437	43646
622.502	40706
622.566	38680
622.631	40346
622.695	40819
622.760	41310
622.824	40333
622.889	40188
622.953	40523
623.018	45788
623.082	51552
623.147	43260
623.211	41401
623.276	42341
623.340	40453
623.404	38339
623.469	37185
623.533	39112
623.597	38061
623.662	38270
623.726	36685
623.790	34581
623.854	33192
623.919	34322
623.983	33203
624.047	34161
624.111	34470
624.176	35427
624.240	36124
624.304	39360
624.368	35230
624.432	35074
624.496	36025
624.560	37564
624.625	38606
624.689	37746
624.753	36642
624.817	38145
624.881	36327
624.945	34120
625.009	31703
625.073	33538
625.137	33932
625.201	38115
625.265	39411
625.329	34732
625.393	34607
625.456	35950
625.520	35419
625.584	37131
625.648	38772
625.712	45597
625.776	66548
625.839	86819
625.903	59620
625.967	33459
626.031	35881
626.095	55882
626.158	44125
626.222	28932
626.286	26048
626.349	25183
626.413	24025
626.477	24890
626.540	24233
626.604	24223
626.668	23298
626.731	22615
626.795	23241
626.858	24310
626.922	23314
626.986	23345
627.049	22013
627.113	23357
627.176	22762
627.240	22908
627.303	22048
627.366	22330
627.430	22413
627.493	23191
627.557	22841
627.620	22596
627.684	22735
627.747	24063
627.810	22496
627.874	22483
627.937	20045
628.000	21497
628.064	20575
628.127	19411
628.190	17937
628.253	19341
628.317	17544
628.380	17553
628.443	16012
628.506	18140
628.569	17338
628.632	15392
628.696	15856
628.759	15497
628.822	14696
628.885	15042
628.948	14592
629.011	15214
629.074	14925
629.137	15021
629.200	14327
629.263	15317
629.326	13547
629.389	14130
629.452	13501
629.515	14489
629.578	13637
629.641	14875
629.704	14834
629.767	14917
629.830	13896
629.892	13687
629.955	13000
630.018	14679
630.081	13419
630.144	15228
630.207	14445
630.269	14561
630.332	13592
630.395	14171
630.458	13098
630.520	12778
630.583	12578
630.646	12073
630.708	12365
630.771	13012
630.834	12625
630.896	11805
630.959	12186
631.021	12599
631.084	12536
631.146	13303
631.209	13068
631.272	13758
631.334	12568
631.397	12778
631.459	12617
631.522	12593
631.584	12759
631.646	14523
631.709	13839
631.771	15479
631.834	15248
631.896	14345
631.958	11874
632.021	12716
632.083	11664
632.145	12577
632.208	11941
632.270	12869
632.332	11303
632.395	11053
632.457	11454
632.519	11706
632.581	11090
632.643	11087
632.706	11582
632.768	11469
632.830	10686
632.892	11228
632.954	11284
633.016	12599
633.078	11473
633.141	11525
633.203	11176
633.265	11643
633.327	11156
633.389	11713
633.451	12138
633.513	14496
633.575	13426
633.637	12966
633.698	13101
633.760	12635
633.822	10852
633.884	12198
633.946	12714
634.008	12228
634.070	12417
634.132	13290
634.193	12602
634.255	14753
634.317	14972
634.379	15534
634.441	14134
634.502	12278
634.564	11692
634.626	12219
634.687	11120
634.749	11414
634.811	11050
634.873	10907
634.934	10064
634.996	10893
635.057	10128
635.119	11148
635.181	10943
635.242	11208
635.304	10054
635.365	12111
635.427	9814
635.488	11413
635.550	10437
635.611	11131
635.673	9355
635.734	12579
635.796	11464
635.857	12893
635.918	12637
635.980	13968
636.041	14381
636.102	15275
636.164	14698
636.225	15250
636.286	13513
636.348	12864
636.409	11256
636.470	10973
636.531	10583
636.593	10241
636.654	11265
636.715	9873
636.776	8965
636.838	9876
636.899	10047
636.960	9872
637.021	9179
637.082	9207
637.143	8944
637.204	8557
637.265	8273
637.326	9277
637.387	8805
637.448	8839
637.509	8725
637.570	8460
637.631	8767
637.692	7949
637.753	8359
637.814	8545
637.875	8244
637.936	8986
637.997	6825
638.058	9015
638.119	8471
638.179	9464
638.240	8385
638.301	7806
638.362	7256
638.423	8315
638.483	8177
638.544	7973
638.605	8353
638.666	7852
638.726	7729
638.787	8833
638.848	7187
638.908	8666
638.969	7443
639.030	7597
639.090	6688
639.151	7885
639.211	7660
639.272	8840
639.332	11021
639.393	11090
639.453	6902
639.514	8130
639.574	6719
639.635	7480
639.695	6847
639.756	7289
639.816	7296
639.877	7878
639.937	9719
639.997	12674
640.058	8843
640.118	6497
640.178	6726
640.239	7542
640.299	5495
640.359	7027
640.420	6427
640.480	8207
640.540	7596
640.600	8783
640.661	8133
640.721	6903
640.781	9557
640.841	7562
640.901	7124
640.961	7173
641.021	6682
641.082	8447
641.142	9173
641.202	9028
641.262	5157
641.322	7401
641.382	5904
641.442	7169
641.502	6153
641.562	6994
641.622	5491
641.682	6962
641.742	7134
641.802	7685
641.861	7042
641.921	6997
641.981	6865
642.041	7452
642.101	7167
642.161	7510
642.221	5422
642.280	6863
642.340	5765
642.400	5936
642.460	6617
642.519	7523
642.579	5825
642.639	6469
642.698	4513
642.758	7643
642.818	5483
642.877	6071
642.937	6173
642.997	7084
643.056	8067
643.116	8605
643.175	6851
643.235	6888
643.294	6937
643.354	7331
643.414	7679
643.473	8742
643.532	10365
643.592	14663
643.651	21516
643.711	38271
643.770	69283
643.830	145239
643.889	448598
643.948	282303
644.008	30395
644.067	13887
644.126	9691
644.186	8931
644.245	8155
644.304	6438
644.363	7433
644.423	6201
644.482	6050
644.541	6930
644.600	6049
644.659	8413
644.719	8430
644.778	12526
644.837	19529
644.896	37541
644.955	98235
645.014	83065
645.073	12319
645.132	7458
645.191	7768
645.250	6997
645.309	6343
645.368	6654
645.427	7913
645.486	11431
645.545	22693
645.604	14906
645.663	6093
645.722	6533
645.781	6695
645.840	7992
645.898	8769
645.957	12872
646.016	18547
646.075	34712
646.134	64511
646.192	139784
646.251	388584
646.310	138909
646.369	17345
646.427	11394
646.486	8416
646.545	7679
646.603	7236
646.662	6235
646.721	5295
646.779	6073
646.838	4898
646.896	7404
646.955	8555
647.014	12759
647.072	20770
647.131	53490
647.189	67579
647.248	10626
647.306	7062
647.365	5924
647.423	3496
647.481	5454
647.540	3953
647.598	4907
647.657	4156
647.715	4343
647.773	4818
647.832	4297
647.890	3341
647.948	4556
648.007	4347
648.065	4228
648.123	3326
648.181	4538
648.240	3387
648.298	4320
648.356	3323
648.414	4434
648.472	4253
648.531	5021
648.589	3939
648.647	4030
648.705	3739
648.763	4289
648.821	3170
648.879	4680
648.937	4857
648.995	5939
649.053	6458
649.111	9352
649.169	15843
649.227	27987
649.285	50929
649.343	147428
649.401	188577
649.459	28382
649.516	15320
649.574	6811
649.632	6330
649.690	6976
649.748	6926
649.806	8981
649.863	15068
649.921	34422
649.979	56135
650.037	11135
650.094	4157
650.152	4760
650.210	3667
650.268	4706
650.325	3377
650.383	3516
650.440	2937
650.498	3390
650.556	3416
650.613	3290
650.671	3559
650.728	3802
650.786	2923
650.843	3877
650.901	3867
650.958	3551
651.016	3432
651.073	3108
651.131	3309
651.188	2319
651.246	2571
651.303	3050
651.360	3496
651.418	3028
651.475	2843
651.532	2804
651.590	2886
651.647	1928
651.704	2346
651.762	3550
651.819	2333
651.876	2764
651.933	2230
651.990	3091
652.048	1792
652.105	2289
652.162	2960
652.219	2079
652.276	3056
652.333	2338
652.390	1979
652.448	2930
652.505	2512
652.562	2640
652.619	2146
652.676	2934
652.733	2664
652.790	2257
652.847	1673
652.904	4030
652.961	2039
653.017	1759
653.074	2536
653.131	3159
653.188	2085
653.245	2911
653.302	2165
653.359	3216
653.415	3268
653.472	2578
653.529	1752
653.586	1907
653.642	2607
653.699	3309
653.756	2161
653.813	1970
653.869	2221
653.926	2171
653.983	1707
654.039	2926
654.096	1784
654.152	3579
654.209	1091
654.266	3563
654.322	1481
654.379	3717
654.435	3173
654.492	2768
654.548	2973
654.605	4722
654.661	5110
654.717	3166
654.774	2339
654.830	2243
654.887	2176
654.943	3082
655.000	2503
655.056	2170
655.112	2625
655.168	2069
655.225	2672
655.281	3032
655.337	2438
655.394	5119
655.450	4602
655.506	3670
655.562	3149
655.618	6917
655.675	2195
655.731	2558
655.787	1961
655.843	3306
655.899	1157
655.955	2918
656.011	1080
656.067	1999
656.123	2251
656.179	2244
656.235	2292
656.291	1579
656.347	2556
656.403	2143
656.459	2225
656.515	2194
656.571	2384
656.627	2788
656.683	1767
656.739	3837
656.795	1681
656.850	2782
656.906	2200
656.962	3046
657.018	2153
657.074	1898
657.129	2560
657.185	4190
657.241	5283
657.297	7525
657.352	2918
657.408	1815
657.464	2830
657.519	2257
657.575	1489
657.630	2524
657.686	1839
657.742	1551
657.797	2264
657.853	1988
657.908	3072
657.964	2048
658.019	1598
658.075	2660
658.130	1652
658.186	1688
658.241	1892
658.297	2405
658.352	1353
658.407	2656
658.463	1566
658.518	2300
658.573	1953
658.629	1615
658.684	896
658.739	2260
658.795	965
658.850	1477
658.905	1449
658.960	2281
659.016	1143
659.071	2238
659.126	1626
659.181	859
659.236	2787
659.291	4503
659.346	2617
659.401	2757
659.457	2013
659.512	1850
659.567	2010
659.622	2067
659.677	1456
659.732	1040
659.787	1238
659.842	2068
659.897	2403
659.952	2558
660.007	1381
660.061	1572
660.116	1450
660.171	2199
660.226	1095
660.281	2544
660.336	556
660.391	1813
660.445	826
660.500	2940
660.555	1335
660.610	1337
660.664	1787
660.719	1150
660.774	2248
660.828	2381
660.883	2559
660.938	1821
660.992	922
661.047	2183
661.101	1530
661.156	989
661.211	1478
661.265	2068
661.320	2103
661.374	1497
661.429	1368
661.483	2467
661.538	1592
661.592	2149
661.647	1593
661.701	2691
661.755	1335
661.810	2402
661.864	846
661.919	876
661.973	1644
662.027	1449
662.081	1138
662.136	2100
662.190	2082
662.244	1751
662.299	1628
662.353	1948
662.407	1524
662.461	1279
662.515	1329
662.569	1746
662.624	2155
662.678	2243
662.732	1204
662.786	1618
662.840	1441
662.894	2014
662.948	1775
663.002	1478
663.056	1278
663.110	1010
663.164	1477
663.218	2272
663.272	1841
663.326	2569
663.380	1010
663.434	2078
663.488	1567
663.542	2355
663.595	1648
663.649	888
663.703	1738
663.757	2155
663.811	803
663.864	1415
663.918	1891
663.972	1558
664.026	941
664.079	1757
664.133	1588
664.187	2182
664.240	1203
664.294	1596
664.348	1682
664.401	2081
664.455	1944
664.508	1287
664.562	1739
664.615	1744
664.669	571
664.722	1912
664.776	1625
664.829	1370
664.883	1164
664.936	1014
664.990	1158
665.043	2112
665.097	1519
665.150	2816
665.203	1391
665.257	1705
665.310	1945
665.363	1292
665.417	2157
665.470	2171
665.523	1293
665.576	2445
665.630	1203
665.683	1642
665.736	1671
665.789	2367
665.842	1199
665.895	2014
665.949	1980
666.002	1710
666.055	2193
666.108	2190
666.161	1781
666.214	2577
666.267	1834
666.320	2291
666.373	2484
666.426	2087
666.479	1860
666.532	2470
666.585	1965
666.638	2711
666.691	1936
666.744	2821
666.796	2053
666.849	2998
666.902	2333
666.955	2359
667.008	1690
667.060	1548
667.113	1270
667.166	1832
667.219	1626
667.271	1585
667.324	1830
667.377	2293
667.430	1891
667.482	835
667.535	2130
667.587	2540
667.640	1832
667.693	2749
667.745	2855
667.798	5084
667.850	2331
667.903	2177
667.955	1347
668.008	1429
668.060	2011
668.113	2061
668.165	2515
668.218	2856
668.270	1576
668.322	2215
668.375	1417
668.427	1896
668.479	1573
668.532	2374
668.584	2263
668.636	2236
668.689	1694
668.741	1734
668.793	2232
668.845	2480
668.898	2374
668.950	2419
669.002	1877
669.054	1969
669.106	1488
669.158	1939
669.211	941
669.263	2411
669.315	2413
669.367	2398
669.419	1750
669.471	2903
669.523	1910
669.575	3337
669.627	3147
669.679	2814
669.731	1450
669.783	2672
669.835	2619
669.886	3284
669.938	2783
669.990	2691
670.042	2177
670.094	3140
670.146	2648
670.197	4026
670.249	4258
670.301	5417
670.353	7037
670.404	10504
670.456	13139
670.508	22666
670.560	38304
670.611	64467
670.663	111541
670.715	214682
670.766	471969
670.818	349137
670.869	67904
670.921	22528
670.972	12554
671.024	9501
671.075	7208
671.127	5733
671.178	4320
671.230	4674
671.281	4170
671.333	3112
671.384	2607
671.436	3992
671.487	3584
671.538	4849
671.590	6049
671.641	9520
671.692	13245
671.744	27767
671.795	32424
671.846	12205
671.897	4803
671.949	3581
672.000	3153
672.051	3150
672.102	2612
672.153	1202
672.204	2325
672.256	2486
672.307	1794
672.358	1455
672.409	1894
672.460	2351
672.511	1836
672.562	1675
672.613	1763
672.664	1979
672.715	1288
672.766	1911
672.817	1625
672.868	1573
672.919	1345
672.970	1997
673.021	1397
673.071	1186
673.122	813
673.173	2052
673.224	1738
673.275	1844
673.326	972
673.376	2229
673.427	621
673.478	2081
673.528	1393
673.579	1936
673.630	1712
673.680	1846
673.731	1299
673.782	1560
673.832	908
673.883	1199
673.934	449
673.984	796
674.035	1253
674.085	1363
674.136	1749
674.186	1218
674.237	2317
674.287	2324
674.338	2291
674.388	1710
674.438	619
674.489	1790
674.539	1264
674.589	2350
674.640	615
674.690	2724
674.740	284
674.791	2232
674.841	1430
674.891	1857
674.942	1193
674.992	1159
675.042	250
675.092	1723
675.142	1163
675.193	895
675.243	1012
675.293	1346
675.343	385
675.393	1564
675.443	2040
675.493	1374
675.543	422
675.593	676
675.643	1077
675.693	1674
675.743	604
675.793	1923
675.843	223
675.893	1492
675.943	895
675.993	838
676.043	654
676.093	1674
676.142	246
676.192	1343
676.242	1523
676.292	1216
676.341	284
676.391	1564
676.441	1227
676.491	1595
676.540	1233
676.590	1114
676.640	365
676.689	1265
676.739	52
676.789	1975
676.838	415
676.888	1375
676.937	-78
676.987	1009
677.037	133
677.086	786
677.136	21
677.185	1046
677.235	439
677.284	766
677.333	6
677.383	1101
677.432	854
677.482	766
677.531	906
677.580	762
677.630	1228
677.679	868
677.728	283
677.778	451
677.827	291
677.876	1075
677.925	893
677.975	164
678.024	1204
678.073	719
678.122	251
678.171	711
678.220	329
678.269	1024
678.319	1688
678.368	1444
678.417	495
678.466	1925
678.515	771
678.564	1307
678.613	870
678.662	721
678.711	363
678.760	1605
678.809	806
678.857	984
678.906	756
678.955	689
679.004	-259
679.053	936
679.102	158
679.151	1299
679.199	492
679.248	606
679.297	87
679.346	284
679.394	538
679.443	960
679.492	348
679.540	360
679.589	824
679.638	1281
679.686	438
679.735	669
679.784	733
679.832	1528
679.881	710
679.929	906
679.978	-114
680.026	742
680.075	610
680.123	945
680.172	-316
680.220	785
680.268	137
680.317	359
680.365	457
680.414	131
680.462	511
680.510	724
680.559	-211
680.607	1083
680.655	467
680.703	-26
680.752	325
680.800	548
680.848	531
680.896	835
680.945	280
680.993	770
681.041	-49
681.089	1089
681.137	399
681.185	232
681.233	7
681.258	401
681.281	702
681.329	-163
681.377	995
681.380	1083
681.425	1249
681.473	1613
681.502	1478
681.521	1260
681.569	2495
681.617	1637
681.624	1790
681.665	2170
681.713	1685
681.745	2250
681.761	2413
681.809	2169
681.857	2615
681.867	2562
681.904	2052
681.952	2526
681.989	2887
682.000	2903
682.048	2993
682.096	3363
682.111	3573
682.143	3802
682.191	2775
682.233	4275
682.239	4424
682.286	3498
682.334	4670
682.354	4213
682.382	3443
682.430	4433
682.476	4044
682.477	3968
682.525	4478
682.572	4136
682.598	4168
682.620	4058
682.667	4382
682.715	4596
682.720	4745
682.763	5608
682.810	5456
682.841	5006
682.857	4645
682.905	5461
682.952	6173
682.963	6260
683.000	6325
683.047	6125
683.085	7229
683.095	7442
683.142	5882
683.190	6999
683.206	7078
683.237	7107
683.284	7736
683.328	7129
683.332	7023
683.379	6977
683.426	6760
683.449	7284
683.473	7673
683.521	7817
683.568	8282
683.571	8286
683.615	7665
683.662	8799
683.693	8432
683.709	8153
683.757	8458
683.804	8415
683.814	8468
683.851	8420
683.898	8630
683.936	9288
683.945	9394
683.992	8870
684.039	9806
684.057	9584
684.086	9178
684.133	10021
684.179	9605
684.180	9543
684.227	10699
684.274	10574
684.300	10724
684.321	10707
684.368	10338
684.415	10859
684.422	10796
684.462	10261
684.509	10439
684.543	10274
684.556	10134
684.603	11030
684.649	11125
684.665	11032
684.696	10904
684.743	11480
684.786	11967
684.790	11965
684.837	11619
684.883	12825
684.908	12827
684.930	12882
684.977	13053
685.023	13810
685.029	13875
685.070	13595
685.117	13279
685.150	13765
685.164	14029
685.210	13687
685.257	14601
685.272	14494
685.303	14143
685.350	14948
685.393	14888
685.396	14834
685.443	15178
685.490	14895
685.514	15063
685.536	15280
685.583	15545
685.629	15528
685.636	15602
685.675	15455
685.722	15630
685.757	15547
685.768	15619
685.815	16325
685.861	16245
685.878	16221
685.908	15976
685.954	15927
686.000	16684
686.000	16684
686.047	16735
686.093	17554
686.121	17783
686.139	17953
686.185	18964
686.232	19077
686.242	19200
686.278	18561
686.324	18131
686.363	17462
686.370	17420
686.416	17232
686.463	17211
686.484	17080
686.509	17035
686.555	17304
686.601	17000
686.606	17133
686.647	18252
686.693	17420
686.727	17876
686.739	17984
686.785	17143
686.831	17778
686.848	17721
686.877	17770
686.923	18085
686.969	17552
686.969	17544
687.015	17775
687.061	17820
687.090	18002
687.107	18209
687.153	18500
687.199	19185
687.211	19111
687.245	18615
687.291	18671
687.332	18124
687.336	18137
687.382	19843
687.428	19826
687.453	20486
687.474	20533
687.520	19162
687.565	19296
687.574	19122
687.611	18984
687.657	19887
687.695	19961
687.702	19991
687.748	20111
687.794	20058
687.816	20600
687.839	21117
687.885	20035
687.931	20853
687.937	20831
687.976	20466
688.022	20825
688.058	20291
688.067	20276
688.113	20810
688.158	20604
688.179	20904
688.204	21087
688.249	20562
688.295	21283
688.300	21250
688.340	21525
688.386	22247
688.421	22322
688.431	22253
688.477	22194
688.522	22226
688.542	22374
688.567	22622
688.613	21806
688.658	22060
688.663	22018
688.703	21912
688.749	21583
688.784	21937
688.794	22097
688.839	22418
688.884	22353
688.905	22579
688.930	22685
688.975	22215
689.020	22320
689.026	22233
689.065	22192
689.110	22984
689.146	22462
689.155	22301
689.201	22743
689.246	22522
689.267	22830
689.291	23274
689.336	22541
689.381	22709
689.388	22667
689.426	22737
689.471	23072
689.509	23053
689.516	23016
689.561	23586
689.606	22672
689.630	22489
689.651	22561
689.696	22858
689.741	23401
689.750	23392
689.785	23369
689.830	22801
689.871	22716
689.875	22748
689.920	23405
689.965	23246
689.992	23429
690.010	23578
690.054	23239
690.099	23410
690.112	23341
690.144	23421
690.189	24188
690.233	23904
690.233	23934
690.278	23706
690.323	23624
690.354	23209
690.367	23214
690.412	23287
690.457	23672
690.474	23694
690.501	23754
690.546	23766
690.590	23884
690.595	23877
690.635	24065
690.680	23888
690.716	23826
690.724	23899
690.769	23805
690.813	24270
690.836	24169
690.857	24143
690.902	24332
690.946	24317
690.957	24336
690.991	24774
691.035	24911
691.077	26010
691.080	26127
691.124	26413
691.168	27174
691.198	27504
691.213	27567
691.257	28131
691.301	27852
691.318	27851
691.346	27773
691.390	27695
691.434	27535
691.439	27459
691.478	26917
691.522	26591
691.559	25660
691.567	25714
691.611	26540
691.655	26524
691.680	27011
691.699	27406
691.743	27469
691.787	27844
691.800	27818
691.831	27773
691.875	28674
691.919	28387
691.921	28349
691.964	29151
692.008	29099
692.041	29273
692.052	29367
692.096	29582
692.139	30099
692.162	29878
692.183	29518
692.227	29761
692.271	29058
692.282	29022
692.315	29310
692.359	29220
692.402	29489
692.403	29547
692.447	29044
692.490	28923
692.523	28451
692.534	28468
692.578	29377
692.622	29307
692.643	29394
692.666	29471
692.709	29557
692.753	29683
692.763	29577
692.797	29395
692.840	29430
692.884	29203
692.884	29264
692.928	28998
692.971	29271
693.004	29436
693.015	29565
693.059	29568
693.102	29649
693.124	29602
693.146	29657
693.189	29825
693.233	29632
693.245	29567
693.276	29890
693.320	30196
693.363	30755
693.365	30702
693.407	30754
693.450	30714
693.485	30451
693.493	30503
693.537	31112
693.580	31069
693.605	31006
693.624	30990
693.667	31156
693.710	31021
693.725	30962
693.753	31321
693.797	31598
693.840	31958
693.845	31981
693.883	33261
693.926	33839
693.966	34818
693.970	34764
694.013	33239
694.056	31544
694.086	30417
694.099	30568
694.142	30763
694.185	31095
694.206	31213
694.229	31557
694.272	31636
694.315	32138
694.326	32198
694.358	32405
694.401	32413
694.444	32210
694.446	32143
694.487	32847
694.530	33242
694.566	33850
694.573	33891
694.616	33167
694.659	32718
694.686	32225
694.702	31930
694.745	31025
694.787	29946
694.806	29555
694.830	29849
694.873	29997
694.916	30221
694.926	30163
694.959	30469
695.002	31003
695.044	31430
695.046	31373
695.087	31455
695.130	31587
695.166	31426
695.172	31497
695.215	31442
695.258	31568
695.286	31497
695.301	31701
695.343	32334
695.386	32550
695.406	32712
695.428	32713
695.471	32465
695.514	32252
695.526	32055
695.556	32219
695.599	32722
695.641	32837
695.646	32797
695.684	33099
695.726	33243
695.766	33320
695.769	33394
695.811	33211
695.854	33119
695.886	32824
695.896	32837
695.938	32714
695.981	32581
696.005	32439
696.023	32622
696.065	32724
696.108	32950
696.125	32917
696.150	33254
696.192	33812
696.235	34243
696.245	34316
696.277	34373
696.319	33965
696.361	34065
696.365	33943
696.404	33512
696.446	33332
696.485	32879
696.488	32964
696.530	33105
696.572	33056
696.604	33113
696.614	33251
696.656	33217
696.698	33453
696.724	33442
696.740	33379
696.783	33008
696.825	32560
696.844	32306
696.867	32478
696.909	32594
696.951	32741
696.964	32707
696.992	33078
697.034	33419
697.076	33773
697.083	33748
697.118	33982
697.160	34091
697.202	34344
697.203	34257
697.244	34274
697.286	34286
697.323	34003
697.327	34067
697.369	33992
697.411	33821
697.442	33714
697.453	33880
697.494	34059
697.536	34315
697.562	34349
697.578	34509
697.620	34737
697.661	34866
697.682	34866
697.703	34895
697.744	34770
697.786	34702
697.801	34552
697.828	35408
697.869	36585
697.911	37876
697.921	38084
697.952	37233
697.994	35906
698.035	34644
698.040	34396
698.077	34710
698.118	34902
698.160	35141
698.160	35046
698.201	34816
698.243	34414
698.279	34023
698.284	34175
698.325	34701
698.367	35228
698.399	35519
698.408	35677
698.449	35974
698.491	36283
698.518	36371
698.532	36423
698.573	36282
698.614	36135
698.638	35942
698.656	36138
698.697	36400
698.738	36639
698.757	36651
698.779	36960
698.820	37343
698.862	37736
698.877	37778
698.903	37965
698.944	38094
698.985	38224
698.996	38155
699.026	38258
699.067	38254
699.116	38146
699.235	37375
699.354	36261
699.474	35394
699.593	37713
699.713	38808
699.832	34549
699.951	36393
700.070	36578
700.190	34956
700.309	34405
700.428	34236
700.547	35290
700.667	33931
700.786	35078
700.905	35093
701.024	32554
701.143	35776
701.262	32358
701.381	31325
701.500	32844
701.619	35042
701.738	33204
701.857	33324
701.976	31582
702.095	31821
702.214	31742
702.333	34530
702.452	32323
702.571	32285
702.690	31686
702.809	31648
702.928	30456
703.047	29975
703.165	31356
703.284	30393
703.403	29206
703.522	31162
703.640	32277
703.759	31749
703.878	37635
703.997	34662
704.115	30060
704.234	29441
704.353	29131
704.471	29123
704.590	27812
704.708	27672
704.827	27312
704.946	28049
705.064	29296
705.183	29154
705.301	30836
705.420	40080
705.538	46099
705.656	37840
705.775	33132
705.893	34364
706.012	37623
706.130	37183
706.249	36482
706.367	35590
706.485	36519
706.604	37386
706.722	35715
706.840	36929
706.958	39977
707.077	37218
707.195	34027
707.313	33986
707.431	33257
707.549	33388
707.668	32468
707.786	33113
707.904	32693
708.022	32817
708.140	32225
708.258	31909
708.376	31786
708.494	31626
708.612	32799
708.730	39756
708.848	49056
708.966	42236
709.084	39682
709.202	37737
709.320	39251
709.438	38723
709.556	39621
709.674	38562
709.791	38126
709.909	36908
710.027	36641
710.145	38722
710.263	37202
710.380	36619
710.498	37521
710.616	35680
710.733	35370
710.851	36479
710.969	36323
711.086	35780
711.204	35712
711.322	34597
711.439	33704
711.557	35630
711.674	34442
711.792	34324
711.909	32261
712.027	32676
712.144	32820
712.262	33118
712.379	34385
712.497	41540
712.614	53555
712.732	46827
712.849	40964
712.966	39245
713.084	44503
713.201	44931
713.318	42431
713.436	42055
713.553	42217
713.670	41721
713.787	42583
713.905	45977
714.022	41648
714.139	39435
714.256	43139
714.373	46321
714.490	56863
714.608	84163
714.725	237936
714.842	756782
714.959	176259
715.076	49927
715.193	40345
715.310	39289
715.427	37076
715.544	36417
715.661	35010
715.778	36006
715.895	37170
716.011	38289
716.128	37326
716.245	33947
716.362	36564
716.479	38989
716.596	35371
716.713	34045
716.829	33162
716.946	34400
717.063	32628
717.180	32849
717.296	32481
717.413	31762
717.530	31538
717.646	31640
717.763	31285
717.880	29895
717.996	29575
718.113	31477
718.229	28969
718.346	30613
718.462	28177
718.579	29858
718.695	35812
718.812	42696
718.928	34679
719.045	36400
719.161	26692
719.277	28252
719.394	27723
719.510	27776
719.626	28769
719.743	33582
719.859	36733
719.975	42927
720.092	82033
720.208	293988
720.324	192175
720.440	36928
720.557	30653
720.673	34337
720.789	42888
720.905	61765
721.021	71612
721.137	30178
721.253	28487
721.369	27712
721.486	28347
721.602	32813
721.718	30572
721.834	25108
721.950	25545
722.066	24171
722.181	25393
722.297	24316
722.413	25851
722.529	22633
722.645	23947
722.761	23616
722.877	24068
722.993	23118
723.108	23721
723.224	25189
723.340	23738
723.456	23505
723.571	22445
723.687	22891
723.803	21502
723.918	22121
724.034	22801
724.150	23377
724.265	22500
724.381	28400
724.497	50054
724.612	28370
724.728	20981
724.843	20146
724.959	21628
725.074	26347
725.190	46603
725.305	26564
725.421	21935
725.536	20562
725.651	19437
725.767	20090
725.882	19720
725.997	19599
726.113	19580
726.228	18976
726.343	19303
726.459	18701
726.574	18092
726.689	20394
726.804	17731
726.920	18534
727.035	18871
727.150	19591
727.265	18833
727.380	19649
727.495	18814
727.610	17175
727.725	18595
727.841	18757
727.956	18052
728.071	19468
728.186	19399
728.301	17334
728.416	17432
728.531	17727
728.645	16452
728.760	17659
728.875	18530
728.990	17794
729.105	17794
729.220	17414
729.335	17222
729.449	17189
729.564	16883
729.679	15923
729.794	16299
729.908	17125
730.023	17113
730.138	16815
730.253	15018
730.367	16210
730.482	14667
730.596	16236
730.711	15326
730.826	16953
730.940	15658
731.055	15527
731.169	16696
731.284	15384
731.398	15577
731.513	17079
731.627	17719
731.742	17693
731.856	20246
731.970	18288
732.085	17697
732.199	21392
732.313	26448
732.428	44177
732.542	111378
732.656	189323
732.771	49721
732.885	23192
732.999	19336
733.113	19357
733.227	18280
733.342	17535
733.456	17198
733.570	17150
733.684	15647
733.798	16527
733.912	16360
734.026	15980
734.140	14783
734.254	15681
734.368	17921
734.482	30230
734.596	18486
734.710	15193
734.824	15142
734.938	14285
735.052	14786
735.166	15312
735.280	16086
735.393	14937
735.507	14607
735.621	15853
735.735	21246
735.849	23830
735.962	14473
736.076	15199
736.190	15022
736.303	14624
736.417	22386
736.531	17134
736.644	14888
736.758	13358
736.872	13251
736.985	13056
737.099	13469
737.212	13055
737.326	13874
737.439	12588
737.553	13259
737.666	13145
737.780	12419
737.893	13010
738.007	12745
738.120	12832
738.233	12381
738.347	12546
738.460	12736
738.573	13404
738.687	13094
738.800	13256
738.913	13693
739.026	14013
739.140	12660
739.253	11917
739.366	11871
739.479	12697
739.592	12021
739.705	11835
739.818	12160
739.932	11576
740.045	11848
740.158	12052
740.271	11655
740.384	12040
740.497	11268
740.610	12570
740.723	11443
740.836	11578
740.949	12352
741.062	12396
741.174	14896
741.287	12555
741.400	10677
741.513	11300
741.626	11898
741.739	12053
741.851	11178
741.964	11460
742.077	10578
742.189	11831
742.302	11443
742.415	11106
742.527	11167
742.640	10943
742.753	11443
742.865	10473
742.978	10752
743.090	10870
743.203	11353
743.316	10333
743.428	9484
743.541	10586
743.653	9684
743.766	10902
743.878	11467
743.990	11155
744.103	13265
744.215	10335
744.327	10308
744.440	10633
744.552	12901
744.664	12644
744.777	10065
744.889	9603
745.001	9614
745.113	9877
745.226	9781
745.338	10305
745.450	10235
745.562	11096
745.674	9680
745.786	9502
745.898	9234
746.010	9656
746.122	10005
746.234	9763
746.347	9831
746.459	10138
746.570	9169
746.682	8817
746.794	8843
746.906	9723
747.018	8796
747.130	9999
747.242	9696
747.354	9111
747.466	9962
747.577	9033
747.689	8884
747.801	9452
747.913	8004
748.024	9078
748.136	9037
748.248	9230
748.359	9090
748.471	8953
748.583	8495
748.694	9176
748.806	9133
748.918	10424
749.029	10306
749.141	9185
749.252	10015
749.364	8945
749.475	11327
749.587	14841
749.698	9367
749.809	9318
749.921	8297
750.032	8768
750.144	8227
750.255	8319
750.366	8701
750.478	7967
750.589	8531
750.700	8763
750.811	8662
750.923	9137
751.034	10437
751.145	18843
751.256	11078
751.367	9256
751.479	8664
751.590	8195
751.701	8897
751.812	9074
751.923	8510
752.034	8075
752.145	8824
752.256	7976
752.367	7914
752.478	8268
752.589	8683
752.700	8335
752.811	7811
752.922	8083
753.032	7238
753.143	10143
753.254	8173
753.365	7959
753.476	8014
753.586	8004
753.697	7713
753.808	7626
753.919	7149
754.029	7258
754.140	7735
754.251	6969
754.361	7683
754.472	7883
754.582	7320
754.693	7729
754.804	7733
754.914	7533
755.025	7571
755.135	7656
755.246	7245
755.356	7197
755.466	7529
755.577	7257
755.687	7724
755.798	6620
755.908	7307
756.018	7450
756.129	7118
756.239	7609
756.349	7533
756.460	7582
756.570	7953
756.680	7879
756.790	7897
756.900	7645
757.011	7053
757.121	8675
757.231	6776
757.341	6816
757.451	7062
757.561	6626
757.671	6388
757.781	6721
757.891	7667
758.001	7001
758.111	7715
758.221	7538
758.331	7272
758.441	8689
758.551	8644
758.661	9927
758.771	8069
758.880	7595
758.990	8022
759.100	8399
759.210	7585
759.320	7413
759.429	7724
759.539	7995
759.649	7879
759.758	8508
759.868	8889
759.978	8115
760.087	8414
760.197	8710
760.307	8665
760.416	8526
760.526	8162
760.635	8188
760.745	8495
760.854	7853
760.964	8928
761.073	9052
761.182	8774
761.292	8876
761.401	8543
761.511	9041
761.620	7328
761.729	7550
761.839	7681
761.948	8415
762.057	7888
762.166	7549
762.276	6584
762.385	7487
762.494	7182
762.603	7642
762.712	6628
762.822	7983
762.931	7120
763.040	7250
763.149	6993
763.258	7490
763.367	7432
763.476	7054
763.585	7063
763.694	8019
763.803	7467
763.912	8340
764.021	7494
764.130	7078
764.238	8376
764.347	7460
764.456	7580
764.565	8351
764.674	7879
764.783	8046
764.891	7551
765.000	8455
765.109	7743
765.217	8364
765.326	8228
765.435	9643
765.543	9954
765.652	9345
765.761	9334
765.869	10982
765.978	14669
766.086	20546
766.195	34637
766.303	71096
766.412	222959
766.520	553654
766.629	228318
766.737	46175
766.846	24326
766.954	17202
767.062	14947
767.171	12151
767.279	11584
767.387	10585
767.496	9583
767.604	10190
767.712	8339
767.820	8861
767.928	8990
768.037	8704
768.145	7855
768.253	8873
768.361	8206
768.469	8377
768.577	8069
768.685	8004
768.793	8537
768.901	8742
769.009	7880
769.117	8877
769.225	9112
769.333	10653
769.441	12496
769.549	18014
769.657	30348
769.765	74669
769.873	273050
769.981	335955
770.088	52146
770.196	19457
770.304	13122
770.412	11582
770.519	10432
770.627	9532
770.735	8808
770.842	9103
770.950	8688
771.058	8627
771.165	8180
771.273	8338
771.380	8512
771.488	8457
771.595	8638
771.703	8756
771.810	8203
771.918	8763
772.025	8319
772.133	8624
772.240	8862
772.348	9026
772.455	8577
772.562	9330
772.670	7763
772.777	8681
772.884	7931
772.991	9109
773.099	8322
773.206	7930
773.313	8286
773.420	7920
773.528	7711
773.635	7529
773.742	8313
773.849	8510
773.956	8086
774.063	8185
774.170	7828
774.277	7832
774.384	8217
774.491	8002
774.598	7869
774.705	8596
774.812	9033
774.919	10199
775.026	8399
775.133	8339
775.239	7843
775.346	8267
775.453	7341
775.560	8240
775.667	7695
775.773	8257
775.880	7863
775.987	8086
776.093	7627
776.200	7922
776.307	7123
776.413	8215
776.520	6968
776.627	7557
776.733	7452
776.840	7381
776.946	8093
777.053	7600
777.159	7259
777.266	7323
777.372	7739
777.478	7863
777.585	8436
777.691	7661
777.798	7250
777.904	7552
778.010	7584
778.117	9521
778.223	7921
778.329	7706
778.435	7030
778.542	7762
778.648	7671
778.754	6941
778.860	6974
778.966	6991
779.072	6911
779.178	7166
779.284	6980
779.391	7099
779.497	6178
779.603	7411
779.708	6409
779.815	7433
779.920	7509
780.026	11389
780.132	10679
780.238	6853
780.344	6307
780.450	7018
780.556	7351
780.661	6469
780.767	6531
780.873	6970
780.979	6097
781.085	6238
781.190	7270
781.296	7031
781.402	6086
781.507	6235
781.613	6769
781.719	6283
781.824	6648
781.930	7386
782.035	6784
782.141	6804
782.246	6230
782.352	6195
782.457	7162
782.563	6695
782.668	6536
782.773	6260
782.879	6796
782.984	6645
783.090	7289
783.195	6996
783.300	9060
783.405	7246
783.511	6332
783.616	6505
783.721	6670
783.826	7090
783.932	6374
784.037	7220
784.142	6773
784.247	6532
784.352	6723
784.457	6113
784.562	6746
784.667	6228
784.772	6454
784.877	6214
784.982	5551
785.087	6185
785.192	6209
785.297	6942
785.402	6033
785.507	6609
785.611	5743
785.716	5944
785.821	5870
785.926	5634
786.031	5004
786.135	5359
786.240	5827
786.345	5333
786.450	5607
786.554	5383
786.659	5709
786.763	5261
786.868	5684
786.973	6392
787.077	5519
787.182	6291
787.286	4151
787.391	5522
787.495	5675
787.600	5304
787.704	4442
787.809	5867
787.913	4711
788.017	5228
788.122	4573
788.226	5488
788.330	3714
788.435	5502
788.539	5035
788.643	5000
788.747	4768
788.852	5229
788.956	5372
789.060	5675
789.164	5113
789.268	4312
789.372	5382
789.476	4718
789.580	5543
789.684	5830
789.788	4198
789.892	5034
789.996	5650
790.100	5085
790.204	4365
790.308	5979
790.412	5378
790.516	4584
790.620	5318
790.724	5382
790.828	4887
790.931	4931
791.035	5396
791.139	4511
791.242	4948
791.346	5652
791.450	5636
791.554	5431
791.657	4719
791.761	4892
791.864	5349
791.968	5177
792.072	5850
792.175	5056
792.279	4266
792.382	4492
792.486	4585
792.589	4322
792.693	6107
792.796	4532
792.899	4537
793.003	4433
793.106	4065
793.209	3930
793.313	5072
793.416	3529
793.519	5267
793.623	5605
793.726	6433
793.829	6478
793.932	4023
794.035	4089
794.138	5232
794.242	4195
794.345	5756
794.448	5050
794.551	5743
794.654	7981
794.757	7111
794.860	7331
794.963	6903
795.066	4156
795.169	4945
795.272	3829
795.375	4835
795.477	4094
795.580	4411
795.683	4347
795.786	4409
795.889	4472
795.991	4648
796.094	4374
796.197	5122
796.300	4929
796.402	4422
796.505	4103
796.608	4241
796.710	3855
796.813	4506
796.915	4148
797.018	4313
797.120	3881
797.223	3562
797.326	4334
797.428	4022
797.530	3835
797.633	3819
797.735	4414
797.838	5238
797.940	7121
798.042	4405
798.145	3486
798.247	3453
798.349	3810
798.452	3674
798.554	3724
798.656	3918
798.758	4392
798.860	4610
798.962	4878
799.065	3311
799.167	3120
799.269	4408
799.371	5208
799.473	4730
799.575	5120
799.677	5765
799.779	5148
799.881	4937
799.983	6687
800.085	4365
800.187	3645
800.289	3939
800.390	3769
800.492	4314
800.594	4608
800.696	3414
800.798	3738
800.899	3256
801.001	4061
801.103	3298
801.205	3493
801.306	3617
801.408	4055
801.509	3694
801.611	3652
801.713	3466
801.814	3363
801.916	3279
802.017	2953
802.119	2757
802.220	2967
802.322	1907
802.423	4861
802.525	4502
802.626	4341
802.727	3697
802.829	3594
802.930	2829
803.031	4545
803.133	2792
803.234	3990
803.335	3684
803.436	3404
803.538	2724
803.639	3186
803.740	3019
803.841	3216
803.942	4099
804.043	3624
804.144	2755
804.245	3568
804.346	2256
804.447	2801
804.548	3542
804.649	5295
804.750	4119
804.851	2743
804.952	3520
805.053	2749
805.154	3146
805.255	3823
805.355	3086
805.456	3148
805.557	2629
805.658	2973
805.758	3298
805.859	3477
805.960	3217
806.061	3783
806.161	2327
806.262	3658
806.362	2867
806.463	3052
806.564	2568
806.664	3455
806.765	3138
806.865	4940
806.966	3230
807.066	3048
807.166	3293
807.267	3605
807.367	2721
807.468	3742
807.568	2757
807.668	3561
807.769	3272
807.869	3172
807.969	2864
808.069	3353
808.170	3010
808.270	3368
808.370	3122
808.470	3914
808.570	4026
808.670	3352
808.770	3346
808.870	3077
808.970	2508
809.070	3229
809.170	2933
809.271	3455
809.370	2793
809.470	2846
809.570	2735
809.670	3220
809.770	3110
809.870	2879
809.970	3010
810.070	2916
810.169	3235
810.269	1700
810.369	3188
810.469	2699
810.568	2493
810.668	2925
810.768	2488
810.867	3211
810.967	3296
811.066	3672
811.166	3256
811.265	3718
811.365	2958
811.464	2988
811.564	3672
811.663	3562
811.763	3382
811.862	3334
811.962	3890
812.061	3421
812.160	2844
812.260	3131
812.359	4120
812.458	5923
812.557	10394
812.657	20589
812.756	18099
812.855	6788
812.954	4037
813.053	4247
813.153	3523
813.252	2807
813.351	3585
813.450	4167
813.549	3598
813.648	3805
813.747	3090
813.846	4589
813.945	3906
814.044	4081
814.143	4286
814.242	4384
814.341	3912
814.439	4700
814.538	4587
814.637	4444
814.736	4773
814.835	4970
814.933	4058
815.032	4465
815.131	4278
815.229	5703
815.328	6129
815.427	6119
815.525	6376
815.624	6317
815.722	5837
815.821	6365
815.919	7161
816.018	7256
816.116	8001
816.215	7422
816.313	7541
816.412	8435
816.510	9377
816.609	10157
816.707	9519
816.805	10833
816.904	9975
817.002	12012
817.100	13700
817.198	14723
817.296	16270
817.395	17900
817.493	21444
817.591	24514
817.689	30423
817.787	40155
817.885	54738
817.983	83346
818.081	139118
818.179	260038
818.277	492944
818.375	705654
818.473	517651
818.571	258891
818.669	144815
818.767	103617
818.865	90532
818.963	94581
819.061	113964
819.158	157766
819.256	248061
819.354	416343
819.452	677992
819.549	765573
819.647	581927
819.745	334889
819.842	193549
819.940	125780
820.038	88722
820.135	66740
820.233	51767
820.330	41325
820.428	35662
820.525	29943
820.623	25637
820.720	22708
820.818	20911
820.915	18505
821.012	16003
821.110	14739
821.207	13207
821.304	12187
821.402	11182
821.499	11664
821.596	11456
821.693	9781
821.791	9652
821.888	9368
821.985	10074
822.082	11822
822.179	9277
822.276	8046
822.373	7425
822.470	7346
822.567	6582
822.664	6405
822.761	6732
822.858	6273
822.955	6922
823.052	5773
823.149	5887
823.246	6097
823.343	5560
823.440	5579
823.536	5373
823.633	5294
823.730	4797
823.827	4628
823.923	4542
824.020	5053
824.117	4297
824.213	3899
824.310	4723
824.407	3481
824.503	4119
824.600	5430
824.696	3768
824.793	5489
824.889	3294
824.986	4226
825.082	3759
825.179	3482
825.275	4298
825.371	4128
825.468	3661
825.564	3383
825.660	3418
825.757	3935
825.853	3458
825.949	3366
826.045	3604
826.142	3673
826.238	2767
826.334	3420
826.430	3110
826.526	4181
826.622	2904
826.718	2656
826.814	2937
826.910	4069
827.006	3474
827.102	3421
827.198	3468
827.294	3275
827.390	2676
827.486	3628
827.582	1635
827.678	2538
827.774	3476
827.869	2739
827.965	3419
828.061	3359
828.157	2855
828.252	3318
828.348	3095
828.444	3781
828.539	1919
828.635	2619
828.731	3170
828.826	2911
828.922	3112
829.017	2890
829.113	3358
829.208	2999
829.304	2739
829.399	3720
829.495	2793
829.590	2909
829.685	1702
829.781	2339
829.876	2434
829.971	3021
830.066	2611
830.162	2356
830.257	2816
830.352	3156
830.447	2664
830.543	2531
830.638	2099
830.733	3895
830.828	2687
830.923	3051
831.018	2231
831.113	2875
831.208	2285
831.303	3028
831.398	2539
831.493	2163
831.588	1894
831.683	2603
831.778	2186
831.873	1949
831.967	3063
832.062	2532
832.157	2140
832.252	3319
832.346	2757
832.441	2476
832.536	3532
832.631	4608
832.725	8203
832.820	5224
832.914	2792
833.009	2363
833.104	2472
833.198	3463
833.293	2234
833.387	2434
833.482	3568
833.576	2203
833.670	2382
833.765	1951
833.859	2273
833.954	2728
834.048	2950
834.142	2703
834.237	1871
834.331	1789
834.425	2055
834.519	2159
834.613	2803
834.708	2274
834.802	3179
834.896	2233
834.990	1740
835.084	1865
835.178	1412
835.272	2160
835.366	2535
835.460	1985
835.554	2927
835.648	2612
835.742	1752
835.836	2724
835.930	1354
836.024	2299
836.117	2003
836.211	2913
836.305	3813
836.399	3838
836.493	2680
836.586	3067
836.680	1716
836.774	1594
836.867	2748
836.961	1419
837.055	1868
837.148	1327
837.242	1545
837.335	2289
837.429	2250
837.522	2330
837.616	1831
837.709	4010
837.803	4923
837.896	3436
837.989	3008
838.083	3046
838.176	3217
838.269	8132
838.363	4758
838.456	2394
838.549	2845
838.642	4145
838.735	6558
838.829	7979
838.922	2721
839.015	2868
839.108	1770
839.201	2018
839.294	2280
839.387	2646
839.480	1837
839.573	1958
839.666	3422
839.759	4191
839.852	1663
839.945	2380
840.038	1296
840.131	1536
840.223	2277
840.316	1927
840.409	1980
840.502	2160
840.594	2461
840.687	1532
840.780	2340
840.873	1741
840.965	1538
841.058	3119
841.150	3783
841.243	5254
841.336	3284
841.428	2205
841.521	1787
841.613	2031
841.706	3192
841.798	2273
841.890	1559
841.983	1747
842.075	2213
842.167	1620
842.260	1679
842.352	2872
842.444	3454
842.537	4502
842.629	7870
842.721	7211
842.813	2368
842.905	1241
842.997	1924
843.090	2862
843.182	2746
843.274	4007
843.366	8883
843.458	15803
843.550	24819
843.642	9698
843.734	2687
843.826	1799
843.918	3004
844.009	2760
844.101	1036
844.193	2200
844.285	1650
844.377	2342
844.469	1962
844.560	1270
844.652	1468
844.744	2342
844.835	1726
844.927	1490
845.019	1199
845.110	3585
845.202	2215
845.293	1948
845.385	1355
845.476	1434
845.568	2584
845.659	1750
845.751	2298
845.842	1055
845.934	1314
846.025	1158
846.116	1529
846.208	1457
846.299	1244
846.390	1793
846.482	1744
846.573	1323
846.664	2672
846.755	3233
846.846	4454
846.937	2681
847.029	2211
847.120	1070
847.211	1471
847.302	2216
847.393	428
847.484	2062
847.575	1602
847.666	1490
847.757	1500
847.847	2162
847.938	1830
848.029	1585
848.120	1334
848.211	1054
848.302	952
848.392	1465
848.483	1167
848.574	1390
848.664	1165
848.755	1430
848.846	1145
848.936	1128
849.027	1834
849.118	1665
849.208	1060
849.299	2008
849.389	2278
849.480	3024
849.570	5544
849.661	9351
849.751	17052
849.841	19257
849.932	5432
850.022	1878
850.112	1594
850.203	1743
850.293	1207
850.383	1736
850.474	569
850.564	1821
850.654	1700
850.744	1458
850.834	1247
850.924	1160
851.014	1810
851.104	1823
851.194	1456
851.284	1723
851.374	2225
851.464	1865
851.554	1760
851.644	1862
851.734	1944
851.824	2648
851.914	1077
852.004	1445
852.094	755
852.183	656
852.273	1615
852.363	1737
852.452	1118
852.542	2355
852.632	1116
852.721	936
852.811	876
852.901	1589
852.990	1358
853.080	1609
853.169	1106
853.259	1492
853.348	1512
853.438	2232
853.527	1757
853.617	3542
853.706	4395
853.795	7229
853.885	14455
853.974	29716
854.063	50691
854.152	98332
854.242	106574
854.331	26575
854.420	6350
854.509	3657
854.598	3507
854.687	2939
854.777	3115
854.866	2092
854.955	2198
855.044	708
855.133	1371
855.222	1067
855.311	889
855.400	2033
855.488	1189
855.577	755
855.666	861
855.755	1421
855.844	575
855.933	1262
856.021	1632
856.110	1238
856.199	1324
856.288	1075
856.376	1620
856.465	898
856.554	1150
856.642	1186
856.731	1462
856.819	1274
856.908	905
856.996	1276
857.085	841
857.173	1380
857.262	685
857.350	1401
857.438	1368
857.527	1773
857.615	1518
857.703	1525
857.792	1414
857.880	1018
857.968	515
858.056	1242
858.145	758
858.233	1862
858.321	1128
858.409	1233
858.497	833
858.585	1109
858.673	1706
858.761	505
858.849	1193
858.937	787
859.025	581
859.113	956
859.201	1461
859.289	1653
859.377	790
859.465	1867
859.552	1213
859.640	492
859.728	1685
859.816	1995
859.903	1040
859.991	331
860.079	1296
860.166	858
860.254	578
860.342	1542
860.429	1297
860.517	1036
860.604	519
860.692	1127
860.779	1214
860.867	830
860.954	864
861.042	1178
861.129	2052
861.216	2145
861.304	914
861.391	1153
861.478	1078
861.565	819
861.653	1698
861.740	363
861.827	352
861.914	1121
862.001	137
862.089	1151
862.176	2205
862.263	997
862.350	1919
862.437	607
862.524	687
862.611	1123
862.698	816
862.785	1144
862.871	1245
862.958	959
863.045	1270
863.132	506
863.219	750
863.306	616
863.392	1693
863.479	734
863.566	951
863.652	1206
863.739	1169
863.826	1148
863.912	1094
863.999	628
864.086	752
864.172	559
864.259	1396
864.345	1851
864.432	446
864.518	1917
864.604	851
864.691	1042
864.777	1988
864.863	2614
864.950	990
865.036	1674
865.122	2381
865.209	3141
865.295	3315
865.381	3483
865.467	3215
865.553	3240
865.639	3425
865.726	5396
865.812	7816
865.898	16452
865.984	26918
866.070	36472
866.156	70052
866.242	50674
866.328	11553
866.414	4196
866.499	2570
866.585	3483
866.671	3035
866.757	2322
866.843	2376
866.928	2075
867.014	2059
867.100	2178
867.186	1983
867.271	3315
867.357	2692
867.442	4160
867.528	3602
867.614	2464
867.699	2050
867.785	2554
867.870	2228
867.956	2051
868.041	3300
868.127	2237
868.212	3045
868.297	3297
868.383	2530
868.468	3755
868.553	3729
868.639	5951
868.724	5977
868.809	11359
868.894	6615
868.979	2603
869.065	2208
869.150	1141
869.235	1416
869.320	1766
869.405	1787
869.490	695
869.575	2174
869.660	2385
869.745	1204
869.830	1570
869.915	1810
870.000	2010
870.085	1542
870.169	1928
870.254	1511
870.339	1641
870.424	316
870.509	1038
870.593	1752
870.678	1801
870.763	1358
870.847	2151
870.932	1351
871.016	1713
871.101	1313
871.186	1153
871.270	1742
871.355	1434
871.439	990
871.523	2217
871.608	1715
871.692	959
871.777	847
871.861	2071
871.945	2126
872.030	1735
872.114	869
872.198	928
872.282	1028
872.367	1584
872.451	731
872.535	1454
872.619	948
872.703	808
872.787	1486
872.871	674
872.955	1070
873.039	389
873.123	589
873.207	2620
873.291	1337
873.375	1514
873.459	1215
873.543	1144
873.627	436
873.711	639
873.794	827
873.878	1751
873.962	834
874.045	769
874.129	1231
874.137	1240
874.213	1328
874.245	1248
874.296	1123
874.352	1304
874.380	1387
874.460	643
874.464	614
874.547	769
874.568	628
874.631	197
874.676	997
874.714	1678
874.784	1144
874.798	1033
874.881	1816
874.892	1621
874.965	316
874.999	602
875.048	949
875.107	422
875.131	231
875.215	2002
875.215	2001
875.298	545
875.323	465
875.381	301
875.430	718
875.465	1015
875.538	1221
875.548	1243
875.631	719
875.646	698
875.714	661
875.753	751
875.798	816
875.861	777
875.881	768
875.964	559
875.968	594
876.047	1209
876.076	1011
876.130	664
876.183	373
876.213	242
876.291	1218
876.296	1267
876.379	1284
876.398	1121
876.462	798
876.506	739
876.545	658
876.613	1190
876.628	1279
876.711	957
876.721	925
876.794	779
876.828	1060
876.877	1483
876.935	800
876.960	504
877.043	659
877.043	658
877.125	489
877.150	570
877.208	798
877.258	1008
877.291	1138
877.365	1185
877.374	1182
877.456	1081
877.472	1030
877.539	867
877.579	922
877.622	1019
877.687	1059
877.704	1065
877.787	1470
877.794	1427
877.869	809
877.901	866
877.952	979
878.008	1224
878.034	1366
878.115	74
878.117	49
878.199	668
878.222	727
878.282	839
878.329	1036
878.364	1236
878.437	1345
878.447	1311
878.529	344
878.544	319
878.611	373
878.651	647
878.694	934
878.758	433
878.776	340
878.858	1075
878.865	1083
878.941	1013
878.972	897
879.023	570
879.078	395
879.105	496
879.185	887
879.187	887
879.269	1031
879.292	1044
879.351	988
879.399	808
879.433	784
879.506	694
879.516	675
879.598	681
879.613	643
879.680	414
879.720	545
879.762	659
879.827	361
879.844	254
879.926	312
879.933	270
880.007	283
880.040	371
880.089	353
880.147	774
880.171	1058
880.253	1687
880.254	1698
880.335	3008
880.360	3157
880.417	3945
880.467	4669
880.499	5322
880.574	9752
880.580	10004
880.662	8530
880.680	7222
880.744	2393
880.787	1511
880.825	974
880.893	760
880.907	787
880.989	655
881.000	651
881.070	470
881.106	340
881.152	221
881.213	448
881.233	515
881.315	431
881.319	408
881.396	347
881.426	466
881.478	328
881.532	460
881.559	586
881.639	469
881.641	469
881.722	337
881.745	354
881.803	413
881.852	629
881.885	684
881.958	366
881.966	352
882.047	783
882.064	831
882.129	816
882.171	792
882.210	903
882.277	1481
882.291	1636
882.372	2172
882.383	2132
882.454	1502
882.489	1073
882.535	334
882.596	286
882.616	404
882.697	-19
882.702	-5
882.778	593
882.808	808
882.859	590
882.914	439
882.940	610
883.020	789
883.021	787
883.102	443
883.127	519
883.183	839
883.233	607
883.264	518
883.339	574
883.345	570
883.426	426
883.445	430
883.507	472
883.551	623
883.587	718
883.657	561
883.668	566
883.749	743
883.763	782
883.830	548
883.869	402
883.910	448
883.975	275
883.991	187
884.072	90
884.081	93
884.152	587
884.187	645
884.233	246
884.292	-79
884.314	77
884.394	650
884.398	664
884.475	171
884.504	106
884.555	266
884.610	443
884.636	387
884.716	-105
884.716	-103
884.797	353
884.821	520
884.877	482
884.927	282
884.958	232
885.033	246
885.038	247
885.118	67
885.139	119
885.199	380
885.244	391
885.279	311
885.350	246
885.359	286
885.439	708
885.456	735
885.520	362
885.561	243
885.600	524
885.667	882
885.680	854
885.760	1052
885.773	1024
885.840	681
885.878	527
885.920	601
885.984	741
886.000	721
886.080	455
886.089	432
886.160	261
886.195	254
886.240	384
886.300	538
886.320	543
886.400	355
886.406	359
886.480	671
886.511	743
886.560	838
886.616	1035
886.640	1050
886.720	822
886.722	819
886.800	639
886.827	551
886.879	382
886.932	178
886.959	261
887.038	603
887.039	600
887.119	170
887.143	92
887.198	549
887.248	813
887.278	724
887.354	553
887.358	535
887.437	215
887.459	144
887.517	530
887.564	723
887.596	487
887.669	54
887.676	111
887.755	882
887.774	1021
887.835	693
887.880	500
887.914	444
887.985	395
887.994	391
888.073	289
888.090	266
888.153	570
888.195	828
888.232	703
888.300	332
888.311	370
888.391	741
888.405	806
888.470	322
888.510	13
888.549	372
888.615	1008
888.628	919
888.708	351
888.720	263
888.787	836
888.825	1147
888.866	1006
888.930	836
888.945	887
889.024	1101
889.035	1132
889.103	722
889.140	492
889.182	248
889.245	-102
889.261	40
889.340	720
889.349	803
889.419	1170
889.454	1344
889.498	712
889.559	-160
889.577	176
889.656	1677
889.664	1824
889.735	710
889.768	184
889.814	274
889.873	395
889.978	647
890.083	448
890.187	431
890.292	1514
890.397	863
890.501	555
890.606	655
890.710	1586
890.815	1290
890.919	1165
891.024	48
891.128	650
891.233	281
891.337	897
891.442	906
891.546	167
891.650	583
891.755	220
891.859	1456
891.963	825
892.068	545
892.172	-264
892.276	184
892.380	1160
892.484	-566
892.589	643
892.693	201
892.797	928
892.901	1031
893.005	359
893.109	-337
893.213	1270
893.317	626
893.421	1156
893.525	280
893.629	401
893.733	-274
893.837	986
893.941	-432
894.045	592
894.148	211
894.252	758
894.356	815
894.460	296
894.564	455
894.667	227
894.771	-420
894.875	535
894.978	177
895.082	474
895.186	1028
895.289	370
895.393	507
895.496	1183
895.600	457
895.703	-29
895.807	-708
895.910	1077
896.014	416
896.117	308
896.221	771
896.324	806
896.427	869
896.531	792
896.634	307
896.737	969
896.840	453
896.944	766
897.047	722
897.150	-202
897.253	550
897.356	286
897.460	-457
897.563	747
897.666	1691
897.769	1753
897.872	625
897.975	296
898.078	555
898.181	440
898.284	251
898.387	1392
898.490	818
898.593	804
898.695	755
898.798	907
898.901	773
899.004	1392
899.107	293
899.209	353
899.312	11
899.415	-81
899.518	854
899.620	996
899.723	979
899.826	767
899.928	891
900.031	1042
900.133	468
900.236	821
900.338	-278
900.441	-193
900.543	187
900.646	977
900.748	40
900.851	497
900.953	977
901.055	1075
901.158	331
901.260	607
901.362	662
901.465	704
901.567	1111
901.669	666
901.771	-135
901.873	635
901.976	818
902.078	857
902.180	487
902.282	399
902.384	391
902.486	728
902.588	968
902.690	551
902.792	154
902.894	1067
902.996	475
903.098	-84
903.200	194
903.302	919
903.404	254
903.505	458
903.607	851
903.709	1243
903.811	218
903.913	-248
904.014	527
904.116	656
904.218	482
904.319	174
904.421	1620
904.523	1191
904.624	400
904.726	577
904.827	433
904.929	194
905.030	730
905.132	315
905.233	998
905.335	528
905.436	67
905.537	650
905.639	-138
905.740	-148
905.841	-166
905.943	-97
906.044	94
906.145	467
906.247	62
906.348	598
906.449	1552
906.550	147
906.651	-376
906.752	835
906.854	782
906.955	-169
907.056	-708
907.157	140
907.258	753
907.359	92
907.460	980
907.561	688
907.662	1030
907.762	732
907.863	86
907.964	873
908.065	358
908.166	183
908.267	414
908.367	667
908.468	1009
908.569	704
908.670	383
908.770	1033
908.871	762
908.971	-145
909.072	601
909.173	859
909.273	-385
909.374	-346
909.474	204
909.575	514
909.675	720
909.776	625
909.876	-620
909.977	544
910.077	202
910.177	753
910.278	216
910.378	159
910.478	-121
910.579	659
910.679	444
910.779	478
910.879	456
910.980	904
911.080	42
911.180	534
911.280	62
911.380	-85
911.480	-110
911.580	525
911.680	403
911.780	615
911.880	-24
911.980	483
912.080	54
912.180	940
912.280	-241
912.380	67
912.480	-916
912.580	175
912.679	302
912.779	603
912.879	-607
912.979	111
913.078	135
913.178	-236
913.278	-208
913.377	310
913.477	-402
913.577	139
913.676	260
913.776	383
913.875	98
913.975	81
914.074	575
914.174	-418
914.273	-35
914.373	-272
914.472	-472
914.572	65
914.671	-322
914.770	68
914.870	43
914.969	-273
915.068	18
915.167	37
915.267	34
915.366	83
915.465	383
915.564	-177
915.663	-314
915.763	181
915.862	-564
915.961	-539
916.060	-239
916.159	541
916.258	18
916.357	-10
916.456	-540
916.555	455
916.654	-534
916.752	18
916.851	338
916.950	-136
917.049	-190
917.148	-337
917.247	734
917.345	-152
917.444	-133
917.543	-49
917.642	550
917.740	-65
917.839	-279
917.937	510
918.036	-159
918.135	-557
918.233	-60
918.332	531
918.430	331
918.529	507
918.627	145
918.726	561
918.824	-4
918.923	-158
919.021	-993
919.119	-326
919.218	-672
919.316	455
919.414	-268
919.512	866
919.611	356
919.709	-353
919.807	-306
919.905	724
920.003	2
920.102	394
920.200	122
920.298	-494
920.396	-206
920.494	-170
920.592	-118
920.690	-87
920.788	-34
920.886	360
920.984	539
921.082	-489
921.180	-400
921.277	-38
921.375	-202
921.473	-442
921.571	-18
921.669	-730
921.766	-89
921.864	347
921.962	-88
922.060	824
922.157	335
922.255	-76
922.352	30
922.450	1524
922.548	514
922.645	214
922.743	-324
922.840	17
922.938	684
923.035	1232
923.133	506
923.230	1125
923.327	678
923.425	717
923.522	257
923.619	654
923.717	602
923.814	966
923.911	805
924.008	821
924.106	100
924.203	1245
924.300	710
924.397	584
924.494	-206
924.591	577
924.688	972
924.786	1224
924.883	22
924.979	683
925.077	672
925.173	378
925.270	1163
925.367	5
925.464	586
925.561	169
925.658	370
925.755	98
925.852	603
925.948	751
926.045	1271
926.142	103
926.239	394
926.335	450
926.432	171
926.529	48
926.625	81
926.722	727
926.818	964
926.915	516
927.011	935
927.108	519
927.204	736
927.301	398
927.397	448
927.494	977
927.590	1092
927.687	-66
927.783	-525
927.879	554
927.976	102
928.072	-195
928.168	247
928.264	364
928.361	351
928.457	91
928.553	1078
928.649	402
928.745	175
928.841	332
928.937	-2
929.033	631
929.129	316
929.225	223
929.321	-300
929.417	-119
929.513	139
929.609	173
929.705	-346
929.801	580
929.897	112
929.993	-12
930.089	210
930.184	-88
930.280	-249
930.376	782
930.471	-172
930.567	566
930.663	124
930.758	779
930.854	6
930.950	0
931.045	98
931.141	362
931.236	602
931.332	383
931.427	569
931.523	1
931.618	794
931.714	-31
931.809	-387
931.905	973
932.000	-7
932.095	-754
932.191	936
932.286	4
932.381	683
932.476	740
932.572	838
932.667	-133
932.762	90
932.857	587
932.952	886
933.047	160
933.142	181
933.237	16
933.332	-422
933.427	625
933.522	-217
933.617	-201
933.712	-513
933.807	180
933.902	-16
933.997	913
934.092	858
934.187	-331
934.282	139
934.376	343
934.471	435
934.566	710
934.661	628
934.755	6
934.850	208
934.945	1
935.039	-225
935.134	400
935.228	-300
935.323	288
935.417	44
935.512	766
935.606	-193
935.701	721
935.795	-326
935.890	-295
935.984	-55
936.079	218
936.173	-94
936.267	823
936.362	174
936.456	-347
936.550	-468
936.644	463
936.738	-551
936.833	153
936.927	280
937.021	-129
937.115	157
937.209	294
937.303	-597
937.397	93
937.491	32
937.585	382
937.679	-97
937.773	-409
937.867	52
937.961	-118
938.055	-404
938.149	312
938.243	171
938.337	-198
938.430	-374
938.524	-89
938.618	-387
938.712	-329
938.805	-190
938.899	563
938.993	-393
939.086	678
939.180	-682
939.274	-188
939.367	34
939.461	434
939.554	-270
939.648	-249
939.741	-118
939.835	243
939.928	482
940.022	853
940.115	-121
940.208	352
940.302	187
940.395	1158
940.488	-580
940.582	252
940.675	-301
940.768	-261
940.861	-475
940.954	812
941.048	694
941.141	-128
941.234	-513
941.327	369
941.420	96
941.513	686
941.606	-28
941.699	-239
941.792	480
941.885	-205
941.978	-579
942.071	263
942.164	102
942.257	-350
942.349	624
942.442	-241
942.535	-750
942.628	285
942.721	-585
942.813	-701
942.906	-413
942.999	357
943.091	-239
943.184	-305
943.277	-463
943.369	503
943.462	134
943.554	-339
943.647	-225
943.739	799
943.832	6
943.924	-129
944.017	276
944.109	-717
944.201	-581
944.294	-83
944.386	-151
944.478	-267
944.571	578
944.663	-59
944.755	-858
944.847	341
944.940	-138
945.032	-266
945.124	-1040
945.216	58
945.308	-344
945.400	260
945.492	305
945.584	-36
945.676	14
945.768	491
945.860	-91
945.952	450
946.044	185
946.136	-49
946.228	-132
946.320	81
946.412	190
946.503	50
946.595	133
946.687	-482
946.779	-157
946.870	-851
946.962	-273
947.054	-54
947.145	177
947.237	-524
947.329	-454
947.420	-90
947.512	-115
947.603	296
947.695	-658
947.786	-158
947.878	-647
947.969	-108
948.061	-418
948.152	94
948.243	-1010
948.335	388
948.426	-843
948.517	-722
948.609	-156
948.700	-358
948.791	-857
948.882	-480
948.973	-209
949.065	-121
949.156	-434
949.247	-763
949.338	-88
949.429	-1019
949.520	-583
949.611	-342
949.702	-482
949.793	-199
949.884	221
949.975	206
950.066	-1176
950.157	-1147
950.247	-526
950.338	58
950.429	49
950.520	-448
950.611	-1016
950.701	269
950.792	-1225
950.883	222
950.973	-71
951.064	-316
951.155	682
951.245	-126
951.336	103
951.427	-479
951.517	-8
951.608	-230
951.698	-543
951.788	136
951.879	-525
951.969	-4
952.060	-557
952.150	-676
952.240	-584
952.331	-688
952.421	196
952.511	-508
952.602	-926
952.692	-708
952.782	-313
952.872	-282
952.962	-638
953.052	-779
953.143	-926
953.233	215
953.323	299
953.413	-441
953.503	-316
953.593	-187
953.683	-562
953.773	318
953.863	59
953.953	-721
954.042	37
954.132	225
954.222	-88
954.312	-791
954.402	-894
954.492	-298
954.581	-446
954.671	248
954.761	-161
954.850	566
954.940	-730
955.030	-108
955.119	-896
955.209	-993
955.298	-370
955.388	-461
955.477	131
955.567	-514
955.656	51
955.746	268
955.835	186
955.925	-651
956.014	-965
956.103	26
956.193	-551
956.282	-308
956.371	-227
956.461	-762
956.550	-477
956.639	-818
956.728	-343
956.817	556
956.906	-50
956.995	-557
957.085	-732
957.174	-613
957.263	-130
957.352	-425
957.441	-646
957.530	-412
957.619	-248
957.708	103
957.796	-850
957.885	-232
957.974	-447
958.063	-336
958.152	-390
958.241	-95
958.329	-1049
958.418	-597
958.507	-705
958.596	-581
958.684	-419
958.773	-339
958.861	-240
958.950	398
959.039	-162
959.127	-227
959.216	-1075
959.304	-1087
959.393	-721
959.481	-532
959.570	-381
959.658	-327
959.746	-954
959.835	-130
959.923	-522
960.011	-218
960.100	-742
960.188	-892
960.276	-653
960.365	-847
960.453	-618
960.541	-492
960.629	76
960.717	-158
960.805	-681
960.893	-429
960.981	-1141
961.069	-237
961.158	-661
961.245	-455
961.333	-432
961.421	-775
961.509	-424
961.597	14
961.685	-534
961.773	-849
961.861	-521
961.949	-134
962.036	-942
962.124	-372
962.212	335
962.299	-707
962.387	-444
962.475	-679
962.562	-953
962.650	-376
962.738	41
962.825	-625
962.913	-489
963.000	-294
963.088	-1196
963.175	-526
963.263	-487
963.350	-516
963.438	-773
963.525	-18
963.612	-1
963.700	53
963.787	2663
963.874	3432
963.962	335
964.049	-371
964.136	-1209
964.223	61
964.310	-500
964.398	-290
964.485	-112
964.572	-294
964.659	336
964.746	806
964.833	-983
964.920	159
965.007	-465
965.094	-673
965.181	-675
965.268	88
965.355	-645
965.441	-539
965.528	-481
965.615	44
965.702	-381
965.789	-897
965.875	106
965.962	-324
966.049	-1379
966.136	-530
966.222	-391
966.309	-205
966.395	-373
966.482	146
966.569	-356
966.655	-160
966.742	-787
966.828	-401
966.915	-1155
967.001	-158
967.087	-348
967.174	-835
967.260	16
967.347	-618
967.433	383
967.519	2067
967.605	2450
967.692	620
967.778	-130
967.864	-259
967.950	-888
968.036	-1020
968.123	-17
968.209	74
968.295	-483
968.381	-459
968.467	-33
968.553	-837
968.639	-351
968.725	-691
968.811	-93
968.897	765
968.983	-191
969.069	-326
969.154	-532
969.240	-32
969.326	-1146
969.412	25
969.497	-296
969.583	-961
969.669	75
969.755	229
969.840	-510
969.926	-808
970.012	-88
970.097	-630
970.183	-19
970.268	-990
970.354	37
970.439	258
970.525	1368
970.610	1086
970.696	-48
970.781	-96
970.866	-308
970.952	-483
971.037	-1589
971.122	25
971.208	-26
971.293	-451
971.378	-1208
971.463	-229
971.549	2
971.634	317
971.719	-37
971.804	-399
971.889	375
971.974	-316
972.059	-429
972.144	-96
972.229	159
972.314	-429
972.399	-248
972.484	-203
972.569	-564
972.654	-958
972.739	360
972.824	139
972.908	-185
972.993	-501
973.078	-901
973.163	-180
973.247	-1091
973.332	-975
973.417	-173
973.501	-729
973.586	256
973.671	-611
973.755	-1064
973.840	253
973.924	-254
974.009	-209
974.093	-623
974.178	654
974.262	276
974.346	224
974.431	-113
974.515	-212
974.600	-645
974.684	359
974.768	-1229
974.852	-289
974.937	-488
975.021	-323
975.105	-1104
975.189	-188
975.273	-775
975.358	-926
975.442	-135
975.526	124
975.610	-1011
975.694	-707
975.778	-9
975.862	-699
975.946	-1298
976.030	30
976.114	-1027
976.198	-757
976.281	-279
976.365	-86
976.449	-421
976.533	280
976.617	-535
976.700	-918
976.784	-243
976.868	-286
976.951	-169
977.035	-46
977.119	-1134
977.202	280
977.286	-1053
977.369	115
977.453	-465
977.536	-256
977.620	-1067
977.703	150
977.787	-1055
977.870	317
977.953	298
978.037	-823
978.120	-619
978.203	257
978.287	288
978.370	439
978.453	-509
978.536	-679
978.620	-243
978.703	-245
978.786	-411
978.869	-497
978.952	-2024
979.035	695
979.118	-419
979.201	-441
979.284	-1107
979.367	-931
979.450	-296
979.533	-823
979.616	-1493
979.699	378
979.782	-720
979.865	-676
979.948	-1096
980.030	-921
980.113	-1163
980.196	-320
980.279	-790
980.361	-509
980.444	-556
980.526	-586
980.609	-838
980.692	-22
980.774	-1289
980.857	-684
980.939	-1026
981.022	-411
981.104	-650
981.187	-620
981.269	-1079
981.352	-452
981.434	-944
981.516	-866
981.599	-461
981.681	-1183
981.763	-1094
981.846	-787
981.928	-913
982.010	-1258
982.092	-1313
982.174	-462
982.256	-990
982.339	-728
982.421	-1083
982.503	-648
982.585	-965
982.667	-308
982.749	-1294
982.831	-324
982.913	-1322
982.995	66
983.077	-1262
983.158	-436
983.240	-678
983.322	-675
983.404	-547
983.486	-1155
983.568	-1048
983.649	-682
983.731	-1200
983.813	-910
983.894	-774
983.976	-249
984.058	-1216
984.139	-27
984.221	-579
984.302	94
984.384	-1635
984.465	-1277
984.547	-956
984.628	-947
984.710	-414
984.791	-640
984.872	-1132
984.954	-702
985.035	-410
985.116	-1207
985.198	-2035
985.279	-329
985.360	-1141
985.441	-913
985.522	-1143
985.604	-608
985.685	-2784
985.766	-419
985.847	-370
985.928	-1097
986.009	-1432
986.090	-826
986.171	-694
986.252	-1228
986.333	-1392
986.414	-484
986.495	-1297
986.576	-1014
986.656	-1277
986.737	-1180
986.818	-1256
986.899	-599
986.980	-1135
987.060	-869
987.141	-1650
987.222	-812
987.302	-350
987.383	-505
987.464	-345
987.544	-336
987.625	-1328
987.705	-385
987.786	-1657
987.866	-1066
987.947	-1059
988.027	-1012
988.108	-1334
988.188	-886
988.268	-1181
988.349	-452
988.429	-1169
988.509	-1393
988.589	-1124
988.670	-1822
988.750	-203
988.830	-587
988.910	-931
988.990	-803
989.070	-1553
989.151	-1437
989.231	-685
989.311	-148
989.391	-915
989.471	-816
989.551	-505
989.631	-58
989.711	-350
989.791	-1045
989.870	-812
989.950	-607
990.030	-1499
990.110	-1110
990.190	-1657
990.269	-852
990.349	-722
990.429	-267
990.509	-830
990.588	-1481
990.668	-659
990.747	-1082
990.827	-1202
990.907	-444
990.986	-1262
991.066	-1513
991.145	-1362
991.225	-1063
991.304	-1445
991.383	-745
991.463	-1670
991.542	-170
991.622	-956
991.701	-123
991.780	-850
991.859	-1428
991.939	-1234
992.018	-203
992.097	-898
992.176	-1218
992.256	-882
992.335	-1235
992.414	-916
992.493	-1082
992.572	-837
992.651	-397
992.730	-1460
992.809	-665
992.888	-1332
992.967	-1291
993.046	-1322
993.125	-1315
993.203	-1163
993.282	-751
993.361	-1039
993.440	-1251
993.519	-1908
993.597	-558
993.676	-1397
993.755	-543
993.834	-1384
993.912	-1720
993.991	-981
994.069	-927
994.148	-1386
994.226	-1070
994.305	-1444
994.384	-2129
994.462	-810
994.540	-1366
994.619	-1741
994.697	-387
994.776	-1515
994.854	-93
994.932	-1688
995.011	-921
995.089	-1980
995.167	-1106
995.245	-403
995.324	-1979
995.402	-600
995.480	-1235
995.558	-804
995.636	-1687
995.714	-1404
995.792	-523
995.870	-1464
995.948	-931
996.026	-1583
996.104	-1225
996.182	-1218
996.260	-1622
996.338	-1176
996.416	-1193
996.494	-1475
996.572	-214
996.649	-821
996.727	-1482
996.805	-1083
996.883	-1098
996.960	-1936
997.038	-1287
997.116	-1498
997.193	-1478
997.271	-785
997.348	-1561
997.426	-1245
997.504	-1319
997.581	-831
997.658	-971
997.736	-1460
997.813	-1583
997.891	-1847
997.968	-1751
998.046	-1557
998.123	-825
998.200	-1173
998.277	-964
998.355	-700
998.432	-1379
998.509	-1793
998.586	-1321
998.663	-1048
998.741	-700
998.818	-1864
998.895	-1182
998.972	-1600
999.049	-1303
999.126	-1161
999.203	-1010
999.280	-1474
999.357	-1000
999.434	-2029
999.511	-1180
999.587	-696
999.664	-1207
999.741	-812
999.818	-1744
999.895	-1926
999.971	-1015
1000.048	-1463
1000.125	-406
1000.202	-1861
1000.278	-1201
1000.355	-1569
1000.431	-1151
1000.508	-1537
1000.584	-752
1000.661	-1370
1000.738	-983
1000.814	-1677
1000.890	-948
1000.967	-1617
1001.043	-1257
1001.120	-1995
1001.196	-956
1001.272	-1672
1001.349	-1338
1001.425	-828
1001.501	-1338
1001.577	-1551
1001.654	-755
1001.730	-1119
1001.806	-770
1001.882	-1470
1001.958	-538
1002.034	-1217
1002.110	-1572
1002.186	-976
1002.262	-1225
1002.338	-1991
1002.414	-1196
1002.490	-1025
1002.566	-924
1002.642	-1538
1002.718	-366
1002.794	-1577
1002.870	-1585
1002.945	-1533
1003.021	-1563
1003.097	-2316
1003.173	-234
1003.248	-867
1003.324	-1409
1003.400	-881
1003.475	-1159
1003.551	-1105
1003.626	-565
1003.702	-347
1003.777	-792
1003.853	-1890
1003.928	-1296
1004.004	-1261
1004.079	-250
1004.155	-1830
1004.230	-1835
1004.305	-1408
1004.381	-1657
1004.456	-1325
1004.531	-1433
1004.607	-1245
1004.682	-1212
1004.757	-429
1004.832	-1245
1004.907	-952
1004.982	-1217
1005.057	-1139
1005.133	-654
1005.208	-588
1005.283	-1260
1005.358	-1052
1005.433	-835
1005.508	-1703
1005.583	-1631
1005.657	-1675
1005.732	-414
1005.807	-714
1005.882	-542
1005.957	-258
1006.032	-1091
1006.106	-1314
1006.181	-1195
1006.256	-296
1006.331	-1469
1006.405	-1810
1006.480	-1160
1006.554	-1330
1006.629	-1194
1006.704	-1342
1006.778	-478
1006.853	-1331
1006.927	-1131
1007.002	-1474
1007.076	-969
1007.150	-1773
1007.225	-1133
1007.299	-1194
1007.373	-1555
1007.448	-1123
1007.522	-1033
1007.596	-1434
1007.671	-697
1007.745	-1058
1007.819	-1737
1007.893	-1431
1007.967	-387
1008.041	-1513
1008.115	-630
1008.190	-2795
1008.264	-1724
1008.338	-1808
1008.412	-1286
1008.486	-1079
1008.560	-1275
1008.633	-2346
1008.707	-630
1008.781	-294
1008.855	-833
1008.929	-2191
1009.003	-1550
1009.076	-1834
1009.150	-561
1009.224	-963
1009.298	-1386
1009.371	-1807
1009.445	-755
1009.519	-1470
1009.592	-1913
1009.666	-1316
1009.739	-1213
1009.813	-1966
1009.886	-1201
1009.960	-2122
1010.033	-1037
1010.107	-1355
1010.180	-1471
1010.253	-1200
1010.327	-1383
1010.400	-1851
1010.473	-1719
1010.547	-1213
1010.620	-2102
1010.693	-2175
1010.766	-1746
1010.840	-1091
1010.913	-1176
1010.986	-1548
1011.059	-1690
1011.132	-1088
1011.205	-954
1011.278	-1529
1011.351	-1051
1011.424	-1367
1011.497	-1415
1011.570	-1395
1011.643	-1541
1011.716	-1946
1011.789	-2195
1011.862	-1369
1011.934	-1286
1012.007	-1202
1012.080	-1195
1012.153	-1364
1012.225	-693
1012.298	-1796
1012.371	-2025
1012.443	-1439
1012.516	-1763
1012.588	-1292
1012.661	-1857
1012.733	-2618
1012.806	-1392
1012.879	-1551
1012.951	-925
1013.023	-1425
1013.096	-1430
1013.168	-1770
1013.241	-726
1013.313	-1939
1013.385	-1554
1013.458	-1730
1013.530	-2038
1013.602	-2205
1013.674	-1272
1013.746	-1862
1013.819	-1229
1013.891	-2031
1013.963	-1693
1014.035	-1274
1014.107	-825
1014.179	-1353
1014.251	-1672
1014.323	-1385
1014.395	-1004
1014.467	-1436
1014.539	-1667
1014.611	-2241
1014.683	-1633
1014.754	-1589
1014.826	-1111
1014.898	-1925
1014.970	-1848
1015.042	-930
1015.113	-1555
1015.185	-767
1015.257	-1444
1015.328	-914
1015.400	-1710
1015.471	-1623
1015.543	-1833
1015.615	-1535
1015.686	-1930
1015.757	-1692
1015.829	-1658
1015.901	-1670
1015.972	-1659
1016.043	-2092
1016.115	-1786
1016.186	-2219
1016.257	-1739
1016.328	-1228
1016.400	-270
1016.471	-1834
1016.542	-669
1016.613	-1991
1016.685	-1540
1016.756	-1439
1016.827	-994
1016.898	-2225
1016.969	-1705
1017.040	-2055
1017.111	-1935
1017.182	-2707
1017.253	-1713
1017.324	-1829
1017.395	-1905
1017.466	-1324
1017.537	-2217
1017.608	-1938
1017.678	-1672
1017.749	-1812
1017.820	-1007
1017.891	-2580
1017.961	-937
1018.032	-1491
1018.103	-1171
1018.173	-1115
1018.244	-1938
1018.315	-2028
1018.385	-1025
1018.456	-1851
1018.526	-1998
1018.597	-2575
1018.667	-2020
1018.738	-1438
1018.808	-1998
1018.878	-2932
1018.949	-1928
1019.019	-2179
1019.089	-1730
1019.160	-1499
1019.230	-2372
1019.300	-1855
1019.371	-1679
1019.441	-782
1019.511	-2011
1019.581	-2578
1019.651	-1677
1019.721	-2062
1019.791	-1615
1019.861	-1669
1019.931	-1516
1020.001	-2767
1020.071	-1648
1020.141	-2706
1020.211	-1159
1020.281	-1756
1020.351	-1751
1020.421	-1142
1020.491	-602
1020.560	-2265
1020.630	-2344
1020.700	-2291
1020.770	-1277
1020.839	-1461
1020.909	-1942
1020.979	-860
1021.048	-1528
1021.118	-2267
1021.187	-2577
1021.257	-2241
1021.326	-1579
1021.396	-1864
1021.465	-1304
1021.535	-2386
1021.604	-1857
1021.674	-1516
1021.743	-1666
1021.812	-2082
1021.882	-1865
1021.951	-2097
1022.020	-1566
1022.089	-1984
1022.159	-1980
1022.228	-1515
1022.297	-2046
1022.366	-2635
1022.435	-2689
1022.504	-2215
1022.573	-2105
1022.642	-1153
1022.711	-2283
1022.781	-1667
1022.849	-916
1022.918	-1681
1022.987	-1519
1023.056	-2503
1023.125	-2389
1023.194	-2320
1023.263	-1384
1023.331	-1769
1023.400	-1947
1023.469	-2363
1023.538	-1792
1023.606	-2885
1023.675	-2389
1023.744	-2601
1023.812	-1430
1023.881	-2179
1023.949	-502
1024.018	-2177
1024.086	-1906
1024.155	-1762
1024.223	-2428
1024.292	-2568
1024.360	-1931
1024.429	-1976
1024.497	-1920
1024.565	-2449
1024.634	-2266
1024.702	-2343
1024.770	-1587
1024.838	-3126
1024.907	-1469
1024.975	-2207
1025.043	-1695
1025.111	-2948
1025.179	-1790
1025.247	-2153
1025.315	-2489
1025.383	-1992
1025.451	-2323
1025.519	-2491
1025.587	-2323
1025.655	-1270
1025.723	-2789
1025.791	-2452
1025.859	-827
1025.927	-2510
1025.995	-1888
1026.062	-1552
1026.130	-2310
1026.198	-2361
1026.266	-1680
1026.333	-1972
1026.401	-1988
1026.469	-2350
1026.536	-2257
1026.604	-1991
1026.671	-1959
1026.739	-2098
1026.806	-1981
1026.874	-2206
1026.941	-2150
1027.009	-2528
1027.076	-2325
1027.144	-1825
1027.211	-1120
1027.278	-1921
1027.345	-2177
1027.413	-1489
1027.480	-2022
1027.547	-2555
1027.614	-2592
1027.682	-1555
1027.749	-2570
1027.816	-1992
1027.883	-1835
1027.950	-1636
1028.017	-2483
1028.084	-2775
1028.151	-2033
1028.218	-1853
1028.285	-1412
1028.352	-2715
1028.419	-1784
1028.486	-2203
1028.553	-2375
1028.619	-1991
1028.686	-1910
1028.753	-2658
1028.820	-2048
1028.886	-1871
1028.953	-1891
1029.020	-1856
1029.086	-2281
1029.153	-2447
1029.220	-1913
1029.286	-2214
1029.353	-1244
1029.419	-2610
1029.486	-2081
1029.552	-2540
1029.619	-1791
1029.685	-2526
1029.751	-1905
1029.818	-1582
1029.884	-1827
1029.951	-2103
1030.017	-1666
1030.083	-1987
1030.149	-2549
1030.216	-1315
1030.282	-257
1030.348	-1957
1030.414	-1923
1030.480	-2120
1030.546	-1828
1030.612	-2080
1030.678	-1791
1030.744	-2277
1030.810	-1797
1030.876	-2091
1030.942	-1053
1031.008	-2248
1031.074	-2345
1031.140	-1689
1031.206	-2041
1031.272	-2495
1031.337	-1795
1031.403	-2256
1031.469	-2502
1031.534	-2136
1031.600	-2098
1031.666	-2687
1031.731	-2084
1031.797	-1988
1031.863	-2266
1031.928	-2069
1031.994	-1645
1032.059	-1703
1032.125	-2159
1032.190	-2411
1032.256	-2417
1032.321	-2516
1032.386	-1978
1032.452	-1907
1032.517	-1984
1032.582	-2060
1032.647	-2067
1032.713	-1672
1032.778	-1660
1032.843	-2789
1032.908	-1853
1032.974	-3077
1033.039	-1862
1033.104	-1533
1033.169	-1664
1033.234	-2326
1033.299	-1461
1033.364	-1665
1033.429	-1959
1033.494	-1649
1033.559	-1998
1033.624	-1984
1033.688	-1892
1033.753	-1055
1033.818	-921
1033.883	-1802
1033.948	-1394
1034.013	-2408
1034.077	-1568
1034.142	-2460
1034.207	-1460
1034.271	-1238
1034.336	-1223
1034.400	-851
1034.465	-1483
1034.530	-1380
1034.594	-2209
1034.658	-1872
1034.723	-1304
1034.787	-2107
1034.852	-1617
1034.916	-2412
1034.981	-1663
1035.045	-1967
1035.109	-1863
1035.173	-2125
1035.238	-1847
1035.302	-1500
1035.366	-1751
1035.430	-1831
1035.495	-2004
1035.559	-1610
1035.623	-1884
1035.687	-2142
1035.751	-1993
1035.815	-2255
1035.879	-1863
1035.943	-2353
1036.007	-2044
1036.071	-2573
1036.135	-1952
1036.198	-2072
1036.262	-2315
1036.326	-1816
1036.390	-1910
1036.454	-1828
1036.517	-1449
1036.581	-1746
1036.645	-1254
1036.709	-1715
1036.772	-552
1036.836	-1618
1036.900	-2440
1036.963	-2253
1037.026	-2241
1037.090	-1562
1037.154	-1943
1037.217	-1777
1037.280	-1753
1037.344	-1762
1037.407	-2943
1037.471	-1764
1037.534	-1741
1037.597	-2290
1037.661	-1568
1037.724	-2422
1037.787	-2022
1037.850	-1427
1037.913	-2283
1037.977	-1644
1038.040	-2066
1038.103	-1576
1038.166	-2370
1038.229	-2040
1038.292	-1843
1038.355	-2155
1038.418	-1745
1038.481	-1930
1038.544	-1764
1038.607	-2298
1038.670	-1753
1038.732	-2461
1038.795	-2042
1038.858	-2625
1038.921	-2287
1038.984	-1629
1039.046	-2696
1039.109	-1213
1039.172	-2730
1039.234	-1795
1039.297	-2315
1039.360	-2672
1039.422	-1951
1039.485	-2481
1039.547	-2704
1039.610	-2484
1039.672	-2015
1039.734	-2745
1039.797	-1569
1039.859	-2169
1039.922	-2105
1039.984	-2093
1040.046	-1965
1040.109	-2355
1040.171	-1956
1040.233	-2690
1040.295	-2444
1040.358	-2391
1040.420	-2973
1040.482	-1876
1040.544	-1705
1040.606	-2741
1040.668	-2060
1040.730	-1908
1040.792	-2312
1040.854	-1562
1040.916	-2052
1040.978	-2637
1041.040	-1784
1041.102	-1641
1041.164	-1731
1041.225	-2754
1041.287	-2866
1041.349	-2280
1041.411	-1800
1041.472	-2112
1041.534	-1823
1041.596	-3319
1041.657	-1717
1041.719	-2105
1041.781	-2343
1041.842	-2576
1041.904	-1734
1041.965	-1798
1042.027	-2768
1042.088	-2419
1042.150	-2057
1042.211	-2070
1042.272	-1638
1042.334	-1999
1042.395	-2256
1042.456	-2961
1042.518	-2122
1042.579	-3000
1042.640	-2773
1042.701	-2423
1042.763	-2270
1042.824	-2052
1042.885	-2595
1042.946	-2487
1043.007	-1229
1043.068	-2178
1043.129	-2142
1043.190	-2907
1043.251	-2223
1043.312	-2827
1043.373	-1698
1043.434	-2051
1043.495	-1663
1043.556	-2058
1043.616	-1741
1043.677	-2120
1043.738	-2260
1043.799	-3149
1043.859	-1571
1043.920	-2074
1043.981	-1664
1044.041	-2019
1044.102	-2058
1044.162	-1449
1044.223	-1970
1044.284	-2291
1044.344	-1551
1044.405	-2033
1044.465	-2261
1044.525	-1998
1044.586	-2163
1044.646	-2641
1044.707	-1229
1044.767	-2830
1044.827	-2252
1044.887	-1824
1044.948	-1622
1045.008	-1617
1045.068	-2600
1045.128	-2272
1045.188	-1889
1045.249	-1800
1045.309	-2175
1045.369	-2026
1045.429	-422
1045.489	-2213
1045.549	-2215
1045.609	-1671
1045.669	-2736
1045.729	-2643
1045.789	-1110
1045.848	-1709
1045.908	-1872
1045.968	-1596
1046.028	-1997
1046.088	-2195
1046.147	-947
1046.207	-1797
1046.267	-1014
1046.326	-1577
1046.386	-1484
1046.446	-1472
1046.505	-1092
1046.565	-1156
1046.624	-689
1046.684	-929
1046.743	-904
1046.803	-880
1046.862	-941
1046.922	0
