'Start Wavelength	183.907
'End Wavelength	1046.922
'Gate Delay	5.000
'Gate Width (ms)	1.050
'Laser Output Level	0.000
'X Position	0.000
'Y Position	0.000
'Z Position	0.000
'Grid Point Number	1.000
'Shot Number	100.000
183.907	613.000
183.977	65.000
184.047	-100
184.116	858
184.186	486
184.256	-568
184.325	526
184.395	245
184.465	51
184.534	301
184.604	291
184.674	75
184.743	-119
184.813	244
184.883	-71
184.952	501
185.022	579
185.092	123
185.161	451
185.231	-44
185.301	264
185.370	233
185.440	147
185.509	-13
185.579	-195
185.649	70
185.718	-240
185.788	-173
185.857	415
185.927	-308
185.996	-284
186.066	-60
186.136	593
186.205	-7
186.275	755
186.344	-180
186.414	1083
186.483	327
186.553	1438
186.622	865
186.692	213
186.761	362
186.831	-232
186.900	601
186.970	590
187.039	654
187.109	805
187.178	372
187.248	266
187.317	985
187.387	140
187.456	557
187.526	998
187.595	-168
187.664	1104
187.734	-52
187.803	686
187.873	566
187.942	855
188.012	175
188.081	925
188.150	279
188.220	209
188.289	1365
188.358	784
188.428	-31
188.497	221
188.567	573
188.636	199
188.705	417
188.775	29
188.844	141
188.913	363
188.983	134
189.052	622
189.121	933
189.191	954
189.260	409
189.329	825
189.399	143
189.468	396
189.537	-386
189.606	240
189.676	465
189.745	691
189.814	511
189.883	556
189.953	513
190.022	743
190.091	1872
190.161	1049
190.230	535
190.299	531
190.368	393
190.437	503
190.507	648
190.576	-68
190.645	641
190.714	535
190.783	290
190.853	563
190.922	260
190.991	424
191.060	296
191.129	294
191.198	404
191.268	430
191.337	-82
191.406	308
191.475	519
191.544	597
191.613	739
191.682	577
191.752	413
191.821	524
191.890	367
191.959	663
192.028	42
192.097	708
192.166	491
192.235	-72
192.304	489
192.373	1035
192.442	528
192.511	-31
192.580	628
192.650	339
192.719	971
192.788	431
192.857	1609
192.926	207
192.995	906
193.064	1166
193.133	1174
193.202	1943
193.271	1165
193.340	1462
193.409	1525
193.478	2257
193.547	2307
193.615	3170
193.684	1667
193.753	691
193.822	654
193.891	373
193.960	1013
194.029	1111
194.098	910
194.167	504
194.236	633
194.305	404
194.374	441
194.443	1137
194.512	640
194.580	1632
194.649	1248
194.718	894
194.787	68
194.856	661
194.925	1049
194.994	1313
195.062	752
195.131	2020
195.200	1243
195.269	1337
195.338	1299
195.407	1187
195.475	927
195.544	1218
195.613	984
195.682	1694
195.751	1517
195.819	1955
195.888	1062
195.957	1559
196.026	1221
196.094	1778
196.163	1682
196.232	1533
196.301	1075
196.369	1556
196.438	974
196.507	1842
196.576	588
196.644	442
196.713	375
196.782	1194
196.850	1266
196.919	953
196.988	605
197.056	616
197.125	1090
197.194	674
197.262	186
197.331	1012
197.400	807
197.468	1037
197.537	833
197.606	1035
197.674	1548
197.743	1131
197.812	1668
197.880	2145
197.949	1272
198.017	2442
198.086	1425
198.155	573
198.223	2388
198.292	2119
198.360	1217
198.429	1461
198.497	930
198.566	1795
198.635	1740
198.703	928
198.772	1725
198.840	3981
198.909	1940
198.977	1384
199.046	932
199.114	1331
199.183	1102
199.251	1215
199.320	528
199.388	544
199.457	778
199.525	477
199.594	539
199.662	1050
199.731	1201
199.799	1191
199.867	1007
199.936	1314
200.004	826
200.073	1379
200.141	496
200.210	859
200.278	1093
200.346	1498
200.415	1699
200.483	1364
200.552	998
200.620	1062
200.688	1105
200.757	740
200.825	542
200.893	1411
200.962	696
201.030	928
201.098	830
201.167	1007
201.235	1223
201.303	1083
201.372	1632
201.440	1758
201.508	1852
201.577	2149
201.645	547
201.713	1010
201.781	2375
201.850	1913
201.918	881
201.986	932
202.055	1139
202.123	1396
202.191	956
202.259	1667
202.327	1247
202.396	1281
202.464	1223
202.532	2741
202.600	4914
202.669	1742
202.737	2016
202.805	934
202.873	1182
202.941	2054
203.009	1236
203.078	1330
203.146	1096
203.214	1195
203.282	897
203.350	1565
203.418	1178
203.487	1960
203.555	1477
203.623	1504
203.691	1053
203.759	971
203.827	1318
203.895	1636
203.963	901
204.031	2075
204.099	1608
204.168	1696
204.236	1762
204.304	1751
204.372	1137
204.440	1161
204.508	577
204.576	1353
204.644	857
204.712	1194
204.780	1486
204.848	1540
204.916	1160
204.984	1532
205.052	1171
205.120	1897
205.188	1418
205.256	1859
205.324	1143
205.392	932
205.460	1711
205.528	1520
205.596	1673
205.664	1196
205.732	1434
205.799	4850
205.867	3098
205.935	1790
206.003	1987
206.071	2119
206.139	1117
206.207	1472
206.275	1830
206.343	1538
206.411	963
206.478	1551
206.546	1808
206.614	1690
206.682	1233
206.750	1589
206.818	2295
206.885	2177
206.953	951
207.021	1616
207.089	1140
207.157	1352
207.225	1573
207.292	2346
207.360	1651
207.428	1493
207.496	1466
207.563	1874
207.631	1646
207.699	1312
207.767	1520
207.834	1968
207.902	1232
207.970	1822
208.038	1395
208.105	1406
208.173	1711
208.241	2416
208.309	2990
208.376	2599
208.444	2679
208.512	2070
208.579	1094
208.647	2062
208.715	2294
208.782	2141
208.850	2316
208.918	1755
208.985	1977
209.053	2436
209.120	1106
209.188	1693
209.256	1753
209.323	2529
209.391	2949
209.459	2769
209.526	1624
209.594	1971
209.661	2034
209.729	2288
209.796	1713
209.864	2705
209.932	2318
209.999	2411
210.067	2454
210.134	1656
210.202	2503
210.269	2924
210.337	2917
210.404	2440
210.472	2151
210.539	2271
210.607	2432
210.674	2181
210.742	1680
210.809	2450
210.877	2575
210.944	3289
211.012	2144
211.079	2349
211.146	2084
211.214	3075
211.281	3151
211.349	2592
211.416	2313
211.484	3169
211.551	2108
211.618	1893
211.686	2167
211.753	2407
211.821	2298
211.888	1824
211.955	2332
212.023	1535
212.090	2035
212.157	1659
212.225	3198
212.292	4461
212.359	8571
212.427	9564
212.494	3995
212.561	3403
212.629	3066
212.696	3104
212.763	1899
212.831	2159
212.898	1457
212.965	2205
213.032	2199
213.100	2917
213.167	3179
213.234	2666
213.301	2186
213.369	3390
213.436	2048
213.503	2872
213.570	2428
213.638	2376
213.705	2058
213.772	2501
213.839	3119
213.906	3223
213.973	2933
214.041	2187
214.108	2293
214.175	3084
214.242	3105
214.309	2492
214.376	3242
214.444	2739
214.511	3349
214.578	2291
214.645	3143
214.712	3372
214.779	2638
214.846	2948
214.913	3375
214.980	4031
215.048	3739
215.115	3893
215.182	3159
215.249	3434
215.316	2504
215.383	2286
215.450	2575
215.517	2541
215.584	2511
215.651	1966
215.718	2235
215.785	3310
215.852	3271
215.919	3979
215.986	2698
216.053	2604
216.120	2307
216.187	3508
216.254	2684
216.321	3026
216.388	2250
216.455	2920
216.522	3278
216.589	4163
216.656	6465
216.722	5418
216.789	4694
216.856	4882
216.923	3872
216.990	3852
217.057	3966
217.124	4324
217.191	5067
217.258	6470
217.324	5940
217.391	5827
217.458	4275
217.525	2930
217.592	2113
217.659	3627
217.725	3429
217.792	4682
217.859	2583
217.926	3463
217.993	2423
218.059	2396
218.126	2210
218.193	2255
218.260	2166
218.327	2448
218.393	1925
218.460	1503
218.527	2223
218.594	3749
218.660	4380
218.727	3669
218.794	1989
218.860	2405
218.927	2062
218.994	1917
219.061	2393
219.127	3779
219.194	3292
219.261	1750
219.327	1479
219.394	1515
219.461	1294
219.527	1874
219.594	2378
219.661	1777
219.727	1493
219.794	1925
219.860	2189
219.927	2872
219.994	4382
220.060	6015
220.127	3858
220.193	3753
220.260	3783
220.326	6882
220.393	8526
220.460	8181
220.526	5711
220.593	4860
220.659	4026
220.726	6046
220.792	9243
220.859	11192
220.925	14141
220.992	13628
221.058	13250
221.125	9962
221.191	6668
221.258	3574
221.324	3629
221.391	2972
221.457	2610
221.524	3039
221.590	5597
221.657	9926
221.723	5297
221.789	6329
221.856	4596
221.922	3523
221.989	3068
222.055	2801
222.121	2840
222.188	3544
222.254	3220
222.321	2363
222.387	1432
222.453	2284
222.520	1763
222.586	2478
222.652	1775
222.719	2383
222.785	1682
222.851	2123
222.918	1457
222.984	2451
223.050	2324
223.116	2203
223.183	2133
223.249	1337
223.315	1025
223.382	1849
223.448	1288
223.514	1154
223.580	954
223.647	1441
223.713	1424
223.779	1462
223.845	1721
223.911	1627
223.978	717
224.044	2363
224.110	1630
224.176	1321
224.242	1557
224.309	585
224.375	893
224.441	1194
224.507	1346
224.573	1209
224.639	1601
224.705	1570
224.772	1617
224.838	1987
224.904	1256
224.970	1474
225.036	1670
225.102	1884
225.168	1561
225.234	1779
225.300	1009
225.366	1286
225.432	2020
225.499	2353
225.565	2416
225.631	2229
225.697	3111
225.763	3172
225.829	3887
225.895	4262
225.961	4840
226.027	4125
226.093	4326
226.159	6489
226.225	10173
226.291	22571
226.357	19649
226.423	11374
226.489	7030
226.554	5049
226.620	5334
226.686	8358
226.752	11790
226.818	22356
226.884	29082
226.950	18591
227.016	9289
227.082	7118
227.148	5415
227.214	5201
227.279	4263
227.345	3954
227.411	4177
227.477	6023
227.543	9613
227.609	6948
227.674	5205
227.740	3206
227.806	3081
227.872	3002
227.938	4166
228.003	4181
228.069	2409
228.135	2347
228.201	1504
228.267	2799
228.332	3581
228.398	4070
228.464	2114
228.530	1833
228.595	1697
228.661	2911
228.727	4008
228.792	2696
228.858	2777
228.924	2821
228.990	1894
229.055	3396
229.121	2039
229.187	2852
229.252	2944
229.318	2130
229.384	2523
229.449	2339
229.515	1314
229.581	1114
229.646	2146
229.712	3089
229.777	6405
229.843	4517
229.909	4416
229.974	5519
230.040	3708
230.105	4212
230.171	4156
230.236	5532
230.302	5849
230.368	4206
230.433	3831
230.499	3752
230.564	3433
230.630	2893
230.695	1921
230.761	1816
230.826	2444
230.892	3998
230.957	1829
231.023	2618
231.088	2210
231.154	2884
231.219	2448
231.284	5120
231.350	3002
231.415	2605
231.481	2372
231.546	2333
231.612	1464
231.677	1513
231.742	1818
231.808	1987
231.873	1614
231.939	1996
232.004	4798
232.069	2301
232.135	2124
232.200	1844
232.265	1932
232.331	1098
232.396	2140
232.461	1395
232.527	1649
232.592	1778
232.657	2089
232.723	3145
232.788	1885
232.853	1756
232.918	1739
232.984	1442
233.049	1742
233.114	3094
233.179	1386
233.245	4430
233.310	2198
233.375	1511
233.440	1118
233.506	1356
233.571	839
233.636	1527
233.701	1864
233.766	3795
233.832	2007
233.897	2488
233.962	2616
234.027	2273
234.092	2617
234.157	2535
234.222	3032
234.288	5842
234.353	6853
234.418	6174
234.483	4651
234.548	4080
234.613	3561
234.678	4213
234.743	5479
234.808	8218
234.873	4249
234.938	3263
235.004	2937
235.069	2978
235.134	2663
235.199	2815
235.264	2391
235.329	2515
235.394	2936
235.459	3197
235.524	2642
235.589	2584
235.654	1616
235.719	2224
235.784	1711
235.849	3337
235.913	4622
235.978	5712
236.043	3336
236.108	2699
236.173	3144
236.238	3006
236.303	2953
236.368	3331
236.433	5558
236.498	5548
236.563	7619
236.627	22551
236.692	37552
236.757	19703
236.822	11122
236.887	7967
236.952	6066
237.017	6243
237.081	7738
237.146	12921
237.211	25434
237.276	45312
237.341	40703
237.405	18688
237.470	9976
237.535	6498
237.600	4767
237.664	4475
237.729	4193
237.794	10136
237.859	10639
237.923	5174
237.988	4159
238.053	5310
238.118	6495
238.182	12351
238.247	5884
238.312	4710
238.376	4264
238.441	3460
238.506	3648
238.570	2742
238.635	2280
238.700	2461
238.764	2277
238.829	7023
238.893	4433
238.958	5096
239.023	3472
239.087	3298
239.152	2614
239.216	2890
239.281	2461
239.346	2798
239.410	2020
239.475	4916
239.539	10576
239.604	4225
239.668	2723
239.733	3760
239.797	9770
239.862	14141
239.926	7587
239.991	3261
240.055	2253
240.120	2504
240.184	2102
240.249	1868
240.313	2581
240.378	3280
240.442	9100
240.507	5504
240.571	2475
240.635	5915
240.700	4790
240.764	2633
240.829	1877
240.893	1274
240.957	2299
241.022	8106
241.086	6718
241.151	3265
241.215	2006
241.279	4579
241.344	3928
241.408	3414
241.472	4333
241.537	3814
241.601	3568
241.665	3154
241.730	2694
241.794	3511
241.858	3937
241.922	3350
241.987	3376
242.051	2754
242.115	3161
242.179	3061
242.244	2661
242.308	3157
242.372	4071
242.436	4140
242.501	3351
242.565	3389
242.629	2427
242.693	2720
242.757	2576
242.822	2963
242.886	2883
242.950	3019
243.014	3003
243.078	4676
243.142	3599
243.206	3292
243.271	3272
243.335	3985
243.399	8208
243.463	34510
243.527	27320
243.591	9824
243.655	5398
243.719	3727
243.783	6033
243.847	9374
243.911	9465
243.975	12177
244.040	6114
244.104	3488
244.168	4022
244.232	8853
244.296	9252
244.360	7912
244.424	3377
244.488	3380
244.552	2863
244.615	2898
244.679	3241
244.743	5901
244.807	3295
244.871	2347
244.935	2638
244.999	3213
245.063	3243
245.127	4820
245.191	7476
245.255	4617
245.319	7075
245.383	2933
245.446	2773
245.510	3454
245.574	3102
245.638	2714
245.702	6423
245.766	7809
245.829	3917
245.893	3239
245.957	3824
246.021	4218
246.085	4578
246.149	7757
246.212	16888
246.276	12631
246.340	7454
246.404	5191
246.467	8657
246.531	6705
246.595	4480
246.659	5041
246.722	6116
246.786	6720
246.850	8877
246.913	5292
246.977	4126
247.041	4842
247.104	4208
247.168	7798
247.232	19536
247.295	19749
247.359	6954
247.423	8298
247.486	9252
247.550	5288
247.614	7081
247.677	6766
247.741	4858
247.804	4768
247.868	5745
247.932	19290
247.995	15296
248.059	6573
248.122	5294
248.186	7485
248.249	22175
248.313	41197
248.376	31055
248.440	16492
248.503	8023
248.567	9873
248.630	15257
248.694	17662
248.757	30879
248.821	33969
248.884	21152
248.948	28035
249.011	35608
249.075	46837
249.138	25283
249.202	13616
249.265	9706
249.328	8993
249.392	9195
249.455	7115
249.519	7131
249.582	11594
249.645	13323
249.709	7494
249.772	5837
249.835	6266
249.899	5639
249.962	5919
250.025	7962
250.089	22468
250.152	14697
250.215	9419
250.279	7387
250.342	7441
250.405	7218
250.468	7722
250.532	10557
250.595	21173
250.658	62430
250.721	40721
250.785	19618
250.848	12644
250.911	8435
250.974	8586
251.038	20457
251.101	18114
251.164	12310
251.227	13516
251.290	12116
251.354	30319
251.417	67413
251.480	38296
251.543	65851
251.606	91754
251.669	46518
251.732	31809
251.795	32996
251.859	45308
251.922	56883
251.985	23244
252.048	15409
252.111	12895
252.174	15778
252.237	37397
252.300	42475
252.363	67531
252.426	59362
252.489	26300
252.552	15007
252.615	12284
252.678	21997
252.741	36748
252.804	63994
252.867	68049
252.930	40815
252.993	23194
253.056	16787
253.119	11279
253.182	13321
253.245	16981
253.308	12375
253.371	13377
253.434	10872
253.497	15851
253.559	19833
253.622	15501
253.685	25531
253.748	14716
253.811	10056
253.874	11840
253.937	9579
254.000	10151
254.062	23034
254.125	18842
254.188	26257
254.251	10731
254.314	11126
254.376	21163
254.439	17205
254.502	14443
254.565	24630
254.628	22667
254.690	13533
254.753	8283
254.816	7306
254.878	10511
254.941	20961
255.004	10132
255.067	8439
255.129	6816
255.192	4334
255.255	5468
255.317	4920
255.380	3418
255.443	3341
255.505	3904
255.568	4271
255.631	4192
255.693	4773
255.756	2727
255.819	3247
255.881	2912
255.944	2848
256.006	3215
256.069	3309
256.132	3446
256.194	6622
256.257	7471
256.319	6853
256.382	5895
256.444	5059
256.507	4788
256.569	4305
256.632	5954
256.694	9905
256.757	45221
256.819	43604
256.882	15191
256.944	8562
257.007	8280
257.069	6088
257.132	5305
257.194	5044
257.257	5340
257.319	5396
257.381	8229
257.444	32482
257.506	83563
257.569	48864
257.631	25557
257.693	13362
257.756	8018
257.818	5407
257.880	3814
257.943	4009
258.005	4876
258.067	4020
258.130	4765
258.192	8459
258.254	9561
258.317	4412
258.379	7307
258.441	16036
258.503	7020
258.566	15153
258.628	7631
258.690	4292
258.753	8432
258.815	9747
258.877	5446
258.939	4468
259.001	4036
259.064	4374
259.126	5463
259.188	4843
259.250	5357
259.312	8838
259.375	13854
259.437	5913
259.499	4121
259.561	4494
259.623	5034
259.685	3926
259.747	4875
259.809	16590
259.872	17627
259.934	36253
259.996	18814
260.058	6427
260.120	4364
260.182	3375
260.244	3259
260.306	3125
260.368	3550
260.430	5045
260.492	14588
260.554	12634
260.616	10758
260.678	25136
260.740	10792
260.802	5073
260.864	5124
260.926	4627
260.988	4676
261.050	6738
261.112	22070
261.174	23093
261.236	8624
261.298	6471
261.359	12111
261.421	7107
261.483	4444
261.545	3786
261.607	3561
261.669	3388
261.731	11116
261.793	13085
261.854	6996
261.916	5181
261.978	5828
262.040	3597
262.102	4461
262.164	5294
262.225	3305
262.287	7226
262.349	12596
262.411	4819
262.472	3558
262.534	10670
262.596	7031
262.658	3666
262.719	2783
262.781	7548
262.843	8016
262.904	4028
262.966	3735
263.028	8711
263.090	50617
263.151	38723
263.213	20311
263.275	9992
263.336	4718
263.398	3458
263.459	3261
263.521	6553
263.583	11201
263.644	5090
263.706	2003
263.767	2567
263.829	1665
263.891	2569
263.952	1431
264.014	3117
264.075	14622
264.137	12312
264.198	4433
264.260	1740
264.321	3830
264.383	22612
264.444	16678
264.506	5303
264.567	5323
264.629	19474
264.690	13736
264.752	5988
264.813	4060
264.875	3310
264.936	3298
264.998	3078
265.059	2615
265.120	3811
265.182	15722
265.243	45177
265.305	15633
265.366	5859
265.427	4114
265.489	2622
265.550	3893
265.611	4229
265.673	4409
265.734	3056
265.795	2253
265.857	2446
265.918	3816
265.979	24377
266.040	63952
266.102	21278
266.163	12447
266.224	8197
266.286	4265
266.347	2895
266.408	3806
266.469	2476
266.530	3091
266.592	4401
266.653	13929
266.714	7730
266.775	3410
266.836	2708
266.898	4615
266.959	6092
267.020	2838
267.081	2404
267.142	3487
267.203	1894
267.264	2925
267.326	3839
267.387	3479
267.448	2565
267.509	3079
267.570	2482
267.631	2672
267.692	2233
267.753	2686
267.814	2734
267.875	14523
267.936	11324
267.997	10138
268.058	6580
268.119	4108
268.180	3400
268.241	3146
268.302	2587
268.363	3307
268.424	3230
268.485	2772
268.546	1763
268.607	2296
268.668	895
268.729	1800
268.790	2251
268.851	5727
268.912	14514
268.972	8980
269.033	4171
269.094	1961
269.155	2119
269.216	2259
269.277	1729
269.338	2029
269.398	3372
269.459	4891
269.520	7089
269.581	9313
269.642	7270
269.702	5522
269.763	3549
269.824	3978
269.885	8693
269.945	5573
270.006	2768
270.067	1914
270.128	2184
270.188	2711
270.249	2387
270.310	1890
270.370	3189
270.431	2022
270.492	1740
270.553	4357
270.613	12679
270.674	11891
270.734	4660
270.795	4509
270.856	7085
270.916	3210
270.977	3110
271.038	5402
271.098	4341
271.159	10781
271.219	3418
271.280	3375
271.340	2575
271.401	5384
271.462	5964
271.522	4020
271.583	3282
271.643	3571
271.704	3497
271.764	6168
271.825	22763
271.885	53557
271.946	28708
272.006	14680
272.066	37884
272.127	22757
272.187	8687
272.248	6053
272.308	14220
272.369	21372
272.429	9118
272.489	14422
272.550	10109
272.610	13581
272.671	6087
272.731	8529
272.791	10184
272.852	7588
272.912	5607
272.972	3558
273.033	5120
273.093	6949
273.153	6381
273.214	3967
273.274	9077
273.334	36884
273.394	25746
273.455	13144
273.515	28992
273.575	24442
273.635	11442
273.696	29146
273.756	25122
273.816	10223
273.876	8562
273.936	20968
273.997	11364
274.057	6285
274.117	6606
274.177	23936
274.237	51639
274.297	21603
274.358	23439
274.418	28813
274.478	14030
274.538	6056
274.598	8171
274.658	19500
274.718	13566
274.778	6452
274.838	5193
274.898	19033
274.958	25241
275.018	32579
275.078	14045
275.138	7042
275.198	3883
275.258	3929
275.318	7586
275.378	14678
275.438	9659
275.498	7761
275.558	22371
275.618	31326
275.678	16184
275.738	18377
275.798	10326
275.858	4308
275.918	4459
275.978	6355
276.038	3619
276.098	4722
276.157	23206
276.217	22300
276.277	10596
276.337	7223
276.397	5625
276.457	5638
276.517	3523
276.576	3099
276.636	4511
276.696	10402
276.756	19185
276.815	7670
276.875	6126
276.935	6478
276.995	4238
277.055	4085
277.114	3553
277.174	17149
277.234	18061
277.293	6940
277.353	4278
277.413	4552
277.472	6082
277.532	3524
277.592	8403
277.651	40532
277.711	20182
277.771	24253
277.830	53369
277.890	20209
277.950	51492
278.009	47368
278.069	18419
278.128	44972
278.188	23775
278.248	29396
278.307	44021
278.367	12480
278.426	7080
278.486	4748
278.545	4525
278.605	3664
278.664	4276
278.724	6478
278.783	30191
278.843	21543
278.902	7766
278.962	7623
279.021	7417
279.081	7947
279.140	7650
279.199	8666
279.259	7436
279.318	7686
279.378	11043
279.437	32089
279.496	99296
279.556	161294
279.615	59740
279.675	25926
279.734	21981
279.793	42042
279.853	30504
279.912	12425
279.971	9509
280.031	10060
280.090	31660
280.149	21528
280.208	49031
280.268	134585
280.327	51179
280.386	22406
280.445	27134
280.505	13382
280.564	8846
280.623	7949
280.682	21640
280.742	12148
280.801	5777
280.860	4936
280.919	5164
280.978	5063
281.037	3722
281.097	3435
281.156	3763
281.215	3953
281.274	12550
281.333	28503
281.392	8516
281.451	4520
281.510	4386
281.569	4290
281.628	2914
281.688	3772
281.747	5138
281.806	3894
281.865	3483
281.924	4124
281.983	2971
282.042	3259
282.101	2819
282.160	3325
282.219	2693
282.278	9279
282.337	17441
282.396	5264
282.454	4371
282.513	15306
282.572	24682
282.631	7715
282.690	4516
282.749	5709
282.808	6374
282.867	7219
282.926	4877
282.985	3469
283.043	2959
283.102	3785
283.161	5280
283.220	23625
283.279	15482
283.338	6661
283.396	5188
283.455	5823
283.514	8363
283.573	9857
283.631	6031
283.690	5352
283.749	6977
283.808	17322
283.866	8331
283.925	5745
283.984	7159
284.043	10166
284.101	7588
284.160	7272
284.219	8361
284.277	8132
284.336	22199
284.395	40495
284.453	16458
284.512	15037
284.570	18452
284.629	15186
284.688	17914
284.746	19500
284.805	24461
284.863	32896
284.922	37649
284.981	50300
285.039	79231
285.098	144246
285.156	206966
285.215	165587
285.273	216456
285.332	159296
285.390	101278
285.449	66918
285.507	47044
285.566	34795
285.624	26164
285.683	21071
285.741	17417
285.799	15679
285.858	14230
285.916	12369
285.975	10558
286.033	8871
286.091	8138
286.150	7073
286.208	8346
286.267	8422
286.325	10280
286.383	13510
286.442	7335
286.500	6323
286.558	5247
286.616	6209
286.675	8164
286.733	7299
286.791	5941
286.850	7894
286.908	14225
286.966	11402
287.024	6435
287.083	4454
287.141	3612
287.199	7767
287.257	6682
287.315	5246
287.374	11088
287.432	16120
287.490	7494
287.548	6139
287.606	4288
287.664	6271
287.723	10370
287.781	6446
287.839	6086
287.897	7515
287.955	7882
288.013	13405
288.071	43257
288.129	186389
288.187	184755
288.245	66726
288.303	29610
288.361	19348
288.419	14643
288.477	9303
288.535	7517
288.593	5327
288.651	4622
288.709	4075
288.767	4785
288.825	3768
288.883	3839
288.941	3146
288.999	2990
289.057	3169
289.115	3534
289.173	3770
289.231	4499
289.289	3168
289.346	3947
289.404	6092
289.462	10963
289.520	7324
289.578	3276
289.636	3396
289.694	2370
289.751	2440
289.809	2878
289.867	2903
289.925	6412
289.983	4833
290.040	2639
290.098	3157
290.156	5129
290.214	4492
290.271	2503
290.329	2717
290.387	2327
290.444	2815
290.502	1365
290.560	3073
290.617	2332
290.675	2916
290.733	4134
290.790	3150
290.848	2783
290.906	3530
290.963	3215
291.021	2291
291.078	2375
291.136	5768
291.194	31853
291.251	19348
291.309	5781
291.366	3938
291.424	3831
291.481	4184
291.539	4067
291.596	3585
291.654	1844
291.711	2357
291.769	7869
291.826	9319
291.884	4034
291.941	2904
291.999	3688
292.056	5177
292.114	4046
292.171	3891
292.228	4458
292.286	7731
292.343	13760
292.401	9786
292.458	5575
292.515	5430
292.573	7172
292.630	6126
292.687	5042
292.745	4506
292.802	12028
292.859	26721
292.917	29073
292.974	10771
293.031	5101
293.089	4394
293.146	3818
293.203	2592
293.260	2816
293.318	7554
293.375	7013
293.432	3906
293.489	3162
293.546	4136
293.604	7940
293.661	36607
293.718	38365
293.775	17273
293.832	11693
293.889	9754
293.947	7669
294.004	6171
294.061	7997
294.118	25802
294.175	42164
294.232	29030
294.289	11803
294.346	8180
294.403	6316
294.460	5822
294.517	4735
294.574	4013
294.631	3264
294.688	5657
294.745	31549
294.802	68400
294.859	39955
294.916	17638
294.973	12430
295.030	11030
295.087	6811
295.144	5782
295.201	4285
295.258	4635
295.315	9500
295.372	36078
295.429	25786
295.486	12096
295.542	13344
295.599	44567
295.656	34507
295.713	38272
295.770	25022
295.827	10058
295.883	6891
295.940	9821
295.997	16673
296.054	10403
296.111	5571
296.167	3734
296.224	3211
296.281	3522
296.338	3202
296.394	4149
296.451	8324
296.508	29029
296.564	25367
296.621	28110
296.678	65720
296.734	41333
296.791	16307
296.848	11306
296.904	22066
296.961	38975
297.018	42634
297.074	19230
297.131	9404
297.187	8220
297.244	19878
297.301	68943
297.357	44441
297.414	16712
297.470	8531
297.527	7242
297.583	6765
297.640	6885
297.696	4355
297.753	4248
297.809	4043
297.866	3061
297.922	3306
297.979	3563
298.035	5610
298.092	15407
298.148	29334
298.204	15765
298.261	12039
298.317	42333
298.374	45522
298.430	20547
298.486	12543
298.543	9376
298.599	8708
298.656	13305
298.712	36827
298.768	45986
298.824	19680
298.881	9429
298.937	5876
298.993	8150
299.050	9003
299.106	7685
299.162	7039
299.218	5977
299.275	4302
299.331	6718
299.387	28192
299.443	59230
299.500	34419
299.556	15760
299.612	10072
299.668	11867
299.724	16917
299.780	10123
299.837	7278
299.893	24951
299.949	54542
300.005	40165
300.061	63082
300.117	51695
300.173	22279
300.229	17463
300.285	25017
300.341	18316
300.397	9484
300.453	7213
300.510	6222
300.566	6106
300.622	15112
300.678	47695
300.734	46222
300.790	48249
300.845	35613
300.901	43225
300.957	48246
301.013	22860
301.069	11562
301.125	12775
301.181	10358
301.237	7674
301.293	5850
301.349	4656
301.405	4691
301.461	5730
301.516	6721
301.572	12626
301.628	15450
301.684	14269
301.740	28757
301.796	22619
301.851	27570
301.907	33910
301.963	31947
302.019	91080
302.074	139199
302.130	89716
302.186	39154
302.242	20178
302.297	14380
302.353	23690
302.409	29659
302.464	19593
302.520	34354
302.576	60141
302.631	47906
302.687	25021
302.743	11654
302.798	8628
302.854	6675
302.910	8325
302.965	14218
303.021	19072
303.076	20236
303.132	30434
303.187	20795
303.243	11533
303.299	7238
303.354	6584
303.410	6323
303.465	5774
303.521	5189
303.576	5451
303.632	7782
303.687	29168
303.743	44755
303.798	24527
303.853	11560
303.909	8396
303.964	9474
304.020	19227
304.075	17775
304.130	29328
304.186	37565
304.241	34146
304.297	21278
304.352	12635
304.358	12288
304.407	9481
304.449	10046
304.463	10245
304.518	9345
304.539	8256
304.573	6519
304.629	7530
304.630	7798
304.684	19836
304.720	38539
304.739	48150
304.794	34462
304.811	29678
304.850	18119
304.902	10557
304.905	10081
304.960	8966
304.992	9070
305.015	9147
305.071	8261
305.083	7901
305.126	6570
305.173	5089
305.181	4847
305.236	4043
305.264	5289
305.292	6595
305.347	7881
305.354	7994
305.402	8562
305.445	9498
305.457	9807
305.512	11048
305.535	10164
305.567	8798
305.622	11023
305.626	12064
305.678	29371
305.716	45758
305.733	52502
305.788	34914
305.807	34585
305.843	33463
305.897	43786
305.898	43932
305.953	28240
305.988	21861
306.008	17899
306.063	11806
306.078	10800
306.118	8567
306.168	5965
306.173	5732
306.228	4717
306.259	4240
306.283	3891
306.338	4733
306.349	4930
306.393	5755
306.440	5571
306.448	5504
306.503	5109
306.530	7828
306.558	11141
306.613	23151
306.620	24870
306.668	35863
306.711	40045
306.723	40670
306.778	24980
306.801	20490
306.833	14133
306.888	7892
306.892	7653
306.943	5921
306.982	5754
306.997	5713
307.052	4948
307.072	5169
307.107	5531
307.162	7745
307.163	7784
307.217	10988
307.253	14084
307.272	15462
307.327	12342
307.343	11595
307.381	9318
307.434	9703
307.436	9833
307.491	24011
307.524	31574
307.546	35824
307.600	27428
307.614	25084
307.655	15551
307.704	9108
307.710	8673
307.765	10365
307.795	14966
307.819	19537
307.874	22434
307.885	21867
307.929	16365
307.975	13577
307.984	13461
308.038	16887
308.065	24960
308.093	36383
308.148	95157
308.156	103971
308.202	160387
308.246	154149
308.257	144858
308.312	88593
308.336	70538
308.366	55963
308.421	33268
308.426	31883
308.475	21661
308.517	15663
308.530	14277
308.585	12251
308.607	11582
308.639	10550
308.694	10577
308.697	11049
308.748	20814
308.787	24942
308.803	25624
308.857	19221
308.877	18371
308.912	16193
308.967	15288
308.967	15354
309.021	19631
309.058	26858
309.076	31819
309.130	55818
309.148	68986
309.185	105554
309.238	169122
309.239	169699
309.293	190836
309.328	179021
309.348	153949
309.402	85788
309.418	70080
309.457	49579
309.508	32379
309.511	31670
309.566	28566
309.598	30867
309.620	34206
309.674	48653
309.688	50310
309.729	50097
309.778	42892
309.783	41515
309.837	27663
309.868	23040
309.892	22276
309.946	30291
309.959	32482
310.001	43621
310.049	46581
310.055	44923
310.109	27728
310.139	20157
310.163	15818
310.218	9350
310.229	8394
310.272	6612
310.319	5486
310.326	5362
310.381	4920
310.409	4719
310.435	4289
310.489	3826
310.499	3805
310.543	3955
310.589	4179
310.598	4163
310.652	4117
310.679	4020
310.706	3893
310.760	3469
310.769	3477
310.814	2964
310.859	2433
310.868	2435
310.923	2763
310.948	2919
310.977	2964
311.031	3235
311.038	3243
311.085	3351
311.128	3567
311.139	3452
311.193	2976
311.218	2705
311.247	2595
311.301	2617
311.308	2636
311.356	2663
311.398	2613
311.410	2654
311.464	3027
311.488	3143
311.518	2807
311.572	2438
311.578	2429
311.626	3131
311.668	3584
311.680	3604
311.734	3844
311.758	3947
311.788	3926
311.842	3969
311.847	4009
311.896	4425
311.937	4878
311.950	5023
312.004	5700
312.027	6026
312.058	4677
312.112	2369
312.117	2161
312.165	2123
312.207	2140
312.297	4320
312.386	4608
312.476	2615
312.566	4847
312.656	4172
312.745	2628
312.835	2135
312.925	3249
313.015	2412
313.104	2686
313.194	2253
313.284	2221
313.374	2981
313.463	3723
313.553	2144
313.643	2134
313.732	2305
313.822	2325
313.912	2509
314.001	3742
314.091	3546
314.180	5616
314.270	3390
314.360	3917
314.449	2638
314.539	2687
314.628	2647
314.718	3145
314.808	3221
314.897	2749
314.987	2759
315.076	3439
315.166	3825
315.255	3649
315.345	3738
315.434	3026
315.524	2986
315.613	3753
315.703	3659
315.792	5293
315.881	9338
315.971	6837
316.060	5314
316.150	8031
316.239	8545
316.328	5579
316.418	2219
316.507	2679
316.597	2799
316.686	3685
316.775	3413
316.865	9550
316.954	3911
317.043	2524
317.133	2421
317.222	2968
317.311	2304
317.400	2347
317.490	2308
317.579	3917
317.668	2318
317.757	3105
317.847	6946
317.936	16546
318.025	12876
318.114	6573
318.203	4527
318.293	5423
318.382	11449
318.471	11714
318.560	13971
318.649	25320
318.738	10695
318.828	3365
318.917	3953
319.006	3581
319.095	10838
319.184	27897
319.273	24165
319.362	10664
319.451	2813
319.540	3685
319.629	5112
319.718	10201
319.807	4194
319.896	9906
319.985	33794
320.074	23117
320.163	4258
320.252	5469
320.341	4925
320.430	7331
320.519	5531
320.608	4735
320.697	3198
320.786	3358
320.875	3730
320.964	4874
321.053	6282
321.142	9428
321.230	10963
321.319	8754
321.408	17207
321.497	12954
321.586	6817
321.675	8974
321.764	9558
321.852	6408
321.941	9512
322.030	8971
322.119	7255
322.207	17871
322.296	15977
322.385	8559
322.474	7999
322.562	19010
322.651	17978
322.740	7511
322.829	11708
322.917	12850
323.006	8661
323.095	6036
323.183	4754
323.272	5794
323.361	10114
323.449	30907
323.538	17882
323.626	18557
323.715	22705
323.804	5643
323.892	17767
323.981	18151
324.069	4688
324.158	9149
324.246	15663
324.335	5242
324.424	7187
324.512	3895
324.601	4078
324.689	5336
324.778	9605
324.866	9718
324.954	3907
325.043	3158
325.131	4401
325.220	9733
325.308	11455
325.397	7813
325.485	6965
325.574	2683
325.662	2065
325.750	2889
325.839	2893
325.927	2436
326.015	2672
326.104	4284
326.192	5857
326.280	2766
326.369	2135
326.457	3356
326.545	5021
326.634	3939
326.722	1705
326.810	2692
326.898	2022
326.987	3105
327.075	4122
327.163	5794
327.251	3690
327.340	3884
327.428	6703
327.516	3222
327.604	2535
327.692	2302
327.781	1711
327.869	4071
327.957	3710
328.045	3425
328.133	2150
328.221	2142
328.309	2298
328.397	2683
328.485	1996
328.574	3440
328.662	9366
328.750	8807
328.838	3060
328.926	2320
329.014	1725
329.102	2492
329.190	6938
329.278	7468
329.366	1452
329.454	2044
329.542	1836
329.630	2207
329.718	2052
329.806	3140
329.893	2701
329.981	2790
330.069	3662
330.157	13090
330.245	48422
330.333	41047
330.421	7299
330.509	4868
330.597	11548
330.684	13137
330.772	4711
330.860	5568
330.948	7723
331.036	4618
331.123	1637
331.211	2307
331.299	2685
331.387	4774
331.475	12789
331.562	5431
331.650	1735
331.738	2122
331.825	3333
331.913	2176
332.001	1199
332.089	2819
332.176	4737
332.264	9949
332.352	12618
332.439	4048
332.527	3004
332.614	2086
332.702	3034
332.790	2038
332.877	4209
332.965	12549
333.052	5562
333.140	4070
333.228	8868
333.315	4239
333.403	2595
333.490	5574
333.578	8838
333.665	10523
333.753	7943
333.840	2609
333.928	2410
334.015	6260
334.103	10980
334.190	35312
334.278	20136
334.365	5257
334.452	5248
334.540	2976
334.627	3105
334.715	4124
334.802	5404
334.889	29067
334.977	54351
335.064	12001
335.151	3376
335.239	3463
335.326	4076
335.413	14002
335.501	35460
335.588	6916
335.675	2970
335.762	3625
335.850	7800
335.937	5081
336.024	8288
336.111	39860
336.199	36915
336.286	8249
336.373	2721
336.460	2630
336.547	2277
336.635	3346
336.722	2679
336.809	3032
336.896	2878
336.983	8659
337.070	28242
337.157	43782
337.245	29302
337.332	27824
337.419	3416
337.506	3032
337.593	2233
337.680	6593
337.767	31893
337.854	13687
337.941	9488
338.028	10792
338.115	6099
338.202	3565
338.289	6140
338.376	23371
338.463	15085
338.550	12411
338.637	26848
338.724	5813
338.811	8857
338.898	3568
338.984	2301
339.071	2394
339.158	3164
339.245	6762
339.332	6217
339.419	4320
339.506	7950
339.593	2113
339.679	1210
339.766	1724
339.853	1712
339.940	4819
340.027	2763
340.113	1615
340.200	2155
340.287	2314
340.374	2287
340.460	4847
340.547	2970
340.634	2676
340.720	9347
340.807	11460
340.894	2415
340.980	2265
341.067	1619
341.154	1947
341.240	2578
341.327	6866
341.414	3683
341.500	3072
341.587	2255
341.674	1932
341.760	3698
341.847	5717
341.933	2198
342.020	1527
342.106	739
342.193	1307
342.279	3495
342.366	2766
342.452	3849
342.539	2699
342.625	4139
342.712	13412
342.798	7884
342.885	3318
342.971	924
343.058	1220
343.144	1258
343.230	1563
343.317	1827
343.403	1884
343.490	1598
343.576	891
343.662	1575
343.749	1800
343.835	2449
343.921	3271
344.008	16883
344.094	62747
344.180	25039
344.267	5141
344.353	12855
344.439	24856
344.525	8536
344.612	3907
344.698	2524
344.784	1955
344.870	609
344.957	2040
345.043	2493
345.129	1515
345.215	3504
345.301	3706
345.387	2730
345.474	1586
345.560	1440
345.646	2026
345.732	1503
345.818	2108
345.904	1678
345.990	2360
346.076	2073
346.162	4232
346.249	2961
346.335	1975
346.421	1204
346.507	4136
346.593	23267
346.679	12383
346.765	2329
346.851	1804
346.937	1547
347.023	1910
347.108	1611
347.194	2041
347.280	1556
347.366	2020
347.452	4723
347.538	25166
347.624	25704
347.710	22772
347.796	6055
347.882	1699
347.967	1530
348.053	2190
348.139	2148
348.225	2238
348.311	1603
348.397	1185
348.482	979
348.568	2623
348.654	1458
348.740	2023
348.825	3339
348.911	2697
348.997	8280
349.083	29028
349.168	9523
349.254	1841
349.340	1901
349.425	1850
349.511	1439
349.597	3077
349.682	4334
349.768	14627
349.854	13901
349.939	2759
350.025	1826
350.110	1506
350.196	868
350.282	1389
350.367	1086
350.453	1224
350.538	3526
350.624	2208
350.709	2733
350.795	1283
350.880	1612
350.966	1517
351.051	2753
351.137	2297
351.222	958
351.308	3319
351.393	14751
351.479	7470
351.564	2291
351.649	1808
351.735	1643
351.820	1519
351.906	902
351.991	1701
352.076	6346
352.162	17405
352.247	4413
352.332	2158
352.418	2834
352.503	5030
352.588	15204
352.673	24821
352.759	5237
352.844	2402
352.929	1919
353.014	3695
353.100	1658
353.185	3516
353.270	4713
353.355	6936
353.441	1841
353.526	1717
353.611	3446
353.696	6098
353.781	2719
353.866	1954
353.952	1076
354.037	3163
354.122	9113
354.207	9504
354.292	5164
354.377	2393
354.462	1533
354.547	1783
354.632	2074
354.717	3020
354.802	4879
354.887	2722
354.972	1389
355.057	1563
355.142	693
355.227	1232
355.312	1694
355.397	5708
355.482	13689
355.567	12547
355.652	3963
355.737	6136
355.822	12887
355.907	23550
355.991	3732
356.076	1924
356.161	1108
356.246	1788
356.331	1982
356.416	3549
356.501	19546
356.585	43469
356.670	8209
356.755	3032
356.840	3824
356.924	11724
357.009	63952
357.094	50263
357.179	7104
357.263	5603
357.348	3266
357.433	4895
357.517	4228
357.602	3263
357.687	2057
357.771	3953
357.856	8617
357.941	8501
358.025	8635
358.110	57934
358.195	55613
358.279	8301
358.364	2977
358.448	8125
358.533	31077
358.617	33756
358.702	24968
358.787	16397
358.871	4329
358.956	6267
359.040	2401
359.125	2029
359.209	1192
359.294	3747
359.378	7904
359.462	5195
359.547	3135
359.631	2945
359.716	1235
359.800	1782
359.885	2711
359.969	2747
360.053	1841
360.138	2146
360.222	2412
360.306	4822
360.391	4367
360.475	4379
360.559	12906
360.644	13356
360.728	12598
360.812	10601
360.896	44145
360.981	28658
361.065	14360
361.149	4028
361.233	2000
361.318	2779
361.402	3349
361.486	2939
361.570	1871
361.654	2447
361.739	3973
361.823	19056
361.907	53982
361.991	18195
362.075	4308
362.159	9577
362.243	9208
362.327	7383
362.411	13049
362.495	8333
362.580	4202
362.664	2595
362.748	2314
362.832	3012
362.916	3950
363.000	12487
363.084	39021
363.168	67045
363.252	25352
363.336	6031
363.420	5213
363.503	17880
363.587	44883
363.671	12171
363.755	3632
363.839	5468
363.923	3533
364.007	5227
364.091	7606
364.175	7155
364.258	35217
364.342	44273
364.426	40502
364.510	35690
364.594	11480
364.677	8794
364.761	30012
364.845	43827
364.929	10320
365.013	9201
365.096	5494
365.180	7954
365.264	6647
365.347	37448
365.431	34853
365.515	8704
365.598	3125
365.682	2619
365.766	3959
365.849	9291
365.933	4123
366.017	3622
366.100	4279
366.184	1763
366.267	1940
366.351	1245
366.435	1194
366.518	1470
366.602	859
366.685	1749
366.769	2161
366.852	3243
366.936	7358
367.019	5666
367.103	2907
367.186	7324
367.270	3906
367.353	1075
367.436	1508
367.520	1958
367.603	1906
367.687	2846
367.770	5247
367.853	5053
367.937	7485
368.020	24392
368.104	9417
368.187	3204
368.270	6138
368.353	7222
368.437	5569
368.520	14569
368.603	15900
368.687	10364
368.770	29268
368.853	13047
368.936	5005
369.020	8794
369.103	3673
369.186	1562
369.269	2503
369.352	2846
369.436	6408
369.519	4728
369.602	2286
369.685	2301
369.768	1772
369.851	2311
369.934	1961
370.018	2141
370.101	4165
370.184	5019
370.267	3378
370.350	4273
370.433	7685
370.516	16979
370.599	34058
370.682	12493
370.765	11840
370.848	16988
370.931	30791
371.014	23333
371.097	4982
371.180	2289
371.263	1063
371.346	1369
371.429	1343
371.511	2657
371.594	2673
371.677	6423
371.760	8539
371.843	6623
371.926	14543
372.009	61610
372.091	35826
372.174	11318
372.257	29421
372.340	23389
372.423	8664
372.505	14594
372.588	7964
372.671	6290
372.754	26879
372.836	27045
372.919	9501
373.002	30184
373.085	15927
373.167	4799
373.250	9767
373.332	28648
373.415	34271
373.498	79082
373.580	50981
373.663	25312
373.746	62859
373.828	24111
373.911	6050
373.993	4939
374.076	16018
374.159	35099
374.241	9991
374.324	21303
374.406	26848
374.489	15182
374.571	61614
374.654	50825
374.736	11380
374.819	33269
374.901	53555
374.983	73412
375.066	24058
375.148	4699
375.231	11217
375.313	43575
375.395	26524
375.478	5493
375.560	2634
375.643	3384
375.725	5997
375.807	38830
375.890	55862
375.972	24011
376.054	10401
376.136	13719
376.219	10816
376.301	7581
376.383	39670
376.465	31757
376.548	9207
376.630	10463
376.712	30543
376.794	31986
376.877	3754
376.959	1716
377.041	1780
377.123	3837
377.205	9070
377.287	3460
377.369	1704
377.452	1928
377.534	1667
377.616	1238
377.698	1097
377.780	1194
377.862	2044
377.944	1923
378.026	888
378.108	2008
378.190	1560
378.272	2203
378.354	587
378.436	1063
378.518	1529
378.600	8689
378.682	11512
378.764	13707
378.846	21477
378.928	6101
379.010	6473
379.091	5692
379.173	1440
379.255	2140
379.337	1564
379.419	4906
379.501	23098
379.583	21459
379.664	3957
379.746	4560
379.828	13295
379.910	25222
379.991	29492
380.073	8721
380.155	2466
380.237	2423
380.318	1105
380.400	1240
380.482	2622
380.564	6478
380.645	5465
380.727	6893
380.809	4293
380.890	3405
380.972	2630
381.053	2347
381.135	2311
381.217	4158
381.298	16481
381.380	16145
381.461	6590
381.543	22002
381.624	57153
381.706	19163
381.787	4929
381.869	5374
381.951	8487
382.032	48415
382.113	60547
382.195	15152
382.276	7230
382.358	8427
382.439	29458
382.521	38929
382.602	60950
382.684	40738
382.765	36482
382.846	60188
382.928	82669
383.009	80110
383.090	29937
383.172	74120
383.253	207759
383.334	109109
383.416	55767
383.497	47871
383.578	17880
383.659	22313
383.741	58543
383.822	225480
383.903	221602
383.984	57913
384.066	60936
384.147	61554
384.228	17801
384.309	7779
384.390	7404
384.471	5700
384.553	4902
384.634	5692
384.715	6942
384.796	4390
384.877	4192
384.958	11355
385.039	27566
385.120	13548
385.201	4822
385.282	4760
385.363	5698
385.444	5432
385.525	6115
385.606	19318
385.687	34438
385.768	11100
385.849	6853
385.930	15788
386.011	54947
386.092	30571
386.173	5295
386.254	2655
386.335	3252
386.416	3418
386.496	7305
386.577	21498
386.658	12597
386.739	5807
386.820	5381
386.901	4762
386.981	4518
387.062	2942
387.143	2947
387.224	12760
387.304	25176
387.385	10690
387.466	4701
387.547	6237
387.627	5222
387.708	5026
387.789	21476
387.869	49764
387.950	24308
388.031	3762
388.111	1830
388.192	5149
388.273	11193
388.353	10160
388.434	3842
388.514	4302
388.595	19224
388.676	47549
388.756	29270
388.837	16509
388.917	17484
388.998	4880
389.078	2333
389.159	2321
389.239	1952
389.320	2859
389.400	3911
389.480	4837
389.561	18622
389.641	19478
389.722	3845
389.802	4990
389.883	6693
389.963	20257
390.043	25034
390.124	9546
390.204	4224
390.284	16263
390.365	20491
390.445	10811
390.525	31705
390.605	40901
390.686	20172
390.766	7200
390.846	2407
390.927	1743
391.007	1733
391.087	2782
391.167	3171
391.247	3495
391.328	2600
391.408	5173
391.488	6105
391.568	2834
391.648	2452
391.728	4782
391.808	3789
391.888	4557
391.969	6840
392.049	20947
392.129	13918
392.209	8305
392.289	20807
392.369	22100
392.449	11566
392.529	12665
392.609	6445
392.689	6163
392.769	15746
392.849	29335
392.929	13133
393.009	29170
393.089	39035
393.169	19594
393.248	36481
393.328	159838
393.408	329896
393.488	150003
393.568	35252
393.648	14751
393.728	8813
393.807	6962
393.887	5456
393.967	5159
394.047	5621
394.127	6592
394.206	8116
394.286	17666
394.366	88390
394.446	200827
394.525	82810
394.605	15726
394.685	8065
394.764	12826
394.844	27265
394.924	33635
395.003	11238
395.083	4815
395.163	4233
395.242	4044
395.322	3777
395.402	3601
395.481	3497
395.561	6210
395.640	27012
395.720	34596
395.799	29440
395.879	43228
395.958	18024
396.038	25643
396.117	119807
396.197	260571
396.276	122653
396.356	34208
396.435	19019
396.515	14764
396.594	10572
396.673	16324
396.753	36307
396.832	165614
396.912	247533
396.991	89428
397.070	19505
397.150	8814
397.229	6346
397.308	6149
397.388	13136
397.467	11757
397.546	3441
397.625	2786
397.705	3375
397.784	3417
397.863	3048
397.942	1977
398.022	2047
398.101	4061
398.180	25015
398.259	30527
398.338	8475
398.417	3535
398.497	2374
398.576	1998
398.655	1658
398.734	1385
398.813	1272
398.892	3359
398.971	23913
399.050	32494
399.129	5529
399.208	1005
399.287	1139
399.366	1106
399.445	1117
399.524	1464
399.603	629
399.682	2486
399.761	5251
399.840	20949
399.919	41021
399.998	10962
400.077	1341
400.156	636
400.235	1542
400.313	1789
400.392	1016
400.471	4043
400.550	16335
400.629	10365
400.708	2159
400.786	1548
400.865	3563
400.944	10120
401.023	6970
401.102	911
401.180	-141
401.259	1025
401.338	952
401.416	1803
401.495	2090
401.574	1668
401.652	1144
401.731	1101
401.810	2203
401.888	1335
401.967	651
402.046	1554
402.124	1129
402.203	2791
402.281	2115
402.360	1563
402.438	5951
402.517	11147
402.596	2915
402.674	1761
402.753	719
402.831	874
402.910	876
402.988	3021
403.066	20264
403.145	28150
403.223	7294
403.302	16514
403.380	22818
403.459	16051
403.537	13054
403.615	3563
403.694	405
403.772	763
403.850	333
403.929	554
404.007	428
404.085	1638
404.164	3855
404.242	2256
404.320	829
404.398	1506
404.477	2905
404.555	24769
404.633	60926
404.711	18724
404.789	2341
404.868	2090
404.946	920
405.024	962
405.102	-51
405.180	95
405.258	-723
405.336	1361
405.415	11
405.493	1745
405.571	3969
405.649	1943
405.727	94
405.805	1399
405.883	1798
405.961	1446
406.039	2774
406.117	2333
406.195	1336
406.273	3292
406.351	25317
406.429	42875
406.507	10093
406.585	3020
406.663	945
406.740	1577
406.818	1908
406.896	1147
406.974	-146
407.052	1424
407.130	9189
407.208	38888
407.285	19439
407.363	2160
407.441	524
407.519	886
407.596	1044
407.674	1672
407.752	4934
407.830	9285
407.907	8195
407.985	3072
408.063	1271
408.141	11
408.218	724
408.296	2527
408.373	1499
408.451	1342
408.529	933
408.606	674
408.684	486
408.762	316
408.839	-69
408.917	-340
408.994	56
409.072	-47
409.149	-41
409.227	671
409.304	2297
409.382	2224
409.459	1613
409.537	3431
409.614	3336
409.692	2446
409.769	1135
409.846	2924
409.924	4043
410.001	4640
410.079	3027
410.156	2178
410.233	747
410.311	1775
410.388	917
410.465	1099
410.543	982
410.620	1450
410.697	-87
410.775	2108
410.852	1130
410.929	843
411.006	1857
411.083	1691
411.161	2103
411.238	4380
411.315	3625
411.392	1597
411.469	949
411.547	2184
411.624	672
411.701	609
411.778	882
411.855	1523
411.932	1952
412.009	712
412.086	746
412.163	724
412.240	676
412.317	1563
412.394	1927
412.471	1724
412.548	-111
412.625	404
412.702	70
412.779	1519
412.856	2717
412.933	1221
413.010	523
413.087	744
413.164	2890
413.241	15083
413.318	8610
413.395	2312
413.471	2051
413.548	2565
413.625	366
413.702	498
413.779	1230
413.855	396
413.932	-351
414.009	-239
414.086	-134
414.162	382
414.239	445
414.316	3451
414.393	16197
414.469	18184
414.546	2124
414.623	409
414.699	-97
414.776	395
414.853	-20
414.929	386
415.006	999
415.082	52
415.159	913
415.236	513
415.312	161
415.389	831
415.465	2158
415.542	2374
415.618	198
415.695	1201
415.771	809
415.848	795
415.924	1095
416.000	997
416.077	894
416.153	-89
416.230	-416
416.306	20
416.383	-84
416.459	669
416.535	-562
416.612	-507
416.688	423
416.764	-130
416.841	-804
416.917	348
416.993	136
417.069	176
417.146	588
417.222	1313
417.298	1366
417.374	845
417.451	428
417.527	595
417.603	761
417.679	722
417.755	534
417.831	-86
417.908	-668
417.984	-290
418.060	-348
418.136	7
418.212	2601
418.288	2103
418.364	589
418.440	280
418.516	1012
418.592	1153
418.668	3089
418.744	6152
418.820	6543
418.896	2703
418.972	-89
419.048	177
419.124	794
419.200	2933
419.276	751
419.352	34
419.428	-300
419.504	19
419.579	603
419.655	1018
419.731	151
419.807	1455
419.883	5312
419.959	7129
420.034	2673
420.110	949
420.186	6418
420.262	15734
420.337	5478
420.413	894
420.489	847
420.565	-196
420.640	-264
420.716	778
420.792	340
420.867	600
420.943	-153
421.019	1696
421.094	1706
421.170	1350
421.245	266
421.321	1562
421.397	77
421.472	1062
421.548	1743
421.623	4976
421.699	2901
421.774	2415
421.850	1954
421.925	2139
422.001	3576
422.076	3446
422.152	2788
422.227	4674
422.302	7359
422.378	9175
422.453	13087
422.529	27310
422.604	73972
422.679	190536
422.755	208135
422.830	111913
422.905	39903
422.981	18856
423.056	10578
423.131	7676
423.207	5452
423.282	4049
423.357	4554
423.432	5746
423.508	3969
423.583	4274
423.658	8926
423.733	4024
423.808	1784
423.883	2670
423.959	2540
424.034	2337
424.109	2198
424.184	1077
424.259	776
424.334	955
424.409	-292
424.484	437
424.559	252
424.634	315
424.709	900
424.784	1843
424.859	1225
424.934	1395
425.009	3073
425.084	12556
425.159	14547
425.234	2402
425.309	153
425.384	1133
425.459	2485
425.534	3496
425.609	207
425.683	79
425.758	-565
425.833	51
425.908	572
425.983	1397
426.058	9766
426.132	15367
426.207	3854
426.282	2271
426.357	2088
426.431	1715
426.506	511
426.581	383
426.655	37
426.730	949
426.805	-415
426.879	909
426.954	-154
427.029	1064
427.103	4438
427.178	25357
427.253	37065
427.327	9858
427.402	934
427.476	3704
427.551	6130
427.625	1824
427.700	1434
427.774	609
427.849	804
427.923	513
427.998	170
428.072	1051
428.147	2007
428.221	4129
428.296	25377
428.370	48752
428.444	13175
428.519	2222
428.593	4790
428.667	8827
428.742	6412
428.816	8631
428.890	10426
428.965	43882
429.039	38198
429.113	10641
429.188	8947
429.262	2060
429.336	-65
429.410	4461
429.485	7995
429.559	4737
429.633	6810
429.707	3799
429.781	2607
429.855	9999
429.930	46433
430.004	43271
430.078	26203
430.152	40299
430.226	35715
430.300	76200
430.374	41911
430.448	6233
430.522	3980
430.596	17546
430.670	36548
430.744	21181
430.818	66966
430.892	54052
430.966	7377
431.040	2044
431.114	374
431.188	258
431.262	288
431.336	-446
431.410	931
431.484	4293
431.557	11013
431.631	4136
431.705	865
431.779	2402
431.853	15389
431.927	48075
432.000	19141
432.074	1472
432.148	203
432.222	1517
432.295	882
432.369	-61
432.443	-33
432.516	3802
432.590	25427
432.664	38774
432.737	9171
432.811	1115
432.885	-49
432.958	-92
433.032	54
433.106	-303
433.179	-1112
433.253	-67
433.326	-377
433.400	-183
433.473	-936
433.547	-554
433.620	-108
433.694	25
433.767	1997
433.841	884
433.914	13
433.988	398
434.061	-623
434.134	-128
434.208	-397
434.281	57
434.355	-1242
434.428	-356
434.501	-434
434.575	-635
434.648	48
434.721	-12
434.795	-727
434.868	-545
434.941	-863
435.014	-423
435.088	-392
435.161	261
435.234	526
435.307	2477
435.381	2184
435.454	856
435.527	847
435.600	2385
435.673	1616
435.746	1313
435.819	122
435.892	310
435.966	-49
436.039	-393
436.112	106
436.185	255
436.258	-261
436.331	-388
436.404	-407
436.477	-695
436.550	-684
436.623	268
436.696	-698
436.769	112
436.842	-600
436.915	387
436.987	208
437.060	598
437.133	-187
437.206	-15
437.279	-39
437.352	-10
437.425	-276
437.498	116
437.570	-193
437.643	3187
437.716	1813
437.789	-318
437.861	17
437.934	2788
438.007	6533
438.080	2288
438.152	59
438.225	1173
438.298	3684
438.370	32684
438.443	60153
438.516	20437
438.588	4867
438.661	1078
438.734	421
438.806	-17
438.879	170
438.951	841
439.024	1660
439.096	2529
439.169	688
439.241	-313
439.314	-684
439.386	257
439.459	1891
439.531	2659
439.604	2688
439.676	1343
439.749	146
439.821	-436
439.893	-255
439.966	477
440.038	-1147
440.110	611
440.183	582
440.255	-51
440.327	-109
440.400	1706
440.472	13631
440.544	43958
440.617	20640
440.689	2425
440.761	1416
440.833	4337
440.905	5478
440.978	3477
441.050	-247
441.122	-297
441.194	-148
441.266	384
441.338	-144
441.411	648
441.483	1727
441.555	16293
441.627	16852
441.699	4182
441.771	1620
441.843	2254
441.915	187
441.987	114
442.059	727
442.131	903
442.203	979
442.275	1802
442.347	2689
442.419	2729
442.491	4642
442.563	30121
442.635	57481
442.706	24137
442.778	13536
442.850	8111
442.922	1582
442.994	1646
443.066	1532
443.137	3961
443.209	2275
443.281	2519
443.353	3420
443.425	8768
443.496	38570
443.568	116746
443.640	101444
443.711	35992
443.783	6760
443.855	2793
443.926	1403
443.998	952
444.070	1745
444.141	2648
444.213	2037
444.285	3083
444.356	3074
444.428	2878
444.499	1888
444.571	902
444.642	1120
444.714	469
444.785	1530
444.857	3051
444.928	4336
445.000	8389
445.071	5206
445.143	6214
445.214	6479
445.285	5224
445.357	8927
445.428	24923
445.500	88622
445.571	161896
445.642	104759
445.714	51041
445.785	21598
445.856	15018
445.928	5965
445.999	3939
446.070	4306
446.141	2542
446.213	3243
446.284	3903
446.355	2173
446.426	1905
446.497	1204
446.569	1727
446.640	2448
446.711	4352
446.782	2001
446.853	858
446.924	640
446.995	1194
447.066	927
447.138	1327
447.209	2647
447.280	1633
447.351	-53
447.422	-845
447.493	-189
447.564	1691
447.635	1581
447.706	2119
447.777	151
447.847	217
447.918	-364
447.989	1214
448.060	940
448.131	2638
448.202	5436
448.273	5554
448.344	3241
448.414	1774
448.485	735
448.556	247
448.627	-278
448.698	317
448.768	-654
448.839	-220
448.910	633
448.981	3298
449.051	3367
449.122	984
449.193	557
449.263	-358
449.334	-519
449.405	74
449.475	1658
449.546	3459
449.616	3486
449.687	3930
449.758	2803
449.828	880
449.899	640
449.969	478
450.040	266
450.110	752
450.181	1259
450.251	1366
450.322	186
450.392	1014
450.463	777
450.533	762
450.604	350
450.674	639
450.744	916
450.815	413
450.885	498
450.955	533
451.026	407
451.096	2
451.166	103
451.237	958
451.307	4563
451.377	10030
451.447	4257
451.518	451
451.588	159
451.658	666
451.728	420
451.799	2508
451.869	10939
451.939	12377
452.009	3160
452.079	528
452.149	733
452.219	508
452.289	3857
452.360	12633
452.430	9386
452.500	1713
452.570	1383
452.640	2354
452.710	3559
452.780	11079
452.850	15506
452.920	10723
452.990	9132
453.060	3416
453.129	1470
453.199	3305
453.269	4006
453.339	28683
453.409	53400
453.479	47051
453.549	45353
453.619	67067
453.688	72329
453.758	31818
453.828	4578
453.898	1322
453.968	1209
454.037	1766
454.087	879
454.107	486
454.168	505
454.177	472
454.247	774
454.249	824
454.316	1150
454.330	1241
454.386	1418
454.411	2103
454.456	2282
454.492	4966
454.525	7232
454.574	9574
454.595	10765
454.655	4825
454.665	3881
454.734	2916
454.736	3041
454.804	4191
454.817	5186
454.873	6291
454.898	8795
454.943	12517
454.979	13064
455.013	14347
455.060	8415
455.082	6198
455.141	5489
455.152	5137
455.221	7375
455.222	7681
455.291	9589
455.303	10065
455.360	14583
455.384	12500
455.430	9659
455.465	8332
455.499	6308
455.546	8496
455.569	7879
455.627	9194
455.638	9920
455.707	8051
455.708	8045
455.777	2560
455.789	2494
455.846	1983
455.869	1969
455.916	1923
455.950	2053
455.985	2038
456.031	2108
456.054	2068
456.112	2012
456.124	2058
456.193	2221
456.193	2188
456.262	2696
456.274	2855
456.332	3236
456.355	3428
456.401	3010
456.436	2616
456.470	2490
456.516	2393
456.540	2396
456.597	1816
456.609	1652
456.678	2394
456.678	2374
456.747	2163
456.759	2189
456.817	2255
456.840	2145
456.886	1695
456.920	1992
456.955	2547
457.001	2721
457.024	2992
457.082	4586
457.093	4820
457.162	5568
457.163	5622
457.232	4930
457.243	4847
457.301	4339
457.324	3651
457.370	3277
457.405	3135
457.439	2909
457.485	3293
457.508	3594
457.566	4107
457.577	4297
457.646	6018
457.647	6075
457.715	9962
457.727	10861
457.784	18966
457.808	22299
457.853	22420
457.889	24463
457.922	22187
457.969	18899
457.991	22866
458.050	29385
458.060	31117
458.129	43916
458.130	44532
458.198	29406
458.211	26290
458.267	21509
458.292	16841
458.336	15313
458.372	13460
458.405	15830
458.453	22058
458.474	29091
458.533	51316
458.543	51823
458.611	59854
458.614	60584
458.680	34103
458.694	26865
458.749	22924
458.775	17393
458.818	11328
458.855	8677
458.887	6872
458.936	5796
458.955	5424
459.016	5748
459.024	5753
459.093	5572
459.097	5604
459.162	6340
459.177	6407
459.230	7266
459.257	8318
459.299	8434
459.338	7850
459.368	8140
459.418	9019
459.437	8442
459.499	6134
459.505	6072
459.574	6259
459.579	6211
459.643	5582
459.659	5604
459.711	6040
459.740	6159
459.780	6555
459.820	7441
459.849	7713
459.900	7640
459.917	7491
459.981	7777
459.986	7788
460.054	7118
460.061	7135
460.123	8265
460.141	8607
460.191	11273
460.222	12617
460.260	13103
460.302	14424
460.328	12701
460.382	9324
460.397	9482
460.462	8980
460.465	9030
460.534	10667
460.543	10898
460.602	19838
460.623	23244
460.671	38020
460.703	48080
460.739	35932
460.783	23469
460.808	20846
460.864	12472
460.876	12836
460.944	8924
460.945	8870
461.013	7458
461.024	7551
461.081	8748
461.104	9150
461.150	7774
461.184	6927
461.218	7290
461.264	7698
461.286	7744
461.345	7238
461.355	7139
461.423	7143
461.425	7151
461.491	8250
461.505	8433
461.559	15890
461.585	19494
461.628	34139
461.665	46902
461.696	46442
461.745	46561
461.764	38086
461.825	13047
461.832	13511
461.901	12743
461.905	12594
461.969	8304
461.985	7881
462.037	7891
462.065	7986
462.105	9603
462.145	11230
462.173	15928
462.225	24437
462.241	26938
462.305	37597
462.310	36168
462.378	14393
462.385	11995
462.446	12136
462.465	11237
462.514	9440
462.545	9066
462.582	8772
462.625	8645
462.650	8598
462.705	8467
462.718	8737
462.785	10209
462.786	10313
462.854	16000
462.865	16941
462.922	18631
462.945	19393
462.990	13414
463.025	8833
463.058	8834
463.104	8521
463.126	8577
463.184	8222
463.194	8354
463.262	9615
463.264	9658
463.330	9283
463.344	9233
463.398	10115
463.424	10484
463.466	10754
463.504	10993
463.533	10725
463.583	10202
463.601	10850
463.663	13477
463.669	13994
463.737	18831
463.743	19336
463.805	26844
463.823	28972
463.873	48257
463.903	59962
463.940	56921
463.982	53587
464.008	41178
464.062	15798
464.076	15460
464.142	11256
464.144	11240
464.211	9928
464.221	9904
464.279	10209
464.301	10449
464.347	11928
464.381	12907
464.414	14772
464.461	17470
464.482	17285
464.540	16614
464.550	16173
464.617	13132
464.620	13006
464.685	15810
464.699	16323
464.753	18586
464.779	19754
464.820	20483
464.859	21350
464.888	21282
464.938	20787
464.956	20591
465.018	19734
465.023	19445
465.091	15381
465.098	14936
465.158	15471
465.177	15573
465.226	15709
465.257	15813
465.293	16916
465.336	18227
465.361	20416
465.416	25198
465.428	26404
465.495	32489
465.496	32709
465.563	59031
465.575	63447
465.631	68700
465.654	70891
465.698	42473
465.734	19216
465.765	18683
465.813	16972
465.833	16961
465.893	16596
465.900	16520
465.968	16347
465.972	16305
466.035	16751
466.052	16853
466.102	17636
466.131	17998
466.170	17960
466.210	17889
466.237	18733
466.290	20306
466.304	20488
466.369	21092
466.372	21137
466.439	21355
466.449	21338
466.506	25846
466.528	27529
466.573	35971
466.607	42183
466.641	64606
466.687	95599
466.708	100851
466.766	114599
466.775	105921
466.842	39329
466.845	36104
466.909	30792
466.925	29312
466.977	27856
467.004	27148
467.044	27411
467.083	27625
467.111	29953
467.163	34197
467.178	34575
467.242	35774
467.245	35677
467.312	32140
467.321	31605
467.379	31495
467.400	31359
467.446	33257
467.480	34512
467.559	27129
467.638	25826
467.717	26269
467.796	27904
467.875	33259
467.955	29585
468.034	44252
468.113	102364
468.192	139900
468.271	31127
468.350	27546
468.429	32954
468.508	32684
468.588	26348
468.667	26310
468.746	27282
468.825	25224
468.904	20388
468.983	26183
469.062	41982
469.141	45949
469.220	20362
469.299	20445
469.378	23766
469.456	26314
469.535	23970
469.614	22528
469.693	25121
469.772	33579
469.851	48006
469.930	27874
470.009	24170
470.088	25577
470.166	33347
470.245	53560
470.324	63875
470.403	40289
470.482	27681
470.560	23385
470.639	25507
470.718	30950
470.797	22761
470.875	28236
470.954	42318
471.033	37728
471.111	18546
471.190	17723
471.269	16558
471.347	18613
471.426	19092
471.505	22612
471.583	23605
471.662	21220
471.740	19510
471.819	19688
471.898	18818
471.976	17673
472.055	19659
472.133	21759
472.212	27962
472.290	30459
472.369	17953
472.447	17390
472.526	16781
472.604	17988
472.683	21049
472.761	21558
472.839	20705
472.918	18934
472.996	19355
473.075	22386
473.153	21166
473.231	18115
473.310	23921
473.388	21387
473.466	20341
473.545	24022
473.623	34959
473.701	30068
473.780	18792
473.858	20634
473.936	20788
474.014	18991
474.093	23071
474.171	32469
474.249	47791
474.327	25398
474.405	16744
474.484	17052
474.562	18906
474.640	18060
474.718	20288
474.796	20980
474.874	18279
474.952	16053
475.030	18260
475.108	19328
475.187	23203
475.265	24772
475.343	37507
475.421	36786
475.499	17821
475.577	18434
475.655	25157
475.733	54146
475.811	91078
475.889	88046
475.966	42477
476.044	19142
476.122	26582
476.200	37090
476.278	23127
476.356	16467
476.434	18297
476.512	24407
476.590	35116
476.667	25386
476.745	15921
476.823	18616
476.901	16923
476.979	17981
477.056	15984
477.134	18858
477.212	19700
477.290	17522
477.367	15076
477.445	14988
477.523	15747
477.601	15276
477.678	15140
477.756	20691
477.834	21731
477.911	15664
477.989	15490
478.066	14684
478.144	20456
478.222	24227
478.299	46858
478.377	32158
478.454	14781
478.532	14761
478.609	17370
478.687	17811
478.764	15153
478.842	16406
478.919	19892
478.997	16043
479.074	14195
479.152	17959
479.229	25306
479.307	14393
479.384	12545
479.461	12969
479.539	15598
479.616	18901
479.694	14398
479.771	17412
479.848	18161
479.926	28644
480.003	25303
480.080	14601
480.157	12889
480.235	13696
480.312	13937
480.389	17145
480.467	29731
480.544	36043
480.621	17808
480.698	17325
480.775	20468
480.853	19724
480.930	15636
481.007	15547
481.084	18837
481.161	19258
481.238	17424
481.315	13995
481.392	13996
481.470	14581
481.547	15449
481.624	14065
481.701	13964
481.778	14577
481.855	18740
481.932	27022
482.009	53537
482.086	27707
482.163	17954
482.240	28557
482.317	58234
482.393	32471
482.470	16464
482.547	16601
482.624	15616
482.701	16350
482.778	16412
482.855	12217
482.932	13002
483.009	13113
483.085	15643
483.162	20558
483.239	18371
483.316	15326
483.393	15358
483.469	14735
483.546	17460
483.623	18195
483.699	13295
483.776	14876
483.853	18105
483.930	29093
484.006	75080
484.083	131858
484.160	52014
484.236	79070
484.313	56416
484.389	44355
484.466	38782
484.543	39660
484.619	40567
484.696	41768
484.772	43155
484.849	46195
484.925	35985
485.002	35588
485.078	38775
485.155	38781
485.231	34235
485.308	33154
485.384	36413
485.461	43957
485.537	80749
485.614	85311
485.690	35007
485.766	32604
485.843	38256
485.919	58289
485.995	54641
486.072	29566
486.148	29909
486.224	29775
486.301	31261
486.377	38723
486.453	39876
486.530	35269
486.606	46850
486.682	51364
486.758	65267
486.835	75561
486.911	58988
486.987	107974
487.063	112637
487.139	149083
487.215	96362
487.292	38783
487.368	35363
487.444	40746
487.520	53356
487.596	51847
487.672	82752
487.748	221881
487.824	326987
487.900	89133
487.976	44916
488.052	44199
488.128	52340
488.204	40431
488.280	32560
488.356	42865
488.432	90899
488.508	138130
488.584	41027
488.660	31082
488.736	30385
488.812	33826
488.888	44319
488.964	63251
489.039	154953
489.115	233593
489.191	103176
489.267	33631
489.343	30935
489.418	26356
489.494	25891
489.570	25068
489.646	25674
489.722	26489
489.797	27392
489.873	45758
489.949	108078
490.024	73010
490.100	26017
490.176	27061
490.251	34757
490.327	49664
490.403	25762
490.478	23706
490.554	20054
490.629	21883
490.705	21098
490.781	25903
490.856	23738
490.932	29479
491.007	29691
491.083	26991
491.158	24665
491.234	35688
491.309	80761
491.385	71569
491.460	24425
491.536	26163
491.611	22506
491.686	26459
491.762	40292
491.837	96252
491.913	155134
491.988	225212
492.063	265726
492.139	58748
492.214	34617
492.289	19232
492.365	21505
492.440	25944
492.515	25290
492.590	24752
492.666	20069
492.741	28852
492.816	46597
492.891	21960
492.967	19089
493.042	16307
493.117	17586
493.192	16581
493.267	20644
493.342	26277
493.418	23988
493.493	17359
493.568	15424
493.643	18675
493.718	24329
493.793	40709
493.868	46572
493.943	26923
494.018	19278
494.093	18036
494.168	18315
494.243	16764
494.318	15150
494.393	15091
494.468	15314
494.543	17092
494.618	22494
494.693	17795
494.768	17379
494.842	18007
494.917	15668
494.992	18266
495.067	14650
495.142	15152
495.217	17202
495.292	16076
495.366	19381
495.441	24082
495.516	33504
495.591	59559
495.665	201416
495.740	512203
495.815	133355
495.890	27985
495.964	22747
496.039	23831
496.114	21503
496.188	24031
496.263	23532
496.338	22242
496.412	26008
496.487	30406
496.561	33524
496.636	33848
496.710	24670
496.785	28781
496.860	34011
496.934	25907
497.009	27554
497.083	26967
497.158	29823
497.232	35177
497.307	43135
497.381	34962
497.455	42373
497.530	52700
497.604	35935
497.679	40569
497.753	62055
497.827	81775
497.902	74852
497.976	91608
498.050	197988
498.125	713785
498.199	607639
498.273	121625
498.348	99803
498.422	80974
498.496	75392
498.570	63300
498.645	46386
498.719	43553
498.793	46213
498.867	73458
498.941	103471
499.016	263584
499.090	767655
499.164	174186
499.238	30224
499.312	28897
499.386	38684
499.460	30711
499.534	27938
499.609	35402
499.683	53080
499.757	51794
499.831	124556
499.905	501024
499.979	387389
500.053	60878
500.127	63468
500.201	48284
500.275	27265
500.349	25902
500.422	31166
500.496	53249
500.570	130065
500.644	264856
500.718	503796
500.792	72042
500.866	24967
500.940	35203
501.013	25477
501.087	27262
501.161	55974
501.235	75201
501.309	157402
501.382	450439
501.456	326265
501.530	73529
501.603	143170
501.677	39867
501.751	20673
501.825	26224
501.898	55250
501.972	176697
502.046	84235
502.119	30515
502.193	75306
502.266	193827
502.340	70432
502.413	78558
502.487	155532
502.561	83342
502.634	24644
502.708	23820
502.781	21140
502.855	15405
502.928	14507
503.002	14520
503.075	13409
503.149	14818
503.222	14874
503.295	16083
503.369	20599
503.442	36693
503.516	121224
503.589	326355
503.662	180768
503.736	54834
503.809	149228
503.882	109179
503.956	180938
504.029	152827
504.102	129270
504.175	163429
504.249	53135
504.322	31199
504.395	25831
504.468	17266
504.542	19018
504.615	13919
504.688	11763
504.761	13876
504.834	17591
504.907	25651
504.980	43576
505.053	18354
505.127	28786
505.200	27019
505.273	27130
505.346	14637
505.419	12692
505.492	11554
505.565	10249
505.638	9150
505.711	10572
505.784	10518
505.857	9525
505.930	9878
506.003	11055
506.076	11890
506.149	16194
506.221	23627
506.294	22898
506.367	67559
506.440	237185
506.513	96511
506.586	24807
506.659	14880
506.731	12428
506.804	19154
506.877	29979
506.950	15900
507.022	11604
507.095	18039
507.168	21121
507.241	13081
507.313	10411
507.386	15050
507.459	21740
507.531	12827
507.604	10794
507.677	9944
507.749	10981
507.822	17877
507.894	34979
507.967	36900
508.040	19787
508.112	17510
508.185	16639
508.257	17000
508.330	27762
508.402	15756
508.475	15424
508.547	16665
508.620	17139
508.692	29561
508.765	15418
508.837	12584
508.909	12679
508.982	12508
509.054	16000
509.127	13441
509.199	11515
509.271	11661
509.344	10511
509.416	11264
509.488	11886
509.560	12672
509.633	15171
509.705	17812
509.777	15916
509.849	25638
509.922	15969
509.994	11140
510.066	12161
510.138	14954
510.210	27058
510.283	24166
510.355	20366
510.427	17406
510.499	16249
510.571	16415
510.643	18271
510.715	31697
510.787	28024
510.859	17868
510.931	22573
511.003	30812
511.076	25822
511.148	14490
511.219	16748
511.291	27953
511.363	30059
511.435	13766
511.507	13212
511.579	13893
511.651	12934
511.723	13786
511.795	12595
511.867	14446
511.939	19567
512.010	42089
512.082	29690
512.154	16654
512.226	17024
512.298	24505
512.369	37778
512.441	26910
512.513	27653
512.585	22215
512.656	20407
512.728	25044
512.800	17163
512.871	15890
512.943	17050
513.015	16583
513.086	16768
513.158	20241
513.230	20883
513.301	33931
513.373	35937
513.444	19855
513.516	15634
513.588	16711
513.659	18947
513.731	26042
513.802	25488
513.874	49860
513.945	92609
514.016	25681
514.088	16443
514.159	21428
514.231	27626
514.302	34084
514.374	22585
514.445	25268
514.516	45721
514.588	33925
514.659	24153
514.730	45094
514.802	32489
514.873	31574
514.944	28129
515.016	25333
515.087	29086
515.158	33975
515.229	45973
515.301	31631
515.372	42414
515.443	26984
515.514	21258
515.585	17162
515.656	17338
515.728	16522
515.799	16424
515.870	17840
515.941	18814
516.012	20471
516.083	24202
516.154	28923
516.225	37796
516.296	31998
516.367	27831
516.438	33574
516.509	51526
516.580	103143
516.651	300463
516.722	1018409
516.793	354353
516.864	58556
516.935	52680
517.006	69904
517.077	124294
517.148	335025
517.219	1072221
517.289	1581811
517.360	344659
517.431	96441
517.502	36801
517.573	33308
517.643	31245
517.714	31738
517.785	31864
517.856	31801
517.926	35775
517.997	42559
518.068	61295
518.138	102157
518.209	223870
518.280	718056
518.350	2295199
518.421	788180
518.492	94684
518.562	52450
518.633	51293
518.703	52398
518.774	84986
518.845	184404
518.915	171407
518.986	58785
519.056	48467
519.127	84842
519.197	126361
519.268	246978
519.338	142757
519.408	38907
519.479	49690
519.549	36304
519.620	22835
519.690	18601
519.760	18548
519.831	20036
519.901	20801
519.971	16457
520.042	17695
520.112	22954
520.182	24626
520.253	28591
520.323	19137
520.393	23560
520.463	33030
520.534	24790
520.604	45474
520.674	22468
520.744	26699
520.814	55452
520.885	57064
520.955	79539
521.025	272579
521.095	94262
521.165	18465
521.235	18088
521.305	15767
521.375	15268
521.445	17545
521.515	26712
521.585	29466
521.655	29084
521.725	21556
521.795	19425
521.865	15168
521.935	22891
522.005	21494
522.075	13278
522.145	15075
522.215	18863
522.285	26252
522.355	38349
522.424	70749
522.494	60775
522.564	35884
522.634	72219
522.704	204931
522.774	68676
522.843	17326
522.913	17382
522.983	23994
523.053	17324
523.122	19641
523.192	35338
523.262	111943
523.331	103476
523.401	18131
523.471	12844
523.540	14654
523.610	11811
523.680	11061
523.749	12828
523.819	15585
523.888	17641
523.958	11733
524.027	12478
524.097	14762
524.166	13567
524.236	17079
524.305	14537
524.375	12396
524.444	11498
524.514	12021
524.583	14897
524.653	19336
524.722	20581
524.791	13010
524.861	12384
524.930	13290
524.999	14528
525.069	21427
525.138	16709
525.207	21716
525.277	14571
525.346	14285
525.415	13063
525.484	15122
525.554	17922
525.623	16598
525.692	14153
525.761	16100
525.830	16140
525.900	21278
525.969	36474
526.038	67513
526.107	129754
526.176	349445
526.245	286479
526.314	95652
526.383	188201
526.452	270858
526.522	398859
526.591	416232
526.660	116754
526.729	56427
526.797	76065
526.867	182091
526.935	623246
527.004	966418
527.073	516806
527.142	45538
527.211	24186
527.280	24515
527.349	24177
527.418	14280
527.487	13229
527.555	12066
527.624	10877
527.693	11126
527.762	11479
527.831	11863
527.899	10685
527.968	11268
528.037	13000
528.106	16372
528.174	33765
528.243	27275
528.312	36266
528.380	50838
528.449	16094
528.518	9952
528.586	9146
528.655	8293
528.723	9009
528.792	9410
528.861	11602
528.929	9779
528.998	8429
529.066	8818
529.135	9198
529.203	8308
529.272	8884
529.340	7951
529.409	10192
529.477	10418
529.545	15272
529.614	14958
529.682	17078
529.751	19602
529.819	16871
529.887	13876
529.956	10448
530.024	11381
530.092	10133
530.161	13226
530.229	24138
530.297	13017
530.365	9070
530.434	8759
530.502	9424
530.570	8673
530.638	8282
530.707	10934
530.775	10775
530.843	8962
530.911	9309
530.979	9363
531.047	9594
531.115	9675
531.183	9205
531.252	9325
531.320	9684
531.388	9643
531.456	8895
531.524	9743
531.592	9680
531.660	10419
531.728	9536
531.796	10021
531.864	8813
531.932	9650
532.000	10564
532.067	10558
532.135	11748
532.203	13311
532.271	17841
532.339	29441
532.407	80910
532.475	45559
532.542	18639
532.610	25171
532.678	50341
532.746	143704
532.814	365578
532.881	84727
532.949	14523
533.017	12398
533.084	12018
533.152	10315
533.220	10800
533.287	14702
533.355	9829
533.423	9811
533.490	8886
533.558	10350
533.625	10767
533.693	11200
533.761	11998
533.828	12660
533.896	14816
533.963	27659
534.031	35359
534.098	48664
534.166	22017
534.233	10830
534.300	11290
534.368	12117
534.435	11656
534.503	11475
534.570	12978
534.637	14051
534.705	16527
534.772	24159
534.840	47249
534.907	150066
534.974	208505
535.041	26162
535.109	18631
535.176	12903
535.243	11729
535.310	12386
535.378	10893
535.445	10588
535.512	10518
535.579	10485
535.646	10843
535.714	10844
535.781	13301
535.848	12927
535.915	12233
535.982	12098
536.049	11738
536.116	12288
536.183	11767
536.250	11568
536.317	13205
536.384	16992
536.451	25031
536.518	25960
536.585	18278
536.652	21249
536.719	32116
536.786	26184
536.853	21139
536.920	30274
536.987	55445
537.053	64085
537.120	170772
537.187	159335
537.254	16809
537.321	13977
537.388	14036
537.454	11474
537.521	11666
537.588	11580
537.654	14332
537.721	16107
537.788	15582
537.855	13436
537.921	13690
537.988	13928
538.055	13419
538.121	13923
538.188	16395
538.254	25929
538.321	49987
538.388	31337
538.454	15588
538.521	13917
538.587	12113
538.654	12551
538.720	11849
538.787	11962
538.853	13954
538.920	17586
538.986	18766
539.053	14279
539.119	15645
539.185	16380
539.252	18687
539.318	29601
539.385	20072
539.451	19345
539.517	20662
539.583	27348
539.650	53718
539.716	136443
539.782	39949
539.849	15841
539.915	14822
539.981	16219
540.047	19775
540.114	16804
540.180	16477
540.246	19248
540.312	26844
540.378	50684
540.444	56111
540.510	56032
540.576	149876
540.643	50965
540.709	15145
540.775	14989
540.841	15557
540.907	20297
540.973	30688
541.039	27559
541.105	30462
541.171	17622
541.237	14604
541.303	16824
541.369	19752
541.435	26265
541.500	42199
541.566	28495
541.632	14069
541.698	12280
541.764	12747
541.830	13784
541.896	12974
541.961	13913
542.027	15223
542.093	14267
542.159	16026
542.224	19272
542.290	27187
542.356	41995
542.421	49368
542.487	20941
542.553	15432
542.618	17573
542.684	15686
542.750	17715
542.815	24425
542.881	44470
542.947	121464
543.012	100240
543.078	15377
543.143	14424
543.209	16007
543.274	19036
543.340	24049
543.405	47413
543.471	80696
543.536	19568
543.602	14224
543.667	13788
543.732	13265
543.798	13910
543.863	14531
543.928	13845
543.994	12422
544.059	12546
544.124	12200
544.190	13846
544.255	14009
544.320	14665
544.386	16990
544.451	22884
544.516	31354
544.581	35219
544.646	75070
544.712	127236
544.777	25736
544.842	18153
544.907	18533
544.972	16738
545.037	16154
545.102	17311
545.168	17626
545.233	19107
545.298	20610
545.363	25563
545.428	31923
545.493	47936
545.558	103260
545.623	46743
545.688	19844
545.753	17980
545.818	17551
545.883	18014
545.947	18650
546.012	20824
546.077	21169
546.142	20189
546.207	22512
546.272	26290
546.337	29554
546.401	21791
546.466	21266
546.531	20775
546.596	22173
546.661	23000
546.725	21598
546.790	20050
546.855	21913
546.919	23219
546.984	24184
547.049	27337
547.113	31389
547.178	31533
547.243	34775
547.307	38527
547.372	43853
547.436	48192
547.501	41294
547.565	43816
547.630	47409
547.695	47062
547.759	46266
547.823	44438
547.888	40091
547.952	39306
548.017	42601
548.081	46719
548.146	53984
548.210	50548
548.274	44246
548.339	43700
548.403	39899
548.468	38725
548.532	37335
548.596	39350
548.660	40745
548.725	43857
548.789	52337
548.853	50520
548.917	45070
548.982	48794
549.046	48272
549.110	36537
549.174	35989
549.238	40108
549.303	42684
549.367	44563
549.431	42522
549.495	41047
549.559	40897
549.623	46788
549.687	53800
549.751	62123
549.815	60310
549.879	57276
549.943	54666
550.007	57870
550.071	59407
550.135	59389
550.199	52706
550.263	50624
550.327	48772
550.391	56546
550.455	54751
550.519	55086
550.582	60286
550.646	71821
550.710	76562
550.774	63555
550.838	64191
550.901	66336
550.965	70475
551.029	75287
551.093	85074
551.156	101537
551.220	134843
551.284	160957
551.347	108340
551.411	116403
551.475	130178
551.538	73048
551.602	63543
551.666	60746
551.729	57134
551.793	53873
551.856	54978
551.920	53027
551.983	53349
552.047	52613
552.110	53953
552.174	54116
552.237	54289
552.301	50509
552.364	49797
552.428	48283
552.491	50947
552.554	53593
552.618	53847
552.681	57624
552.745	62902
552.808	82321
552.871	110002
552.934	74129
552.998	55939
553.061	53161
553.124	50621
553.187	48215
553.251	50057
553.314	49990
553.377	49767
553.440	52538
553.503	56735
553.567	57830
553.630	52149
553.693	50355
553.756	52922
553.819	50097
553.882	49319
553.945	47961
554.008	49379
554.071	48904
554.134	49680
554.197	46697
554.260	45831
554.323	47426
554.386	48107
554.449	49432
554.512	49543
554.575	46907
554.638	47113
554.701	47500
554.764	46409
554.827	44300
554.889	42546
554.952	40732
555.015	38934
555.078	40183
555.141	41791
555.203	40709
555.266	39935
555.329	40012
555.391	39699
555.454	40458
555.517	39884
555.580	37549
555.642	35368
555.705	35913
555.768	36033
555.830	35414
555.893	32248
555.955	31989
556.018	33330
556.080	33384
556.143	33501
556.206	33376
556.268	34821
556.330	34436
556.393	33329
556.455	33020
556.518	38320
556.580	40800
556.643	30077
556.705	28642
556.767	28245
556.830	30254
556.892	32087
556.955	41799
557.017	35745
557.079	29158
557.142	30089
557.204	33039
557.266	49514
557.328	47771
557.391	25483
557.453	23829
557.515	25807
557.577	28619
557.639	30680
557.701	24402
557.764	22922
557.826	23886
557.888	27663
557.950	28994
558.012	36312
558.074	50925
558.136	83494
558.198	206562
558.260	95844
558.322	29529
558.384	27514
558.446	30938
558.508	36739
558.570	53181
558.632	82941
558.694	148809
558.756	192341
558.818	366050
558.880	934671
558.942	390213
559.003	204306
559.065	127362
559.127	41884
559.189	46027
559.251	66150
559.312	111929
559.374	194495
559.436	552675
559.498	376483
559.559	53177
559.621	49426
559.683	71572
559.744	117495
559.806	250157
559.868	463055
559.929	112334
559.991	59632
560.052	81977
560.114	192565
560.176	171226
560.237	106235
560.299	202059
560.360	60385
560.422	22286
560.483	21514
560.545	18954
560.606	18793
560.667	18270
560.729	18271
560.790	16786
560.852	17153
560.913	17167
560.974	16914
561.036	16342
561.097	16601
561.158	16008
561.220	16990
561.281	17708
561.342	19198
561.403	24733
561.465	31910
561.526	53661
561.587	81839
561.648	26805
561.709	17350
561.771	17502
561.832	16168
561.893	16172
561.954	16218
562.015	15879
562.076	17340
562.137	16926
562.198	16810
562.259	16893
562.320	17887
562.381	19908
562.442	25259
562.503	22899
562.564	16195
562.625	15494
562.686	15631
562.747	17234
562.808	17303
562.869	15700
562.930	19595
562.991	18378
563.051	15740
563.112	15734
563.173	15686
563.234	15995
563.294	15285
563.355	14844
563.416	17535
563.477	15985
563.537	15460
563.598	17630
563.659	16194
563.720	15807
563.780	16989
563.841	18689
563.901	16154
563.962	16282
564.023	15407
564.083	15278
564.144	16114
564.204	17442
564.265	18334
564.325	20348
564.386	30045
564.446	33344
564.507	16113
564.567	15758
564.628	15944
564.688	15801
564.749	16087
564.809	17499
564.869	20661
564.930	17168
564.990	16044
565.050	15700
565.111	15804
565.171	14160
565.231	16142
565.292	15304
565.352	16017
565.412	15725
565.472	17159
565.532	17204
565.593	17015
565.653	15421
565.713	16396
565.773	18563
565.833	20946
565.893	25306
565.953	18001
566.013	18175
566.074	19382
566.134	22420
566.194	30015
566.254	35054
566.314	24476
566.374	18316
566.434	18599
566.494	19083
566.554	19273
566.614	19499
566.673	19598
566.733	20768
566.793	22762
566.853	24170
566.913	23705
566.973	23265
567.033	23983
567.092	24309
567.152	23364
567.212	24523
567.272	23933
567.331	26078
567.391	26743
567.451	28608
567.511	31831
567.570	35081
567.630	24849
567.690	22616
567.749	24106
567.809	25156
567.868	28670
567.928	31895
567.988	37272
568.047	45598
568.107	58424
568.166	80955
568.226	115268
568.285	162236
568.345	144148
568.404	110203
568.464	89574
568.523	82577
568.582	85657
568.642	101943
568.701	132815
568.761	178860
568.820	267850
568.879	286647
568.939	208236
568.998	147960
569.057	108528
569.116	82348
569.176	66411
569.235	53700
569.294	46109
569.353	39989
569.413	35794
569.472	33330
569.531	30013
569.590	28039
569.649	27870
569.708	24202
569.767	23627
569.827	26270
569.886	24913
569.945	20604
570.004	20297
570.063	20654
570.122	21090
570.181	22601
570.240	22445
570.299	22553
570.358	22784
570.417	18929
570.475	17628
570.534	17749
570.593	18312
570.652	18817
570.711	20583
570.770	18238
570.829	18681
570.887	18686
570.946	19819
571.005	17848
571.064	16217
571.122	18593
571.181	20264
571.240	17812
571.299	15178
571.357	16022
571.416	16577
571.475	18247
571.533	19900
571.592	15706
571.650	16414
571.709	15693
571.768	16288
571.826	15534
571.885	14260
571.943	14354
572.002	14635
572.060	14875
572.119	13545
572.177	13768
572.236	13042
572.294	12606
572.352	13998
572.411	14209
572.469	13439
572.528	14078
572.586	13650
572.644	15229
572.703	19494
572.761	15972
572.819	13289
572.877	13056
572.936	12598
572.994	12964
573.052	13189
573.110	13851
573.169	13786
573.227	12719
573.285	13202
573.343	12426
573.401	12642
573.459	12160
573.517	12606
573.576	12738
573.634	13047
573.692	13804
573.750	13992
573.808	12723
573.866	13316
573.924	15361
573.982	16719
574.040	13837
574.098	11793
574.155	12687
574.213	11995
574.271	12200
574.329	12272
574.387	12330
574.445	11607
574.503	11081
574.560	12390
574.618	10955
574.676	11282
574.734	11717
574.792	12545
574.849	11201
574.907	11358
574.965	10755
575.022	10595
575.080	10949
575.138	11601
575.195	12410
575.253	12113
575.311	12926
575.368	10965
575.426	10745
575.483	11941
575.541	10990
575.598	11006
575.656	11068
575.713	11774
575.771	11482
575.828	11163
575.886	11779
575.943	12110
576.001	11550
576.058	12173
576.115	13346
576.173	14496
576.230	16327
576.287	17857
576.345	15548
576.402	13533
576.459	12882
576.517	13057
576.574	14058
576.631	14718
576.688	12467
576.746	12342
576.803	11988
576.860	12116
576.917	11862
576.974	13061
577.031	12349
577.089	11908
577.146	11562
577.203	12249
577.260	12914
577.317	12753
577.374	14123
577.431	13975
577.488	13405
577.545	11800
577.602	11287
577.659	11751
577.716	11898
577.773	11132
577.830	10750
577.886	11171
577.943	11361
578.000	11685
578.057	12099
578.114	11726
578.171	11243
578.227	11344
578.284	11640
578.341	12609
578.398	12616
578.454	12945
578.511	13721
578.568	15338
578.625	13803
578.681	11904
578.738	11675
578.794	11608
578.851	11171
578.908	12491
578.964	12903
579.021	13252
579.077	13268
579.134	12340
579.190	12452
579.247	12798
579.303	12405
579.360	11750
579.416	12155
579.473	11922
579.529	11717
579.586	11687
579.642	11587
579.698	12180
579.755	12339
579.811	11695
579.867	12159
579.924	10724
579.980	12240
580.036	12024
580.093	11552
580.149	12467
580.205	12950
580.261	13044
580.317	12672
580.374	13644
580.430	15503
580.486	15515
580.542	13466
580.598	13533
580.619	13434
580.654	13278
580.692	13599
580.710	13784
580.765	12426
580.767	12400
580.823	13793
580.838	13511
580.879	12800
580.911	13187
580.935	13500
580.984	12520
580.991	12401
581.047	12800
581.057	12882
581.103	13349
581.130	13341
581.159	13348
581.203	13521
581.215	13587
581.270	13696
581.276	13608
581.326	12852
581.349	13128
581.382	13604
581.422	13489
581.438	13460
581.494	14548
581.494	14526
581.550	13430
581.567	13594
581.606	13974
581.640	14052
581.661	14135
581.713	13925
581.717	13913
581.773	13802
581.786	13575
581.829	12895
581.859	13090
581.885	13294
581.932	14001
581.940	14141
581.996	14399
582.004	14308
582.052	13786
582.077	14319
582.107	14982
582.150	14719
582.163	14648
582.219	14002
582.223	14030
582.274	14568
582.296	14321
582.330	13869
582.368	14442
582.386	14738
582.441	14074
582.441	14078
582.497	13293
582.514	13424
582.552	13724
582.587	13811
582.608	13903
582.659	13562
582.663	13545
582.719	13505
582.732	13554
582.774	13608
582.805	13917
582.830	14226
582.877	14095
582.885	14056
582.941	14235
582.950	14347
582.996	14958
583.023	15065
583.052	15223
583.095	15238
583.107	15251
583.162	14474
583.168	14565
583.218	15411
583.240	15314
583.273	15184
583.313	14708
583.328	14448
583.384	14551
583.385	14563
583.439	15072
583.458	15013
583.494	15015
583.531	14996
583.549	14895
583.603	14794
583.605	14793
583.660	14966
583.676	14976
583.715	14958
583.748	14838
583.770	14799
583.820	15853
583.825	15957
583.881	15174
583.893	15223
583.936	15263
583.965	15271
583.991	15294
584.038	15651
584.046	15722
584.101	15772
584.110	15744
584.156	15610
584.183	15877
584.211	15948
584.255	15508
584.266	15460
584.321	15371
584.328	15337
584.376	15152
584.400	15545
584.431	16044
584.472	16152
584.486	16137
584.541	16098
584.545	16133
584.596	16810
584.617	16795
584.651	16549
584.689	17030
584.706	17327
584.761	17369
584.762	17379
584.816	17590
584.834	17517
584.871	17441
584.906	17825
584.926	17929
584.978	18039
584.980	18052
585.035	18207
585.051	18362
585.090	18896
585.123	19957
585.145	20372
585.195	20385
585.200	20407
585.254	21280
585.267	21585
585.309	22804
585.340	24431
585.364	25709
585.412	28402
585.419	28717
585.473	34592
585.484	36546
585.528	44987
585.556	51479
585.583	57860
585.628	69553
585.637	73062
585.692	115690
585.700	130390
585.747	224253
585.772	209385
585.801	173902
585.845	102814
585.856	80237
585.910	37914
585.917	34015
585.965	29370
585.989	27345
586.019	26356
586.061	26008
586.074	25945
586.128	25569
586.133	25631
586.183	26392
586.205	26735
586.237	27230
586.277	27643
586.292	27671
586.346	27921
586.349	27983
586.401	28984
586.421	29325
586.455	29853
586.493	30889
586.509	31409
586.564	33349
586.565	33532
586.618	41518
586.637	43008
586.672	46159
586.709	42747
586.727	39004
586.781	35953
586.781	35929
586.835	35052
586.853	34932
586.889	34340
586.925	33811
586.944	33739
586.996	34597
586.998	34605
587.052	35804
587.068	36189
587.106	36802
587.140	37466
587.161	38013
587.212	39704
587.215	39744
587.269	41144
587.284	41529
587.323	42695
587.356	44189
587.377	45064
587.427	45960
587.431	45951
587.485	47813
587.499	48116
587.539	49517
587.571	51281
587.593	52451
587.643	55389
587.648	55595
587.702	58723
587.715	59416
587.755	61727
587.786	64141
587.810	66284
587.858	70661
587.864	71022
587.917	75593
587.930	76952
587.971	82244
588.001	86637
588.025	90144
588.073	96784
588.079	97559
588.133	106957
588.145	109442
588.187	118884
588.217	126351
588.241	133195
588.288	148162
588.295	150186
588.348	171943
588.360	177436
588.402	199451
588.431	217689
588.456	233246
588.503	267894
588.510	273010
588.564	325577
588.575	339180
588.617	395221
588.646	439493
588.671	482903
588.718	575589
588.725	591658
588.778	737542
588.789	771540
588.832	939987
588.861	1056658
588.886	1166327
588.932	1293602
588.939	1289070
588.993	1153956
589.004	1167188
589.047	1195146
589.075	1223254
589.100	1274639
589.147	1236152
589.154	1202311
589.207	935746
589.218	888790
589.261	765707
589.290	698537
589.314	677330
589.361	658338
589.368	662896
589.421	733628
589.433	755414
589.475	902769
589.504	1000925
589.528	1093162
589.576	1177134
589.582	1165177
589.635	1130655
589.647	1128605
589.689	1122532
589.718	1057148
589.742	916707
589.790	649238
589.795	627304
589.849	449182
589.861	411526
589.902	341705
589.932	294990
589.955	271960
590.004	225498
590.009	221588
590.062	185686
590.075	177429
590.115	159376
590.146	146300
590.168	139302
590.218	125298
590.222	124180
590.275	111616
590.289	108534
590.328	101186
590.360	95992
590.381	93341
590.431	87153
590.435	86667
590.488	80106
590.503	78488
590.541	75188
590.574	72486
590.594	70785
590.645	66887
590.647	66667
590.700	62511
590.716	61418
590.753	59486
590.787	57815
590.806	56725
590.859	54009
590.859	53907
590.912	51178
590.930	50309
590.965	49784
591.001	49573
591.018	48909
591.071	46784
591.072	46814
591.124	45732
591.143	45307
591.177	44510
591.214	43929
591.230	43519
591.283	42266
591.285	42265
591.336	41456
591.356	41180
591.389	40635
591.427	40031
591.442	39605
591.495	38171
591.498	38115
591.547	36518
591.569	35833
591.600	35466
591.640	35082
591.653	35100
591.706	35416
591.711	35486
591.759	34411
591.782	33931
591.811	34023
591.853	34290
591.864	34245
591.917	34073
591.924	34081
591.969	32497
591.995	31674
592.022	31976
592.066	32660
592.075	32436
592.127	31196
592.137	31020
592.180	31875
592.208	32502
592.233	32852
592.279	33486
592.285	33110
592.338	30244
592.350	29628
592.390	29549
592.421	29549
592.443	29038
592.491	28038
592.495	28011
592.548	28141
592.562	28209
592.600	28228
592.633	28315
592.653	27899
592.704	26751
592.705	26917
592.775	27695
592.846	27116
592.916	27061
592.987	26419
593.058	27177
593.128	26149
593.199	25595
593.270	24718
593.341	25599
593.411	25010
593.482	24716
593.553	24670
593.623	24230
593.694	24698
593.764	25430
593.835	25633
593.906	23740
593.976	23907
594.047	24635
594.117	25641
594.188	26836
594.258	26228
594.329	23238
594.399	24035
594.470	24091
594.540	23510
594.611	24017
594.681	24492
594.751	24122
594.822	23903
594.892	24882
594.963	24489
595.033	24444
595.103	24995
595.174	26126
595.244	26216
595.314	31956
595.384	32753
595.455	25840
595.525	26257
595.595	27186
595.665	26883
595.736	25669
595.806	26039
595.876	26523
595.946	27013
596.016	26955
596.087	27648
596.157	26892
596.227	27091
596.297	27420
596.367	28360
596.437	29812
596.507	31973
596.577	34661
596.647	36611
596.717	30521
596.787	31386
596.857	31631
596.927	31705
596.997	31404
597.067	31229
597.137	31865
597.207	31183
597.277	32352
597.347	32021
597.417	31956
597.487	30570
597.557	30784
597.626	31231
597.696	32151
597.766	33342
597.836	35478
597.906	36000
597.975	30269
598.045	28505
598.115	29853
598.185	30065
598.254	31080
598.324	34767
598.394	36406
598.464	36478
598.533	35628
598.603	34206
598.672	32070
598.742	32185
598.812	31991
598.881	32744
598.951	33973
599.020	32380
599.090	33055
599.159	33479
599.229	34273
599.299	32568
599.368	33103
599.437	32917
599.507	32091
599.576	30781
599.646	30037
599.715	29388
599.785	29777
599.854	30198
599.924	29695
599.993	30716
600.062	28509
600.132	29186
600.201	29234
600.270	32077
600.340	34307
600.409	36122
600.478	35736
600.547	34441
600.617	35375
600.686	33034
600.755	27653
600.824	26309
600.894	26710
600.963	25360
601.032	24939
601.101	24854
601.170	23958
601.239	23297
601.308	23362
601.378	24131
601.447	24071
601.516	22909
601.585	23617
601.654	24073
601.723	24498
601.792	24796
601.861	24389
601.930	24920
601.999	25797
602.068	25534
602.137	25583
602.206	27516
602.275	26118
602.343	26282
602.412	27588
602.481	27411
602.550	26862
602.619	25990
602.688	26466
602.756	27052
602.825	27132
602.894	27559
602.963	26902
603.032	27931
603.100	28342
603.169	27898
603.238	28235
603.307	29421
603.375	28810
603.444	27692
603.513	28725
603.581	27983
603.650	28927
603.719	29701
603.787	29198
603.856	29177
603.924	30372
603.993	30019
604.061	31208
604.130	31472
604.198	33123
604.267	33374
604.335	34738
604.404	33963
604.472	34558
604.541	35441
604.609	35157
604.678	35658
604.746	36160
604.815	36513
604.883	36562
604.951	36757
605.020	37442
605.088	37931
605.156	38275
605.225	36966
605.293	38967
605.361	38834
605.429	38995
605.498	39549
605.566	40011
605.634	41164
605.702	42456
605.771	43510
605.839	44828
605.907	44898
605.975	44038
606.043	43331
606.111	42416
606.180	41768
606.248	42315
606.316	41206
606.384	40566
606.452	41369
606.520	42467
606.588	44109
606.656	43002
606.724	41952
606.792	41230
606.860	39115
606.928	34759
606.996	31698
607.064	31235
607.132	31283
607.200	31575
607.267	34671
607.335	35404
607.403	35974
607.471	35748
607.539	35249
607.607	34350
607.674	33978
607.742	31450
607.810	30880
607.878	31312
607.946	30424
608.013	31203
608.081	33237
608.149	34151
608.216	32487
608.284	33961
608.352	34651
608.419	35077
608.487	35306
608.555	36808
608.622	33898
608.690	35139
608.757	37346
608.825	39583
608.893	40001
608.960	40369
609.028	38791
609.095	38968
609.163	38906
609.230	35331
609.298	32960
609.365	29672
609.432	31444
609.500	34429
609.567	37155
609.635	40821
609.702	47830
609.769	48722
609.837	47364
609.904	37748
609.971	34427
610.039	36383
610.106	41059
610.173	57129
610.241	110096
610.308	245823
610.375	154470
610.442	75861
610.509	40844
610.577	35877
610.644	34329
610.711	35166
610.778	35738
610.845	36344
610.912	37305
610.980	40231
611.047	41353
611.114	40323
611.181	39619
611.248	38707
611.315	39285
611.382	39908
611.449	40857
611.516	42137
611.583	43697
611.650	41810
611.717	43187
611.784	43212
611.851	44997
611.918	47371
611.984	53853
612.051	63425
612.118	93698
612.185	193120
612.252	461007
612.319	230895
612.386	67749
612.452	55753
612.519	50973
612.586	50140
612.653	51992
612.719	50608
612.786	50602
612.853	47781
612.919	44358
612.986	43928
613.053	44087
613.120	41679
613.186	38694
613.253	39219
613.319	38443
613.386	38598
613.453	39229
613.519	39432
613.586	40581
613.652	42509
613.719	44742
613.785	42803
613.852	41583
613.918	40890
613.985	38628
614.051	39985
614.118	42105
614.184	41293
614.250	39188
614.317	39411
614.383	38948
614.449	39812
614.516	40914
614.582	40467
614.648	39744
614.715	39498
614.781	39304
614.847	38746
614.914	38710
614.980	39299
615.046	38183
615.112	37404
615.179	40320
615.245	39604
615.311	41444
615.377	44952
615.443	57817
615.509	57816
615.575	46387
615.642	44397
615.708	42911
615.774	45352
615.840	47319
615.906	51906
615.972	60613
616.038	84217
616.104	147652
616.170	259298
616.236	566637
616.302	401112
616.368	98606
616.434	73499
616.500	54931
616.565	51076
616.631	56855
616.697	66575
616.763	57264
616.829	57886
616.895	86761
616.961	148680
617.026	131665
617.092	57674
617.158	45197
617.224	41027
617.289	41868
617.355	38155
617.421	37293
617.487	37896
617.552	36638
617.618	34979
617.684	34464
617.749	34940
617.815	34860
617.880	34358
617.946	32663
618.012	33254
618.077	33816
618.143	33506
618.208	32532
618.274	33523
618.339	35978
618.405	37154
618.470	31701
618.536	30829
618.601	30685
618.667	31190
618.732	29722
618.798	27996
618.863	27442
618.928	26480
618.994	27285
619.059	29026
619.124	28652
619.190	31876
619.255	28779
619.320	27568
619.386	27531
619.451	27078
619.516	28248
619.581	26337
619.647	27184
619.712	27833
619.777	27006
619.842	26122
619.907	28042
619.972	27261
620.038	27411
620.103	26257
620.168	26865
620.233	26243
620.298	26718
620.363	26526
620.428	26835
620.493	26330
620.558	27458
620.623	28747
620.688	28769
620.753	28334
620.818	27353
620.883	28817
620.948	28630
621.013	28602
621.078	29428
621.143	28491
621.207	29317
621.272	28804
621.337	28833
621.402	29069
621.467	29229
621.532	31649
621.596	31488
621.661	30018
621.726	28857
621.791	27679
621.855	28534
621.920	28334
621.985	28930
622.049	30486
622.114	30435
622.179	30696
622.243	29794
622.308	30552
622.373	30778
622.437	31925
622.502	30433
622.566	30341
622.631	28965
622.695	29860
622.760	30748
622.824	29914
622.889	29817
622.953	30844
623.018	30925
623.082	35359
623.147	35380
623.211	31265
623.276	29866
623.340	30867
623.404	29117
623.469	28450
623.533	29233
623.597	28556
623.662	28722
623.726	27867
623.790	26762
623.854	24929
623.919	24439
623.983	25727
624.047	25700
624.111	26981
624.176	25301
624.240	26363
624.304	27195
624.368	28240
624.432	27307
624.496	26034
624.560	27466
624.625	28474
624.689	29295
624.753	27877
624.817	28074
624.881	26726
624.945	27060
625.009	25393
625.073	24542
625.137	25234
625.201	26282
625.265	28451
625.329	27854
625.393	24871
625.456	26123
625.520	25770
625.584	25910
625.648	27637
625.712	30960
625.776	35941
625.839	56866
625.903	59205
625.967	31248
626.031	24449
626.095	30355
626.158	40605
626.222	25860
626.286	20247
626.349	19025
626.413	18881
626.477	18384
626.540	19198
626.604	17671
626.668	17883
626.731	17448
626.795	17721
626.858	17536
626.922	17288
626.986	17185
627.049	16524
627.113	17112
627.176	16555
627.240	17089
627.303	16925
627.366	16567
627.430	16417
627.493	16574
627.557	16717
627.620	16653
627.684	16268
627.747	17666
627.810	17279
627.874	16783
627.937	15359
628.000	14180
628.064	14997
628.127	15154
628.190	14360
628.253	13683
628.317	13650
628.380	12548
628.443	12744
628.506	12866
628.569	12994
628.632	12265
628.696	11599
628.759	11250
628.822	11160
628.885	11335
628.948	11548
629.011	11382
629.074	10824
629.137	12117
629.200	10444
629.263	11029
629.326	10491
629.389	10985
629.452	11078
629.515	10453
629.578	10026
629.641	9774
629.704	10326
629.767	10606
629.830	11267
629.892	9408
629.955	9580
630.018	9501
630.081	9939
630.144	10436
630.207	11211
630.269	11176
630.332	10336
630.395	10522
630.458	10071
630.520	9697
630.583	9338
630.646	9339
630.708	9328
630.771	9003
630.834	9469
630.896	7962
630.959	10023
631.021	9598
631.084	10087
631.146	8242
631.209	10005
631.272	10176
631.334	9074
631.397	9144
631.459	8905
631.522	9330
631.584	10032
631.646	10537
631.709	9698
631.771	10103
631.834	11811
631.896	10461
631.958	9162
632.021	8872
632.083	8949
632.145	8659
632.208	8646
632.270	9112
632.332	9174
632.395	8179
632.457	8253
632.519	8915
632.581	8491
632.643	7299
632.706	9258
632.768	7901
632.830	8719
632.892	8564
632.954	8588
633.016	8336
633.078	7752
633.141	7531
633.203	8438
633.265	7635
633.327	8277
633.389	8305
633.451	7954
633.513	8097
633.575	8992
633.637	9419
633.698	8539
633.760	8419
633.822	8363
633.884	7745
633.946	8514
634.008	8396
634.070	9049
634.132	8456
634.193	9044
634.255	8948
634.317	9997
634.379	10789
634.441	9686
634.502	9801
634.564	8004
634.626	8509
634.687	8678
634.749	7805
634.811	7707
634.873	7660
634.934	7155
634.996	7361
635.057	7224
635.119	6925
635.181	7412
635.242	8292
635.304	7865
635.365	7535
635.427	7790
635.488	7074
635.550	7444
635.611	7321
635.673	6681
635.734	6709
635.796	7964
635.857	7460
635.918	8951
635.980	9253
636.041	10009
636.102	9199
636.164	10106
636.225	10808
636.286	9600
636.348	9294
636.409	8014
636.470	8628
636.531	7329
636.593	6942
636.654	7180
636.715	7867
636.776	6590
636.838	6229
636.899	7133
636.960	6117
637.021	6145
637.082	6333
637.143	6011
637.204	6281
637.265	6200
637.326	6667
637.387	6099
637.448	6034
637.509	5847
637.570	6483
637.631	6277
637.692	5666
637.753	5928
637.814	5550
637.875	6437
637.936	5702
637.997	6004
638.058	5614
638.119	6042
638.179	5765
638.240	5764
638.301	5467
638.362	6074
638.423	6050
638.483	5530
638.544	5768
638.605	5983
638.666	5070
638.726	5536
638.787	5980
638.848	6046
638.908	4766
638.969	5085
639.030	5235
639.090	5359
639.151	5481
639.211	4953
639.272	6166
639.332	6678
639.393	8977
639.453	6092
639.514	5951
639.574	5710
639.635	5421
639.695	5287
639.756	4758
639.816	6415
639.877	5058
639.937	5407
639.997	7312
640.058	9028
640.118	6191
640.178	5452
640.239	4406
640.299	4727
640.359	5053
640.420	4645
640.480	5252
640.540	5768
640.600	5571
640.661	5995
640.721	4428
640.781	5994
640.841	4805
640.901	5527
640.961	4597
641.021	5072
641.082	6104
641.142	5740
641.202	6421
641.262	5207
641.322	4771
641.382	4622
641.442	4532
641.502	4958
641.562	4842
641.622	4278
641.682	4535
641.742	4647
641.802	5573
641.861	4289
641.921	4594
641.981	4373
642.041	4742
642.101	5025
642.161	5418
642.221	4575
642.280	4583
642.340	4861
642.400	4501
642.460	4073
642.519	4357
642.579	5117
642.639	3597
642.698	3999
642.758	4687
642.818	4459
642.877	3860
642.937	4754
642.997	5555
643.056	5017
643.116	5971
643.175	5432
643.235	4371
643.294	5012
643.354	4937
643.414	5325
643.473	5517
643.532	6567
643.592	7218
643.651	11125
643.711	17056
643.770	29208
643.830	56406
643.889	125536
643.948	297376
644.008	85650
644.067	13878
644.126	8848
644.186	6857
644.245	5861
644.304	4576
644.363	4657
644.423	4571
644.482	4161
644.541	4022
644.600	4381
644.659	5033
644.719	5294
644.778	7017
644.837	10136
644.896	16093
644.955	29186
645.014	73361
645.073	30128
645.132	7121
645.191	5520
645.250	4500
645.309	4782
645.368	4376
645.427	5278
645.486	6117
645.545	8833
645.604	16130
645.663	7226
645.722	4626
645.781	5037
645.840	4927
645.898	5514
645.957	6972
646.016	9388
646.075	15128
646.134	26931
646.192	49959
646.251	124511
646.310	221345
646.369	39147
646.427	8563
646.486	6835
646.545	5822
646.603	4807
646.662	3758
646.721	3482
646.779	4523
646.838	3509
646.896	3860
646.955	4541
647.014	6321
647.072	8991
647.131	15447
647.189	44172
647.248	28121
647.306	4843
647.365	3710
647.423	3511
647.481	3529
647.540	2711
647.598	3436
647.657	3190
647.715	3438
647.773	2522
647.832	2955
647.890	2054
647.948	2855
648.007	2660
648.065	3012
648.123	2367
648.181	2460
648.240	1900
648.298	1796
648.356	2397
648.414	2598
648.472	2867
648.531	2672
648.589	1808
648.647	3142
648.705	3150
648.763	1972
648.821	2743
648.879	2625
648.937	2867
648.995	3525
649.053	4424
649.111	5323
649.169	6910
649.227	11855
649.285	20621
649.343	39524
649.401	117876
649.459	76578
649.516	13606
649.574	8089
649.632	4385
649.690	3920
649.748	4873
649.806	5193
649.863	7152
649.921	10961
649.979	28716
650.037	25502
650.094	3945
650.152	3079
650.210	2599
650.268	2154
650.325	2477
650.383	2350
650.440	2007
650.498	2399
650.556	2680
650.613	1808
650.671	1823
650.728	821
650.786	1470
650.843	2261
650.901	2369
650.958	2152
651.016	1938
651.073	1162
651.131	1780
651.188	1566
651.246	2135
651.303	1672
651.360	1670
651.418	1749
651.475	2041
651.532	1309
651.590	1532
651.647	1643
651.704	1269
651.762	1494
651.819	1448
651.876	2371
651.933	1450
651.990	1085
652.048	1850
652.105	1848
652.162	1584
652.219	1350
652.276	1649
652.333	1405
652.390	1612
652.448	976
652.505	661
652.562	1692
652.619	1838
652.676	1098
652.733	939
652.790	1407
652.847	1749
652.904	1256
652.961	1132
653.017	978
653.074	1391
653.131	1320
653.188	1216
653.245	619
653.302	805
653.359	1592
653.415	1811
653.472	738
653.529	1609
653.586	1249
653.642	812
653.699	1167
653.756	1342
653.813	1428
653.869	790
653.926	1621
653.983	1111
654.039	1325
654.096	1307
654.152	2071
654.209	1555
654.266	1011
654.322	1389
654.379	1764
654.435	1024
654.492	1038
654.548	1701
654.605	2550
654.661	3046
654.717	2201
654.774	1319
654.830	1219
654.887	1132
654.943	1726
655.000	1337
655.056	1708
655.112	1577
655.168	1025
655.225	1115
655.281	1639
655.337	1478
655.394	2284
655.450	4000
655.506	3158
655.562	2044
655.618	3747
655.675	3309
655.731	1781
655.787	975
655.843	550
655.899	638
655.955	1204
656.011	663
656.067	270
656.123	1395
656.179	1179
656.235	1981
656.291	1204
656.347	1517
656.403	924
656.459	2061
656.515	1514
656.571	927
656.627	863
656.683	757
656.739	1378
656.795	1278
656.850	1745
656.906	1145
656.962	1883
657.018	1060
657.074	1499
657.129	1229
657.185	1157
657.241	2015
657.297	4380
657.352	4161
657.408	868
657.464	1845
657.519	1119
657.575	1056
657.630	1089
657.686	1687
657.742	1217
657.797	519
657.853	1108
657.908	955
657.964	195
658.019	1319
658.075	1218
658.130	1531
658.186	1311
658.241	517
658.297	806
658.352	570
658.407	1171
658.463	386
658.518	557
658.573	1302
658.629	719
658.684	529
658.739	1052
658.795	630
658.850	820
658.905	1684
658.960	467
659.016	914
659.071	913
659.126	1548
659.181	794
659.236	1061
659.291	2377
659.346	1702
659.401	1106
659.457	1933
659.512	503
659.567	303
659.622	480
659.677	1290
659.732	1355
659.787	1327
659.842	981
659.897	1184
659.952	1888
660.007	939
660.061	1195
660.116	1612
660.171	997
660.226	1240
660.281	1357
660.336	259
660.391	272
660.445	796
660.500	643
660.555	548
660.610	113
660.664	1628
660.719	299
660.774	1129
660.828	917
660.883	807
660.938	856
660.992	621
661.047	1077
661.101	577
661.156	899
661.211	562
661.265	429
661.320	918
661.374	830
661.429	1151
661.483	589
661.538	800
661.592	178
661.647	743
661.701	740
661.755	970
661.810	541
661.864	281
661.919	-103
661.973	176
662.027	855
662.081	776
662.136	527
662.190	1036
662.244	882
662.299	1371
662.353	1008
662.407	1415
662.461	630
662.515	993
662.569	806
662.624	1166
662.678	905
662.732	748
662.786	981
662.840	1292
662.894	798
662.948	624
663.002	658
663.056	551
663.110	543
663.164	529
663.218	420
663.272	1029
663.326	871
663.380	921
663.434	850
663.488	1114
663.542	656
663.595	1089
663.649	627
663.703	1449
663.757	-247
663.811	784
663.864	1496
663.918	10
663.972	657
664.026	261
664.079	148
664.133	767
664.187	762
664.240	531
664.294	473
664.348	129
664.401	477
664.455	1290
664.508	130
664.562	857
664.615	719
664.669	489
664.722	395
664.776	837
664.829	941
664.883	469
664.936	56
664.990	1351
665.043	245
665.097	1127
665.150	1069
665.203	1831
665.257	1284
665.310	1526
665.363	401
665.417	1041
665.470	1130
665.523	729
665.576	678
665.630	647
665.683	815
665.736	1330
665.789	847
665.842	1231
665.895	650
665.949	1056
666.002	806
666.055	1094
666.108	925
666.161	1158
666.214	1278
666.267	607
666.320	988
666.373	1068
666.426	927
666.479	229
666.532	1014
666.585	1067
666.638	1170
666.691	1664
666.744	1617
666.796	1109
666.849	1486
666.902	968
666.955	1060
667.008	788
667.060	280
667.113	-111
667.166	785
667.219	1700
667.271	419
667.324	496
667.377	526
667.430	1102
667.482	788
667.535	800
667.587	926
667.640	885
667.693	674
667.745	-20
667.798	1257
667.850	3096
667.903	1206
667.955	821
668.008	932
668.060	895
668.113	1233
668.165	2036
668.218	1620
668.270	831
668.322	1129
668.375	664
668.427	1400
668.479	897
668.532	1110
668.584	707
668.636	1780
668.689	1218
668.741	1340
668.793	1223
668.845	258
668.898	2152
668.950	1444
669.002	1656
669.054	330
669.106	1256
669.158	1446
669.211	1307
669.263	1324
669.315	1798
669.367	1751
669.419	1290
669.471	1537
669.523	988
669.575	705
669.627	2334
669.679	2082
669.731	465
669.783	945
669.835	1362
669.886	1627
669.938	2053
669.990	1696
670.042	1266
670.094	2211
670.146	1856
670.197	2556
670.249	2788
670.301	1860
670.353	3301
670.404	4670
670.456	7214
670.508	10458
670.560	17272
670.611	29357
670.663	49415
670.715	85659
670.766	168781
670.818	380948
670.869	243530
670.921	46715
670.972	16990
671.024	9854
671.075	7000
671.127	5472
671.178	3281
671.230	4178
671.281	3084
671.333	2576
671.384	2591
671.436	2302
671.487	2487
671.538	3772
671.590	3820
671.641	5091
671.692	6152
671.744	9455
671.795	21423
671.846	22093
671.897	7914
671.949	3607
672.000	3087
672.051	2042
672.102	2164
672.153	1764
672.204	1357
672.256	1806
672.307	1377
672.358	1114
672.409	1768
672.460	2377
672.511	445
672.562	638
672.613	1521
672.664	1299
672.715	588
672.766	910
672.817	800
672.868	471
672.919	980
672.970	689
673.021	479
673.071	404
673.122	1216
673.173	646
673.224	1691
673.275	451
673.326	1313
673.376	556
673.427	245
673.478	615
673.528	1308
673.579	1268
673.630	701
673.680	846
673.731	542
673.782	1148
673.832	1012
673.883	281
673.934	247
673.984	831
674.035	482
674.085	927
674.136	378
674.186	332
674.237	615
674.287	1577
674.338	2051
674.388	1607
674.438	1017
674.489	903
674.539	704
674.589	1080
674.640	682
674.690	1105
674.740	946
674.791	314
674.841	1144
674.891	1235
674.942	1148
674.992	571
675.042	341
675.092	691
675.142	-377
675.193	508
675.243	453
675.293	930
675.343	560
675.393	221
675.443	333
675.493	654
675.543	236
675.593	1050
675.643	423
675.693	757
675.743	73
675.793	843
675.843	274
675.893	688
675.943	675
675.993	1043
676.043	180
676.093	-301
676.142	510
676.192	555
676.242	786
676.292	317
676.341	1318
676.391	661
676.441	54
676.491	508
676.540	209
676.590	316
676.640	683
676.689	-121
676.739	287
676.789	391
676.838	657
676.888	378
676.937	63
676.987	381
677.037	176
677.086	369
677.136	148
677.185	510
677.235	-189
677.284	223
677.333	179
677.383	277
677.432	503
677.482	-145
677.531	-227
677.580	44
677.630	292
677.679	-8
677.728	703
677.778	436
677.827	323
677.876	-334
677.925	916
677.975	-239
678.024	-112
678.073	-262
678.122	764
678.171	96
678.220	647
678.269	-298
678.319	330
678.368	393
678.417	523
678.466	674
678.515	600
678.564	554
678.613	608
678.662	1067
678.711	447
678.760	-51
678.809	515
678.857	-86
678.906	97
678.955	573
679.004	12
679.053	164
679.102	624
679.151	558
679.199	35
679.248	-2
679.297	219
679.346	262
679.394	198
679.443	-184
679.492	349
679.540	-524
679.589	-157
679.638	221
679.686	340
679.735	-461
679.784	121
679.832	619
679.881	1348
679.929	263
679.978	-322
680.026	-16
680.075	-86
680.123	-87
680.172	807
680.220	-218
680.268	413
680.317	-510
680.365	-441
680.414	231
680.462	-332
680.510	785
680.559	679
680.607	-852
680.655	339
680.703	-518
680.752	-352
680.800	344
680.848	-408
680.896	-627
680.945	583
680.993	-322
681.041	221
681.089	282
681.137	241
681.185	-459
681.233	-785
681.258	-277
681.281	160
681.329	548
681.377	229
681.380	255
681.425	-86
681.473	749
681.502	584
681.521	394
681.569	55
681.617	653
681.624	714
681.665	832
681.713	341
681.745	1000
681.761	1246
681.809	781
681.857	881
681.867	949
681.904	995
681.952	894
681.989	966
682.000	937
682.048	1049
682.096	1059
682.111	1213
682.143	1419
682.191	1917
682.233	1875
682.239	1827
682.286	2069
682.334	1660
682.354	1833
682.382	1976
682.430	2139
682.476	2419
682.477	2386
682.525	1999
682.572	2731
682.598	2538
682.620	2312
682.667	2397
682.715	2533
682.720	2613
682.763	2985
682.810	2720
682.841	2746
682.857	2711
682.905	2851
682.952	3531
682.963	3427
683.000	2879
683.047	3280
683.085	3427
683.095	3441
683.142	3281
683.190	3133
683.206	3349
683.237	3603
683.284	3087
683.328	3914
683.332	3954
683.379	3619
683.426	4021
683.449	3847
683.473	3580
683.521	3671
683.568	3491
683.571	3571
683.615	4316
683.662	4158
683.693	3887
683.709	3688
683.757	4630
683.804	4229
683.814	4209
683.851	4024
683.898	4551
683.936	4864
683.945	4888
683.992	4845
684.039	5057
684.057	5008
684.086	4947
684.133	4906
684.179	5982
684.180	5991
684.227	5516
684.274	5571
684.300	5795
684.321	5911
684.368	5654
684.415	5561
684.422	5561
684.462	5440
684.509	6175
684.543	5813
684.556	5638
684.603	5976
684.649	6232
684.665	6325
684.696	6408
684.743	6031
684.786	6087
684.790	6079
684.837	6074
684.883	6409
684.908	6543
684.930	6696
684.977	6500
685.023	6973
685.029	7017
685.070	7169
685.117	7345
685.150	7675
685.164	7725
685.210	7421
685.257	7157
685.272	7474
685.303	8173
685.350	8478
685.393	7836
685.396	7770
685.443	8133
685.490	8290
685.514	8257
685.536	8162
685.583	8661
685.629	8447
685.636	8468
685.675	8506
685.722	8439
685.757	8312
685.768	8250
685.815	8846
685.861	8734
685.878	8756
685.908	8783
685.954	9110
686.000	8858
686.000	8842
686.047	8975
686.093	9349
686.121	9052
686.139	8912
686.185	10240
686.232	9975
686.242	9946
686.278	9801
686.324	10008
686.363	10227
686.370	10201
686.416	9825
686.463	9304
686.484	9570
686.509	9920
686.555	9506
686.601	9274
686.606	9307
686.647	9681
686.693	9428
686.727	9485
686.739	9480
686.785	9815
686.831	9958
686.848	9779
686.877	9506
686.923	9675
686.969	9363
686.969	9359
687.015	9807
687.061	9896
687.090	9834
687.107	9842
687.153	10442
687.199	10013
687.211	10076
687.245	10173
687.291	10621
687.332	10417
687.336	10385
687.382	10793
687.428	10320
687.453	10408
687.474	10684
687.520	10837
687.565	11307
687.574	11377
687.611	11210
687.657	11121
687.695	10803
687.702	10792
687.748	10831
687.794	10692
687.816	10861
687.839	11035
687.885	11173
687.931	11273
687.937	11298
687.976	11469
688.022	11056
688.058	11155
688.067	11168
688.113	11391
688.158	11090
688.179	11202
688.204	11478
688.249	11881
688.295	11821
688.300	11864
688.340	12041
688.386	11880
688.421	11928
688.431	12005
688.477	12178
688.522	12431
688.542	12622
688.567	12789
688.613	12805
688.658	12088
688.663	12153
688.703	12717
688.749	12437
688.784	12716
688.794	12813
688.839	12742
688.884	12894
688.905	12690
688.930	12387
688.975	12407
689.020	12210
689.026	12196
689.065	12369
689.110	12520
689.146	12458
689.155	12495
689.201	12703
689.246	13052
689.267	13061
689.291	12930
689.336	13157
689.381	12998
689.388	12908
689.426	12532
689.471	12489
689.509	13187
689.516	13379
689.561	12869
689.606	13585
689.630	13639
689.651	13612
689.696	13287
689.741	13230
689.750	13200
689.785	13239
689.830	13485
689.871	13604
689.875	13618
689.920	13112
689.965	12967
689.992	12924
690.010	12963
690.054	13363
690.099	13023
690.112	12957
690.144	12870
690.189	13050
690.233	12959
690.233	12978
690.278	12870
690.323	12972
690.354	13107
690.367	13171
690.412	12935
690.457	12766
690.474	12853
690.501	13165
690.546	13073
690.590	13352
690.595	13368
690.635	13633
690.680	13532
690.716	13548
690.724	13543
690.769	13717
690.813	13615
690.836	13396
690.857	13415
690.902	13486
690.946	14085
690.957	14153
690.991	14199
691.035	13698
691.077	13773
691.080	13836
691.124	14295
691.168	15010
691.198	15213
691.213	15194
691.257	15382
691.301	15289
691.318	15410
691.346	15731
691.390	15535
691.434	15630
691.439	15614
691.478	15244
691.522	15299
691.559	14769
691.567	14777
691.611	14808
691.655	15025
691.680	15009
691.699	15080
691.743	14979
691.787	15235
691.800	15283
691.831	15439
691.875	15223
691.919	15692
691.921	15659
691.964	15824
692.008	16409
692.041	16431
692.052	16375
692.096	16328
692.139	16281
692.162	16305
692.183	16459
692.227	16208
692.271	16127
692.282	16098
692.315	16191
692.359	16417
692.402	16341
692.403	16374
692.447	16774
692.490	16404
692.523	16501
692.534	16578
692.578	16479
692.622	16174
692.643	16292
692.666	16562
692.709	16348
692.753	16425
692.763	16443
692.797	16542
692.840	16434
692.884	16477
692.884	16513
692.928	16563
692.971	16534
693.004	16360
693.015	16402
693.059	17025
693.102	17284
693.124	17345
693.146	17240
693.189	16965
693.233	16852
693.245	16740
693.276	16704
693.320	16809
693.363	16568
693.365	16530
693.407	16923
693.450	17103
693.485	17475
693.493	17527
693.537	17442
693.580	17542
693.605	17270
693.624	17240
693.667	17601
693.710	17540
693.725	17670
693.753	17981
693.797	17569
693.840	18074
693.845	18037
693.883	18188
693.926	18403
693.966	18431
693.970	18498
694.013	18776
694.056	19187
694.086	19248
694.099	19007
694.142	18378
694.185	17801
694.206	17367
694.229	17365
694.272	17450
694.315	17474
694.326	17443
694.358	17614
694.401	17847
694.444	17640
694.446	17615
694.487	18211
694.530	18565
694.566	18897
694.573	18924
694.616	18751
694.659	18519
694.686	18224
694.702	18133
694.745	17885
694.787	17681
694.806	17626
694.830	17685
694.873	17375
694.916	17284
694.926	17186
694.959	17393
695.002	17811
695.044	18120
695.046	18085
695.087	17958
695.130	17930
695.166	17667
695.172	17722
695.215	17910
695.258	18075
695.286	18205
695.301	18323
695.343	18542
695.386	18456
695.406	18486
695.428	18569
695.471	18744
695.514	18684
695.526	18610
695.556	18570
695.599	18583
695.641	18547
695.646	18502
695.684	18748
695.726	18912
695.766	18996
695.769	19034
695.811	18925
695.854	18715
695.886	18755
695.896	18965
695.938	19106
695.981	19638
696.005	19814
696.023	19627
696.065	19055
696.108	18465
696.125	18240
696.150	18520
696.192	18592
696.235	19035
696.245	19027
696.277	19402
696.319	19920
696.361	20554
696.365	20535
696.404	20404
696.446	20459
696.485	20248
696.488	20271
696.530	19990
696.572	19618
696.604	19274
696.614	19353
696.656	19586
696.698	19711
696.724	19760
696.740	19905
696.783	20125
696.825	20487
696.844	20546
696.867	20345
696.909	19813
696.951	19350
696.964	19150
696.992	19191
697.034	19085
697.076	19055
697.083	18994
697.118	19455
697.160	19968
697.202	20563
697.203	20521
697.244	20156
697.286	19706
697.323	19344
697.327	19438
697.369	19707
697.411	20081
697.442	20276
697.453	20320
697.494	20198
697.536	20115
697.562	20047
697.578	20194
697.620	20342
697.661	20571
697.682	20637
697.703	20731
697.744	20740
697.786	20710
697.801	20670
697.828	20830
697.869	20967
697.911	21119
697.921	21078
697.952	21597
697.994	22288
698.035	22975
698.040	22995
698.077	22341
698.118	21448
698.160	20645
698.160	20582
698.201	20773
698.243	20889
698.279	20968
698.284	21024
698.325	20976
698.367	20948
698.399	20847
698.408	20946
698.449	21121
698.491	21333
698.518	21383
698.532	21446
698.573	21489
698.614	21517
698.638	21478
698.656	21448
698.697	21206
698.738	21018
698.757	20853
698.779	21020
698.820	21223
698.862	21442
698.877	21464
698.903	21728
698.944	22041
698.985	22360
698.996	22386
699.026	22345
699.067	22196
699.116	21959
699.235	22294
699.354	22205
699.474	22117
699.593	21095
699.713	21571
699.832	22604
699.951	21209
700.070	21698
700.190	21433
700.309	20819
700.428	20655
700.547	20709
700.667	20676
700.786	20060
700.905	20353
701.024	20719
701.143	19517
701.262	21348
701.381	18821
701.500	19622
701.619	19371
701.738	19812
701.857	19490
701.976	19552
702.095	17777
702.214	19093
702.333	19165
702.452	20037
702.571	19459
702.690	18989
702.809	19148
702.928	18798
703.047	18864
703.165	18400
703.284	17942
703.403	17535
703.522	17433
703.640	18973
703.759	19540
703.878	17895
703.997	21963
704.115	19051
704.234	17332
704.353	17725
704.471	17521
704.590	17387
704.708	17006
704.827	16717
704.946	16310
705.064	16560
705.183	18177
705.301	17020
705.420	18326
705.538	22541
705.656	24596
705.775	22400
705.893	19387
706.012	20349
706.130	22058
706.249	21521
706.367	21116
706.485	20484
706.604	20557
706.722	20363
706.840	19836
706.958	21118
707.077	21483
707.195	21353
707.313	20258
707.431	19804
707.549	18954
707.668	19594
707.786	18923
707.904	18320
708.022	18933
708.140	18494
708.258	18705
708.376	18502
708.494	18273
708.612	17831
708.730	19341
708.848	22796
708.966	26752
709.084	23500
709.202	22661
709.320	21989
709.438	21323
709.556	21979
709.674	22631
709.791	22253
709.909	21745
710.027	21343
710.145	20446
710.263	21696
710.380	20034
710.498	20938
710.616	21098
710.733	20293
710.851	19082
710.969	20209
711.086	20554
711.204	19398
711.322	20216
711.439	19307
711.557	19250
711.674	20045
711.792	19090
711.909	19141
712.027	18898
712.144	18454
712.262	18897
712.379	18324
712.497	19719
712.614	22662
712.732	27814
712.849	26105
712.966	22314
713.084	21474
713.201	24203
713.318	24013
713.436	22603
713.553	23105
713.670	22818
713.787	23334
713.905	22970
714.022	24427
714.139	22611
714.256	22361
714.373	22510
714.490	23985
714.608	29654
714.725	44250
714.842	122253
714.959	384958
715.076	86440
715.193	24183
715.310	22163
715.427	21542
715.544	20045
715.661	19820
715.778	19097
715.895	19527
716.011	20844
716.128	21618
716.245	20578
716.362	19051
716.479	20584
716.596	21515
716.713	18650
716.829	18747
716.946	18718
717.063	18270
717.180	17720
717.296	18644
717.413	17091
717.530	17646
717.646	17217
717.763	17890
717.880	16556
717.996	16794
718.113	16297
718.229	17309
718.346	16082
718.462	16520
718.579	15513
718.695	15983
718.812	18968
718.928	21257
719.045	18619
719.161	19565
719.277	15500
719.394	15825
719.510	15048
719.626	16086
719.743	15478
719.859	16982
719.975	19498
720.092	22978
720.208	41880
720.324	144503
720.440	93681
720.557	19903
720.673	17488
720.789	18023
720.905	21893
721.021	30145
721.137	33975
721.253	16501
721.369	14707
721.486	14916
721.602	16427
721.718	17325
721.834	16926
721.950	14606
722.066	14122
722.181	13844
722.297	14298
722.413	13562
722.529	14173
722.645	13954
722.761	14017
722.877	12625
722.993	13582
723.108	12875
723.224	14242
723.340	14172
723.456	12515
723.571	12873
723.687	12495
723.803	12868
723.918	12349
724.034	13023
724.150	12451
724.265	12672
724.381	12525
724.497	15213
724.612	24000
724.728	15640
724.843	12219
724.959	12076
725.074	11630
725.190	14354
725.305	22682
725.421	13774
725.536	12685
725.651	11730
725.767	11172
725.882	11284
725.997	10993
726.113	11421
726.228	11322
726.343	10713
726.459	11023
726.574	11038
726.689	11144
726.804	11533
726.920	9825
727.035	10784
727.150	11479
727.265	11551
727.380	10681
727.495	11060
727.610	11333
727.725	10241
727.841	10331
727.956	10596
728.071	10354
728.186	10750
728.301	10899
728.416	9759
728.531	9474
728.645	10757
728.760	9155
728.875	9644
728.990	10025
729.105	9760
729.220	10306
729.335	10282
729.449	10700
729.564	10010
729.679	8795
729.794	8930
729.908	9502
730.023	9413
730.138	10447
730.253	9022
730.367	8782
730.482	9257
730.596	9008
730.711	9161
730.826	9734
730.940	9767
731.055	8713
731.169	9608
731.284	9813
731.398	9192
731.513	9377
731.627	9499
731.742	9619
731.856	9915
731.970	11397
732.085	10588
732.199	10112
732.313	11792
732.428	13541
732.542	20498
732.656	52546
732.771	96206
732.885	24496
732.999	12448
733.113	10017
733.227	11153
733.342	10900
733.456	10855
733.570	10125
733.684	10310
733.798	10099
733.912	9415
734.026	9950
734.140	9572
734.254	9014
734.368	9750
734.482	10703
734.596	15345
734.710	10510
734.824	9277
734.938	9142
735.052	9434
735.166	8825
735.280	8901
735.393	9869
735.507	9200
735.621	9052
735.735	9055
735.849	11575
735.962	12030
736.076	8157
736.190	9362
736.303	9291
736.417	9140
736.531	12045
736.644	9245
736.758	9044
736.872	8328
736.985	7574
737.099	8429
737.212	8059
737.326	7410
737.439	8494
737.553	8510
737.666	8017
737.780	8347
737.893	7482
738.007	7977
738.120	7504
738.233	7516
738.347	7086
738.460	7992
738.573	7747
738.687	7655
738.800	8218
738.913	8377
739.026	8612
739.140	7848
739.253	7865
739.366	7447
739.479	7054
739.592	7623
739.705	7116
739.818	6874
739.932	6756
740.045	7841
740.158	6560
740.271	7015
740.384	6713
740.497	7012
740.610	7138
740.723	6958
740.836	6712
740.949	7872
741.062	7180
741.174	6773
741.287	8055
741.400	7516
741.513	7126
741.626	6874
741.739	7369
741.851	7091
741.964	6703
742.077	7022
742.189	6806
742.302	5838
742.415	6718
742.527	7339
742.640	6813
742.753	6599
742.865	5977
742.978	5958
743.090	6152
743.203	6773
743.316	6585
743.428	6532
743.541	6567
743.653	5885
743.766	6514
743.878	6000
743.990	6380
744.103	6641
744.215	7914
744.327	6077
744.440	6088
744.552	6299
744.664	7508
744.777	7541
744.889	6199
745.001	6519
745.113	6424
745.226	7101
745.338	6357
745.450	6501
745.562	6282
745.674	6028
745.786	5728
745.898	6278
746.010	5863
746.122	5580
746.234	6253
746.347	5743
746.459	5762
746.570	6195
746.682	5197
746.794	5287
746.906	5546
747.018	5483
747.130	5740
747.242	5725
747.354	6153
747.466	5629
747.577	5932
747.689	6020
747.801	5539
747.913	5637
748.024	5432
748.136	5221
748.248	5468
748.359	5796
748.471	5274
748.583	5508
748.694	5634
748.806	6208
748.918	6099
749.029	5636
749.141	6299
749.252	6079
749.364	5558
749.475	5342
749.587	6942
749.698	8373
749.809	6359
749.921	5161
750.032	5588
750.144	4939
750.255	5335
750.366	5229
750.478	4935
750.589	5730
750.700	5046
750.811	5536
750.923	5058
751.034	5822
751.145	6511
751.256	10096
751.367	5398
751.479	5292
751.590	4484
751.701	4846
751.812	5285
751.923	5873
752.034	5034
752.145	4473
752.256	5364
752.367	5779
752.478	4948
752.589	4264
752.700	4809
752.811	5043
752.922	4599
753.032	4743
753.143	5092
753.254	5409
753.365	4871
753.476	4460
753.586	4544
753.697	4656
753.808	4825
753.919	3673
754.029	4793
754.140	4994
754.251	4644
754.361	4503
754.472	4507
754.582	4662
754.693	4366
754.804	4817
754.914	4388
755.025	4910
755.135	4555
755.246	4961
755.356	4254
755.466	4378
755.577	4120
755.687	4418
755.798	4299
755.908	4320
756.018	3832
756.129	4627
756.239	4382
756.349	5429
756.460	4486
756.570	4499
756.680	5120
756.790	5048
756.900	4946
757.011	4396
757.121	4644
757.231	4158
757.341	4661
757.451	4398
757.561	4165
757.671	4635
757.781	3899
757.891	4875
758.001	3710
758.111	4484
758.221	4904
758.331	3814
758.441	4127
758.551	5226
758.661	4231
758.771	5663
758.880	4336
758.990	4539
759.100	4650
759.210	4280
759.320	5278
759.429	4910
759.539	3559
759.649	4906
759.758	5220
759.868	5092
759.978	5118
760.087	4686
760.197	5152
760.307	4510
760.416	4600
760.526	5339
760.635	4210
760.745	5288
760.854	4754
760.964	5022
761.073	4728
761.182	4780
761.292	4495
761.401	5706
761.511	5152
761.620	4890
761.729	4238
761.839	4680
761.948	4848
762.057	4812
762.166	4485
762.276	4351
762.385	5173
762.494	4140
762.603	3953
762.712	4194
762.822	4227
762.931	4907
763.040	4953
763.149	3948
763.258	5258
763.367	4466
763.476	4729
763.585	4646
763.694	4504
763.803	4614
763.912	4695
764.021	4483
764.130	4519
764.238	4312
764.347	4167
764.456	4004
764.565	5204
764.674	4505
764.783	4252
764.891	4643
765.000	5077
765.109	4703
765.217	4338
765.326	4724
765.435	4326
765.543	5219
765.652	5490
765.761	5185
765.869	5046
765.978	6754
766.086	8007
766.195	10539
766.303	17018
766.412	35997
766.520	118738
766.629	326305
766.737	121287
766.846	22123
766.954	12337
767.062	9694
767.171	6823
767.279	6651
767.387	5929
767.496	5751
767.604	5506
767.712	5391
767.820	5314
767.928	5149
768.037	5297
768.145	5735
768.253	5108
768.361	4672
768.469	3883
768.577	4849
768.685	4473
768.793	4202
768.901	4700
769.009	5501
769.117	5073
769.225	5421
769.333	5235
769.441	5961
769.549	6209
769.657	9602
769.765	16036
769.873	40268
769.981	154336
770.088	195066
770.196	25698
770.304	9527
770.412	7745
770.519	6563
770.627	5828
770.735	5015
770.842	4635
770.950	5277
771.058	5104
771.165	4949
771.273	4680
771.380	4870
771.488	4710
771.595	4107
771.703	6107
771.810	5348
771.918	4989
772.025	4851
772.133	4726
772.240	5377
772.348	5797
772.455	5520
772.562	5209
772.670	5507
772.777	5552
772.884	4679
772.991	4844
773.099	5424
773.206	5469
773.313	4841
773.420	4858
773.528	4926
773.635	4846
773.742	4612
773.849	4950
773.956	4919
774.063	4140
774.170	4912
774.277	4971
774.384	4898
774.491	4653
774.598	4676
774.705	4801
774.812	4496
774.919	5949
775.026	4612
775.133	5067
775.239	4836
775.346	4366
775.453	4944
775.560	4511
775.667	5047
775.773	4733
775.880	5521
775.987	4364
776.093	4830
776.200	4399
776.307	4775
776.413	4671
776.520	4366
776.627	4435
776.733	4798
776.840	3946
776.946	4655
777.053	3976
777.159	3823
777.266	3928
777.372	5285
777.478	4628
777.585	4331
777.691	5047
777.798	4321
777.904	4752
778.010	4745
778.117	4572
778.223	5274
778.329	4490
778.435	4957
778.542	4361
778.648	4277
778.754	4368
778.860	4083
778.966	3521
779.072	4573
779.178	4073
779.284	3974
779.391	4265
779.497	3639
779.603	4452
779.708	3419
779.815	3816
779.920	4511
780.026	4475
780.132	7467
780.238	5406
780.344	4100
780.450	3914
780.556	4558
780.661	4340
780.767	3015
780.873	3128
780.979	4205
781.085	3510
781.190	3208
781.296	4039
781.402	3311
781.507	3089
781.613	4097
781.719	3739
781.824	3124
781.930	3971
782.035	3440
782.141	3980
782.246	4019
782.352	3055
782.457	2961
782.563	2768
782.668	3835
782.773	3898
782.879	4004
782.984	3543
783.090	4231
783.195	4361
783.300	4809
783.405	4918
783.511	3860
783.616	4609
783.721	3829
783.826	4466
783.932	3930
784.037	3679
784.142	3625
784.247	3611
784.352	3659
784.457	3553
784.562	3100
784.667	3478
784.772	3915
784.877	3420
784.982	3652
785.087	3454
785.192	4576
785.297	3553
785.402	2843
785.507	3880
785.611	3076
785.716	2792
785.821	3097
785.926	3591
786.031	4141
786.135	3327
786.240	3705
786.345	3619
786.450	2515
786.554	2618
786.659	3190
786.763	2545
786.868	2877
786.973	3796
787.077	3242
787.182	4071
787.286	3550
787.391	3324
787.495	2806
787.600	3426
787.704	2869
787.809	3013
787.913	3907
788.017	3278
788.122	2903
788.226	3252
788.330	3293
788.435	2727
788.539	3058
788.643	2747
788.747	3244
788.852	2338
788.956	3093
789.060	2825
789.164	2399
789.268	2573
789.372	2717
789.476	2673
789.580	3124
789.684	2939
789.788	3527
789.892	3225
789.996	3033
790.100	2788
790.204	3123
790.308	2966
790.412	2848
790.516	2940
790.620	2293
790.724	3265
790.828	3532
790.931	3585
791.035	2471
791.139	2895
791.242	2552
791.346	3244
791.450	2893
791.554	3125
791.657	2784
791.761	2887
791.864	2943
791.968	2933
792.072	2958
792.175	3380
792.279	2378
792.382	2928
792.486	2636
792.589	2310
792.693	3530
792.796	2704
792.899	2785
793.003	2602
793.106	2262
793.209	2783
793.313	2872
793.416	1628
793.519	2031
793.623	3170
793.726	2958
793.829	3892
793.932	3090
794.035	2453
794.138	3084
794.242	2966
794.345	4049
794.448	3006
794.551	3241
794.654	2949
794.757	4182
794.860	3697
794.963	4484
795.066	3381
795.169	3003
795.272	2039
795.375	2692
795.477	2381
795.580	2972
795.683	1883
795.786	3076
795.889	2111
795.991	2126
796.094	2588
796.197	2330
796.300	3176
796.402	2498
796.505	3301
796.608	2962
796.710	2155
796.813	2765
796.915	1991
797.018	3064
797.120	2415
797.223	1963
797.326	1462
797.428	2100
797.530	2610
797.633	2657
797.735	2801
797.838	2779
797.940	2780
798.042	5001
798.145	2536
798.247	2921
798.349	2593
798.452	2421
798.554	1773
798.656	2018
798.758	2334
798.860	2706
798.962	2766
799.065	2080
799.167	2132
799.269	2611
799.371	3021
799.473	2778
799.575	2787
799.677	2623
799.779	2962
799.881	2863
799.983	3306
800.085	3499
800.187	1614
800.289	2552
800.390	1824
800.492	2451
800.594	2359
800.696	1945
800.798	2467
800.899	2231
801.001	2996
801.103	2227
801.205	2149
801.306	1452
801.408	2303
801.509	2137
801.611	2408
801.713	2278
801.814	2011
801.916	1810
802.017	1761
802.119	1794
802.220	1956
802.322	1409
802.423	1802
802.525	1606
802.626	2762
802.727	2645
802.829	2354
802.930	1037
803.031	1943
803.133	1842
803.234	1876
803.335	2298
803.436	2019
803.538	1418
803.639	1833
803.740	1616
803.841	1295
803.942	2039
804.043	2045
804.144	1780
804.245	1040
804.346	1227
804.447	1767
804.548	1666
804.649	2055
804.750	2720
804.851	1818
804.952	1681
805.053	2421
805.154	1859
805.255	1421
805.355	1848
805.456	2570
805.557	2159
805.658	1862
805.758	2488
805.859	2312
805.960	2185
806.061	1554
806.161	1798
806.262	2142
806.362	1457
806.463	2134
806.564	1634
806.664	1900
806.765	1362
806.865	2061
806.966	2499
807.066	1601
807.166	2460
807.267	1974
807.367	1709
807.468	1685
807.568	1375
807.668	1500
807.769	1852
807.869	1557
807.969	1690
808.069	2066
808.170	1471
808.270	1623
808.370	1594
808.470	1940
808.570	2277
808.670	2635
808.770	2178
808.870	1556
808.970	2298
809.070	1294
809.170	1329
809.271	2308
809.370	1241
809.470	2276
809.570	1940
809.670	1476
809.770	1427
809.870	1994
809.970	2423
810.070	1221
810.169	1800
810.269	1713
810.369	2198
810.469	1810
810.568	1834
810.668	1916
810.768	1190
810.867	1534
810.967	1340
811.066	1590
811.166	2101
811.265	1707
811.365	2007
811.464	1387
811.564	1363
811.663	2754
811.763	2088
811.862	2402
811.962	2307
812.061	1845
812.160	2299
812.260	1369
812.359	1818
812.458	2345
812.557	3031
812.657	4121
812.756	9405
812.855	7927
812.954	2604
813.053	2277
813.153	2148
813.252	2035
813.351	2153
813.450	2170
813.549	2497
813.648	2091
813.747	2298
813.846	2188
813.945	1865
814.044	1708
814.143	1859
814.242	1634
814.341	1611
814.439	2439
814.538	1797
814.637	1387
814.736	2284
814.835	2646
814.933	1790
815.032	2339
815.131	2539
815.229	2423
815.328	2833
815.427	3216
815.525	3474
815.624	3197
815.722	3190
815.821	2917
815.919	3470
816.018	2842
816.116	3610
816.215	3443
816.313	2959
816.412	3106
816.510	3617
816.609	3675
816.707	4777
816.805	4415
816.904	4331
817.002	4128
817.100	5509
817.198	5364
817.296	5563
817.395	6056
817.493	6434
817.591	7450
817.689	8403
817.787	9691
817.885	12998
817.983	17626
818.081	28261
818.179	51685
818.277	110195
818.375	241052
818.473	414763
818.571	232363
818.669	79420
818.767	40631
818.865	30555
818.963	27891
819.061	28858
819.158	36302
819.256	54294
819.354	93982
819.452	186253
819.549	372824
819.647	490764
819.745	266296
819.842	107401
819.940	55864
820.038	35934
820.135	25958
820.233	20120
820.330	16278
820.428	12671
820.525	11090
820.623	9228
820.720	7835
820.818	7952
820.915	6873
821.012	5954
821.110	5748
821.207	5171
821.304	5558
821.402	5229
821.499	4345
821.596	4909
821.693	4087
821.791	4128
821.888	4172
821.985	3243
822.082	4371
822.179	5516
822.276	3708
822.373	4064
822.470	3547
822.567	3501
822.664	3003
822.761	3680
822.858	3061
822.955	2418
823.052	3098
823.149	2953
823.246	2315
823.343	2684
823.440	2531
823.536	2585
823.633	2343
823.730	2389
823.827	2459
823.923	1765
824.020	3440
824.117	2478
824.213	2090
824.310	3008
824.407	2492
824.503	1407
824.600	1768
824.696	2709
824.793	1856
824.889	2451
824.986	2011
825.082	1989
825.179	1261
825.275	1734
825.371	2578
825.468	2000
825.564	1679
825.660	1722
825.757	1784
825.853	2212
825.949	2285
826.045	2126
826.142	1096
826.238	2149
826.334	2034
826.430	1878
826.526	1737
826.622	1779
826.718	1365
826.814	1645
826.910	2224
827.006	1811
827.102	1525
827.198	1619
827.294	1627
827.390	1451
827.486	2034
827.582	1461
827.678	1364
827.774	1818
827.869	1639
827.965	1925
828.061	1334
828.157	1662
828.252	1303
828.348	1194
828.444	1359
828.539	866
828.635	1517
828.731	1921
828.826	1692
828.922	1534
829.017	1584
829.113	2070
829.208	1847
829.304	1227
829.399	1661
829.495	1390
829.590	1540
829.685	1668
829.781	744
829.876	2140
829.971	1715
830.066	1063
830.162	1017
830.257	1351
830.352	757
830.447	1398
830.543	1706
830.638	1575
830.733	2642
830.828	908
830.923	985
831.018	1335
831.113	682
831.208	1606
831.303	1294
831.398	1799
831.493	1130
831.588	1261
831.683	1510
831.778	1471
831.873	1021
831.967	1760
832.062	994
832.157	1039
832.252	1688
832.346	1632
832.441	1871
832.536	1647
832.631	1444
832.725	2558
832.820	3863
832.914	2522
833.009	1751
833.104	1309
833.198	1337
833.293	2013
833.387	906
833.482	1439
833.576	687
833.670	1087
833.765	1464
833.859	1535
833.954	1855
834.048	2508
834.142	1760
834.237	1002
834.331	1001
834.425	1304
834.519	1105
834.613	1513
834.708	619
834.802	1069
834.896	955
834.990	324
835.084	1086
835.178	1854
835.272	1062
835.366	1008
835.460	1374
835.554	1706
835.648	1721
835.742	779
835.836	1170
835.930	466
836.024	1209
836.117	1410
836.211	1406
836.305	1999
836.399	1392
836.493	1966
836.586	1550
836.680	704
836.774	1234
836.867	1624
836.961	987
837.055	1627
837.148	996
837.242	923
837.335	1343
837.429	52
837.522	1011
837.616	632
837.709	1422
837.803	1865
837.896	1607
837.989	1497
838.083	1055
838.176	1146
838.269	2111
838.363	3106
838.456	1653
838.549	1466
838.642	1774
838.735	2434
838.829	2851
838.922	3584
839.015	874
839.108	1059
839.201	1357
839.294	906
839.387	1443
839.480	1440
839.573	1171
839.666	911
839.759	1437
839.852	680
839.945	1214
840.038	1167
840.131	987
840.223	187
840.316	1381
840.409	1157
840.502	954
840.594	969
840.687	579
840.780	1047
840.873	368
840.965	1436
841.058	733
841.150	1280
841.243	1982
841.336	2916
841.428	1195
841.521	747
841.613	1140
841.706	1260
841.798	1018
841.890	851
841.983	928
842.075	978
842.167	706
842.260	679
842.352	1427
842.444	1168
842.537	1626
842.629	2036
842.721	3649
842.813	2647
842.905	1138
842.997	717
843.090	-411
843.182	824
843.274	1099
843.366	2281
843.458	3820
843.550	8131
843.642	9927
843.734	4211
843.826	1638
843.918	1297
844.009	1557
844.101	1054
844.193	598
844.285	405
844.377	1218
844.469	1166
844.560	1072
844.652	799
844.744	950
844.835	1673
844.927	915
845.019	1008
845.110	797
845.202	738
845.293	263
845.385	1866
845.476	1233
845.568	1066
845.659	1767
845.751	1055
845.842	554
845.934	758
846.025	995
846.116	528
846.208	606
846.299	712
846.390	939
846.482	862
846.573	596
846.664	1379
846.755	591
846.846	913
846.937	1517
847.029	1648
847.120	645
847.211	661
847.302	1308
847.393	633
847.484	246
847.575	1037
847.666	484
847.757	912
847.847	697
847.938	511
848.029	437
848.120	1030
848.211	313
848.302	667
848.392	426
848.483	410
848.574	579
848.664	682
848.755	810
848.846	535
848.936	187
849.027	235
849.118	517
849.208	430
849.299	599
849.389	1020
849.480	1378
849.570	2111
849.661	3806
849.751	5476
849.841	9839
849.932	10633
850.022	2546
850.112	1493
850.203	517
850.293	1820
850.383	299
850.474	753
850.564	955
850.654	602
850.744	1139
850.834	-76
850.924	1018
851.014	847
851.104	761
851.194	1181
851.284	463
851.374	47
851.464	1631
851.554	542
851.644	1133
851.734	1028
851.824	797
851.914	1821
852.004	1191
852.094	816
852.183	853
852.273	698
852.363	705
852.452	636
852.542	182
852.632	667
852.721	523
852.811	685
852.901	175
852.990	928
853.080	598
853.169	689
853.259	285
853.348	538
853.438	171
853.527	777
853.617	725
853.706	2013
853.795	1896
853.885	4512
853.974	7840
854.063	16907
854.152	28077
854.242	59031
854.331	62690
854.420	14415
854.509	2805
854.598	2032
854.687	1330
854.777	1443
854.866	1787
854.955	1651
855.044	440
855.133	968
855.222	382
855.311	164
855.400	205
855.488	928
855.577	-46
855.666	952
855.755	342
855.844	-137
855.933	606
856.021	755
856.110	1086
856.199	313
856.288	1368
856.376	774
856.465	-51
856.554	96
856.642	1012
856.731	-66
856.819	632
856.908	473
856.996	58
857.085	319
857.173	406
857.262	494
857.350	416
857.438	348
857.527	669
857.615	465
857.703	441
857.792	407
857.880	103
857.968	5
858.056	576
858.145	1059
858.233	442
858.321	376
858.409	785
858.497	692
858.585	653
858.673	-293
858.761	341
858.849	211
858.937	527
859.025	545
859.113	698
859.201	202
859.289	948
859.377	366
859.465	1118
859.552	417
859.640	174
859.728	944
859.816	431
859.903	748
859.991	594
860.079	746
860.166	-180
860.254	238
860.342	211
860.429	-144
860.517	586
860.604	978
860.692	-144
860.779	430
860.867	299
860.954	734
861.042	-194
861.129	607
861.216	890
861.304	688
861.391	-235
861.478	443
861.565	185
861.653	772
861.740	111
861.827	766
861.914	299
862.001	205
862.089	783
862.176	742
862.263	276
862.350	716
862.437	467
862.524	1005
862.611	493
862.698	1116
862.785	1062
862.871	46
862.958	63
863.045	64
863.132	795
863.219	968
863.306	-95
863.392	795
863.479	892
863.566	169
863.652	361
863.739	-61
863.826	890
863.912	244
863.999	266
864.086	569
864.172	274
864.259	151
864.345	692
864.432	607
864.518	320
864.604	467
864.691	488
864.777	903
864.863	728
864.950	664
865.036	698
865.122	1051
865.209	1282
865.295	2128
865.381	2179
865.467	1810
865.553	1467
865.639	1333
865.726	2598
865.812	3481
865.898	5030
865.984	9983
866.070	15867
866.156	22629
866.242	43476
866.328	30299
866.414	6044
866.499	2215
866.585	2006
866.671	2097
866.757	1270
866.843	1036
866.928	1502
867.014	1081
867.100	2175
867.186	920
867.271	2127
867.357	1402
867.442	1666
867.528	2330
867.614	1605
867.699	1314
867.785	1396
867.870	1197
867.956	1183
868.041	1679
868.127	1280
868.212	1412
868.297	1422
868.383	1817
868.468	1620
868.553	2133
868.639	1724
868.724	3580
868.809	3456
868.894	5719
868.979	3184
869.065	1184
869.150	873
869.235	1389
869.320	1095
869.405	897
869.490	1438
869.575	576
869.660	1023
869.745	1292
869.830	494
869.915	1831
870.000	624
870.085	1027
870.169	1474
870.254	549
870.339	629
870.424	1245
870.509	572
870.593	782
870.678	914
870.763	1457
870.847	657
870.932	1084
871.016	1137
871.101	695
871.186	764
871.270	870
871.355	1524
871.439	1143
871.523	163
871.608	1076
871.692	607
871.777	820
871.861	681
871.945	1281
872.030	1350
872.114	1203
872.198	967
872.282	895
872.367	590
872.451	959
872.535	364
872.619	1111
872.703	620
872.787	918
872.871	561
872.955	142
873.039	661
873.123	827
873.207	34
873.291	1145
873.375	1384
873.459	588
873.543	439
873.627	301
873.711	438
873.794	564
873.878	407
873.962	1198
874.045	241
874.129	1089
874.137	1109
874.213	1303
874.245	1108
874.296	796
874.352	439
874.380	265
874.460	608
874.464	621
874.547	146
874.568	251
874.631	564
874.676	757
874.714	917
874.784	826
874.798	812
874.881	420
874.892	449
874.965	651
874.999	523
875.048	326
875.107	240
875.131	202
875.215	421
875.215	421
875.298	868
875.323	781
875.381	611
875.430	787
875.465	905
875.538	310
875.548	218
875.631	596
875.646	487
875.714	22
875.753	199
875.798	404
875.861	679
875.881	746
875.964	442
875.968	448
876.047	672
876.076	769
876.130	959
876.183	656
876.213	426
876.291	961
876.296	1009
876.379	413
876.398	592
876.462	1046
876.506	807
876.545	644
876.613	528
876.628	517
876.711	153
876.721	201
876.794	396
876.828	493
876.877	720
876.935	977
876.960	1030
877.043	876
877.043	873
877.125	482
877.150	496
877.208	595
877.258	524
877.291	421
877.365	850
877.374	899
877.456	1061
877.472	1027
877.539	933
877.579	1023
877.622	1070
877.687	976
877.704	954
877.787	1050
877.794	1001
877.869	707
877.901	990
877.952	1282
878.008	1216
878.034	1161
878.115	1168
878.117	1171
878.199	689
878.222	651
878.282	603
878.329	286
878.364	45
878.437	878
878.447	998
878.529	938
878.544	886
878.611	515
878.651	365
878.694	403
878.758	1196
878.776	1318
878.858	776
878.865	736
878.941	637
878.972	799
879.023	942
879.078	830
879.105	804
879.185	542
879.187	538
879.269	744
879.292	860
879.351	1122
879.399	1018
879.433	927
879.506	787
879.516	790
879.598	831
879.613	825
879.680	628
879.720	676
879.762	809
879.827	919
879.844	965
879.926	1138
879.933	1122
880.007	861
880.040	935
880.089	1008
880.147	894
880.171	843
880.253	1179
880.254	1178
880.335	1443
880.360	1808
880.417	2807
880.467	3318
880.499	4399
880.574	6998
880.580	7212
880.662	11224
880.680	11521
880.744	7562
880.787	3988
880.825	2442
880.893	1086
880.907	965
880.989	658
881.000	659
881.070	933
881.106	1146
881.152	1164
881.213	652
881.233	553
881.315	599
881.319	602
881.396	662
881.426	652
881.478	632
881.532	676
881.559	650
881.639	251
881.641	244
881.722	306
881.745	267
881.803	660
881.852	995
881.885	1008
881.958	806
881.966	726
882.047	489
882.064	358
882.129	790
882.171	1110
882.210	1195
882.277	1458
882.291	1632
882.372	2779
882.383	2875
882.454	2023
882.489	1449
882.535	1249
882.596	1117
882.616	1085
882.697	1088
882.702	1083
882.778	784
882.808	665
882.859	593
882.914	439
882.940	463
883.020	815
883.021	816
883.102	838
883.127	734
883.183	751
883.233	808
883.264	882
883.339	1056
883.345	1032
883.426	705
883.445	626
883.507	702
883.551	769
883.587	726
883.657	417
883.668	378
883.749	567
883.763	521
883.830	827
883.869	1319
883.910	1433
883.975	1049
883.991	888
884.072	479
884.081	416
884.152	736
884.187	849
884.233	690
884.292	519
884.314	537
884.394	790
884.398	790
884.475	854
884.504	752
884.555	491
884.610	715
884.636	855
884.716	804
884.716	806
884.797	741
884.821	752
884.877	1101
884.927	1286
884.958	1209
885.033	899
885.038	888
885.118	929
885.139	919
885.199	896
885.244	754
885.279	709
885.350	762
885.359	793
885.439	1278
885.456	1261
885.520	1157
885.561	1289
885.600	1193
885.667	957
885.680	960
885.760	820
885.773	768
885.840	690
885.878	868
885.920	889
885.984	818
886.000	875
886.080	1150
886.089	1143
886.160	857
886.195	843
886.240	1010
886.300	1123
886.320	1027
886.400	763
886.406	728
886.480	973
886.511	1181
886.560	1172
886.616	921
886.640	1113
886.720	2047
886.722	2059
886.800	1438
886.827	1239
886.879	1330
886.932	1388
886.959	1219
887.038	698
887.039	706
887.119	1287
887.143	1428
887.198	1024
887.248	540
887.278	626
887.354	1086
887.358	1092
887.437	1045
887.459	1038
887.517	943
887.564	875
887.596	930
887.669	929
887.676	911
887.755	747
887.774	689
887.835	842
887.880	979
887.914	671
887.985	64
887.994	122
888.073	614
888.090	726
888.153	1018
888.195	1111
888.232	926
888.300	751
888.311	743
888.391	562
888.405	529
888.470	937
888.510	1246
888.549	1279
888.615	1218
888.628	1119
888.708	591
888.720	499
888.787	1198
888.825	1603
888.866	1507
888.930	1328
888.945	1122
889.024	30
889.035	-116
889.103	798
889.140	1285
889.182	1338
889.245	1412
889.261	1372
889.340	1167
889.349	1136
889.419	1026
889.454	993
889.498	868
889.559	682
889.577	705
889.656	805
889.664	817
889.735	988
889.768	1070
889.814	1027
889.873	965
889.978	631
890.083	1252
890.187	1142
890.292	1501
890.397	1172
890.501	980
890.606	1610
890.710	1065
890.815	1070
890.919	845
891.024	1491
891.128	1350
891.233	895
891.337	791
891.442	578
891.546	1184
891.650	1580
891.755	1424
891.859	1417
891.963	1054
892.068	1401
892.172	1728
892.276	337
892.380	1097
892.484	821
892.589	441
892.693	926
892.797	785
892.901	601
893.005	942
893.109	988
893.213	870
893.317	994
893.421	1257
893.525	608
893.629	1509
893.733	1366
893.837	318
893.941	559
894.045	1015
894.148	1163
894.252	321
894.356	771
894.460	992
894.564	1207
894.667	989
894.771	797
894.875	703
894.978	363
895.082	973
895.186	1488
895.289	895
895.393	335
895.496	1282
895.600	120
895.703	1358
895.807	716
895.910	724
896.014	1075
896.117	1561
896.221	726
896.324	962
896.427	689
896.531	807
896.634	264
896.737	358
896.840	1202
896.944	1089
897.047	187
897.150	615
897.253	342
897.356	805
897.460	543
897.563	285
897.666	380
897.769	1123
897.872	691
897.975	924
898.078	-170
898.181	773
898.284	1491
898.387	1076
898.490	1018
898.593	322
898.695	974
898.798	1114
898.901	782
899.004	834
899.107	721
899.209	920
899.312	259
899.415	756
899.518	113
899.620	699
899.723	504
899.826	186
899.928	1573
900.031	2331
900.133	1406
900.236	975
900.338	663
900.441	1309
900.543	191
900.646	687
900.748	1295
900.851	1484
900.953	-280
901.055	1049
901.158	68
901.260	1377
901.362	109
901.465	521
901.567	589
901.669	1022
901.771	357
901.873	613
901.976	654
902.078	430
902.180	984
902.282	532
902.384	914
902.486	895
902.588	560
902.690	1130
902.792	932
902.894	755
902.996	-600
903.098	632
903.200	213
903.302	545
903.404	808
903.505	958
903.607	462
903.709	198
903.811	182
903.913	870
904.014	268
904.116	307
904.218	192
904.319	804
904.421	437
904.523	1369
904.624	746
904.726	604
904.827	834
904.929	335
905.030	611
905.132	500
905.233	366
905.335	207
905.436	222
905.537	-84
905.639	938
905.740	436
905.841	-489
905.943	703
906.044	402
906.145	725
906.247	480
906.348	564
906.449	508
906.550	903
906.651	428
906.752	-208
906.854	-126
906.955	498
907.056	983
907.157	398
907.258	283
907.359	695
907.460	17
907.561	-281
907.662	-216
907.762	357
907.863	277
907.964	943
908.065	-21
908.166	380
908.267	910
908.367	93
908.468	-79
908.569	285
908.670	435
908.770	1110
908.871	1414
908.971	1209
909.072	797
909.173	407
909.273	503
909.374	347
909.474	-431
909.575	253
909.675	-1
909.776	469
909.876	831
909.977	607
910.077	284
910.177	792
910.278	20
910.378	-370
910.478	-79
910.579	451
910.679	-353
910.779	562
910.879	338
910.980	44
911.080	363
911.180	-113
911.280	859
911.380	1286
911.480	252
911.580	933
911.680	210
911.780	143
911.880	806
911.980	211
912.080	-376
912.180	311
912.280	1055
912.380	-410
912.480	-73
912.580	493
912.679	647
912.779	400
912.879	69
912.979	232
913.078	187
913.178	160
913.278	245
913.377	26
913.477	399
913.577	-212
913.676	477
913.776	767
913.875	46
913.975	672
914.074	591
914.174	742
914.273	529
914.373	436
914.472	304
914.572	207
914.671	-228
914.770	645
914.870	657
914.969	-2
915.068	-702
915.167	134
915.267	387
915.366	852
915.465	131
915.564	270
915.663	831
915.763	412
915.862	337
915.961	659
916.060	-386
916.159	562
916.258	-236
916.357	399
916.456	421
916.555	478
916.654	264
916.752	-205
916.851	178
916.950	-382
917.049	630
917.148	329
917.247	-151
917.345	-116
917.444	575
917.543	189
917.642	829
917.740	-336
917.839	-769
917.937	498
918.036	739
918.135	617
918.233	-138
918.332	-208
918.430	-681
918.529	-316
918.627	365
918.726	3
918.824	689
918.923	79
919.021	-152
919.119	355
919.218	-247
919.316	-242
919.414	835
919.512	-147
919.611	-118
919.709	337
919.807	-109
919.905	310
920.003	638
920.102	1528
920.200	575
920.298	-431
920.396	-272
920.494	506
920.592	124
920.690	197
920.788	781
920.886	117
920.984	35
921.082	5
921.180	-419
921.277	941
921.375	340
921.473	231
921.571	570
921.669	291
921.766	208
921.864	755
921.962	456
922.060	-333
922.157	1
922.255	-342
922.352	-457
922.450	388
922.548	364
922.645	594
922.743	413
922.840	666
922.938	1405
923.035	1358
923.133	1698
923.230	1589
923.327	706
923.425	2091
923.522	1913
923.619	1137
923.717	735
923.814	1298
923.911	759
924.008	2306
924.106	1589
924.203	790
924.300	1346
924.397	651
924.494	810
924.591	1804
924.688	1474
924.786	824
924.883	1191
924.979	1277
925.077	1427
925.173	1048
925.270	808
925.367	785
925.464	1078
925.561	1102
925.658	1278
925.755	1724
925.852	982
925.948	1880
926.045	810
926.142	1034
926.239	637
926.335	1112
926.432	1376
926.529	1153
926.625	1198
926.722	1285
926.818	881
926.915	895
927.011	883
927.108	546
927.204	901
927.301	1226
927.397	741
927.494	887
927.590	1356
927.687	765
927.783	699
927.879	1555
927.976	600
928.072	1525
928.168	620
928.264	681
928.361	1005
928.457	827
928.553	874
928.649	649
928.745	1490
928.841	992
928.937	482
929.033	70
929.129	1230
929.225	302
929.321	880
929.417	1660
929.513	-95
929.609	1367
929.705	772
929.801	417
929.897	832
929.993	1066
930.089	1501
930.184	401
930.280	549
930.376	1244
930.471	1470
930.567	556
930.663	787
930.758	677
930.854	451
930.950	1125
931.045	393
931.141	795
931.236	1144
931.332	1123
931.427	782
931.523	427
931.618	1523
931.714	638
931.809	268
931.905	275
932.000	375
932.095	-37
932.191	224
932.286	1426
932.381	801
932.476	1054
932.572	-299
932.667	926
932.762	73
932.857	1070
932.952	379
933.047	1009
933.142	-60
933.237	487
933.332	331
933.427	643
933.522	1063
933.617	256
933.712	808
933.807	-87
933.902	1001
933.997	899
934.092	881
934.187	552
934.282	49
934.376	118
934.471	560
934.566	893
934.661	767
934.755	252
934.850	-539
934.945	68
935.039	349
935.134	585
935.228	144
935.323	-251
935.417	818
935.512	628
935.606	32
935.701	1218
935.795	635
935.890	1181
935.984	707
936.079	378
936.173	-268
936.267	106
936.362	482
936.456	226
936.550	202
936.644	629
936.738	127
936.833	759
936.927	968
937.021	170
937.115	665
937.209	-35
937.303	1232
937.397	859
937.491	429
937.585	1033
937.679	917
937.773	489
937.867	285
937.961	2
938.055	231
938.149	1384
938.243	891
938.337	82
938.430	324
938.524	231
938.618	72
938.712	594
938.805	165
938.899	-142
938.993	627
939.086	672
939.180	496
939.274	690
939.367	10
939.461	741
939.554	-276
939.648	156
939.741	396
939.835	-133
939.928	536
940.022	1050
940.115	244
940.208	302
940.302	555
940.395	1226
940.488	270
940.582	453
940.675	228
940.768	317
940.861	640
940.954	265
941.048	399
941.141	-140
941.234	-10
941.327	164
941.420	1088
941.513	1720
941.606	518
941.699	145
941.792	191
941.885	-66
941.978	272
942.071	-11
942.164	829
942.257	-177
942.349	-111
942.442	547
942.535	-476
942.628	113
942.721	960
942.813	188
942.906	651
942.999	358
943.091	220
943.184	-113
943.277	257
943.369	-224
943.462	794
943.554	-503
943.647	926
943.739	340
943.832	75
943.924	-43
944.017	1511
944.109	-41
944.201	527
944.294	-96
944.386	682
944.478	-131
944.571	297
944.663	491
944.755	557
944.847	811
944.940	710
945.032	65
945.124	42
945.216	-171
945.308	-693
945.400	-253
945.492	63
945.584	1087
945.676	802
945.768	87
945.860	474
945.952	806
946.044	1327
946.136	517
946.228	-706
946.320	-226
946.412	-197
946.503	-297
946.595	641
946.687	302
946.779	266
946.870	-187
946.962	797
947.054	553
947.145	683
947.237	190
947.329	390
947.420	970
947.512	468
947.603	549
947.695	-973
947.786	163
947.878	-257
947.969	-13
948.061	-34
948.152	104
948.243	-622
948.335	-718
948.426	-658
948.517	-962
948.609	213
948.700	414
948.791	111
948.882	-381
948.973	-215
949.065	-74
949.156	-34
949.247	-520
949.338	381
949.429	-18
949.520	274
949.611	-88
949.702	313
949.793	32
949.884	870
949.975	-297
950.066	93
950.157	-162
950.247	239
950.338	41
950.429	-372
950.520	-347
950.611	237
950.701	75
950.792	565
950.883	521
950.973	999
951.064	390
951.155	433
951.245	702
951.336	521
951.427	259
951.517	62
951.608	1138
951.698	-453
951.788	379
951.879	328
951.969	-773
952.060	107
952.150	215
952.240	-652
952.331	-345
952.421	526
952.511	587
952.602	162
952.692	-288
952.782	308
952.872	313
952.962	70
953.052	868
953.143	274
953.233	138
953.323	-69
953.413	-557
953.503	738
953.593	-124
953.683	-220
953.773	392
953.863	-766
953.953	-167
954.042	176
954.132	752
954.222	899
954.312	151
954.402	203
954.492	-452
954.581	259
954.671	141
954.761	173
954.850	276
954.940	-308
955.030	97
955.119	15
955.209	-19
955.298	-37
955.388	86
955.477	-326
955.567	-238
955.656	-639
955.746	-295
955.835	-50
955.925	-1212
956.014	-298
956.103	-319
956.193	-250
956.282	498
956.371	-75
956.461	-12
956.550	76
956.639	-627
956.728	-309
956.817	54
956.906	169
956.995	-109
957.085	-193
957.174	308
957.263	-1354
957.352	-88
957.441	119
957.530	-334
957.619	-801
957.708	-306
957.796	-768
957.885	-618
957.974	-283
958.063	-46
958.152	-452
958.241	-663
958.329	-324
958.418	-359
958.507	-386
958.596	149
958.684	365
958.773	725
958.861	-304
958.950	-1231
959.039	-221
959.127	-610
959.216	-231
959.304	1156
959.393	-1027
959.481	153
959.570	19
959.658	-436
959.746	-300
959.835	-60
959.923	611
960.011	461
960.100	358
960.188	-825
960.276	-382
960.365	724
960.453	-391
960.541	-304
960.629	-316
960.717	-334
960.805	-611
960.893	-477
960.981	-196
961.069	-987
961.158	-934
961.245	116
961.333	-187
961.421	311
961.509	301
961.597	-702
961.685	11
961.773	-868
961.861	-193
961.949	-340
962.036	-274
962.124	-131
962.212	-93
962.299	-111
962.387	-898
962.475	-843
962.562	-992
962.650	-332
962.738	-203
962.825	-358
962.913	-470
963.000	31
963.088	-757
963.175	1
963.263	-276
963.350	-500
963.438	-411
963.525	490
963.612	-662
963.700	1206
963.787	2765
963.874	7032
963.962	4516
964.049	-397
964.136	-265
964.223	-202
964.310	-295
964.398	139
964.485	-695
964.572	-47
964.659	376
964.746	-407
964.833	798
964.920	-185
965.007	-539
965.094	-772
965.181	-883
965.268	-60
965.355	-100
965.441	-515
965.528	-60
965.615	556
965.702	9
965.789	-509
965.875	-880
965.962	-483
966.049	-789
966.136	397
966.222	-798
966.309	361
966.395	-405
966.482	397
966.569	-507
966.655	485
966.742	-1277
966.828	-258
966.915	-304
967.001	-201
967.087	-694
967.174	-674
967.260	-82
967.347	193
967.433	880
967.519	2043
967.605	4838
967.692	2434
967.778	-598
967.864	-419
967.950	58
968.036	-1092
968.123	21
968.209	-395
968.295	-1190
968.381	-306
968.467	-616
968.553	-577
968.639	-806
968.725	-198
968.811	-417
968.897	959
968.983	122
969.069	-25
969.154	25
969.240	-406
969.326	-500
969.412	-496
969.497	-1089
969.583	-1379
969.669	-625
969.755	-326
969.840	-764
969.926	-683
970.012	-634
970.097	404
970.183	48
970.268	484
970.354	-87
970.439	-790
970.525	386
970.610	1849
970.696	834
970.781	-124
970.866	-754
970.952	-1171
971.037	-536
971.122	-519
971.208	-893
971.293	-650
971.378	-849
971.463	-74
971.549	221
971.634	-316
971.719	-885
971.804	-241
971.889	-216
971.974	537
972.059	-771
972.144	-201
972.229	-501
972.314	37
972.399	-448
972.484	-687
972.569	-1020
972.654	-321
972.739	-169
972.824	176
972.908	1302
972.993	154
973.078	-994
973.163	-165
973.247	-258
973.332	-700
973.417	-395
973.501	-334
973.586	149
973.671	-123
973.755	-586
973.840	-599
973.924	-550
974.009	158
974.093	-1010
974.178	-49
974.262	-175
974.346	423
974.431	1161
974.515	-932
974.600	-1040
974.684	-383
974.768	73
974.852	-624
974.937	-124
975.021	-140
975.105	-958
975.189	-1113
975.273	-954
975.358	-571
975.442	-415
975.526	-1277
975.610	-804
975.694	-767
975.778	-341
975.862	-581
975.946	-565
976.030	-352
976.114	-465
976.198	-216
976.281	-838
976.365	-242
976.449	-705
976.533	-425
976.617	-245
976.700	-1137
976.784	-677
976.868	-122
976.951	-408
977.035	-566
977.119	-142
977.202	-1062
977.286	-588
977.369	-734
977.453	-957
977.536	-1067
977.620	-592
977.703	-1048
977.787	-462
977.870	-414
977.953	-420
978.037	-634
978.120	-634
978.203	-32
978.287	-597
978.370	708
978.453	147
978.536	-945
978.620	-682
978.703	-956
978.786	5
978.869	264
978.952	-984
979.035	-341
979.118	-858
979.201	-1151
979.284	-843
979.367	-736
979.450	-1022
979.533	-806
979.616	-1375
979.699	-1215
979.782	-1078
979.865	-1017
979.948	-426
980.030	-641
980.113	-805
980.196	-947
980.279	-693
980.361	-669
980.444	-680
980.526	-822
980.609	-746
980.692	-1491
980.774	-630
980.857	-417
980.939	-424
981.022	-1164
981.104	-920
981.187	-255
981.269	-717
981.352	-172
981.434	-695
981.516	-614
981.599	-740
981.681	-1211
981.763	-817
981.846	-1068
981.928	-702
982.010	-722
982.092	-862
982.174	-921
982.256	-627
982.339	-1326
982.421	-807
982.503	264
982.585	-1868
982.667	-822
982.749	-1079
982.831	-933
982.913	-1331
982.995	-684
983.077	-831
983.158	-695
983.240	-1170
983.322	-320
983.404	-288
983.486	365
983.568	-453
983.649	-1135
983.731	-745
983.813	-1734
983.894	-848
983.976	-1324
984.058	-1333
984.139	-301
984.221	-526
984.302	-688
984.384	-956
984.465	-1334
984.547	-655
984.628	-708
984.710	-1173
984.791	-852
984.872	-1586
984.954	-915
985.035	-860
985.116	-970
985.198	-121
985.279	270
985.360	-715
985.441	-666
985.522	-954
985.604	-1276
985.685	-1721
985.766	-504
985.847	-637
985.928	-436
986.009	-1216
986.090	-1036
986.171	-621
986.252	-943
986.333	-597
986.414	-555
986.495	-329
986.576	-1368
986.656	-566
986.737	-1125
986.818	-646
986.899	-545
986.980	-1006
987.060	-401
987.141	-1237
987.222	-1012
987.302	-756
987.383	-760
987.464	-993
987.544	-961
987.625	-1269
987.705	-480
987.786	-644
987.866	-168
987.947	-563
988.027	-504
988.108	-839
988.188	-9
988.268	-332
988.349	-24
988.429	-915
988.509	-991
988.589	-1302
988.670	-754
988.750	-481
988.830	-890
988.910	-1142
988.990	-551
989.070	-743
989.151	-882
989.231	-1189
989.311	-658
989.391	-1301
989.471	-840
989.551	-1207
989.631	-334
989.711	-889
989.791	-247
989.870	-1041
989.950	-539
990.030	-624
990.110	-1654
990.190	-630
990.269	-662
990.349	-1532
990.429	-1314
990.509	-950
990.588	-1995
990.668	-856
990.747	-803
990.827	-579
990.907	-319
990.986	-1236
991.066	-1242
991.145	-1063
991.225	-1466
991.304	-1363
991.383	-220
991.463	-939
991.542	-203
991.622	-1405
991.701	-485
991.780	-1563
991.859	-816
991.939	-1205
992.018	-1409
992.097	-912
992.176	-1245
992.256	-764
992.335	-1088
992.414	-732
992.493	-1122
992.572	-1424
992.651	-1116
992.730	-477
992.809	-760
992.888	-1374
992.967	-1355
993.046	-919
993.125	-1100
993.203	-1541
993.282	-1723
993.361	-1235
993.440	-265
993.519	-1542
993.597	-1400
993.676	-1764
993.755	-781
993.834	-1246
993.912	-1123
993.991	-115
994.069	-1091
994.148	-947
994.226	-1111
994.305	-1214
994.384	-1661
994.462	-1041
994.540	-941
994.619	-1196
994.697	-1409
994.776	-1005
994.854	-1071
994.932	-1690
995.011	-1119
995.089	-511
995.167	-1403
995.245	-1249
995.324	-1198
995.402	-839
995.480	-828
995.558	-1618
995.636	-422
995.714	-2022
995.792	-536
995.870	-882
995.948	-1241
996.026	-435
996.104	-1119
996.182	-882
996.260	-1266
996.338	-853
996.416	-1065
996.494	-970
996.572	-840
996.649	-1543
996.727	-1237
996.805	-742
996.883	-736
996.960	-420
997.038	-894
997.116	-1388
997.193	-1662
997.271	-1056
997.348	-1060
997.426	-256
997.504	-2223
997.581	-1066
997.658	-1164
997.736	-373
997.813	-1414
997.891	-721
997.968	-834
998.046	-1260
998.123	-904
998.200	-990
998.277	-1430
998.355	-844
998.432	-1180
998.509	-840
998.586	-1476
998.663	-1107
998.741	-1519
998.818	-1622
998.895	-959
998.972	-610
999.049	-1303
999.126	-1760
999.203	-132
999.280	-900
999.357	-607
999.434	-996
999.511	-291
999.587	-1665
999.664	-962
999.741	-750
999.818	-362
999.895	-1100
999.971	-747
1000.048	-942
1000.125	-615
1000.202	-858
1000.278	-539
1000.355	-1763
1000.431	-244
1000.508	-1182
1000.584	-709
1000.661	-1989
1000.738	-1114
1000.814	-1077
1000.890	-855
1000.967	-911
1001.043	-1384
1001.120	-868
1001.196	-1230
1001.272	-1644
1001.349	-935
1001.425	-581
1001.501	-776
1001.577	-872
1001.654	-1264
1001.730	-1616
1001.806	-1422
1001.882	-1575
1001.958	-1564
1002.034	-866
1002.110	-1137
1002.186	-1701
1002.262	-691
1002.338	-1467
1002.414	-1083
1002.490	-1450
1002.566	135
1002.642	-1831
1002.718	-1690
1002.794	-2037
1002.870	-1354
1002.945	-1426
1003.021	-734
1003.097	-1439
1003.173	-1123
1003.248	-1195
1003.324	-754
1003.400	-892
1003.475	-1765
1003.551	-921
1003.626	-335
1003.702	-1810
1003.777	-1543
1003.853	-1181
1003.928	-1542
1004.004	-1714
1004.079	-583
1004.155	-1063
1004.230	-1221
1004.305	-1716
1004.381	-1473
1004.456	-2212
1004.531	-720
1004.607	-1074
1004.682	-964
1004.757	-707
1004.832	-1236
1004.907	-747
1004.982	-1160
1005.057	-1227
1005.133	-763
1005.208	-2131
1005.283	-1706
1005.358	-1157
1005.433	-1773
1005.508	-1268
1005.583	-1123
1005.657	-1459
1005.732	-889
1005.807	-1505
1005.882	-1336
1005.957	-1169
1006.032	-1567
1006.106	-1027
1006.181	-1875
1006.256	-1785
1006.331	-1679
1006.405	-1803
1006.480	-1311
1006.554	-1935
1006.629	-912
1006.704	-1541
1006.778	-1155
1006.853	-1237
1006.927	-1382
1007.002	-1846
1007.076	-1635
1007.150	-1704
1007.225	-961
1007.299	-2108
1007.373	-1270
1007.448	-800
1007.522	-1432
1007.596	-1256
1007.671	-1531
1007.745	-983
1007.819	-1411
1007.893	-1354
1007.967	-1515
1008.041	-1748
1008.115	-495
1008.190	-1330
1008.264	-280
1008.338	-1670
1008.412	-619
1008.486	-299
1008.560	-1938
1008.633	-1257
1008.707	-2061
1008.781	-1264
1008.855	-1668
1008.929	-2157
1009.003	-1943
1009.076	-1777
1009.150	-2037
1009.224	-1662
1009.298	-1388
1009.371	-1233
1009.445	-994
1009.519	-1507
1009.592	-1381
1009.666	-1901
1009.739	-1286
1009.813	-2243
1009.886	-341
1009.960	-1129
1010.033	-1702
1010.107	-1967
1010.180	-1885
1010.253	-1322
1010.327	-1395
1010.400	-2154
1010.473	-1248
1010.547	-834
1010.620	-1326
1010.693	-1843
1010.766	-1731
1010.840	-1709
1010.913	-1350
1010.986	-2106
1011.059	-1361
1011.132	-1317
1011.205	-1711
1011.278	-1801
1011.351	-1638
1011.424	-2006
1011.497	-1471
1011.570	-2251
1011.643	-1424
1011.716	-2016
1011.789	-1419
1011.862	-1510
1011.934	-1581
1012.007	-1973
1012.080	-2133
1012.153	-1775
1012.225	-221
1012.298	-1275
1012.371	-1340
1012.443	-1553
1012.516	-2374
1012.588	-2013
1012.661	-2073
1012.733	-2467
1012.806	-1314
1012.879	-1980
1012.951	-1706
1013.023	-1555
1013.096	-1903
1013.168	-1873
1013.241	-451
1013.313	-1459
1013.385	-1595
1013.458	-1888
1013.530	-1670
1013.602	-1746
1013.674	-1262
1013.746	-1902
1013.819	-1831
1013.891	-1366
1013.963	-1304
1014.035	-1736
1014.107	-1172
1014.179	-1241
1014.251	-2087
1014.323	-1015
1014.395	-348
1014.467	-1665
1014.539	-1364
1014.611	-2451
1014.683	-920
1014.754	-1617
1014.826	-1739
1014.898	-1634
1014.970	-1799
1015.042	-1393
1015.113	-1886
1015.185	-1269
1015.257	-1885
1015.328	-1310
1015.400	-1338
1015.471	-1196
1015.543	-2339
1015.615	-2143
1015.686	-1415
1015.757	-1353
1015.829	-1742
1015.901	-2247
1015.972	-1328
1016.043	-1602
1016.115	-1612
1016.186	-2181
1016.257	-1050
1016.328	-1415
1016.400	-507
1016.471	-2144
1016.542	-1309
1016.613	-1216
1016.685	-1605
1016.756	-1008
1016.827	-1891
1016.898	-2354
1016.969	-1982
1017.040	-1649
1017.111	-2158
1017.182	-2413
1017.253	-2136
1017.324	-1588
1017.395	-1752
1017.466	-1782
1017.537	-1940
1017.608	-1470
1017.678	-1364
1017.749	-1533
1017.820	-2103
1017.891	-1827
1017.961	-2155
1018.032	-1502
1018.103	-1825
1018.173	-2279
1018.244	-1600
1018.315	-1711
1018.385	-1310
1018.456	-2081
1018.526	-1419
1018.597	-1692
1018.667	-1309
1018.738	-1551
1018.808	-1406
1018.878	-1836
1018.949	-1840
1019.019	-1334
1019.089	-2331
1019.160	-1416
1019.230	-1903
1019.300	-1345
1019.371	-1800
1019.441	-1777
1019.511	-1245
1019.581	-1661
1019.651	-2421
1019.721	-1554
1019.791	-2039
1019.861	-1786
1019.931	-2014
1020.001	-1553
1020.071	-1147
1020.141	-750
1020.211	-1579
1020.281	-1736
1020.351	-1361
1020.421	-1239
1020.491	-1618
1020.560	-1080
1020.630	-1628
1020.700	-1316
1020.770	-1218
1020.839	-1814
1020.909	-1347
1020.979	-1674
1021.048	-1865
1021.118	-1605
1021.187	-1683
1021.257	-2107
1021.326	-1991
1021.396	-1013
1021.465	-1389
1021.535	-2168
1021.604	-2112
1021.674	-1398
1021.743	-1747
1021.812	-2265
1021.882	-2388
1021.951	-1620
1022.020	-2299
1022.089	-1481
1022.159	-1516
1022.228	-1430
1022.297	-1459
1022.366	-1742
1022.435	-2142
1022.504	-1720
1022.573	-2394
1022.642	-1468
1022.711	-2304
1022.781	-1890
1022.849	-1869
1022.918	-2452
1022.987	-1827
1023.056	-2291
1023.125	-1370
1023.194	-1473
1023.263	-1250
1023.331	-1969
1023.400	-1955
1023.469	-1383
1023.538	-1645
1023.606	-1705
1023.675	-2523
1023.744	-1305
1023.812	-2769
1023.881	-526
1023.949	-1991
1024.018	-1175
1024.086	-2555
1024.155	-2010
1024.223	-1469
1024.292	-1592
1024.360	-1520
1024.429	-2036
1024.497	-1760
1024.565	-1312
1024.634	-1989
1024.702	-1818
1024.770	-1340
1024.838	-1709
1024.907	-1875
1024.975	-1241
1025.043	-1631
1025.111	-1708
1025.179	-1935
1025.247	-2732
1025.315	-2001
1025.383	-1055
1025.451	-1405
1025.519	-1958
1025.587	-2258
1025.655	-1643
1025.723	-959
1025.791	-1447
1025.859	-1741
1025.927	-1545
1025.995	-2041
1026.062	-1880
1026.130	-2054
1026.198	-2334
1026.266	-1407
1026.333	-1840
1026.401	-1742
1026.469	-2197
1026.536	-2121
1026.604	-1689
1026.671	-1721
1026.739	-1581
1026.806	-1314
1026.874	-1918
1026.941	-1526
1027.009	-1311
1027.076	-2318
1027.144	-1436
1027.211	-1622
1027.278	-1775
1027.345	-1517
1027.413	-1942
1027.480	-2451
1027.547	-1333
1027.614	-1690
1027.682	-853
1027.749	-2252
1027.816	-1258
1027.883	-1519
1027.950	-1748
1028.017	-1774
1028.084	-2009
1028.151	-1777
1028.218	-1560
1028.285	-1272
1028.352	-1631
1028.419	-1680
1028.486	-2369
1028.553	-2091
1028.619	-1668
1028.686	-1254
1028.753	-1577
1028.820	-1498
1028.886	-1842
1028.953	-1669
1029.020	-2366
1029.086	-1733
1029.153	-2044
1029.220	-1896
1029.286	-1638
1029.353	-1575
1029.419	-2534
1029.486	-2057
1029.552	-1592
1029.619	-1768
1029.685	-1798
1029.751	-1950
1029.818	-1184
1029.884	-1579
1029.951	-1705
1030.017	-1795
1030.083	-1572
1030.149	-1822
1030.216	-2058
1030.282	-1953
1030.348	-1896
1030.414	-1897
1030.480	-1986
1030.546	-2058
1030.612	-1153
1030.678	-2281
1030.744	-1487
1030.810	-1438
1030.876	-2306
1030.942	-2726
1031.008	-1437
1031.074	-2071
1031.140	-2303
1031.206	-1521
1031.272	-1762
1031.337	-2276
1031.403	-1523
1031.469	-2022
1031.534	-2203
1031.600	-1274
1031.666	-1463
1031.731	-1706
1031.797	-1842
1031.863	-1710
1031.928	-2221
1031.994	-1781
1032.059	-2402
1032.125	-1780
1032.190	-1581
1032.256	-1542
1032.321	-2085
1032.386	-1800
1032.452	-1953
1032.517	-1280
1032.582	-1671
1032.647	-1871
1032.713	-2083
1032.778	-1998
1032.843	-1998
1032.908	-1505
1032.974	-1589
1033.039	-2262
1033.104	-2157
1033.169	-1926
1033.234	-1440
1033.299	-2212
1033.364	-2353
1033.429	-1830
1033.494	-2184
1033.559	-1964
1033.624	-1496
1033.688	-1587
1033.753	-2279
1033.818	-1646
1033.883	-2111
1033.948	-1940
1034.013	-1105
1034.077	-1971
1034.142	-2381
1034.207	-1114
1034.271	-945
1034.336	-1407
1034.400	-1133
1034.465	-511
1034.530	-274
1034.594	-872
1034.658	-974
1034.723	-1670
1034.787	-1641
1034.852	-2233
1034.916	-2724
1034.981	-1890
1035.045	-1336
1035.109	-1768
1035.173	-2249
1035.238	-1819
1035.302	-1690
1035.366	-1936
1035.430	-2491
1035.495	-1899
1035.559	-1553
1035.623	-1616
1035.687	-2180
1035.751	-2549
1035.815	-2055
1035.879	-2263
1035.943	-2149
1036.007	-2044
1036.071	-1143
1036.135	-1149
1036.198	-1443
1036.262	-2392
1036.326	-1762
1036.390	-1948
1036.454	-1951
1036.517	-1537
1036.581	-1835
1036.645	-1664
1036.709	-1508
1036.772	-982
1036.836	-1020
1036.900	-1840
1036.963	-1749
1037.026	-2136
1037.090	-2023
1037.154	-2437
1037.217	-2459
1037.280	-1620
1037.344	-1224
1037.407	-1938
1037.471	-1694
1037.534	-2251
1037.597	-2433
1037.661	-1800
1037.724	-2855
1037.787	-2162
1037.850	-1883
1037.913	-1758
1037.977	-1157
1038.040	-1968
1038.103	-1773
1038.166	-1694
1038.229	-2406
1038.292	-1841
1038.355	-2033
1038.418	-1097
1038.481	-2093
1038.544	-1481
1038.607	-2021
1038.670	-1200
1038.732	-1761
1038.795	-1972
1038.858	-2286
1038.921	-2406
1038.984	-2029
1039.046	-1839
1039.109	-2472
1039.172	-1630
1039.234	-1789
1039.297	-1988
1039.360	-1449
1039.422	-2326
1039.485	-2017
1039.547	-1534
1039.610	-2170
1039.672	-1911
1039.734	-2535
1039.797	-1654
1039.859	-2662
1039.922	-1739
1039.984	-2034
1040.046	-1666
1040.109	-2388
1040.171	-1894
1040.233	-2220
1040.295	-1954
1040.358	-2347
1040.420	-2032
1040.482	-2418
1040.544	-1442
1040.606	-1628
1040.668	-2499
1040.730	-1887
1040.792	-2566
1040.854	-1973
1040.916	-2050
1040.978	-2426
1041.040	-1293
1041.102	-2045
1041.164	-2449
1041.225	-2073
1041.287	-2199
1041.349	-2768
1041.411	-2451
1041.472	-1971
1041.534	-1881
1041.596	-2194
1041.657	-1905
1041.719	-2575
1041.781	-2013
1041.842	-1796
1041.904	-1866
1041.965	-2060
1042.027	-2438
1042.088	-2333
1042.150	-1797
1042.211	-1236
1042.272	-1472
1042.334	-2102
1042.395	-1627
1042.456	-2521
1042.518	-2332
1042.579	-1774
1042.640	-2345
1042.701	-1681
1042.763	-1989
1042.824	-2048
1042.885	-2430
1042.946	-1867
1043.007	-2359
1043.068	-2306
1043.129	-2088
1043.190	-2269
1043.251	-834
1043.312	-1627
1043.373	-1859
1043.434	-1993
1043.495	-1360
1043.556	-1834
1043.616	-2276
1043.677	-2125
1043.738	-1938
1043.799	-2133
1043.859	-2139
1043.920	-2005
1043.981	-1817
1044.041	-1929
1044.102	-990
1044.162	-2215
1044.223	-2028
1044.284	-1796
1044.344	-1942
1044.405	-1760
1044.465	-2102
1044.525	-1612
1044.586	-2373
1044.646	-1787
1044.707	-1813
1044.767	-1243
1044.827	-1568
1044.887	-2099
1044.948	-1814
1045.008	-1587
1045.068	-1993
1045.128	-1679
1045.188	-1439
1045.249	-1505
1045.309	-1509
1045.369	-1930
1045.429	-1650
1045.489	-2222
1045.549	-1714
1045.609	-860
1045.669	-2150
1045.729	-1456
1045.789	-2273
1045.848	-1618
1045.908	-2250
1045.968	-1617
1046.028	-1904
1046.088	-1508
1046.147	-1308
1046.207	-1304
1046.267	-1148
1046.326	-1465
1046.386	-1721
1046.446	-1299
1046.505	-151
1046.565	-902
1046.624	-1283
1046.684	-719
1046.743	-534
1046.803	-917
1046.862	-1143
1046.922	0
