'Start Wavelength	183.907
'End Wavelength	1046.922
'Gate Delay	5.000
'Gate Width (ms)	1.050
'Laser Output Level	0.000
'X Position	0.000
'Y Position	0.000
'Z Position	0.000
'Grid Point Number	1.000
'Shot Number	100.000
183.907	-180.000
183.977	745.000
184.047	377
184.116	320
184.186	-29
184.256	690
184.325	621
184.395	947
184.465	-302
184.534	-86
184.604	-153
184.674	283
184.743	405
184.813	532
184.883	-310
184.952	-227
185.022	-175
185.092	336
185.161	535
185.231	898
185.301	-46
185.370	1559
185.440	767
185.509	526
185.579	-254
185.649	576
185.718	633
185.788	445
185.857	1364
185.927	576
185.996	437
186.066	529
186.136	919
186.205	209
186.275	234
186.344	891
186.414	1320
186.483	704
186.553	1922
186.622	2408
186.692	349
186.761	579
186.831	933
186.900	244
186.970	784
187.039	604
187.109	1330
187.178	1259
187.248	1698
187.317	965
187.387	573
187.456	1095
187.526	1023
187.595	769
187.664	880
187.734	1316
187.803	842
187.873	1156
187.942	2266
188.012	1306
188.081	104
188.150	1752
188.220	2312
188.289	1527
188.358	1494
188.428	767
188.497	604
188.567	587
188.636	1247
188.705	159
188.775	623
188.844	959
188.913	1053
188.983	1573
189.052	915
189.121	1000
189.191	640
189.260	1261
189.329	1316
189.399	1558
189.468	707
189.537	1334
189.606	1089
189.676	1786
189.745	1149
189.814	1017
189.883	947
189.953	1321
190.022	1926
190.091	4417
190.161	2997
190.230	1977
190.299	891
190.368	526
190.437	801
190.507	998
190.576	1293
190.645	1017
190.714	704
190.783	1756
190.853	1463
190.922	1170
190.991	1265
191.060	994
191.129	1056
191.198	1837
191.268	1044
191.337	1438
191.406	1330
191.475	1068
191.544	1200
191.613	1416
191.682	1465
191.752	1041
191.821	2185
191.890	1555
191.959	699
192.028	1133
192.097	1218
192.166	1924
192.235	523
192.304	845
192.373	1177
192.442	628
192.511	1296
192.580	631
192.650	709
192.719	1278
192.788	515
192.857	1088
192.926	1752
192.995	1110
193.064	1905
193.133	3402
193.202	2804
193.271	2373
193.340	2312
193.409	2564
193.478	2885
193.547	4174
193.615	4232
193.684	3037
193.753	3291
193.822	1951
193.891	1656
193.960	2001
194.029	1916
194.098	2022
194.167	1240
194.236	1620
194.305	1281
194.374	1311
194.443	1203
194.512	1093
194.580	1824
194.649	2490
194.718	1357
194.787	1330
194.856	2311
194.925	2430
194.994	2503
195.062	2344
195.131	1815
195.200	3070
195.269	2952
195.338	1887
195.407	2150
195.475	2186
195.544	2082
195.613	2418
195.682	1996
195.751	2900
195.819	2810
195.888	2131
195.957	3774
196.026	2302
196.094	3880
196.163	3215
196.232	3489
196.301	2220
196.369	3016
196.438	827
196.507	2666
196.576	1745
196.644	1252
196.713	1997
196.782	891
196.850	1552
196.919	1499
196.988	1520
197.056	2030
197.125	2066
197.194	1389
197.262	1032
197.331	1815
197.400	1951
197.468	1313
197.537	1510
197.606	2390
197.674	4195
197.743	4090
197.812	2754
197.880	5262
197.949	2696
198.017	4461
198.086	2315
198.155	1888
198.223	3395
198.292	5625
198.360	2432
198.429	2391
198.497	2367
198.566	5797
198.635	3845
198.703	2320
198.772	3576
198.840	7730
198.909	3728
198.977	2136
199.046	2601
199.114	2334
199.183	2106
199.251	2061
199.320	1668
199.388	1984
199.457	2496
199.525	2814
199.594	2121
199.662	1825
199.731	2280
199.799	2441
199.867	2510
199.936	2749
200.004	1784
200.073	2430
200.141	1760
200.210	2310
200.278	2383
200.346	3096
200.415	4026
200.483	4075
200.552	3289
200.620	2205
200.688	2016
200.757	2629
200.825	1868
200.893	3295
200.962	1997
201.030	1869
201.098	1853
201.167	2576
201.235	2778
201.303	2977
201.372	2905
201.440	3166
201.508	3317
201.577	2845
201.645	2419
201.713	2591
201.781	4069
201.850	3897
201.918	2880
201.986	2483
202.055	2371
202.123	2492
202.191	2797
202.259	2703
202.327	2547
202.396	2570
202.464	3248
202.532	5582
202.600	10908
202.669	5806
202.737	3243
202.805	2861
202.873	2993
202.941	2813
203.009	2898
203.078	1693
203.146	2643
203.214	2731
203.282	2012
203.350	2557
203.418	3121
203.487	2847
203.555	2370
203.623	3105
203.691	3144
203.759	1505
203.827	2951
203.895	2926
203.963	3001
204.031	3208
204.099	2554
204.168	2925
204.236	3113
204.304	2880
204.372	2793
204.440	2765
204.508	3013
204.576	2365
204.644	2682
204.712	2738
204.780	2801
204.848	2651
204.916	3468
204.984	2966
205.052	2931
205.120	3185
205.188	3569
205.256	2716
205.324	2810
205.392	3431
205.460	3102
205.528	3020
205.596	3340
205.664	2367
205.732	3519
205.799	9361
205.867	8274
205.935	3765
206.003	2831
206.071	3255
206.139	3977
206.207	2590
206.275	2406
206.343	2934
206.411	3728
206.478	3202
206.546	3274
206.614	3578
206.682	3625
206.750	4254
206.818	4965
206.885	4019
206.953	2676
207.021	3187
207.089	3859
207.157	3042
207.225	3191
207.292	3468
207.360	3921
207.428	2755
207.496	2816
207.563	2970
207.631	3192
207.699	2472
207.767	3783
207.834	3118
207.902	3534
207.970	3319
208.038	3762
208.105	3413
208.173	4745
208.241	4919
208.309	4637
208.376	5731
208.444	7406
208.512	3037
208.579	4376
208.647	5747
208.715	4682
208.782	3480
208.850	4109
208.918	3541
208.985	4126
209.053	4000
209.120	4349
209.188	4147
209.256	4709
209.323	4649
209.391	5532
209.459	4193
209.526	3924
209.594	4034
209.661	4018
209.729	4272
209.796	4832
209.864	5919
209.932	4491
209.999	4191
210.067	4707
210.134	4502
210.202	4937
210.269	5953
210.337	5936
210.404	4174
210.472	4234
210.539	4364
210.607	4726
210.674	5080
210.742	4799
210.809	4171
210.877	6607
210.944	5239
211.012	5571
211.079	5549
211.146	4789
211.214	6187
211.281	6968
211.349	5422
211.416	4857
211.484	5152
211.551	4634
211.618	4620
211.686	4834
211.753	4339
211.821	4670
211.888	4704
211.955	5209
212.023	5031
212.090	5442
212.157	5517
212.225	6273
212.292	9808
212.359	17697
212.427	25083
212.494	11302
212.561	7519
212.629	6010
212.696	6155
212.763	5937
212.831	6120
212.898	4928
212.965	5329
213.032	5354
213.100	6020
213.167	6250
213.234	6178
213.301	5130
213.369	4735
213.436	4984
213.503	5016
213.570	5610
213.638	4937
213.705	5842
213.772	5179
213.839	7126
213.906	5959
213.973	7212
214.041	5163
214.108	6171
214.175	5760
214.242	5522
214.309	4657
214.376	6281
214.444	6419
214.511	7110
214.578	6017
214.645	6927
214.712	6645
214.779	6514
214.846	5808
214.913	6780
214.980	7171
215.048	8839
215.115	8484
215.182	8194
215.249	7576
215.316	6657
215.383	5148
215.450	6181
215.517	6138
215.584	5510
215.651	5421
215.718	5769
215.785	6955
215.852	6251
215.919	7330
215.986	6439
216.053	5687
216.120	6060
216.187	7294
216.254	5621
216.321	6884
216.388	7181
216.455	7100
216.522	6687
216.589	8229
216.656	13525
216.722	10264
216.789	8067
216.856	8081
216.923	7809
216.990	7974
217.057	7698
217.124	10351
217.191	9431
217.258	9942
217.324	11468
217.391	10256
217.458	8730
217.525	8037
217.592	6834
217.659	7874
217.725	8450
217.792	11271
217.859	7649
217.926	6200
217.993	5325
218.059	5869
218.126	5717
218.193	6210
218.260	5806
218.327	5501
218.393	6247
218.460	4826
218.527	6171
218.594	7861
218.660	11067
218.727	9287
218.794	5653
218.860	5768
218.927	5236
218.994	6260
219.061	6062
219.127	8883
219.194	9069
219.261	6060
219.327	5665
219.394	5123
219.461	4894
219.527	5135
219.594	7417
219.661	5836
219.727	4689
219.794	6379
219.860	6029
219.927	7417
219.994	11876
220.060	14583
220.127	11585
220.193	9795
220.260	9456
220.326	11270
220.393	15621
220.460	15670
220.526	11218
220.593	10592
220.659	10279
220.726	12927
220.792	20596
220.859	18581
220.925	23738
220.992	22719
221.058	25430
221.125	21295
221.191	16450
221.258	9713
221.324	8663
221.391	7923
221.457	7143
221.524	7425
221.590	11370
221.657	22686
221.723	13185
221.789	17028
221.856	12440
221.922	8041
221.989	7518
222.055	7154
222.121	7659
222.188	10480
222.254	8012
222.321	6331
222.387	6331
222.453	6164
222.520	5953
222.586	5684
222.652	5543
222.719	6590
222.785	6298
222.851	5700
222.918	5370
222.984	5201
223.050	5239
223.116	5318
223.183	5722
223.249	5093
223.315	4146
223.382	5017
223.448	4170
223.514	4625
223.580	4900
223.647	5413
223.713	4554
223.779	4857
223.845	5639
223.911	5869
223.978	4432
224.044	5514
224.110	5311
224.176	5754
224.242	5770
224.309	5132
224.375	4756
224.441	5326
224.507	5679
224.573	5319
224.639	4845
224.705	4223
224.772	4272
224.838	5202
224.904	5237
224.970	4766
225.036	5381
225.102	5612
225.168	6075
225.234	5146
225.300	6040
225.366	4598
225.432	5463
225.499	5868
225.565	7112
225.631	6779
225.697	7150
225.763	8456
225.829	8544
225.895	9143
225.961	11875
226.027	10808
226.093	9961
226.159	13189
226.225	20581
226.291	36630
226.357	36900
226.423	22597
226.489	16313
226.554	12938
226.620	12729
226.686	16326
226.752	23428
226.818	38476
226.884	55407
226.950	38251
227.016	21354
227.082	14683
227.148	13226
227.214	12261
227.279	10073
227.345	8594
227.411	10417
227.477	15373
227.543	28878
227.609	21519
227.674	12961
227.740	9832
227.806	8699
227.872	7867
227.938	8107
228.003	10023
228.069	7602
228.135	7580
228.201	6890
228.267	6836
228.332	8375
228.398	10460
228.464	6736
228.530	6469
228.595	5715
228.661	7066
228.727	11372
228.792	6625
228.858	6822
228.924	7351
228.990	7852
229.055	8025
229.121	8416
229.187	6741
229.252	7922
229.318	6173
229.384	7405
229.449	8069
229.515	5507
229.581	4410
229.646	7075
229.712	8469
229.777	16397
229.843	12571
229.909	12136
229.974	11645
230.040	10403
230.105	9579
230.171	10981
230.236	12463
230.302	15072
230.368	12464
230.433	9525
230.499	8094
230.564	8675
230.630	8394
230.695	7291
230.761	7788
230.826	7136
230.892	11350
230.957	7570
231.023	6898
231.088	8172
231.154	7055
231.219	8337
231.284	11911
231.350	9765
231.415	7865
231.481	6182
231.546	7184
231.612	6768
231.677	6405
231.742	6399
231.808	6420
231.873	5264
231.939	7151
232.004	12039
232.069	8692
232.135	7975
232.200	6558
232.265	6614
232.331	6034
232.396	5656
232.461	5261
232.527	5894
232.592	6466
232.657	7515
232.723	8454
232.788	7596
232.853	5635
232.918	6149
232.984	6128
233.049	6335
233.114	8588
233.179	9039
233.245	12525
233.310	9061
233.375	6371
233.440	6017
233.506	5975
233.571	6044
233.636	5530
233.701	6406
233.766	9720
233.832	7654
233.897	6976
233.962	7290
234.027	8033
234.092	7822
234.157	8221
234.222	8874
234.288	12659
234.353	18971
234.418	15385
234.483	12100
234.548	11662
234.613	10397
234.678	8709
234.743	12105
234.808	20173
234.873	12468
234.938	9343
235.004	9249
235.069	8832
235.134	7827
235.199	8481
235.264	7176
235.329	7279
235.394	8424
235.459	9072
235.524	9166
235.589	7958
235.654	6937
235.719	7214
235.784	7886
235.849	9282
235.913	11147
235.978	14520
236.043	11578
236.108	9292
236.173	9537
236.238	8407
236.303	8749
236.368	9101
236.433	13538
236.498	14985
236.563	14582
236.627	38037
236.692	79014
236.757	47751
236.822	25443
236.887	19641
236.952	16651
237.017	14829
237.081	16995
237.146	24043
237.211	44246
237.276	86194
237.341	92213
237.405	44223
237.470	25092
237.535	16404
237.600	13289
237.664	11596
237.729	11353
237.794	16627
237.859	21531
237.923	14197
237.988	10553
238.053	13310
238.118	14097
238.182	32846
238.247	17380
238.312	14018
238.376	10870
238.441	9499
238.506	9018
238.570	7515
238.635	7153
238.700	8132
238.764	8232
238.829	17018
238.893	13072
238.958	13166
239.023	10586
239.087	8951
239.152	9159
239.216	7643
239.281	8459
239.346	7719
239.410	8094
239.475	10596
239.539	29114
239.604	13958
239.668	10592
239.733	10968
239.797	26126
239.862	45648
239.926	28676
239.991	12864
240.055	9754
240.120	9729
240.184	8547
240.249	7728
240.313	7452
240.378	8287
240.442	20154
240.507	17716
240.571	9923
240.635	14848
240.700	12996
240.764	8595
240.829	7191
240.893	6404
240.957	7335
241.022	19691
241.086	19476
241.151	10153
241.215	7204
241.279	11809
241.344	12776
241.408	10571
241.472	10572
241.537	10776
241.601	10157
241.665	10209
241.730	10221
241.794	10563
241.858	10240
241.922	10295
241.987	9982
242.051	9553
242.115	10152
242.179	9343
242.244	9183
242.308	9139
242.372	9928
242.436	10865
242.501	9778
242.565	8599
242.629	8707
242.693	9064
242.757	8839
242.822	8640
242.886	9567
242.950	9441
243.014	9388
243.078	11502
243.142	9985
243.206	11357
243.271	10235
243.335	10999
243.399	18925
243.463	70296
243.527	77965
243.591	27012
243.655	15882
243.719	11262
243.783	13763
243.847	22639
243.911	22159
243.975	28626
244.040	16080
244.104	11199
244.168	9936
244.232	19388
244.296	20829
244.360	19145
244.424	11216
244.488	10312
244.552	10664
244.615	7636
244.679	8633
244.743	14141
244.807	10716
244.871	9038
244.935	7972
244.999	8170
245.063	9582
245.127	11476
245.191	19029
245.255	13974
245.319	15325
245.383	11460
245.446	10303
245.510	8823
245.574	10082
245.638	9897
245.702	13942
245.766	20540
245.829	13472
245.893	10766
245.957	10053
246.021	12017
246.085	12693
246.149	14664
246.212	38480
246.276	35860
246.340	19053
246.404	13771
246.467	19014
246.531	20303
246.595	12993
246.659	12237
246.722	14469
246.786	15550
246.850	20529
246.913	17743
246.977	11638
247.041	11829
247.104	11811
247.168	14659
247.232	38557
247.295	52255
247.359	21563
247.423	18078
247.486	23411
247.550	14196
247.614	13965
247.677	16006
247.741	11297
247.804	11688
247.868	13738
247.932	40275
247.995	42120
248.059	16950
248.122	13130
248.186	17046
248.249	39774
248.313	98137
248.376	76184
248.440	45773
248.503	21488
248.567	21570
248.630	32742
248.694	38959
248.757	61316
248.821	84668
248.884	46838
248.948	61898
249.011	75535
249.075	107884
249.138	67313
249.202	32954
249.265	23024
249.328	23235
249.392	21664
249.455	16677
249.519	16549
249.582	21897
249.645	31980
249.709	20876
249.772	18432
249.835	16288
249.899	16505
249.962	15547
250.025	17389
250.089	46150
250.152	37384
250.215	21693
250.279	18253
250.342	17467
250.405	17741
250.468	17207
250.532	23443
250.595	40432
250.658	137872
250.721	113605
250.785	52172
250.848	31182
250.911	21412
250.974	20210
251.038	41433
251.101	47048
251.164	27213
251.227	31371
251.290	27521
251.354	57514
251.417	155843
251.480	100356
251.543	133661
251.606	224335
251.669	129631
251.732	73714
251.795	80500
251.859	93215
251.922	146142
251.985	63480
252.048	34499
252.111	28645
252.174	32468
252.237	72291
252.300	98433
252.363	141619
252.426	155057
252.489	66033
252.552	36945
252.615	29097
252.678	42911
252.741	84782
252.804	133608
252.867	172940
252.930	101729
252.993	56483
253.056	40131
253.119	27148
253.182	27557
253.245	40505
253.308	28072
253.371	30433
253.434	23338
253.497	30380
253.559	47908
253.622	33285
253.685	49546
253.748	34062
253.811	22220
253.874	26069
253.937	23128
254.000	21259
254.062	48756
254.125	43776
254.188	50787
254.251	28262
254.314	21855
254.376	43824
254.439	35845
254.502	31076
254.565	51016
254.628	54167
254.690	32202
254.753	20583
254.816	19203
254.878	22009
254.941	48139
255.004	26912
255.067	19522
255.129	17657
255.192	11793
255.255	13672
255.317	14012
255.380	9368
255.443	10693
255.505	9859
255.568	9816
255.631	10753
255.693	12267
255.756	8750
255.819	10849
255.881	9768
255.944	8796
256.006	9023
256.069	9546
256.132	9900
256.194	14062
256.257	20756
256.319	17390
256.382	15644
256.444	14069
256.507	11915
256.569	11889
256.632	12443
256.694	19575
256.757	71930
256.819	104485
256.882	38428
256.944	22234
257.007	19353
257.069	19534
257.132	12615
257.194	12966
257.257	15208
257.319	13708
257.381	17141
257.444	51676
257.506	165341
257.569	119723
257.631	65477
257.693	34630
257.756	20735
257.818	16175
257.880	12646
257.943	12003
258.005	11503
258.067	10802
258.130	11606
258.192	17886
258.254	22992
258.317	13698
258.379	16887
258.441	40702
258.503	20278
258.566	36161
258.628	21975
258.690	12127
258.753	16030
258.815	24726
258.877	14294
258.939	12368
259.001	11646
259.064	11315
259.126	14431
259.188	14636
259.250	14701
259.312	22382
259.375	39339
259.437	18644
259.499	12748
259.561	14021
259.623	12123
259.685	11106
259.747	12758
259.809	35834
259.872	37901
259.934	77338
259.996	38800
260.058	17567
260.120	12420
260.182	10991
260.244	9388
260.306	9618
260.368	10163
260.430	10913
260.492	20772
260.554	36024
260.616	23935
260.678	55573
260.740	30842
260.802	15911
260.864	13843
260.926	11756
260.988	11966
261.050	12810
261.112	25284
261.174	48841
261.236	23436
261.298	15640
261.359	27711
261.421	19870
261.483	12089
261.545	11213
261.607	8934
261.669	9742
261.731	22745
261.793	31385
261.854	17473
261.916	12893
261.978	12847
262.040	10605
262.102	10951
262.164	14998
262.225	10559
262.287	14786
262.349	32370
262.411	15635
262.472	10881
262.534	22751
262.596	20513
262.658	11514
262.719	9571
262.781	17440
262.843	22096
262.904	12302
262.966	12017
263.028	17423
263.090	97217
263.151	98711
263.213	39408
263.275	23250
263.336	13457
263.398	11316
263.459	9459
263.521	13421
263.583	27243
263.644	13517
263.706	8829
263.767	7830
263.829	7434
263.891	7473
263.952	6535
264.014	7153
264.075	14393
264.137	19565
264.198	11293
264.260	6509
264.321	8382
264.383	29319
264.444	25048
264.506	11610
264.567	9652
264.629	20875
264.690	19619
264.752	14242
264.813	10334
264.875	8634
264.936	8094
264.998	9040
265.059	8853
265.120	10513
265.182	22580
265.243	84596
265.305	42366
265.366	16223
265.427	11513
265.489	11070
265.550	9389
265.611	12912
265.673	10788
265.734	8360
265.795	7418
265.857	8426
265.918	9772
265.979	35245
266.040	123346
266.102	53758
266.163	25214
266.224	19253
266.286	12003
266.347	10374
266.408	10544
266.469	9515
266.530	9443
266.592	9863
266.653	26186
266.714	22789
266.775	11284
266.836	10060
266.898	10203
266.959	13935
267.020	9759
267.081	9273
267.142	9167
267.203	9476
267.264	9857
267.326	11735
267.387	8847
267.448	8990
267.509	9710
267.570	8973
267.631	8786
267.692	8680
267.753	10006
267.814	9174
267.875	28348
267.936	28467
267.997	17774
268.058	15582
268.119	10880
268.180	11058
268.241	9157
268.302	8515
268.363	9284
268.424	9830
268.485	9521
268.546	7321
268.607	7711
268.668	7550
268.729	7218
268.790	9055
268.851	10460
268.912	30198
268.972	22079
269.033	13654
269.094	8718
269.155	8462
269.216	7661
269.277	8645
269.338	7415
269.398	9804
269.459	10578
269.520	16086
269.581	18394
269.642	18199
269.702	14007
269.763	11065
269.824	10557
269.885	19083
269.945	16030
270.006	9535
270.067	8142
270.128	8598
270.188	9385
270.249	8886
270.310	7267
270.370	8708
270.431	7967
270.492	8017
270.553	11660
270.613	25827
270.674	31578
270.734	12925
270.795	10558
270.856	16173
270.916	9355
270.977	9941
271.038	13022
271.098	12167
271.159	24019
271.219	13500
271.280	8876
271.340	8136
271.401	13350
271.462	15424
271.522	11505
271.583	9886
271.643	10752
271.704	10559
271.764	13958
271.825	40042
271.885	110063
271.946	74630
272.006	32928
272.066	74901
272.127	60892
272.187	25413
272.248	16301
272.308	27477
272.369	55498
272.429	23026
272.489	28907
272.550	23758
272.610	30500
272.671	17233
272.731	19127
272.791	23194
272.852	17896
272.912	15544
272.972	10209
273.033	12972
273.093	16315
273.153	14934
273.214	12567
273.274	16718
273.334	64497
273.394	61692
273.455	31209
273.515	50501
273.575	57417
273.635	26157
273.696	54812
273.756	61515
273.816	27335
273.876	20236
273.936	40083
273.997	30060
274.057	15676
274.117	14894
274.177	37914
274.237	106239
274.297	51234
274.358	47826
274.418	63294
274.478	34987
274.538	17518
274.598	18617
274.658	39574
274.718	34085
274.778	16250
274.838	12292
274.898	34246
274.958	51074
275.018	72844
275.078	33812
275.138	17901
275.198	12716
275.258	11489
275.318	16423
275.378	28719
275.438	23141
275.498	17121
275.558	43095
275.618	64833
275.678	38042
275.738	36162
275.798	20055
275.858	11863
275.918	9795
275.978	15676
276.038	10675
276.098	10480
276.157	37846
276.217	48396
276.277	24964
276.337	18071
276.397	13858
276.457	15134
276.517	10868
276.576	9252
276.636	11844
276.696	20482
276.756	39380
276.815	19479
276.875	14350
276.935	16633
276.995	12941
277.055	10448
277.114	11320
277.174	28554
277.234	40453
277.293	17808
277.353	13238
277.413	11030
277.472	14186
277.532	11408
277.592	17292
277.651	81284
277.711	56218
277.771	43641
277.830	114637
277.890	51607
277.950	101948
278.009	123809
278.069	47428
278.128	92166
278.188	62828
278.248	58750
278.307	106784
278.367	33975
278.426	19059
278.486	14266
278.545	11987
278.605	12031
278.664	11308
278.724	13828
278.783	55066
278.843	55181
278.902	21076
278.962	18945
279.021	18994
279.081	22062
279.140	21317
279.199	20716
279.259	19587
279.318	20951
279.378	28313
279.437	71139
279.496	213977
279.556	355851
279.615	161816
279.675	66898
279.734	51501
279.793	97761
279.853	93506
279.912	36589
279.971	28168
280.031	27448
280.090	71171
280.149	62962
280.208	93660
280.268	275532
280.327	133643
280.386	52151
280.445	55690
280.505	32971
280.564	21095
280.623	18459
280.682	39583
280.742	29595
280.801	15544
280.860	14063
280.919	13527
280.978	12280
281.037	11884
281.097	11176
281.156	11886
281.215	11703
281.274	20781
281.333	59411
281.392	23406
281.451	12285
281.510	10954
281.569	10954
281.628	9081
281.688	10762
281.747	12988
281.806	11649
281.865	10212
281.924	11212
281.983	9654
282.042	7731
282.101	8883
282.160	9563
282.219	9234
282.278	16541
282.337	35925
282.396	15492
282.454	11706
282.513	24204
282.572	47779
282.631	18988
282.690	13637
282.749	12189
282.808	13581
282.867	15073
282.926	11826
282.985	9601
283.043	9984
283.102	10705
283.161	13090
283.220	38541
283.279	36461
283.338	15158
283.396	13907
283.455	14586
283.514	17273
283.573	21449
283.631	15694
283.690	12493
283.749	14653
283.808	31650
283.866	20897
283.925	15205
283.984	16415
284.043	21637
284.101	18831
284.160	16489
284.219	18125
284.277	18775
284.336	38345
284.395	73564
284.453	39323
284.512	31860
284.570	40456
284.629	36293
284.688	38978
284.746	44398
284.805	53967
284.863	69169
284.922	87214
284.981	114385
285.039	172570
285.098	296579
285.156	413930
285.215	312693
285.273	413699
285.332	353145
285.390	236226
285.449	160235
285.507	115464
285.566	86067
285.624	64706
285.683	53082
285.741	41826
285.799	36678
285.858	33582
285.916	29731
285.975	25526
286.033	22683
286.091	21468
286.150	19108
286.208	18580
286.267	19877
286.325	21853
286.383	27370
286.442	19061
286.500	16090
286.558	13948
286.616	14142
286.675	18191
286.733	16559
286.791	15087
286.850	16210
286.908	25061
286.966	24451
287.024	13673
287.083	12695
287.141	11994
287.199	14778
287.257	17262
287.315	12458
287.374	19105
287.432	30775
287.490	16479
287.548	14240
287.606	11873
287.664	12927
287.723	18296
287.781	14876
287.839	12360
287.897	14884
287.955	18219
288.013	25688
288.071	69763
288.129	288124
288.187	344758
288.245	134913
288.303	62547
288.361	39975
288.419	27447
288.477	20048
288.535	15871
288.593	13199
288.651	11685
288.709	10184
288.767	10959
288.825	8978
288.883	9642
288.941	10179
288.999	9210
289.057	8414
289.115	8149
289.173	9299
289.231	9783
289.289	9181
289.346	10219
289.404	13448
289.462	19026
289.520	15343
289.578	8983
289.636	7694
289.694	7972
289.751	6936
289.809	7670
289.867	8021
289.925	12349
289.983	10546
290.040	7528
290.098	8806
290.156	10850
290.214	11197
290.271	7988
290.329	8353
290.387	7654
290.444	6922
290.502	6331
290.560	7741
290.617	7608
290.675	7482
290.733	8943
290.790	8191
290.848	8195
290.906	9649
290.963	8445
291.021	6788
291.078	7830
291.136	9714
291.194	34609
291.251	30635
291.309	10983
291.366	8502
291.424	9946
291.481	10364
291.539	10912
291.596	8006
291.654	6687
291.711	7173
291.769	12890
291.826	15844
291.884	9598
291.941	7476
291.999	7878
292.056	10896
292.114	9359
292.171	7695
292.228	9200
292.286	12118
292.343	20705
292.401	18376
292.458	11437
292.515	11436
292.573	13953
292.630	12080
292.687	9847
292.745	8720
292.802	13130
292.859	31763
292.917	46369
292.974	19458
293.031	11620
293.089	9828
293.146	8019
293.203	7657
293.260	8092
293.318	10929
293.375	9329
293.432	7120
293.489	7526
293.546	7930
293.604	13554
293.661	54041
293.718	63375
293.775	27096
293.832	21235
293.889	20642
293.947	18741
294.004	12988
294.061	14998
294.118	36039
294.175	42841
294.232	33465
294.289	17583
294.346	14176
294.403	12649
294.460	10102
294.517	9848
294.574	8337
294.631	7906
294.688	11239
294.745	40809
294.802	84122
294.859	47402
294.916	26908
294.973	18831
295.030	17027
295.087	12554
295.144	10328
295.201	9357
295.258	7838
295.315	15042
295.372	52719
295.429	44825
295.486	18938
295.542	15624
295.599	36684
295.656	32902
295.713	47370
295.770	41448
295.827	16579
295.883	11994
295.940	13590
295.997	22586
296.054	14727
296.111	9933
296.167	8402
296.224	7493
296.281	8434
296.338	7476
296.394	8026
296.451	12182
296.508	40201
296.564	36028
296.621	35547
296.678	96309
296.734	64535
296.791	24799
296.848	17738
296.904	27534
296.961	53469
297.018	64774
297.074	28878
297.131	16678
297.187	14839
297.244	26663
297.301	99798
297.357	76603
297.414	25991
297.470	16112
297.527	13730
297.583	12990
297.640	10940
297.696	8742
297.753	8880
297.809	7804
297.866	6648
297.922	6932
297.979	6446
298.035	9670
298.092	24022
298.148	45823
298.204	25323
298.261	17564
298.317	52345
298.374	73711
298.430	30524
298.486	19387
298.543	15429
298.599	19334
298.656	23611
298.712	45982
298.768	68404
298.824	30119
298.881	15625
298.937	11746
298.993	12381
299.050	14402
299.106	10851
299.162	12076
299.218	10931
299.275	8518
299.331	10465
299.387	36423
299.443	92704
299.500	65350
299.556	28081
299.612	19668
299.668	23517
299.724	39728
299.780	24323
299.837	14780
299.893	32641
299.949	87103
300.005	60783
300.061	88300
300.117	85944
300.173	33918
300.229	24833
300.285	34035
300.341	26238
300.397	15811
300.453	11860
300.510	12219
300.566	12488
300.622	26184
300.678	81747
300.734	76721
300.790	71211
300.845	59728
300.901	66768
300.957	77047
301.013	35942
301.069	18831
301.125	18692
301.181	17046
301.237	12022
301.293	10485
301.349	9740
301.405	11103
301.461	17146
301.516	19015
301.572	18967
301.628	22704
301.684	19510
301.740	43521
301.796	38064
301.851	35610
301.907	48127
301.963	41305
302.019	118324
302.074	203287
302.130	141276
302.186	63364
302.242	30455
302.297	23719
302.353	31276
302.409	46960
302.464	28594
302.520	40659
302.576	83365
302.631	65605
302.687	33172
302.743	16947
302.798	12733
302.854	10972
302.910	12062
302.965	18416
303.021	26493
303.076	24038
303.132	37043
303.187	29519
303.243	15269
303.299	11448
303.354	10282
303.410	10464
303.465	9427
303.521	8913
303.576	7933
303.632	12079
303.687	38394
303.743	67337
303.798	35208
303.853	17063
303.909	12994
303.964	13878
304.020	24919
304.075	25282
304.130	31778
304.186	47749
304.241	41516
304.297	29012
304.352	18450
304.358	18031
304.407	14612
304.449	15846
304.463	16273
304.518	14657
304.539	13427
304.573	11404
304.629	11225
304.630	11518
304.684	25232
304.720	53808
304.739	68478
304.794	55585
304.811	47703
304.850	26988
304.902	15933
304.905	15324
304.960	13308
304.992	13711
305.015	14109
305.071	13279
305.083	12827
305.126	10904
305.173	8669
305.181	8333
305.236	7825
305.264	9055
305.292	10573
305.347	14147
305.354	14380
305.402	15734
305.445	16343
305.457	16445
305.512	18745
305.535	17595
305.567	15914
305.622	17448
305.626	18515
305.678	40658
305.716	70108
305.733	81367
305.788	60689
305.807	58743
305.843	52990
305.897	73252
305.898	73550
305.953	50821
305.988	38754
306.008	31224
306.063	22549
306.078	19826
306.118	14686
306.168	11665
306.173	11475
306.228	9643
306.259	9007
306.283	8650
306.338	9119
306.349	9331
306.393	10828
306.440	11444
306.448	11426
306.503	11096
306.530	12089
306.558	15806
306.613	31690
306.620	34522
306.668	56795
306.711	74846
306.723	76068
306.778	50229
306.801	41918
306.833	30149
306.888	16190
306.892	15395
306.943	12934
306.982	11692
306.997	11506
307.052	11484
307.072	11342
307.107	11148
307.162	12129
307.163	12135
307.217	15381
307.253	18054
307.272	19005
307.327	19897
307.343	19885
307.381	18512
307.434	18271
307.436	18792
307.491	36784
307.524	52857
307.546	61806
307.600	62555
307.614	60580
307.655	37511
307.704	18632
307.710	18510
307.765	21050
307.795	23977
307.819	28624
307.874	37114
307.885	38184
307.929	34560
307.975	31805
307.984	33551
308.038	48349
308.065	61637
308.093	101354
308.148	223055
308.156	242553
308.202	373848
308.246	424286
308.257	398167
308.312	234342
308.336	173326
308.366	142588
308.421	88762
308.426	83977
308.475	56611
308.517	37447
308.530	35732
308.585	31849
308.607	30399
308.639	29963
308.694	30738
308.697	30927
308.748	43322
308.787	52241
308.803	52619
308.857	49211
308.877	48339
308.912	48213
308.967	50396
308.967	50377
309.021	73626
309.058	93058
309.076	115864
309.130	195097
309.148	226405
309.185	346002
309.238	536455
309.239	539384
309.293	596541
309.328	596686
309.348	521994
309.402	310569
309.418	253745
309.457	192403
309.508	119895
309.511	119497
309.566	117250
309.598	120475
309.620	143077
309.674	206408
309.688	220316
309.729	223302
309.778	215264
309.783	210225
309.837	145292
309.868	110801
309.892	112038
309.946	124923
309.959	128622
310.001	167371
310.049	198187
310.055	190690
310.109	115701
310.139	76949
310.163	63464
310.218	37074
310.229	31983
310.272	26735
310.319	21597
310.326	21112
310.381	17463
310.409	16086
310.435	15719
310.489	14834
310.499	14645
310.543	14455
310.589	14351
310.598	14407
310.652	14806
310.679	14946
310.706	14155
310.760	12438
310.769	12151
310.814	11607
310.859	11079
310.868	11142
310.923	11533
310.948	11724
310.977	12834
311.031	15172
311.038	15425
311.085	15282
311.128	14989
311.139	14717
311.193	13324
311.218	12610
311.247	12054
311.301	11131
311.308	10998
311.356	11167
311.398	11257
311.410	11114
311.464	10319
311.488	9936
311.518	10282
311.572	11118
311.578	11207
311.626	16217
311.668	20450
311.680	19951
311.734	17262
311.758	16124
311.788	16340
311.842	16664
311.847	16660
311.896	18542
311.937	20170
311.950	20734
312.004	22899
312.027	23791
312.058	20827
312.112	15421
312.117	14841
312.165	13491
312.207	12278
312.297	14919
312.386	14340
312.476	16370
312.566	35072
312.656	20823
312.745	10054
312.835	11400
312.925	13416
313.015	12527
313.104	12465
313.194	11671
313.284	14341
313.374	18359
313.463	21091
313.553	12219
313.643	12232
313.732	11418
313.822	10271
313.912	12657
314.001	14800
314.091	16845
314.180	19883
314.270	21638
314.360	21585
314.449	21067
314.539	14274
314.628	12540
314.718	13975
314.808	18225
314.897	14290
314.987	14148
315.076	18948
315.166	24536
315.255	18889
315.345	21405
315.434	18697
315.524	17703
315.613	23864
315.703	32444
315.792	51391
315.881	134808
315.971	80275
316.060	37403
316.150	39899
316.239	37243
316.328	20909
316.418	14499
316.507	15285
316.597	21102
316.686	22193
316.775	20740
316.865	35677
316.954	17384
317.043	12808
317.133	14459
317.222	13478
317.311	12508
317.400	15136
317.490	19051
317.579	27786
317.668	19618
317.757	31239
317.847	79565
317.936	240668
318.025	141971
318.114	63678
318.203	47073
318.293	44829
318.382	95733
318.471	80003
318.560	87042
318.649	96007
318.738	37160
318.828	22436
318.917	24558
319.006	19861
319.095	48721
319.184	118485
319.273	104647
319.362	68928
319.451	21234
319.540	18965
319.629	44459
319.718	86721
319.807	31226
319.896	51367
319.985	156533
320.074	96206
320.163	23232
320.252	27851
320.341	23380
320.430	24909
320.519	39200
320.608	31749
320.697	19994
320.786	21505
320.875	27332
320.964	36544
321.053	56194
321.142	82690
321.230	97795
321.319	63308
321.408	132780
321.497	73855
321.586	54526
321.675	51394
321.764	53900
321.852	36567
321.941	75151
322.030	67733
322.119	53444
322.207	138205
322.296	83069
322.385	42880
322.474	59880
322.562	167408
322.651	116768
322.740	63476
322.829	105352
322.917	62031
323.006	52622
323.095	51589
323.183	30128
323.272	36645
323.361	62347
323.449	130827
323.538	64807
323.626	90689
323.715	87664
323.804	26568
323.892	79670
323.981	82044
324.069	22858
324.158	35997
324.246	50319
324.335	29577
324.424	58474
324.512	23020
324.601	23417
324.689	30023
324.778	49383
324.866	52878
324.954	20493
325.043	16070
325.131	27396
325.220	36018
325.308	46889
325.397	36008
325.485	31879
325.574	15265
325.662	18164
325.750	17336
325.839	16262
325.927	11145
326.015	17089
326.104	17630
326.192	24410
326.280	12434
326.369	12142
326.457	22878
326.545	44385
326.634	25860
326.722	9860
326.810	12230
326.898	12163
326.987	15604
327.075	36213
327.163	38256
327.251	15504
327.340	19113
327.428	26192
327.516	13925
327.604	14391
327.692	13182
327.781	12002
327.869	17750
327.957	16614
328.045	20953
328.133	11556
328.221	10962
328.309	13319
328.397	11651
328.485	16700
328.574	25397
328.662	86929
328.750	62638
328.838	16960
328.926	12679
329.014	11640
329.102	16692
329.190	36161
329.278	38943
329.366	12145
329.454	9148
329.542	10015
329.630	10073
329.718	11122
329.806	16836
329.893	15913
329.981	16248
330.069	23969
330.157	96755
330.245	341705
330.333	237936
330.421	43081
330.509	28971
330.597	103035
330.684	93171
330.772	23846
330.860	20895
330.948	26423
331.036	18335
331.123	10187
331.211	10164
331.299	12082
331.387	20624
331.475	47127
331.562	19633
331.650	11123
331.738	12462
331.825	14641
331.913	9535
332.001	10088
332.089	11919
332.176	19440
332.264	35910
332.352	43057
332.439	19169
332.527	15004
332.614	10815
332.702	13464
332.790	11073
332.877	25431
332.965	54772
333.052	39173
333.140	30464
333.228	92844
333.315	41948
333.403	15180
333.490	26030
333.578	43970
333.665	119174
333.753	87253
333.840	20655
333.928	17627
334.015	27731
334.103	46146
334.190	141359
334.278	69107
334.365	31266
334.452	28901
334.540	22335
334.627	21870
334.715	28182
334.802	41909
334.889	136069
334.977	204915
335.064	54242
335.151	28921
335.239	22442
335.326	24331
335.413	67407
335.501	127093
335.588	30773
335.675	22116
335.762	24818
335.850	38526
335.937	40107
336.024	67280
336.111	187315
336.199	140909
336.286	46449
336.373	26153
336.460	19045
336.547	16881
336.635	18854
336.722	20469
336.809	14848
336.896	20266
336.983	48180
337.070	110481
337.157	166926
337.245	102318
337.332	86389
337.419	17014
337.506	12337
337.593	12622
337.680	27978
337.767	98322
337.854	43180
337.941	39103
338.028	42778
338.115	23825
338.202	16800
338.289	27197
338.376	92241
338.463	50583
338.550	46854
338.637	77285
338.724	21128
338.811	33151
338.898	12976
338.984	10896
339.071	11817
339.158	15529
339.245	47241
339.332	40649
339.419	22866
339.506	29268
339.593	9893
339.679	13052
339.766	12151
339.853	14696
339.940	41037
340.027	19600
340.113	13826
340.200	22446
340.287	16669
340.374	17934
340.460	39790
340.547	20321
340.634	21674
340.720	92870
340.807	87476
340.894	14313
340.980	12093
341.067	14534
341.154	14352
341.240	21441
341.327	58230
341.414	25418
341.500	24067
341.587	15721
341.674	12260
341.760	30504
341.847	50620
341.933	20612
342.020	8351
342.106	8174
342.193	13082
342.279	31453
342.366	21949
342.452	39969
342.539	23977
342.625	38849
342.712	119002
342.798	64784
342.885	26992
342.971	9471
343.058	8570
343.144	10445
343.230	11359
343.317	12275
343.403	13697
343.490	7970
343.576	9043
343.662	10984
343.749	14436
343.835	16661
343.921	24246
344.008	133179
344.094	409465
344.180	135149
344.267	37378
344.353	96082
344.439	136133
344.525	60193
344.612	29606
344.698	21780
344.784	19264
344.870	11142
344.957	12419
345.043	22048
345.129	17131
345.215	35410
345.301	25707
345.387	18788
345.474	9073
345.560	9258
345.646	11173
345.732	11099
345.818	15501
345.904	16474
345.990	16295
346.076	15192
346.162	21760
346.249	15410
346.335	10941
346.421	11396
346.507	35885
346.593	159286
346.679	63614
346.765	13237
346.851	15182
346.937	18339
347.023	12400
347.108	15050
347.194	15258
347.280	12984
347.366	16240
347.452	43776
347.538	184336
347.624	159729
347.710	134528
347.796	26478
347.882	12193
347.967	10716
348.053	12785
348.139	12276
348.225	10498
348.311	13201
348.397	11354
348.482	14322
348.568	20167
348.654	12279
348.740	21565
348.825	31324
348.911	25590
348.997	72313
349.083	182346
349.168	46197
349.254	14565
349.340	17133
349.425	10589
349.511	15964
349.597	20031
349.682	32387
349.768	114727
349.854	82571
349.939	13046
350.025	10102
350.110	11839
350.196	10593
350.282	10529
350.367	7649
350.453	11855
350.538	17324
350.624	16980
350.709	17770
350.795	9858
350.880	13377
350.966	12137
351.051	17284
351.137	13819
351.222	12180
351.308	31625
351.393	113488
351.479	47249
351.564	16801
351.649	12286
351.735	11719
351.820	10098
351.906	11536
351.991	14513
352.076	53392
352.162	123594
352.247	32107
352.332	16441
352.418	31560
352.503	42450
352.588	131040
352.673	173613
352.759	39776
352.844	21352
352.929	18245
353.014	30471
353.100	21950
353.185	49012
353.270	62070
353.355	55458
353.441	17655
353.526	14217
353.611	31845
353.696	55770
353.781	29713
353.866	18021
353.952	13383
354.037	31997
354.122	86653
354.207	87314
354.292	43205
354.377	15532
354.462	12850
354.547	19400
354.632	18985
354.717	26813
354.802	68425
354.887	35246
354.972	12959
355.057	10688
355.142	9862
355.227	13921
355.312	23340
355.397	52732
355.482	129870
355.567	96802
355.652	42315
355.737	54393
355.822	116082
355.907	151813
355.991	26583
356.076	15138
356.161	12875
356.246	11322
356.331	13371
356.416	26294
356.501	160302
356.585	265236
356.670	53766
356.755	25270
356.840	33333
356.924	138584
357.009	507333
357.094	298455
357.179	56449
357.263	42905
357.348	30510
357.433	36329
357.517	32152
357.602	30142
357.687	23591
357.771	44587
357.856	152127
357.941	119855
358.025	86311
358.110	427690
358.195	326910
358.279	56188
358.364	31667
358.448	80164
358.533	256935
358.617	239367
358.702	201748
358.787	103851
358.871	44568
358.956	46285
359.040	19908
359.125	14103
359.209	16118
359.294	57527
359.378	150360
359.462	61085
359.547	28851
359.631	15902
359.716	13694
359.800	13669
359.885	17399
359.969	18982
360.053	13248
360.138	13584
360.222	21152
360.306	42321
360.391	41016
360.475	61449
360.559	184417
360.644	121049
360.728	104182
360.812	91166
360.896	310486
360.981	167984
361.065	94722
361.149	27978
361.233	25084
361.318	21878
361.402	26719
361.486	22635
361.570	19408
361.654	22125
361.739	45056
361.823	167281
361.907	349510
361.991	100898
362.075	38459
362.159	89094
362.243	84131
362.327	81540
362.411	113091
362.495	61790
362.580	33826
362.664	24892
362.748	26814
362.832	35793
362.916	62977
363.000	160029
363.084	351629
363.168	453707
363.252	160384
363.336	49574
363.420	45533
363.503	97051
363.587	158404
363.671	49538
363.755	32516
363.839	47831
363.923	34083
364.007	46559
364.091	68716
364.175	62226
364.258	198180
364.342	272974
364.426	378031
364.510	250614
364.594	95495
364.677	70570
364.761	233476
364.845	258342
364.929	80113
365.013	77491
365.096	48998
365.180	70972
365.264	45559
365.347	155628
365.431	109625
365.515	30472
365.598	22654
365.682	17498
365.766	19930
365.849	28320
365.933	21330
366.017	22792
366.100	18580
366.184	12443
366.267	12924
366.351	13967
366.435	14026
366.518	12796
366.602	11467
366.685	13550
366.769	17350
366.852	21194
366.936	41513
367.019	37964
367.103	19691
367.186	26585
367.270	16410
367.353	12180
367.436	14291
367.520	14966
367.603	18239
367.687	27915
367.770	54355
367.853	35427
367.937	64685
368.020	156966
368.104	56439
368.187	33818
368.270	56004
368.353	51271
368.437	46941
368.520	62873
368.603	67333
368.687	83156
368.770	206978
368.853	76881
368.936	41360
369.020	44451
369.103	25521
369.186	16338
369.269	19145
369.352	27865
369.436	52402
369.519	35441
369.602	23820
369.685	17103
369.768	22189
369.851	17118
369.934	13759
370.018	15660
370.101	41381
370.184	37789
370.267	23448
370.350	40626
370.433	62123
370.516	128530
370.599	227572
370.682	96463
370.765	98655
370.848	130750
370.931	222301
371.014	123101
371.097	26257
371.180	20905
371.263	13773
371.346	12873
371.429	14150
371.511	14806
371.594	26303
371.677	40949
371.760	38393
371.843	39560
371.926	124426
372.009	404655
372.091	196483
372.174	81794
372.257	196457
372.340	121195
372.423	52525
372.505	61927
372.588	35752
372.671	55617
372.754	208947
372.836	163923
372.919	50514
373.002	104337
373.085	60769
373.167	41637
373.250	90540
373.332	203262
373.415	233807
373.498	528644
373.580	298696
373.663	223778
373.746	429968
373.828	139227
373.911	47900
373.993	38243
374.076	81631
374.159	114279
374.241	56870
374.324	169617
374.406	174844
374.489	118817
374.571	410773
374.654	266810
374.736	83482
374.819	228955
374.901	351005
374.983	449036
375.066	126972
375.148	32868
375.231	61249
375.313	159011
375.395	90411
375.478	30014
375.560	20157
375.643	26092
375.725	62799
375.807	279168
375.890	294085
375.972	95818
376.054	56632
376.136	57973
376.219	41854
376.301	67970
376.383	275697
376.465	166901
376.548	77188
376.630	89585
376.712	223746
376.794	175671
376.877	27378
376.959	13718
377.041	16606
377.123	19504
377.205	29208
377.287	13756
377.369	11551
377.452	14020
377.534	14880
377.616	13364
377.698	16470
377.780	12838
377.862	15885
377.944	16213
378.026	12393
378.108	10299
378.190	11489
378.272	11674
378.354	10015
378.436	10837
378.518	14708
378.600	47834
378.682	59114
378.764	115219
378.846	142918
378.928	35935
379.010	49097
379.091	37759
379.173	15824
379.255	14573
379.337	20077
379.419	51288
379.501	181717
379.583	119543
379.664	25640
379.746	45718
379.828	118288
379.910	186563
379.991	193565
380.073	53930
380.155	22625
380.237	21597
380.318	14965
380.400	17232
380.482	28832
380.564	58578
380.645	62589
380.727	76540
380.809	38635
380.890	27530
380.972	26028
381.053	21103
381.135	22655
381.217	41209
381.298	138151
381.380	106533
381.461	56591
381.543	190548
381.624	366860
381.706	108620
381.787	41134
381.869	45039
381.951	84643
382.032	351937
382.113	348578
382.195	102732
382.276	59132
382.358	101108
382.439	240568
382.521	261553
382.602	402664
382.684	257458
382.765	337883
382.846	546733
382.928	944770
383.009	749474
383.090	416409
383.172	1027313
383.253	1811649
383.334	858626
383.416	489208
383.497	353260
383.578	209843
383.659	336574
383.741	897036
383.822	2092662
383.903	1555758
383.984	552668
384.066	516324
384.147	422593
384.228	135181
384.309	81764
384.390	74127
384.471	54333
384.553	50915
384.634	55564
384.715	66431
384.796	44770
384.877	44505
384.958	109686
385.039	192128
385.120	94178
385.201	40394
385.282	40814
385.363	41138
385.444	48167
385.525	62341
385.606	164074
385.687	203921
385.768	61575
385.849	48541
385.930	143212
386.011	349954
386.092	154463
386.173	38413
386.254	26213
386.335	24570
386.416	28358
386.496	67533
386.577	153618
386.658	70890
386.739	36526
386.820	29941
386.901	24980
386.981	25223
387.062	23003
387.143	34349
387.224	114140
387.304	157854
387.385	62049
387.466	39895
387.547	40553
387.627	36864
387.708	47442
387.789	182104
387.869	321565
387.950	126216
388.031	28270
388.111	20876
388.192	29994
388.273	42733
388.353	37409
388.434	27669
388.514	40358
388.595	157300
388.676	291139
388.756	176490
388.837	124833
388.917	117714
388.998	30656
389.078	21792
389.159	20647
389.239	21770
389.320	27508
389.400	33388
389.480	39594
389.561	128448
389.641	104050
389.722	29711
389.802	47569
389.883	55746
389.963	141287
390.043	130374
390.124	39302
390.204	41474
390.284	143376
390.365	141988
390.445	74491
390.525	223577
390.605	324814
390.686	132518
390.766	50855
390.846	28814
390.927	19528
391.007	21667
391.087	22007
391.167	31624
391.247	29015
391.328	23983
391.408	29783
391.488	29286
391.568	20132
391.648	24859
391.728	38633
391.808	37040
391.888	43955
391.969	68402
392.049	145151
392.129	78219
392.209	55816
392.289	151924
392.369	125529
392.449	61192
392.529	56103
392.609	54571
392.689	60991
392.769	145911
392.849	192074
392.929	111429
393.009	215279
393.089	269101
393.169	250430
393.248	571064
393.328	1628584
393.408	2087633
393.488	1041946
393.568	366953
393.648	177137
393.728	109832
393.807	78486
393.887	62923
393.967	55549
394.047	53778
394.127	60775
394.206	76327
394.286	168978
394.366	673005
394.446	1058070
394.525	401601
394.605	104132
394.685	61207
394.764	74027
394.844	116388
394.924	126888
395.003	62840
395.083	41496
395.163	37432
395.242	34145
395.322	36870
395.402	30727
395.481	31401
395.561	48898
395.640	133461
395.720	179228
395.799	161551
395.879	156985
395.958	106027
396.038	240055
396.117	900497
396.197	1357248
396.276	597040
396.356	197090
396.435	121868
396.515	102467
396.594	120121
396.673	200758
396.753	523606
396.832	1526049
396.912	1597705
396.991	625950
397.070	188265
397.150	99420
397.229	68745
397.308	72433
397.388	139105
397.467	103620
397.546	41660
397.625	32323
397.705	35496
397.784	37613
397.863	29733
397.942	20432
398.022	19394
398.101	30326
398.180	95929
398.259	80902
398.338	28766
398.417	24591
398.497	20332
398.576	18105
398.655	16382
398.734	14689
398.813	13589
398.892	24330
398.971	96142
399.050	88919
399.129	21002
399.208	11328
399.287	11524
399.366	10113
399.445	10729
399.524	11060
399.603	13003
399.682	20457
399.761	44086
399.840	105358
399.919	126916
399.998	29083
400.077	10771
400.156	9617
400.235	12149
400.313	10116
400.392	13406
400.471	46982
400.550	131797
400.629	59419
400.708	17736
400.786	13311
400.865	20045
400.944	32581
401.023	24384
401.102	10236
401.180	7388
401.259	7883
401.338	9689
401.416	14697
401.495	17817
401.574	11146
401.652	10258
401.731	14344
401.810	22010
401.888	16822
401.967	9157
402.046	15194
402.124	15694
402.203	21188
402.281	15674
402.360	19198
402.438	32441
402.517	32009
402.596	14075
402.674	12362
402.753	10040
402.831	10150
402.910	11950
402.988	40938
403.066	197550
403.145	187180
403.223	64677
403.302	181714
403.380	183360
403.459	168776
403.537	101739
403.615	35173
403.694	14190
403.772	9057
403.850	8301
403.929	9150
404.007	10769
404.085	24663
404.164	55848
404.242	27646
404.320	14212
404.398	30070
404.477	61536
404.555	236580
404.633	355139
404.711	90355
404.789	26537
404.868	21277
404.946	19382
405.024	8699
405.102	7971
405.180	8316
405.258	8786
405.336	8582
405.415	8851
405.493	18019
405.571	33021
405.649	18169
405.727	9437
405.805	13039
405.883	18705
405.961	17544
406.039	15354
406.117	11555
406.195	16403
406.273	49479
406.351	233810
406.429	237956
406.507	43534
406.585	14233
406.663	12258
406.740	18485
406.818	19345
406.896	12975
406.974	10244
407.052	20800
407.130	108264
407.208	264802
407.285	92292
407.363	15159
407.441	12303
407.519	11281
407.596	12043
407.674	22982
407.752	62816
407.830	85425
407.907	41428
407.985	25848
408.063	13170
408.141	7214
408.218	11596
408.296	22126
408.373	24671
408.451	18878
408.529	15663
408.606	10004
408.684	7476
408.762	7406
408.839	6634
408.917	6489
408.994	8121
409.072	10596
409.149	11612
409.227	15414
409.304	26233
409.382	22912
409.459	25454
409.537	32547
409.614	36489
409.692	28499
409.769	24996
409.846	33247
409.924	42999
410.001	42481
410.079	31876
410.156	21891
410.233	18438
410.311	17352
410.388	14769
410.465	14636
410.543	18613
410.620	12884
410.697	10868
410.775	16735
410.852	12756
410.929	14102
411.006	21930
411.083	15465
411.161	24923
411.238	37309
411.315	18688
411.392	10520
411.469	14124
411.547	21931
411.624	14451
411.701	12112
411.778	10098
411.855	23585
411.932	23918
412.009	9281
412.086	8149
412.163	8333
412.240	10778
412.317	11838
412.394	14773
412.471	7797
412.548	5933
412.625	7685
412.702	9038
412.779	19174
412.856	19580
412.933	7778
413.010	6572
413.087	9612
413.164	45184
413.241	119430
413.318	48888
413.395	15183
413.471	26104
413.548	19683
413.625	6969
413.702	9480
413.779	10389
413.855	4712
413.932	4380
414.009	4794
414.086	6219
414.162	5362
414.239	9052
414.316	37809
414.393	143882
414.469	100544
414.546	14032
414.623	5905
414.699	5881
414.776	9801
414.853	8271
414.929	6383
415.006	6771
415.082	6758
415.159	6501
415.236	6694
415.312	6987
415.389	13419
415.465	25759
415.542	18828
415.618	7953
415.695	15034
415.771	14414
415.848	10307
415.924	9079
416.000	7241
416.077	5495
416.153	4173
416.230	3042
416.306	3598
416.383	4178
416.459	5120
416.535	4315
416.612	5243
416.688	5225
416.764	6284
416.841	6853
416.917	7086
416.993	6666
417.069	7875
417.146	10784
417.222	14450
417.298	13573
417.374	7778
417.451	7677
417.527	10217
417.603	15472
417.679	11654
417.755	8351
417.831	6505
417.908	4582
417.984	4706
418.060	5230
418.136	12597
418.212	32402
418.288	17198
418.364	7166
418.440	5330
418.516	12113
418.592	12136
418.668	21895
418.744	48251
418.820	48991
418.896	17237
418.972	6277
419.048	7335
419.124	16570
419.200	26107
419.276	10163
419.352	4342
419.428	4853
419.504	6522
419.579	12759
419.655	11700
419.731	8680
419.807	21908
419.883	55755
419.959	58493
420.034	20126
420.110	15839
420.186	70740
420.262	105569
420.337	26596
420.413	14337
420.489	9984
420.565	8221
420.640	8881
420.716	9619
420.792	8576
420.867	9455
420.943	10235
421.019	15463
421.094	20147
421.170	12256
421.245	10274
421.321	10570
421.397	12529
421.472	16776
421.548	40020
421.623	49396
421.699	25803
421.774	21007
421.850	21342
421.925	29076
422.001	35422
422.076	31044
422.152	36042
422.227	53008
422.302	69893
422.378	91622
422.453	157048
422.529	316225
422.604	739321
422.679	1066244
422.755	978875
422.830	622758
422.905	274774
422.981	144672
423.056	93110
423.131	65247
423.207	49895
423.282	41718
423.357	49764
423.432	49578
423.508	37325
423.583	58602
423.658	66728
423.733	27999
423.808	20677
423.883	24397
423.959	26740
424.034	24789
424.109	21987
424.184	15271
424.259	13122
424.334	10649
424.409	10195
424.484	9150
424.559	11565
424.634	10676
424.709	14335
424.784	17960
424.859	13454
424.934	12923
425.009	44330
425.084	112840
425.159	76914
425.234	15357
425.309	8949
425.384	25419
425.459	84902
425.534	45362
425.609	9652
425.683	7053
425.758	6827
425.833	8098
425.908	10362
425.983	22643
426.058	101171
426.132	92427
426.207	17837
426.282	10060
426.357	12414
426.431	7526
426.506	6057
426.581	7197
426.655	8345
426.730	7259
426.805	7766
426.879	8652
426.954	8424
427.029	12856
427.103	56510
427.178	220108
427.253	183508
427.327	29514
427.402	16262
427.476	57933
427.551	64748
427.625	14583
427.700	9614
427.774	7270
427.849	7943
427.923	7448
427.998	7182
428.072	8448
428.147	18410
428.221	58140
428.296	261702
428.370	273743
428.444	51430
428.519	17238
428.593	22116
428.667	25757
428.742	24237
428.816	33013
428.890	107351
428.965	344323
429.039	189599
429.113	42684
429.188	22949
429.262	9676
429.336	12364
429.410	42053
429.485	50189
429.559	20879
429.633	23203
429.707	13560
429.781	20679
429.855	108675
429.930	320207
430.004	172730
430.078	97315
430.152	127423
430.226	269934
430.300	494348
430.374	158342
430.448	31118
430.522	27469
430.596	84615
430.670	101389
430.744	190868
430.818	492451
430.892	192038
430.966	27797
431.040	13303
431.114	8742
431.188	6824
431.262	7331
431.336	7256
431.410	9909
431.484	27193
431.557	38574
431.631	13318
431.705	10527
431.779	31959
431.853	198281
431.927	287504
432.000	62440
432.074	11385
432.148	8656
432.222	8890
432.295	6412
432.369	5614
432.443	9085
432.516	42058
432.590	205172
432.664	159449
432.737	22275
432.811	6750
432.885	4903
432.958	4063
433.032	4450
433.106	3147
433.179	2747
433.253	2558
433.326	4521
433.400	3152
433.473	2832
433.547	2206
433.620	3200
433.694	8413
433.767	16121
433.841	7097
433.914	3848
433.988	5173
434.061	4650
434.134	5097
434.208	3593
434.281	2251
434.355	2346
434.428	4843
434.501	6343
434.575	3939
434.648	4093
434.721	3147
434.795	2707
434.868	2891
434.941	3587
435.014	3282
435.088	5207
435.161	9200
435.234	17381
435.307	23382
435.381	16352
435.454	11040
435.527	14066
435.600	18277
435.673	16588
435.746	12996
435.819	9395
435.892	8648
435.966	7074
436.039	5753
436.112	6555
436.185	3226
436.258	3505
436.331	2963
436.404	2739
436.477	2379
436.550	2059
436.623	2358
436.696	2323
436.769	3906
436.842	5176
436.915	3774
436.987	6667
437.060	6152
437.133	3831
437.206	2888
437.279	3463
437.352	2531
437.425	3027
437.498	4079
437.570	9153
437.643	16247
437.716	7150
437.789	2883
437.861	6559
437.934	31803
438.007	32730
438.080	6933
438.152	6217
438.225	9946
438.298	50249
438.370	265296
438.443	221771
438.516	56638
438.588	17664
438.661	5263
438.734	4010
438.806	4158
438.879	7536
438.951	6503
439.024	19492
439.096	13271
439.169	4649
439.241	4073
439.314	2240
439.386	3421
439.459	6725
439.531	14070
439.604	13338
439.676	3323
439.749	2295
439.821	3005
439.893	2993
439.966	1904
440.038	5604
440.110	8508
440.183	5967
440.255	3895
440.327	6407
440.400	18025
440.472	131716
440.544	196100
440.617	39115
440.689	13776
440.761	15571
440.833	28538
440.905	29392
440.978	8113
441.050	3647
441.122	3263
441.194	3338
441.266	3871
441.338	3784
441.411	6116
441.483	32853
441.555	111774
441.627	45816
441.699	9548
441.771	8560
441.843	5692
441.915	4104
441.987	4597
442.059	4730
442.131	6106
442.203	10383
442.275	12483
442.347	14982
442.419	19962
442.491	75751
442.563	324169
442.635	258668
442.706	59090
442.778	43640
442.850	17259
442.922	9608
442.994	8885
443.066	12545
443.137	14577
443.209	13035
443.281	18050
443.353	33151
443.425	96535
443.496	445549
443.568	709244
443.640	383369
443.711	89201
443.783	26329
443.855	16536
443.926	10739
443.998	8912
444.070	9437
444.141	9250
444.213	13259
444.285	18170
444.356	14430
444.428	11280
444.499	8383
444.571	5074
444.642	5829
444.714	6576
444.785	12209
444.857	14230
444.928	16787
445.000	19663
445.071	14658
445.143	25064
445.214	28373
445.285	31829
445.357	66724
445.428	215752
445.500	735677
445.571	679810
445.642	416770
445.714	157350
445.785	65222
445.856	34402
445.928	23825
445.999	22048
446.070	18648
446.141	13849
446.213	20484
446.284	16166
446.355	8628
446.426	6380
446.497	7740
446.569	7551
446.640	11921
446.711	17022
446.782	6937
446.853	4422
446.924	6739
446.995	7566
447.066	6759
447.138	6605
447.209	6783
447.280	2192
447.351	3935
447.422	2433
447.493	4046
447.564	5129
447.635	12099
447.706	7979
447.777	2945
447.847	1703
447.918	1598
447.989	2969
448.060	5723
448.131	8048
448.202	12700
448.273	13313
448.344	7269
448.414	2756
448.485	4180
448.556	1776
448.627	1742
448.698	1201
448.768	1822
448.839	1246
448.910	4017
448.981	7665
449.051	5015
449.122	3505
449.193	2647
449.263	912
449.334	1871
449.405	3303
449.475	12066
449.546	13441
449.616	6367
449.687	8577
449.758	5726
449.828	2499
449.899	3148
449.969	3787
450.040	2108
450.110	2694
450.181	4253
450.251	3622
450.322	3451
450.392	2435
450.463	2009
450.533	1284
450.604	1852
450.674	2715
450.744	2863
450.815	1974
450.885	3015
450.955	2813
451.026	2665
451.096	2529
451.166	2909
451.237	3678
451.307	14704
451.377	12555
451.447	4094
451.518	2886
451.588	2418
451.658	1651
451.728	2701
451.799	9655
451.869	23208
451.939	8761
452.009	2212
452.079	1718
452.149	2546
452.219	2867
452.289	11764
452.360	21341
452.430	5713
452.500	4423
452.570	7132
452.640	10027
452.710	24717
452.780	46518
452.850	36868
452.920	38743
452.990	17759
453.060	5509
453.129	7894
453.199	9300
453.269	10612
453.339	55191
453.409	99812
453.479	51957
453.549	95460
453.619	107017
453.688	71696
453.758	13132
453.828	3663
453.898	3418
453.968	3149
454.037	1974
454.087	2252
454.107	2352
454.168	1970
454.177	1899
454.247	1899
454.249	1894
454.316	1292
454.330	1582
454.386	2580
454.411	3317
454.456	4313
454.492	10278
454.525	15544
454.574	10442
454.595	8250
454.655	4461
454.665	3837
454.734	3029
454.736	3124
454.804	5548
454.817	6672
454.873	10690
454.898	14785
454.943	22163
454.979	15865
455.013	10231
455.060	6257
455.082	4613
455.141	3922
455.152	3797
455.221	7719
455.222	8001
455.291	24737
455.303	25138
455.360	25472
455.384	34673
455.430	47672
455.465	48418
455.499	50353
455.546	27907
455.569	17316
455.627	15895
455.638	15735
455.707	4985
455.708	4986
455.777	2813
455.789	2804
455.846	2727
455.869	2667
455.916	2548
455.950	2210
455.985	1750
456.031	2168
456.054	2393
456.112	2588
456.124	2607
456.193	1748
456.193	1729
456.262	2479
456.274	2723
456.332	3484
456.355	3421
456.401	3226
456.436	3560
456.470	3852
456.516	2727
456.540	2226
456.597	3067
456.609	3171
456.678	2506
456.678	2489
456.747	1888
456.759	1947
456.817	2350
456.840	2366
456.886	2162
456.920	2218
456.955	2445
457.001	2676
457.024	2893
457.082	3518
457.093	3565
457.162	4933
457.163	4961
457.232	5285
457.243	5154
457.301	4695
457.324	3919
457.370	2860
457.405	3468
457.439	3908
457.485	4004
457.508	4240
457.566	5005
457.577	5262
457.646	7740
457.647	7799
457.715	14560
457.727	16100
457.784	25803
457.808	32150
457.853	40986
457.889	55684
457.922	61607
457.969	49899
457.991	50891
458.050	47639
458.060	47495
458.129	68400
458.130	69545
458.198	89714
458.211	86554
458.267	66579
458.292	47937
458.336	27518
458.372	22615
458.405	24457
458.453	33591
458.474	41669
458.533	70145
458.543	72650
458.611	117424
458.614	119439
458.680	113447
458.694	96591
458.749	52394
458.775	36161
458.818	17329
458.855	12719
458.887	9846
458.936	8087
458.955	7460
459.016	6594
459.024	6532
459.093	5967
459.097	5965
459.162	6231
459.177	6489
459.230	7285
459.257	7658
459.299	8060
459.338	8297
459.368	8511
459.418	8952
459.437	8462
459.499	7292
459.505	7320
459.574	5375
459.579	5354
459.643	5189
459.659	5032
459.711	4831
459.740	5165
459.780	5408
459.820	5564
459.849	5857
459.900	6513
459.917	6581
459.981	6699
459.986	6727
460.054	6520
460.061	6611
460.123	7223
460.141	7276
460.191	8324
460.222	8893
460.260	9292
460.302	11137
460.328	10984
460.382	9363
460.397	9450
460.462	8442
460.465	8531
460.534	10950
460.543	11514
460.602	26317
460.623	31400
460.671	46314
460.703	60354
460.739	56134
460.783	58023
460.808	55624
460.864	18310
460.876	14698
460.944	5958
460.945	5866
461.013	6334
461.024	6420
461.081	6432
461.104	6623
461.150	6310
461.184	5993
461.218	6112
461.264	5796
461.286	5672
461.345	6017
461.355	5955
461.423	5515
461.425	5490
461.491	5294
461.505	5401
461.559	8417
461.585	9634
461.628	12244
461.665	15201
461.696	16607
461.745	20894
461.764	19351
461.825	12040
461.832	12147
461.901	7158
461.905	7133
461.969	6555
461.985	6478
462.037	5930
462.065	5499
462.105	5975
462.145	6657
462.173	7851
462.225	9845
462.241	10486
462.305	13888
462.310	13600
462.378	11131
462.385	10346
462.446	8158
462.465	7697
462.514	7515
462.545	7939
462.582	7889
462.625	7599
462.650	7019
462.705	5957
462.718	5977
462.785	5920
462.786	5936
462.854	6682
462.865	6858
462.922	8992
462.945	10058
462.990	8303
463.025	6538
463.058	6488
463.104	5466
463.126	5147
463.184	5563
463.194	5733
463.262	6556
463.264	6604
463.330	6732
463.344	6585
463.398	6322
463.424	6270
463.466	6207
463.504	6227
463.533	6318
463.583	6503
463.601	6797
463.663	7398
463.669	7550
463.737	9547
463.743	9734
463.805	12381
463.823	13236
463.873	17091
463.903	19104
463.940	19566
463.982	21351
464.008	18564
464.062	11376
464.076	11023
464.142	7058
464.144	7003
464.211	6151
464.221	6095
464.279	7085
464.301	7574
464.347	8382
464.381	8949
464.414	9230
464.461	9325
464.482	10018
464.540	12459
464.550	12705
464.617	13961
464.620	13997
464.685	12700
464.699	12267
464.753	12374
464.779	12553
464.820	12581
464.859	12467
464.888	11965
464.938	11126
464.956	11425
465.018	12340
465.023	12308
465.091	11986
465.098	11907
465.158	12485
465.177	12697
465.226	12101
465.257	11650
465.293	11354
465.336	10991
465.361	11854
465.416	13521
465.428	14003
465.495	17101
465.496	17149
465.563	20598
465.575	21125
465.631	25397
465.654	27566
465.698	19885
465.734	13029
465.765	12366
465.813	10528
465.833	10187
465.893	9980
465.900	10027
465.968	10501
465.972	10504
466.035	10521
466.052	10547
466.102	11362
466.131	11781
466.170	12018
466.210	12173
466.237	12240
466.290	12431
466.304	12735
466.369	13871
466.372	13909
466.439	14378
466.449	14420
466.506	14950
466.528	15130
466.573	18705
466.607	21320
466.641	27342
466.687	35686
466.708	38763
466.766	47086
466.775	44438
466.842	24403
466.845	23394
466.909	19460
466.925	18531
466.977	17758
467.004	17417
467.044	17715
467.083	17970
467.111	18642
467.163	19821
467.178	20301
467.242	22124
467.245	22068
467.312	20099
467.321	19803
467.379	19063
467.400	18744
467.446	18646
467.480	18516
467.559	17292
467.638	16603
467.717	16189
467.796	18479
467.875	21434
467.955	18722
468.034	22277
468.113	36270
468.192	51427
468.271	24619
468.350	22537
468.429	27764
468.508	29530
468.588	23043
468.667	18745
468.746	16989
468.825	15262
468.904	14445
468.983	15876
469.062	20293
469.141	22378
469.220	13114
469.299	12624
469.378	14128
469.456	16939
469.535	15207
469.614	14633
469.693	15339
469.772	17804
469.851	21246
469.930	18031
470.009	16076
470.088	19021
470.166	26963
470.245	42711
470.324	57852
470.403	42843
470.482	26793
470.560	20627
470.639	18602
470.718	22113
470.797	17821
470.875	17415
470.954	22598
471.033	21723
471.111	12010
471.190	13063
471.269	10227
471.347	11545
471.426	11916
471.505	13233
471.583	13887
471.662	13536
471.740	11626
471.819	12615
471.898	12176
471.976	11863
472.055	12037
472.133	12692
472.212	15518
472.290	15679
472.369	11573
472.447	11376
472.526	11186
472.604	13727
472.683	14817
472.761	17906
472.839	14095
472.918	13857
472.996	12400
473.075	14099
473.153	13319
473.231	11566
473.310	13744
473.388	14350
473.466	13659
473.545	15660
473.623	22656
473.701	23715
473.780	15128
473.858	14050
473.936	14467
474.014	13714
474.093	15297
474.171	17582
474.249	20123
474.327	17576
474.405	14019
474.484	11900
474.562	13252
474.640	12298
474.718	12708
474.796	13920
474.874	13798
474.952	12802
475.030	12657
475.108	14129
475.187	16249
475.265	21716
475.343	35126
475.421	45570
475.499	16954
475.577	13830
475.655	15350
475.733	23150
475.811	33713
475.889	31297
475.966	24449
476.044	14997
476.122	24437
476.200	34061
476.278	26638
476.356	11707
476.434	13314
476.512	20296
476.590	32952
476.667	26908
476.745	10859
476.823	12161
476.901	10781
476.979	10327
477.056	10941
477.134	11767
477.212	11478
477.290	11376
477.367	10078
477.445	9950
477.523	10215
477.601	10625
477.678	9047
477.756	10208
477.834	12542
477.911	10698
477.989	10835
478.066	9656
478.144	13219
478.222	21782
478.299	45473
478.377	48214
478.454	12107
478.532	10647
478.609	10495
478.687	12946
478.764	10168
478.842	11586
478.919	14591
478.997	13299
479.074	9273
479.152	11090
479.229	12843
479.307	9813
479.384	8241
479.461	9361
479.539	9005
479.616	11243
479.694	10921
479.771	10042
479.848	11191
479.926	11851
480.003	14657
480.080	11033
480.157	10509
480.235	9228
480.312	10245
480.389	10541
480.467	13179
480.544	16503
480.621	12307
480.698	11841
480.775	12615
480.853	11741
480.930	9370
481.007	10778
481.084	11923
481.161	14364
481.238	12962
481.315	9308
481.392	8910
481.470	9793
481.547	10226
481.624	9318
481.701	9559
481.778	10674
481.855	11550
481.932	15447
482.009	22028
482.086	19430
482.163	16389
482.240	32178
482.317	64828
482.393	57202
482.470	15112
482.547	12606
482.624	12413
482.701	12699
482.778	13102
482.855	10810
482.932	11748
483.009	11807
483.085	14190
483.162	18177
483.239	18444
483.316	15148
483.393	13822
483.469	12976
483.546	12584
483.623	13108
483.699	10862
483.776	11778
483.853	12868
483.930	15708
484.006	28546
484.083	47521
484.160	32364
484.236	43770
484.313	37401
484.389	29747
484.466	25598
484.543	26927
484.619	28867
484.696	29665
484.772	27398
484.849	26345
484.925	23427
485.002	22536
485.078	25467
485.155	26730
485.231	21446
485.308	21246
485.384	21578
485.461	25156
485.537	33836
485.614	41376
485.690	23042
485.766	21053
485.843	24536
485.919	35150
485.995	45064
486.072	21027
486.148	20120
486.224	19862
486.301	21188
486.377	24007
486.453	28271
486.530	24472
486.606	27444
486.682	31434
486.758	32532
486.835	38477
486.911	33074
486.987	49505
487.063	74478
487.139	115818
487.215	82376
487.292	37112
487.368	27632
487.444	33447
487.520	46630
487.596	58650
487.672	104623
487.748	275523
487.824	483644
487.900	234574
487.976	70829
488.052	45637
488.128	46245
488.204	36884
488.280	25469
488.356	27415
488.432	39110
488.508	59747
488.584	31754
488.660	24195
488.736	23173
488.812	24022
488.888	31613
488.964	46010
489.039	101268
489.115	173451
489.191	117094
489.267	26380
489.343	20630
489.418	18563
489.494	17644
489.570	17511
489.646	18734
489.722	17693
489.797	18921
489.873	24239
489.949	40120
490.024	41312
490.100	18812
490.176	19054
490.251	25355
490.327	37683
490.403	23412
490.478	17870
490.554	16254
490.629	16715
490.705	15890
490.781	17498
490.856	17812
490.932	21240
491.007	22499
491.083	19981
491.158	16682
491.234	20181
491.309	32281
491.385	37243
491.460	17454
491.536	17581
491.611	17609
491.686	20529
491.762	30405
491.837	65142
491.913	121285
491.988	149715
492.063	230902
492.139	57321
492.214	26053
492.289	16471
492.365	15878
492.440	18446
492.515	18439
492.590	17410
492.666	14005
492.741	18091
492.816	23758
492.891	16562
492.967	16086
493.042	14643
493.117	15973
493.192	18568
493.267	35242
493.342	102445
493.418	164458
493.493	32661
493.568	14088
493.643	13812
493.718	17566
493.793	25608
493.868	34410
493.943	25079
494.018	16215
494.093	14239
494.168	13458
494.243	13734
494.318	11883
494.393	12516
494.468	12946
494.543	13901
494.618	16257
494.693	15871
494.768	12567
494.842	13986
494.917	12375
494.992	14216
495.067	13566
495.142	13181
495.217	13913
495.292	13778
495.366	16111
495.441	19650
495.516	24306
495.591	43399
495.665	140067
495.740	365639
495.815	199873
495.890	25233
495.964	16926
496.039	17198
496.114	17576
496.188	20512
496.263	20087
496.338	16289
496.412	17726
496.487	21179
496.561	25096
496.636	28085
496.710	20496
496.785	21446
496.860	22865
496.934	20592
497.009	21284
497.083	21431
497.158	22290
497.232	24898
497.307	28975
497.381	27541
497.455	29390
497.530	33176
497.604	29815
497.679	31043
497.753	39777
497.827	51326
497.902	52571
497.976	59561
498.050	98638
498.125	274856
498.199	358469
498.273	94179
498.348	76277
498.422	63818
498.496	60734
498.570	57924
498.645	41080
498.719	36290
498.793	36072
498.867	43698
498.941	56352
499.016	113531
499.090	299056
499.164	151135
499.238	26480
499.312	24937
499.386	28949
499.460	26899
499.534	22630
499.609	24342
499.683	28926
499.757	29059
499.831	51738
499.905	171387
499.979	210229
500.053	35503
500.127	38439
500.201	40825
500.275	23198
500.349	19036
500.422	22096
500.496	33856
500.570	76120
500.644	127867
500.718	203340
500.792	64869
500.866	17163
500.940	18039
501.013	16788
501.087	17637
501.161	33745
501.235	47155
501.309	57643
501.382	145645
501.456	170312
501.530	42937
501.603	51048
501.677	29139
501.751	13382
501.825	16578
501.898	24283
501.972	58287
502.046	50033
502.119	17252
502.193	32800
502.266	69075
502.340	43196
502.413	29187
502.487	59626
502.561	38991
502.634	19457
502.708	18148
502.781	16674
502.855	14009
502.928	11426
503.002	11616
503.075	9723
503.149	12242
503.222	11069
503.295	11007
503.369	13349
503.442	17462
503.516	44686
503.589	112117
503.662	90919
503.736	32639
503.809	56485
503.882	63444
503.956	77738
504.029	113225
504.102	163513
504.175	253029
504.249	130350
504.322	50766
504.395	32561
504.468	20660
504.542	16190
504.615	13682
504.688	12606
504.761	12670
504.834	15033
504.907	20738
504.980	35547
505.053	19335
505.127	21471
505.200	23118
505.273	14849
505.346	11717
505.419	10346
505.492	9265
505.565	7687
505.638	8150
505.711	9181
505.784	7741
505.857	7235
505.930	8919
506.003	8632
506.076	9972
506.149	10246
506.221	13111
506.294	12428
506.367	25978
506.440	79531
506.513	61768
506.586	15723
506.659	11028
506.731	10165
506.804	13349
506.877	21340
506.950	14944
507.022	9460
507.095	10536
507.168	13476
507.241	11860
507.313	10702
507.386	12606
507.459	19513
507.531	13214
507.604	10015
507.677	9351
507.749	8613
507.822	13289
507.894	23640
507.967	29118
508.040	16696
508.112	14514
508.185	14691
508.257	13207
508.330	21627
508.402	15406
508.475	10686
508.547	12877
508.620	12395
508.692	16240
508.765	13318
508.837	9810
508.909	10276
508.982	10788
509.054	12755
509.127	11534
509.199	9549
509.271	9268
509.344	8999
509.416	9486
509.488	10041
509.560	10273
509.633	12383
509.705	14296
509.777	13851
509.849	20787
509.922	17723
509.994	10255
510.066	9989
510.138	10854
510.210	18801
510.283	18706
510.355	15599
510.427	13631
510.499	12894
510.571	13148
510.643	14619
510.715	23678
510.787	25993
510.859	14349
510.931	15975
511.003	22627
511.076	22877
511.148	12230
511.219	12045
511.291	15337
511.363	19354
511.435	12284
511.507	11283
511.579	11576
511.651	11172
511.723	11025
511.795	11110
511.867	11317
511.939	12109
512.010	20058
512.082	19012
512.154	13289
512.226	13038
512.298	17714
512.369	28077
512.441	22674
512.513	23139
512.585	19844
512.656	16182
512.728	19417
512.800	16172
512.871	13396
512.943	13990
513.015	13737
513.086	14704
513.158	17038
513.230	17574
513.301	25794
513.373	31398
513.444	18567
513.516	13962
513.588	14304
513.659	16455
513.731	22148
513.802	21414
513.874	37928
513.945	81288
514.016	35540
514.088	13969
514.159	16997
514.231	22618
514.302	28228
514.374	19440
514.445	18352
514.516	24427
514.588	23351
514.659	17534
514.730	24984
514.802	25941
514.873	26354
514.944	26738
515.016	23577
515.087	26534
515.158	25702
515.229	31020
515.301	26718
515.372	35348
515.443	30609
515.514	23754
515.585	19956
515.656	18299
515.728	17597
515.799	16262
515.870	18587
515.941	18853
516.012	18974
516.083	22921
516.154	26221
516.225	33894
516.296	34267
516.367	32202
516.438	37992
516.509	55020
516.580	103800
516.651	308176
516.722	1073558
516.793	686399
516.864	84466
516.935	61290
517.006	72951
517.077	128784
517.148	328314
517.219	1095570
517.289	2115795
517.360	518972
517.431	106912
517.502	43774
517.573	35206
517.643	31116
517.714	32742
517.785	32772
517.856	33284
517.926	39587
517.997	50558
518.068	70585
518.138	118482
518.209	245050
518.280	772510
518.350	2509566
518.421	1558924
518.492	210208
518.562	85248
518.633	74020
518.703	84820
518.774	142017
518.845	300713
518.915	343440
518.986	131564
519.056	67341
519.127	76226
519.197	99112
519.268	132014
519.338	89268
519.408	32144
519.479	44161
519.549	38334
519.620	23079
519.690	18265
519.760	16896
519.831	18255
519.901	19959
519.971	15274
520.042	15540
520.112	17539
520.182	21664
520.253	29518
520.323	22369
520.393	38099
520.463	83946
520.534	52869
520.604	112738
520.674	54018
520.744	35344
520.814	110781
520.885	129380
520.955	39468
521.025	101431
521.095	64230
521.165	14273
521.235	13922
521.305	13352
521.375	13004
521.445	14998
521.515	22948
521.585	25117
521.655	29204
521.725	19668
521.795	17552
521.865	12594
521.935	14913
522.005	15232
522.075	12530
522.145	12749
522.215	13586
522.285	16809
522.355	19723
522.424	33638
522.494	36486
522.564	28994
522.634	56082
522.704	168531
522.774	98957
522.843	16298
522.913	16749
522.983	22162
523.053	18606
523.122	17823
523.192	28454
523.262	84708
523.331	122573
523.401	24762
523.471	13339
523.540	14108
523.610	12018
523.680	11660
523.749	11368
523.819	12847
523.888	14640
523.958	10810
524.027	11961
524.097	12853
524.166	12160
524.236	15969
524.305	15687
524.375	12144
524.444	10986
524.514	11353
524.583	12204
524.653	13426
524.722	15806
524.791	14074
524.861	11874
524.930	12488
524.999	13719
525.069	19445
525.138	16058
525.207	15343
525.277	14632
525.346	14769
525.415	13962
525.484	15530
525.554	18682
525.623	17583
525.692	18192
525.761	20220
525.830	23152
525.900	31404
525.969	53607
526.038	111622
526.107	222042
526.176	643812
526.245	689513
526.314	218600
526.383	308964
526.452	567904
526.522	660773
526.591	909293
526.660	213126
526.729	91972
526.797	93329
526.867	193763
526.935	635253
527.004	1383680
527.073	1162881
527.142	142163
527.211	43222
527.280	31764
527.349	31069
527.418	18576
527.487	17241
527.555	15114
527.624	14040
527.693	12861
527.762	11889
527.831	11428
527.899	12412
527.968	11485
528.037	11953
528.106	16177
528.174	29700
528.243	25397
528.312	26308
528.380	45757
528.449	17807
528.518	10799
528.586	8954
528.655	8516
528.723	8532
528.792	9241
528.861	10022
528.929	8540
528.998	8935
529.066	7839
529.135	7358
529.203	8338
529.272	8291
529.340	9348
529.409	9523
529.477	8408
529.545	10723
529.614	12069
529.682	15809
529.751	15704
529.819	18827
529.887	15179
529.956	10052
530.024	9881
530.092	10021
530.161	12081
530.229	21441
530.297	16079
530.365	8424
530.434	8492
530.502	7974
530.570	8497
530.638	7358
530.707	9395
530.775	10694
530.843	8676
530.911	8761
530.979	7931
531.047	8329
531.115	8244
531.183	8067
531.252	8999
531.320	8822
531.388	8350
531.456	8578
531.524	7912
531.592	8574
531.660	9563
531.728	9016
531.796	8536
531.864	7733
531.932	8695
532.000	9099
532.067	9311
532.135	11374
532.203	12905
532.271	14761
532.339	25174
532.407	71802
532.475	58893
532.542	19095
532.610	22483
532.678	36954
532.746	111454
532.814	344634
532.881	126491
532.949	17835
533.017	12214
533.084	9634
533.152	9545
533.220	10172
533.287	12998
533.355	10938
533.423	9261
533.490	8181
533.558	9026
533.625	10095
533.693	11088
533.761	10528
533.828	11014
533.896	12979
533.963	24876
534.031	37519
534.098	49299
534.166	30629
534.233	12025
534.300	12155
534.368	13595
534.435	13103
534.503	15220
534.570	22423
534.637	21868
534.705	22842
534.772	36734
534.840	78353
534.907	261073
534.974	498153
535.041	82664
535.109	20572
535.176	14245
535.243	12782
535.310	13463
535.378	12701
535.445	10724
535.512	11595
535.579	12274
535.646	11731
535.714	11660
535.781	13828
535.848	14058
535.915	12302
535.982	12311
536.049	12144
536.116	12317
536.183	12876
536.250	13051
536.317	14099
536.384	17241
536.451	24439
536.518	28207
536.585	19909
536.652	21906
536.719	30602
536.786	28661
536.853	20950
536.920	28572
536.987	47892
537.053	55517
537.120	144311
537.187	191379
537.254	24132
537.321	13515
537.388	14126
537.454	12531
537.521	11612
537.588	12323
537.654	14349
537.721	17385
537.788	17454
537.855	13835
537.921	13784
537.988	14108
538.055	14532
538.121	14699
538.188	17009
538.254	25016
538.321	48676
538.388	36498
538.454	17047
538.521	14585
538.587	13289
538.654	12877
538.720	13089
538.787	12056
538.853	14027
538.920	15115
538.986	16575
539.053	13957
539.119	15178
539.185	16651
539.252	18907
539.318	28854
539.385	23609
539.451	19488
539.517	20317
539.583	23943
539.650	43435
539.716	124410
539.782	56125
539.849	15849
539.915	15827
539.981	17189
540.047	20723
540.114	18112
540.180	17532
540.246	19637
540.312	27032
540.378	48040
540.444	57101
540.510	52126
540.576	140631
540.643	72498
540.709	16610
540.775	16366
540.841	15874
540.907	20513
540.973	36617
541.039	35216
541.105	32625
541.171	19153
541.237	16760
541.303	17728
541.369	20591
541.435	26824
541.500	43880
541.566	34225
541.632	16683
541.698	13332
541.764	13472
541.830	13638
541.896	12948
541.961	14404
542.027	16805
542.093	17053
542.159	17080
542.224	19629
542.290	27200
542.356	41959
542.421	52937
542.487	25736
542.553	17268
542.618	16370
542.684	16576
542.750	16619
542.815	20754
542.881	36030
542.947	107130
543.012	122756
543.078	19009
543.143	13966
543.209	16253
543.274	18105
543.340	22990
543.405	40060
543.471	87543
543.536	27645
543.602	13920
543.667	14200
543.732	14503
543.798	13087
543.863	14252
543.928	13604
543.994	13051
544.059	13009
544.124	14502
544.190	13985
544.255	15180
544.320	15202
544.386	17749
544.451	23230
544.516	30323
544.581	31672
544.646	64825
544.712	140814
544.777	37990
544.842	16633
544.907	16586
544.972	15391
545.037	14544
545.102	16493
545.168	16482
545.233	16957
545.298	19922
545.363	23213
545.428	28180
545.493	43531
545.558	101074
545.623	60278
545.688	18447
545.753	17356
545.818	16890
545.883	18144
545.947	17897
546.012	19523
546.077	19465
546.142	19683
546.207	21872
546.272	27030
546.337	30792
546.401	24247
546.466	22875
546.531	21591
546.596	23047
546.661	23435
546.725	23969
546.790	22667
546.855	25231
546.919	25765
546.984	28209
547.049	31190
547.113	34526
547.178	34978
547.243	39430
547.307	45533
547.372	52287
547.436	54449
547.501	51525
547.565	56404
547.630	57935
547.695	57169
547.759	52489
547.823	52159
547.888	48827
547.952	50525
548.017	52618
548.081	60292
548.146	62456
548.210	59900
548.274	57968
548.339	57514
548.403	53038
548.468	50609
548.532	49377
548.596	50127
548.660	51208
548.725	54475
548.789	62417
548.853	63145
548.917	56396
548.982	56143
549.046	54844
549.110	44704
549.174	45527
549.238	50186
549.303	56156
549.367	58570
549.431	56629
549.495	53097
549.559	53273
549.623	57896
549.687	68592
549.751	76346
549.815	79878
549.879	76787
549.943	73147
550.007	75043
550.071	77493
550.135	77074
550.199	70366
550.263	65033
550.327	62431
550.391	65654
550.455	71437
550.519	74220
550.582	80566
550.646	94646
550.710	103870
550.774	90747
550.838	90681
550.901	94183
550.965	103897
551.029	112455
551.093	128701
551.156	152103
551.220	192436
551.284	231407
551.347	170015
551.411	132085
551.475	131672
551.538	100741
551.602	91263
551.666	83844
551.729	79145
551.793	73936
551.856	75234
551.920	73543
551.983	74208
552.047	72739
552.110	72398
552.174	71745
552.237	75207
552.301	70857
552.364	66526
552.428	63546
552.491	66954
552.554	70746
552.618	71687
552.681	79286
552.745	86892
552.808	114425
552.871	166893
552.934	132816
552.998	87998
553.061	74428
553.124	69498
553.187	65035
553.251	69190
553.314	69762
553.377	72468
553.440	86861
553.503	123217
553.567	210497
553.630	101120
553.693	70745
553.756	68653
553.819	67605
553.882	63833
553.945	63362
554.008	64457
554.071	62274
554.134	64774
554.197	61602
554.260	58523
554.323	61888
554.386	62295
554.449	64177
554.512	63906
554.575	61191
554.638	61514
554.701	62114
554.764	60453
554.827	56071
554.889	55505
554.952	52607
555.015	50863
555.078	52620
555.141	54236
555.203	52981
555.266	53424
555.329	53601
555.391	51330
555.454	52157
555.517	52642
555.580	49617
555.642	47149
555.705	44762
555.768	45151
555.830	45722
555.893	43130
555.955	41452
556.018	42139
556.080	41512
556.143	43590
556.206	43023
556.268	43435
556.330	44490
556.393	43656
556.455	41187
556.518	44253
556.580	46890
556.643	38912
556.705	36959
556.767	38335
556.830	39019
556.892	40517
556.955	51563
557.017	49008
557.079	36356
557.142	37330
557.204	41577
557.266	60932
557.328	66653
557.391	35785
557.453	30830
557.515	32894
557.577	35752
557.639	40827
557.701	34204
557.764	33063
557.826	34860
557.888	39543
557.950	46016
558.012	59551
558.074	87270
558.136	162207
558.198	484671
558.260	289376
558.322	52438
558.384	44603
558.446	50667
558.508	60029
558.570	81945
558.632	128748
558.694	226209
558.756	320714
558.818	652220
558.880	1822285
558.942	1043031
559.003	516647
559.065	380138
559.127	91051
559.189	86931
559.251	116257
559.312	186409
559.374	358817
559.436	1119503
559.498	996099
559.559	147030
559.621	95016
559.683	121359
559.744	201534
559.806	477907
559.868	1096357
559.929	339598
559.991	114331
560.052	160726
560.114	433995
560.176	462244
560.237	227564
560.299	508531
560.360	180279
560.422	36087
560.483	27972
560.545	24004
560.606	22697
560.667	21902
560.729	21350
560.790	19742
560.852	18382
560.913	19129
560.974	19261
561.036	18776
561.097	18800
561.158	19119
561.220	19322
561.281	19012
561.342	21678
561.403	25203
561.465	31817
561.526	55569
561.587	102520
561.648	39946
561.709	19343
561.771	17481
561.832	17257
561.893	16289
561.954	16420
562.015	16084
562.076	17398
562.137	16355
562.198	16902
562.259	17239
562.320	17957
562.381	19610
562.442	27341
562.503	27304
562.564	17164
562.625	16410
562.686	17665
562.747	19713
562.808	18809
562.869	16037
562.930	16411
562.991	16761
563.051	16506
563.112	14753
563.173	15811
563.234	14430
563.294	15419
563.355	15141
563.416	16651
563.477	15769
563.537	15862
563.598	16797
563.659	15968
563.720	16476
563.780	17076
563.841	17825
563.901	16734
563.962	15591
564.023	15151
564.083	15217
564.144	15817
564.204	16638
564.265	15888
564.325	17124
564.386	23671
564.446	25232
564.507	15686
564.567	15024
564.628	15494
564.688	15120
564.749	14627
564.809	15870
564.869	18419
564.930	16958
564.990	15889
565.050	15548
565.111	16851
565.171	15683
565.231	16338
565.292	15785
565.352	15336
565.412	16897
565.472	17088
565.532	18975
565.593	17967
565.653	16925
565.713	17855
565.773	20320
565.833	22388
565.893	29809
565.953	22372
566.013	17994
566.074	20513
566.134	21368
566.194	25657
566.254	32185
566.314	26773
566.374	21239
566.434	20655
566.494	21524
566.554	22054
566.614	22808
566.673	24447
566.733	25625
566.793	27715
566.853	29025
566.913	29302
566.973	29197
567.033	30634
567.092	32157
567.152	32331
567.212	31904
567.272	30304
567.331	30840
567.391	32982
567.451	34736
567.511	36781
567.570	36588
567.630	30149
567.690	29240
567.749	29274
567.809	31665
567.868	33535
567.928	38363
567.988	44819
568.047	53287
568.107	65239
568.166	85828
568.226	118497
568.285	165462
568.345	167319
568.404	144703
568.464	126810
568.523	118638
568.582	118913
568.642	131657
568.701	156492
568.761	195358
568.820	271757
568.879	309804
568.939	263723
568.998	211755
569.057	168556
569.116	138546
569.176	112133
569.235	94681
569.294	80324
569.353	68842
569.413	60556
569.472	53581
569.531	47324
569.590	43321
569.649	40127
569.708	37336
569.767	37010
569.827	37837
569.886	37054
569.945	29793
570.004	29246
570.063	27461
570.122	26832
570.181	27132
570.240	25785
570.299	26554
570.358	29860
570.417	24121
570.475	21196
570.534	22335
570.593	23164
570.652	22889
570.711	24695
570.770	20789
570.829	21274
570.887	21289
570.946	24522
571.005	20310
571.064	19917
571.122	22110
571.181	23114
571.240	19893
571.299	17691
571.357	16825
571.416	17501
571.475	17292
571.533	18270
571.592	16134
571.650	17368
571.709	17234
571.768	18548
571.826	18783
571.885	17315
571.943	15551
572.002	15524
572.060	15291
572.119	14779
572.177	14270
572.236	13485
572.294	13562
572.352	15502
572.411	14758
572.469	15320
572.528	15014
572.586	16243
572.644	17147
572.703	24432
572.761	19715
572.819	15097
572.877	14303
572.936	13008
572.994	13438
573.052	13684
573.110	15415
573.169	15703
573.227	14037
573.285	13981
573.343	13454
573.401	14082
573.459	13544
573.517	13750
573.576	14397
573.634	14928
573.692	15851
573.750	15650
573.808	13838
573.866	13663
573.924	14863
573.982	15828
574.040	14112
574.098	13368
574.155	13323
574.213	13191
574.271	13863
574.329	14925
574.387	13979
574.445	13171
574.503	11439
574.560	12384
574.618	13275
574.676	12489
574.734	13065
574.792	13012
574.849	12913
574.907	11658
574.965	11725
575.022	11771
575.080	11174
575.138	11876
575.195	12655
575.253	12580
575.311	13763
575.368	12739
575.426	11237
575.483	11389
575.541	11185
575.598	11068
575.656	11194
575.713	12660
575.771	12794
575.828	12623
575.886	12812
575.943	12076
576.001	11221
576.058	11815
576.115	12160
576.173	13861
576.230	14677
576.287	17722
576.345	16596
576.402	13661
576.459	12710
576.517	12876
576.574	12815
576.631	12708
576.688	11415
576.746	11656
576.803	11006
576.860	10831
576.917	11525
576.974	11283
577.031	11390
577.089	12447
577.146	11640
577.203	11784
577.260	12940
577.317	13059
577.374	13038
577.431	12998
577.488	12954
577.545	11856
577.602	11771
577.659	12886
577.716	12426
577.773	13590
577.830	12466
577.886	12172
577.943	11451
578.000	12155
578.057	12342
578.114	13256
578.171	11651
578.227	13009
578.284	12709
578.341	13336
578.398	12437
578.454	12722
578.511	13195
578.568	13991
578.625	13446
578.681	12176
578.738	12125
578.794	11912
578.851	11491
578.908	11768
578.964	11816
579.021	12119
579.077	12160
579.134	12946
579.190	12631
579.247	12191
579.303	10858
579.360	11291
579.416	11272
579.473	11971
579.529	10635
579.586	11345
579.642	11944
579.698	12587
579.755	11729
579.811	12902
579.867	12230
579.924	11245
579.980	11252
580.036	13168
580.093	12225
580.149	13701
580.205	14364
580.261	13964
580.317	13750
580.374	13806
580.430	15074
580.486	14515
580.542	14010
580.598	13488
580.619	13501
580.654	13529
580.692	13026
580.710	12786
580.765	13391
580.767	13413
580.823	13079
580.838	13046
580.879	12965
580.911	13510
580.935	13919
580.984	12478
580.991	12288
581.047	13149
581.057	13160
581.103	13191
581.130	13392
581.159	13607
581.203	13701
581.215	13721
581.270	13972
581.276	13908
581.326	13317
581.349	13486
581.382	13707
581.422	13562
581.438	13522
581.494	14460
581.494	14455
581.550	13563
581.567	13853
581.606	14595
581.640	14440
581.661	14274
581.713	14447
581.717	14462
581.773	13321
581.786	13447
581.829	13918
581.859	13655
581.885	13382
581.932	13417
581.940	13410
581.996	15084
582.004	14896
582.052	13875
582.077	14101
582.107	14364
582.150	14811
582.163	14976
582.219	15096
582.223	15130
582.274	15142
582.296	14966
582.330	14921
582.368	15877
582.386	16215
582.441	15089
582.441	15084
582.497	15801
582.514	15809
582.552	15993
582.587	16836
582.608	17265
582.659	16393
582.663	16306
582.719	16359
582.732	16121
582.774	15415
582.805	15678
582.830	15989
582.877	16551
582.885	16616
582.941	16376
582.950	16506
582.996	17228
583.023	17408
583.052	17618
583.095	17480
583.107	17450
583.162	18219
583.168	18356
583.218	19361
583.240	18891
583.273	18339
583.313	18893
583.328	19053
583.384	18053
583.385	18062
583.439	18359
583.458	18565
583.494	18955
583.531	18909
583.549	18911
583.603	18328
583.605	18307
583.660	18822
583.676	18867
583.715	19167
583.748	19446
583.770	19664
583.820	20244
583.825	20314
583.881	20877
583.893	20867
583.936	20334
583.965	20119
583.991	20191
584.038	20336
584.046	20379
584.101	20821
584.110	20933
584.156	21298
584.183	21288
584.211	21417
584.255	21996
584.266	22135
584.321	22032
584.328	22041
584.376	22238
584.400	22587
584.431	23166
584.472	23287
584.486	23220
584.541	23271
584.545	23305
584.596	24585
584.617	24893
584.651	25379
584.689	25641
584.706	25892
584.761	26833
584.762	26821
584.816	26889
584.834	27088
584.871	27638
584.906	27786
584.926	28052
584.978	29397
584.980	29467
585.035	30943
585.051	31310
585.090	32496
585.123	33402
585.145	34425
585.195	37121
585.200	37419
585.254	41990
585.267	43216
585.309	48381
585.340	53196
585.364	57556
585.412	66667
585.419	67676
585.473	78253
585.484	82038
585.528	101296
585.556	117274
585.583	140123
585.628	188451
585.637	211208
585.692	397197
585.700	447041
585.747	818305
585.772	870750
585.801	710361
585.845	382461
585.856	308803
585.910	112604
585.917	92961
585.965	71130
585.989	62447
586.019	57368
586.061	52572
586.074	51897
586.128	49619
586.133	49464
586.183	50211
586.205	50411
586.237	50768
586.277	50764
586.292	50706
586.346	50395
586.349	50363
586.401	50819
586.421	50799
586.455	51801
586.493	53011
586.509	54407
586.564	59676
586.565	59760
586.618	75034
586.637	79911
586.672	83920
586.709	82784
586.727	78145
586.781	69787
586.781	69892
586.835	68060
586.853	67349
586.889	64608
586.925	62162
586.944	62151
586.996	62647
586.998	62785
587.052	64225
587.068	64657
587.106	66196
587.140	67598
587.161	68796
587.212	70602
587.215	70836
587.269	73622
587.284	74577
587.323	77198
587.356	78467
587.377	79768
587.427	83079
587.431	83497
587.485	87315
587.499	88118
587.539	91647
587.571	94672
587.593	97144
587.643	101953
587.648	102621
587.702	108353
587.715	109660
587.755	115696
587.786	119804
587.810	123563
587.858	130980
587.864	132103
587.917	141363
587.930	143383
587.971	154403
588.001	162379
588.025	169337
588.073	182355
588.079	184754
588.133	204562
588.145	208644
588.187	227615
588.217	241542
588.241	256852
588.288	286967
588.295	292362
588.348	335766
588.360	345244
588.402	389490
588.431	420135
588.456	453340
588.503	522028
588.510	534927
588.564	640774
588.575	663826
588.617	785405
588.646	874626
588.671	984405
588.718	1204996
588.725	1257499
588.778	1674844
588.789	1763057
588.832	2293228
588.861	2655360
588.886	2942666
588.932	3378728
588.939	3345950
588.993	2867299
589.004	2809090
589.047	3064629
589.075	3210540
589.100	3161579
589.147	2895422
589.154	2804377
589.207	2058974
589.218	1910496
589.261	1640701
589.290	1470624
589.314	1454431
589.361	1439110
589.368	1470080
589.421	1733189
589.433	1793825
589.475	2296774
589.504	2644392
589.528	2873951
589.576	3178514
589.582	3160180
589.635	2980324
589.647	2928670
589.689	2744084
589.718	2540012
589.742	2141009
589.790	1359057
589.795	1316745
589.849	920764
589.861	830539
589.902	696502
589.932	597786
589.955	551136
590.004	452261
590.009	446443
590.062	373916
590.075	355701
590.115	323619
590.146	297802
590.168	285252
590.218	256119
590.222	255094
590.275	233694
590.289	227638
590.328	216093
590.360	205825
590.381	200026
590.431	184616
590.435	184467
590.488	174025
590.503	170711
590.541	165966
590.574	160994
590.594	158163
590.645	149515
590.647	149681
590.700	142969
590.716	140613
590.753	137530
590.787	133782
590.806	132950
590.859	129365
590.859	129673
590.912	124822
590.930	122871
590.965	120921
591.001	118287
591.018	117935
591.071	115887
591.072	115513
591.124	114231
591.143	113181
591.177	112076
591.214	110305
591.230	110400
591.283	109668
591.285	109285
591.336	109694
591.356	109398
591.389	109216
591.427	108063
591.442	107180
591.495	102517
591.498	101844
591.547	99697
591.569	98248
591.600	98469
591.640	98048
591.653	98276
591.706	97770
591.711	97378
591.759	97170
591.782	96639
591.811	99177
591.853	102166
591.864	102387
591.917	101376
591.924	100873
591.969	96734
591.995	93903
592.022	94634
592.066	94876
592.075	95616
592.127	98156
592.137	98273
592.180	102622
592.208	104893
592.233	104787
592.279	103318
592.285	102995
592.338	97098
592.350	95406
592.390	94380
592.421	93011
592.443	93391
592.491	93124
592.495	93522
592.548	94307
592.562	94177
592.600	94104
592.633	93397
592.653	93465
592.704	92230
592.705	92755
592.775	92299
592.846	93650
592.916	95130
592.987	97328
593.058	97059
593.128	93215
593.199	89609
593.270	91506
593.341	90456
593.411	91046
593.482	93695
593.553	93198
593.623	92031
593.694	92481
593.764	98153
593.835	95355
593.906	93034
593.976	92473
594.047	96161
594.117	99999
594.188	108376
594.258	101319
594.329	95723
594.399	95588
594.470	99300
594.540	98616
594.611	101061
594.681	100330
594.751	99847
594.822	102798
594.892	105555
594.963	108966
595.033	109463
595.103	110915
595.174	113595
595.244	121183
595.314	144851
595.384	134579
595.455	115149
595.525	119317
595.595	122608
595.665	125620
595.736	121017
595.806	121155
595.876	121952
595.946	123265
596.016	124869
596.087	127484
596.157	130273
596.227	128847
596.297	131533
596.367	138454
596.437	148655
596.507	156188
596.577	168327
596.647	164385
596.717	152855
596.787	157301
596.857	157434
596.927	157801
596.997	157832
597.067	158523
597.137	162737
597.207	167128
597.277	163350
597.347	162598
597.417	157310
597.487	152467
597.557	155286
597.626	158569
597.696	163606
597.766	167099
597.836	173571
597.906	167450
597.975	144400
598.045	145328
598.115	147171
598.185	152579
598.254	163995
598.324	180451
598.394	189541
598.464	189945
598.533	184145
598.603	176404
598.672	167212
598.742	167961
598.812	169177
598.881	171428
598.951	173602
599.020	170986
599.090	173678
599.159	180590
599.229	178115
599.299	170334
599.368	172406
599.437	175881
599.507	166377
599.576	158312
599.646	158573
599.715	156100
599.785	152041
599.854	151249
599.924	152602
599.993	149387
600.062	147920
600.132	150494
600.201	151483
600.270	168653
600.340	189873
600.409	186195
600.478	182757
600.547	181918
600.617	186584
600.686	157073
600.755	137103
600.824	130915
600.894	127464
600.963	122715
601.032	122885
601.101	120623
601.170	116004
601.239	112510
601.308	115759
601.378	120549
601.447	114010
601.516	110889
601.585	113959
601.654	124117
601.723	125916
601.792	117938
601.861	120499
601.930	126475
601.999	131890
602.068	127876
602.137	132027
602.206	145991
602.275	130353
602.343	132910
602.412	138287
602.481	132953
602.550	130320
602.619	130518
602.688	134903
602.756	135764
602.825	134732
602.894	136084
602.963	139472
603.032	139263
603.100	143164
603.169	140968
603.238	141449
603.307	143258
603.375	143448
603.444	144038
603.513	147800
603.581	148048
603.650	152488
603.719	151192
603.787	150229
603.856	156376
603.924	157982
603.993	167155
604.061	167654
604.130	175648
604.198	179900
604.267	182605
604.335	183554
604.404	185234
604.472	187908
604.541	188506
604.609	192874
604.678	192943
604.746	191444
604.815	197079
604.883	201774
604.951	202490
605.020	202268
605.088	208117
605.156	212166
605.225	216849
605.293	217275
605.361	217247
605.429	219462
605.498	222199
605.566	227116
605.634	234659
605.702	243641
605.771	251830
605.839	255908
605.907	252127
605.975	244031
606.043	237583
606.111	234888
606.180	234902
606.248	237134
606.316	239702
606.384	235753
606.452	238571
606.520	246471
606.588	254518
606.656	245452
606.724	244972
606.792	234992
606.860	218118
606.928	196501
606.996	184559
607.064	177829
607.132	177160
607.200	185336
607.267	197995
607.335	198807
607.403	206711
607.471	205931
607.539	195480
607.607	197603
607.674	184732
607.742	174291
607.810	176393
607.878	176859
607.946	175040
608.013	180935
608.081	189106
608.149	193563
608.216	194028
608.284	200976
608.352	199849
608.419	202859
608.487	202498
608.555	203227
608.622	196616
608.690	199631
608.757	217849
608.825	234233
608.893	233088
608.960	230656
609.028	229208
609.095	222572
609.163	220502
609.230	202903
609.298	179023
609.365	173997
609.432	186934
609.500	199034
609.567	221480
609.635	251873
609.702	283234
609.769	281872
609.837	261321
609.904	204095
609.971	197771
610.039	216634
610.106	260806
610.173	403259
610.241	917379
610.308	1553711
610.375	626498
610.442	296791
610.509	216104
610.577	198768
610.644	196881
610.711	201279
610.778	206042
610.845	209613
610.912	223440
610.980	232673
611.047	242094
611.114	247583
611.181	233777
611.248	222418
611.315	225835
611.382	236285
611.449	242102
611.516	251479
611.583	250960
611.650	249708
611.717	254820
611.784	259275
611.851	271100
611.918	293508
611.984	337426
612.051	427706
612.118	686843
612.185	1565153
612.252	2815718
612.319	895242
612.386	383996
612.452	332257
612.519	303994
612.586	294661
612.653	297337
612.719	289216
612.786	292585
612.853	273840
612.919	254955
612.986	254378
613.053	253680
613.120	238026
613.186	221936
613.253	224055
613.319	222691
613.386	224054
613.453	224866
613.519	234806
613.586	237650
613.652	252905
613.719	255162
613.785	249749
613.852	234632
613.918	232922
613.985	230205
614.051	241887
614.118	266425
614.184	311704
614.250	250185
614.317	231769
614.383	229072
614.449	230361
614.516	232969
614.582	235139
614.648	236211
614.715	227369
614.781	226758
614.847	221480
614.914	227022
614.980	222843
615.046	219893
615.112	217531
615.179	225619
615.245	230981
615.311	237346
615.377	255440
615.443	304389
615.509	276447
615.575	250504
615.642	249639
615.708	247627
615.774	262434
615.840	282297
615.906	316876
615.972	376963
616.038	537897
616.104	948729
616.170	1828788
616.236	3454023
616.302	1521179
616.368	547174
616.434	429839
616.500	321122
616.565	315241
616.631	381297
616.697	420166
616.763	343210
616.829	408093
616.895	703097
616.961	1102295
617.026	729751
617.092	322170
617.158	257099
617.224	243622
617.289	230655
617.355	216551
617.421	211302
617.487	209694
617.552	203084
617.618	194111
617.684	194534
617.749	195496
617.815	191553
617.880	183901
617.946	184064
618.012	182723
618.077	189843
618.143	186058
618.208	179494
618.274	186050
618.339	201896
618.405	187019
618.470	164639
618.536	168639
618.601	168061
618.667	166859
618.732	153084
618.798	148868
618.863	146105
618.928	143869
618.994	146924
619.059	150443
619.124	160325
619.190	170416
619.255	147275
619.320	145049
619.386	145291
619.451	143746
619.516	142873
619.581	139764
619.647	142884
619.712	147723
619.777	144499
619.842	138499
619.907	143726
619.972	145385
620.038	148445
620.103	141608
620.168	139922
620.233	139095
620.298	140715
620.363	141851
620.428	142677
620.493	146628
620.558	150617
620.623	151298
620.688	151323
620.753	148756
620.818	150486
620.883	153899
620.948	153059
621.013	153027
621.078	152283
621.143	149676
621.207	155674
621.272	153149
621.337	153664
621.402	152898
621.467	154811
621.532	163212
621.596	157486
621.661	155276
621.726	142984
621.791	144091
621.855	146479
621.920	149457
621.985	148923
622.049	155071
622.114	156156
622.179	154337
622.243	154311
622.308	159738
622.373	162134
622.437	166175
622.502	160061
622.566	152801
622.631	151492
622.695	154916
622.760	155079
622.824	153376
622.889	154289
622.953	157500
623.018	167907
623.082	202703
623.147	171947
623.211	160753
623.276	159114
623.340	159465
623.404	147713
623.469	147382
623.533	147290
623.597	146732
623.662	144105
623.726	142894
623.790	133024
623.854	125410
623.919	128160
623.983	127815
624.047	132282
624.111	132109
624.176	133263
624.240	137042
624.304	148090
624.368	142503
624.432	134226
624.496	134384
624.560	140284
624.625	150396
624.689	147604
624.753	143194
624.817	147831
624.881	137962
624.945	136418
625.009	123263
625.073	125614
625.137	127492
625.201	140003
625.265	152175
625.329	137635
625.393	130787
625.456	134853
625.520	132073
625.584	139107
625.648	146104
625.712	157166
625.776	195708
625.839	270945
625.903	233984
625.967	126180
626.031	125394
626.095	167223
626.158	179432
626.222	118742
626.286	98724
626.349	95525
626.413	91614
626.477	88791
626.540	91540
626.604	89461
626.668	89009
626.731	85768
626.795	86370
626.858	91329
626.922	87946
626.986	85115
627.049	84809
627.113	86152
627.176	86271
627.240	83330
627.303	82282
627.366	84525
627.430	84125
627.493	85538
627.557	85342
627.620	83759
627.684	84131
627.747	88286
627.810	86840
627.874	79442
627.937	74555
628.000	73702
628.064	76692
628.127	71913
628.190	66343
628.253	67803
628.317	66182
628.380	63244
628.443	61486
628.506	62665
628.569	62528
628.632	57142
628.696	56438
628.759	56757
628.822	54867
628.885	54771
628.948	53177
629.011	52867
629.074	53959
629.137	52237
629.200	50723
629.263	52408
629.326	52735
629.389	48507
629.452	49684
629.515	50087
629.578	49275
629.641	50670
629.704	51917
629.767	52398
629.830	50777
629.892	46298
629.955	46364
630.018	48329
630.081	50671
630.144	56432
630.207	55069
630.269	51126
630.332	50124
630.395	50349
630.458	46084
630.520	44669
630.583	46778
630.646	42140
630.708	43734
630.771	43783
630.834	45806
630.896	45215
630.959	44980
631.021	44979
631.084	45250
631.146	46204
631.209	48231
631.272	48190
631.334	45910
631.397	45741
631.459	45135
631.522	48545
631.584	49754
631.646	50762
631.709	53498
631.771	58387
631.834	62044
631.896	53414
631.958	47663
632.021	45331
632.083	44507
632.145	45530
632.208	44054
632.270	43946
632.332	42929
632.395	40590
632.457	42591
632.519	42525
632.581	41966
632.643	40677
632.706	42534
632.768	40285
632.830	40371
632.892	40858
632.954	41563
633.016	43690
633.078	41705
633.141	41314
633.203	41428
633.265	40475
633.327	41138
633.389	40958
633.451	42357
633.513	47718
633.575	49081
633.637	47726
633.698	49247
633.760	44777
633.822	44997
633.884	45363
633.946	46226
634.008	48537
634.070	49465
634.132	50688
634.193	56448
634.255	57225
634.317	60894
634.379	60806
634.441	57673
634.502	53338
634.564	49038
634.626	44407
634.687	42174
634.749	40985
634.811	39640
634.873	39031
634.934	38675
634.996	39314
635.057	38887
635.119	40203
635.181	40903
635.242	41255
635.304	40747
635.365	39923
635.427	40580
635.488	40651
635.550	41189
635.611	39931
635.673	40840
635.734	42305
635.796	44974
635.857	46407
635.918	49854
635.980	53845
636.041	58054
636.102	62098
636.164	65311
636.225	61882
636.286	60144
636.348	54693
636.409	47500
636.470	44251
636.531	41039
636.593	40723
636.654	41088
636.715	37117
636.776	34545
636.838	34771
636.899	34544
636.960	34506
637.021	34687
637.082	33583
637.143	32667
637.204	32104
637.265	31653
637.326	31604
637.387	32507
637.448	32513
637.509	32450
637.570	32565
637.631	31782
637.692	31389
637.753	30930
637.814	30382
637.875	30784
637.936	29986
637.997	29981
638.058	30721
638.119	31842
638.179	30816
638.240	29917
638.301	30146
638.362	29518
638.423	29462
638.483	29071
638.544	28204
638.605	28318
638.666	28014
638.726	28031
638.787	28823
638.848	27116
638.908	28003
638.969	27629
639.030	27236
639.090	27057
639.151	27363
639.211	28511
639.272	31391
639.332	37947
639.393	47064
639.453	31374
639.514	31730
639.574	29676
639.635	26259
639.695	26108
639.756	26278
639.816	27055
639.877	28017
639.937	32986
639.997	47834
640.058	44057
640.118	27624
640.178	25220
640.239	25135
640.299	24736
640.359	25703
640.420	25828
640.480	27085
640.540	30171
640.600	35225
640.661	32688
640.721	29658
640.781	32341
640.841	34184
640.901	28498
640.961	25876
641.021	26908
641.082	29833
641.142	35178
641.202	36518
641.262	25186
641.322	24970
641.382	23628
641.442	24225
641.502	23856
641.562	23815
641.622	24808
641.682	25486
641.742	27047
641.802	30006
641.861	26798
641.921	26650
641.981	26815
642.041	26716
642.101	28096
642.161	30757
642.221	23486
642.280	22374
642.340	21426
642.400	22728
642.460	23536
642.519	22659
642.579	23323
642.639	23887
642.698	23500
642.758	24698
642.818	23854
642.877	24176
642.937	23997
642.997	25355
643.056	29410
643.116	35007
643.175	26186
643.235	25026
643.294	25019
643.354	27113
643.414	29518
643.473	33139
643.532	40696
643.592	54411
643.651	77319
643.711	122415
643.770	214530
643.830	411936
643.889	1089209
643.948	1440742
644.008	229029
644.067	68344
644.126	47531
644.186	38475
644.245	31823
644.304	27740
644.363	27044
644.423	25285
644.482	24811
644.541	26417
644.600	26838
644.659	32050
644.719	37846
644.778	51375
644.837	79181
644.896	135734
644.955	302540
645.014	501204
645.073	100757
645.132	39344
645.191	32054
645.250	28829
645.309	27673
645.368	29176
645.427	33485
645.486	42997
645.545	82987
645.604	96850
645.663	29547
645.722	25257
645.781	28013
645.840	31312
645.898	36347
645.957	48942
646.016	72523
646.075	115724
646.134	199899
646.192	385039
646.251	1106297
646.310	940076
646.369	119637
646.427	53003
646.486	45220
646.545	32649
646.603	27317
646.662	25557
646.721	23372
646.779	24057
646.838	24509
646.896	27624
646.955	35908
647.014	49487
647.072	80217
647.131	162814
647.189	365304
647.248	97970
647.306	27165
647.365	22204
647.423	20211
647.481	19635
647.540	17769
647.598	17680
647.657	17938
647.715	17847
647.773	17330
647.832	18345
647.890	17180
647.948	16402
648.007	17249
648.065	16157
648.123	16448
648.181	17513
648.240	17901
648.298	19471
648.356	18043
648.414	16249
648.472	16611
648.531	16414
648.589	15347
648.647	15393
648.705	16091
648.763	16527
648.821	17185
648.879	18430
648.937	19675
648.995	22447
649.053	28740
649.111	38540
649.169	59125
649.227	95855
649.285	171994
649.343	384646
649.401	887978
649.459	247815
649.516	80232
649.574	43680
649.632	37666
649.690	59083
649.748	54882
649.806	43954
649.863	68904
649.921	117643
649.979	273147
650.037	107761
650.094	22740
650.152	18518
650.210	16410
650.268	16057
650.325	14822
650.383	15142
650.440	16032
650.498	13642
650.556	13352
650.613	13596
650.671	13343
650.728	13456
650.786	13692
650.843	15107
650.901	17815
650.958	14126
651.016	12154
651.073	10927
651.131	11441
651.188	11104
651.246	12323
651.303	11426
651.360	11489
651.418	11638
651.475	12035
651.532	11014
651.590	10910
651.647	10847
651.704	10917
651.762	11871
651.819	11740
651.876	11307
651.933	11447
651.990	10723
652.048	10032
652.105	10929
652.162	10297
652.219	11341
652.276	10147
652.333	9825
652.390	10511
652.448	9733
652.505	10834
652.562	11150
652.619	11767
652.676	12412
652.733	17301
652.790	13716
652.847	9432
652.904	9801
652.961	9969
653.017	9428
653.074	10789
653.131	11025
653.188	10040
653.245	9656
653.302	10231
653.359	10217
653.415	9804
653.472	9468
653.529	10114
653.586	9271
653.642	9940
653.699	10431
653.756	8581
653.813	9606
653.869	9820
653.926	8971
653.983	9299
654.039	8804
654.096	9952
654.152	9981
654.209	9679
654.266	10029
654.322	9710
654.379	10831
654.435	11048
654.492	11518
654.548	12774
654.605	17026
654.661	21820
654.717	11382
654.774	9547
654.830	10185
654.887	10876
654.943	10526
655.000	11166
655.056	11071
655.112	10169
655.168	9685
655.225	10313
655.281	10487
655.337	11237
655.394	14743
655.450	18601
655.506	13318
655.562	13857
655.618	20223
655.675	13023
655.731	9849
655.787	9035
655.843	9803
655.899	9308
655.955	9669
656.011	9379
656.067	9615
656.123	10628
656.179	10462
656.235	10234
656.291	10568
656.347	10593
656.403	10896
656.459	11128
656.515	11297
656.571	11276
656.627	11163
656.683	10340
656.739	10352
656.795	9966
656.850	9835
656.906	11045
656.962	11849
657.018	10146
657.074	10269
657.129	12253
657.185	13663
657.241	19748
657.297	36226
657.352	18433
657.408	9332
657.464	10719
657.519	10251
657.575	8995
657.630	9295
657.686	8572
657.742	8725
657.797	8588
657.853	9024
657.908	10967
657.964	9097
658.019	8413
658.075	8848
658.130	9053
658.186	8370
658.241	7907
658.297	8371
658.352	8288
658.407	9784
658.463	8545
658.518	8524
658.573	8530
658.629	8123
658.684	8037
658.739	8317
658.795	8069
658.850	7497
658.905	7749
658.960	9153
659.016	8397
659.071	8243
659.126	8904
659.181	8720
659.236	11011
659.291	16374
659.346	13490
659.401	10156
659.457	10781
659.512	11221
659.567	14082
659.622	9892
659.677	8772
659.732	8095
659.787	8466
659.842	9093
659.897	9565
659.952	11542
660.007	8256
660.061	7985
660.116	7644
660.171	7787
660.226	7600
660.281	8077
660.336	7253
660.391	8226
660.445	8020
660.500	8015
660.555	8456
660.610	7702
660.664	8901
660.719	8348
660.774	7868
660.828	8644
660.883	8371
660.938	8760
660.992	8324
661.047	8654
661.101	7924
661.156	7655
661.211	8129
661.265	7909
661.320	7338
661.374	7426
661.429	8105
661.483	7546
661.538	8222
661.592	8237
661.647	8391
661.701	9385
661.755	8224
661.810	8645
661.864	8056
661.919	7737
661.973	7998
662.027	7896
662.081	6931
662.136	7799
662.190	8580
662.244	9146
662.299	8058
662.353	7856
662.407	8399
662.461	8126
662.515	8479
662.569	8214
662.624	8658
662.678	7635
662.732	8132
662.786	6981
662.840	8583
662.894	9152
662.948	8589
663.002	7419
663.056	7727
663.110	7556
663.164	7431
663.218	8803
663.272	7890
663.326	8890
663.380	9188
663.434	8742
663.488	8325
663.542	8641
663.595	8019
663.649	7667
663.703	9445
663.757	8284
663.811	7890
663.864	7817
663.918	7810
663.972	7738
664.026	8078
664.079	8199
664.133	8648
664.187	8243
664.240	7943
664.294	7446
664.348	8226
664.401	8403
664.455	8494
664.508	7270
664.562	8279
664.615	7607
664.669	7927
664.722	7862
664.776	7663
664.829	8461
664.883	7708
664.936	7168
664.990	8145
665.043	8987
665.097	8766
665.150	9717
665.203	8467
665.257	9078
665.310	9372
665.363	8480
665.417	9124
665.470	8717
665.523	9075
665.576	8905
665.630	8892
665.683	8433
665.736	8894
665.789	8942
665.842	8371
665.895	8714
665.949	8728
666.002	8131
666.055	8532
666.108	9142
666.161	9340
666.214	8744
666.267	9410
666.320	9575
666.373	10820
666.426	9077
666.479	8511
666.532	9638
666.585	8910
666.638	10516
666.691	10057
666.744	10844
666.796	10459
666.849	9621
666.902	9413
666.955	9169
667.008	8210
667.060	7301
667.113	7412
667.166	8369
667.219	7618
667.271	8243
667.324	8945
667.377	8229
667.430	8630
667.482	8350
667.535	10778
667.587	9632
667.640	9386
667.693	9631
667.745	11443
667.798	16512
667.850	14923
667.903	9401
667.955	8811
668.008	9403
668.060	9173
668.113	10457
668.165	10165
668.218	9751
668.270	9795
668.322	8892
668.375	9843
668.427	9920
668.479	8842
668.532	8810
668.584	8857
668.636	9304
668.689	8577
668.741	8385
668.793	9726
668.845	8784
668.898	8893
668.950	8615
669.002	9042
669.054	8667
669.106	8789
669.158	9839
669.211	9258
669.263	9395
669.315	9590
669.367	10159
669.419	11038
669.471	9780
669.523	10658
669.575	10888
669.627	12798
669.679	10966
669.731	9727
669.783	10107
669.835	10131
669.886	11727
669.938	11222
669.990	10240
670.042	10104
670.094	10586
670.146	11250
670.197	11869
670.249	13590
670.301	16214
670.353	19803
670.404	26257
670.456	36185
670.508	51120
670.560	77929
670.611	124581
670.663	201637
670.715	342079
670.766	784266
670.818	1081055
670.869	339789
670.921	70134
670.972	38233
671.024	27681
671.075	21527
671.127	18136
671.178	15471
671.230	15239
671.281	14520
671.333	13236
671.384	14038
671.436	15583
671.487	18704
671.538	20494
671.590	25847
671.641	35932
671.692	55346
671.744	93859
671.795	166945
671.846	105749
671.897	38973
671.949	21829
672.000	16838
672.051	13319
672.102	12790
672.153	10555
672.204	10213
672.256	10322
672.307	11152
672.358	9807
672.409	9762
672.460	9926
672.511	9241
672.562	8394
672.613	8586
672.664	7841
672.715	8848
672.766	8769
672.817	8590
672.868	8289
672.919	8011
672.970	8568
673.021	8116
673.071	7569
673.122	7937
673.173	8103
673.224	7659
673.275	7528
673.326	8144
673.376	7059
673.427	6719
673.478	7379
673.528	8196
673.579	8139
673.630	7820
673.680	7789
673.731	8414
673.782	7149
673.832	7174
673.883	7506
673.934	7903
673.984	7166
674.035	7674
674.085	7715
674.136	7445
674.186	7833
674.237	8291
674.287	9592
674.338	12484
674.388	8722
674.438	7141
674.489	8425
674.539	8307
674.589	8896
674.640	8567
674.690	8315
674.740	7795
674.791	8154
674.841	8747
674.891	7878
674.942	7525
674.992	6757
675.042	7282
675.092	6811
675.142	7038
675.193	7063
675.243	7343
675.293	7882
675.343	6358
675.393	7540
675.443	7347
675.493	7902
675.543	5881
675.593	7704
675.643	7583
675.693	7050
675.743	7028
675.793	7629
675.843	5855
675.893	6798
675.943	6460
675.993	6744
676.043	6161
676.093	6807
676.142	5608
676.192	6985
676.242	6425
676.292	6486
676.341	6654
676.391	6531
676.441	6863
676.491	5930
676.540	5905
676.590	6381
676.640	5771
676.689	6634
676.739	6195
676.789	6082
676.838	5574
676.888	5927
676.937	5753
676.987	5971
677.037	5075
677.086	5998
677.136	6025
677.185	5726
677.235	6172
677.284	5033
677.333	5326
677.383	6505
677.432	5075
677.482	5013
677.531	4903
677.580	5495
677.630	5716
677.679	5725
677.728	4923
677.778	6086
677.827	5264
677.876	4468
677.925	5294
677.975	4551
678.024	5271
678.073	5762
678.122	5788
678.171	5992
678.220	6534
678.269	6230
678.319	7130
678.368	7061
678.417	7848
678.466	6846
678.515	6066
678.564	6186
678.613	7006
678.662	5933
678.711	6037
678.760	5859
678.809	5566
678.857	5969
678.906	5955
678.955	6232
679.004	6264
679.053	5816
679.102	5635
679.151	6125
679.199	5311
679.248	4710
679.297	4610
679.346	5593
679.394	6226
679.443	5964
679.492	5656
679.540	4215
679.589	5883
679.638	6171
679.686	5402
679.735	5276
679.784	4631
679.832	6668
679.881	6765
679.929	6307
679.978	5216
680.026	4955
680.075	5425
680.123	5302
680.172	5163
680.220	4924
680.268	4737
680.317	5206
680.365	4755
680.414	4517
680.462	5098
680.510	5571
680.559	5037
680.607	4170
680.655	4809
680.703	5004
680.752	4967
680.800	4650
680.848	4222
680.896	4107
680.945	5095
680.993	5693
681.041	5042
681.089	4083
681.137	5094
681.185	4087
681.233	4690
681.258	4365
681.281	4025
681.329	4104
681.377	4240
681.380	4272
681.425	4223
681.473	5534
681.502	5378
681.521	5214
681.569	5269
681.617	5133
681.624	5203
681.665	5403
681.713	5434
681.745	5395
681.761	5320
681.809	5533
681.857	5432
681.867	5419
681.904	5244
681.952	5628
681.989	6053
682.000	6143
682.048	5879
682.096	5725
682.111	5809
682.143	5872
682.191	5745
682.233	6191
682.239	6218
682.286	6052
682.334	6485
682.354	6458
682.382	6357
682.430	5517
682.476	6777
682.477	6776
682.525	6241
682.572	5711
682.598	6015
682.620	6236
682.667	6274
682.715	6070
682.720	6177
682.763	6822
682.810	6767
682.841	6479
682.857	6307
682.905	6691
682.952	6497
682.963	6548
683.000	6561
683.047	6069
683.085	7332
683.095	7653
683.142	6370
683.190	6986
683.206	7040
683.237	7048
683.284	7197
683.328	7412
683.332	7400
683.379	6856
683.426	6931
683.449	7163
683.473	7351
683.521	6880
683.568	7023
683.571	7035
683.615	6944
683.662	6993
683.693	6955
683.709	6890
683.757	7181
683.804	7403
683.814	7315
683.851	6921
683.898	7789
683.936	7759
683.945	7715
683.992	7280
684.039	8087
684.057	8195
684.086	8369
684.133	8220
684.179	8213
684.180	8189
684.227	8206
684.274	8215
684.300	8017
684.321	7858
684.368	9197
684.415	8730
684.422	8815
684.462	9041
684.509	7683
684.543	7983
684.556	8093
684.603	8232
684.649	7971
684.665	8097
684.696	8380
684.743	8028
684.786	8636
684.790	8668
684.837	8352
684.883	9135
684.908	9180
684.930	9256
684.977	9522
685.023	9582
685.029	9640
685.070	9756
685.117	9561
685.150	10042
685.164	10221
685.210	10452
685.257	10339
685.272	10414
685.303	10614
685.350	9926
685.393	10563
685.396	10585
685.443	10363
685.490	10872
685.514	10860
685.536	10889
685.583	11167
685.629	11072
685.636	10996
685.675	10253
685.722	10387
685.757	10464
685.768	10523
685.815	10383
685.861	11151
685.878	11090
685.908	10978
685.954	11350
686.000	11144
686.000	11134
686.047	11139
686.093	11623
686.121	12089
686.139	12508
686.185	12919
686.232	12843
686.242	12991
686.278	12744
686.324	12159
686.363	11646
686.370	11577
686.416	11425
686.463	10917
686.484	10970
686.509	11221
686.555	11162
686.601	11033
686.606	11037
686.647	10898
686.693	11450
686.727	11501
686.739	11523
686.785	11646
686.831	10934
686.848	11112
686.877	11336
686.923	11069
686.969	11031
686.969	11029
687.015	11339
687.061	10817
687.090	11352
687.107	11665
687.153	11320
687.199	11573
687.211	11716
687.245	12118
687.291	11480
687.332	11506
687.336	11517
687.382	12352
687.428	12663
687.453	12502
687.474	12322
687.520	12341
687.565	12472
687.574	12481
687.611	12288
687.657	11666
687.695	11971
687.702	12102
687.748	11961
687.794	12638
687.816	12975
687.839	13379
687.885	13226
687.931	13019
687.937	13065
687.976	12590
688.022	12161
688.058	11881
688.067	11984
688.113	12039
688.158	12716
688.179	12769
688.204	12719
688.249	12330
688.295	12571
688.300	12621
688.340	13005
688.386	13270
688.421	13218
688.431	13268
688.477	12943
688.522	13816
688.542	13728
688.567	13351
688.613	13423
688.658	13248
688.663	13136
688.703	12691
688.749	12977
688.784	13623
688.794	13780
688.839	13556
688.884	13822
688.905	13494
688.930	13057
688.975	13391
689.020	13363
689.026	13302
689.065	13122
689.110	13341
689.146	13514
689.155	13583
689.201	13571
689.246	13530
689.267	13584
689.291	13481
689.336	14057
689.381	12896
689.388	12913
689.426	13338
689.471	13335
689.509	13537
689.516	13616
689.561	13615
689.606	13970
689.630	13881
689.651	13688
689.696	13755
689.741	14050
689.750	14001
689.785	13847
689.830	13851
689.871	13375
689.875	13361
689.920	13530
689.965	13442
689.992	13810
690.010	13993
690.054	13543
690.099	13363
690.112	13361
690.144	13584
690.189	13650
690.233	13576
690.233	13591
690.278	13305
690.323	13247
690.354	13317
690.367	13525
690.412	13370
690.457	13972
690.474	14020
690.501	13907
690.546	13844
690.590	13742
690.595	13699
690.635	13603
690.680	13533
690.716	13371
690.724	13374
690.769	14182
690.813	14164
690.836	14122
690.857	14234
690.902	14437
690.946	15201
690.957	15158
690.991	15201
691.035	16782
691.077	17126
691.080	17244
691.124	19680
691.168	21201
691.198	22441
691.213	22140
691.257	20876
691.301	19744
691.318	19307
691.346	18497
691.390	17221
691.434	15603
691.439	15460
691.478	15360
691.522	14720
691.559	14633
691.567	14747
691.611	15061
691.655	15293
691.680	15497
691.699	15683
691.743	15800
691.787	15924
691.800	15882
691.831	15656
691.875	15953
691.919	15785
691.921	15761
691.964	16081
692.008	16217
692.041	16027
692.052	16044
692.096	16588
692.139	16969
692.162	17051
692.183	16764
692.227	16303
692.271	15874
692.282	15634
692.315	15683
692.359	16091
692.402	16710
692.403	16738
692.447	16426
692.490	15859
692.523	15767
692.534	15915
692.578	16069
692.622	16333
692.643	16389
692.666	16433
692.709	16318
692.753	16267
692.763	16203
692.797	16067
692.840	16416
692.884	16296
692.884	16324
692.928	16179
692.971	15910
693.004	15810
693.015	15971
693.059	16371
693.102	17074
693.124	17142
693.146	16923
693.189	16553
693.233	16307
693.245	16211
693.276	16354
693.320	16741
693.363	16791
693.365	16761
693.407	16664
693.450	16738
693.485	16512
693.493	16626
693.537	17421
693.580	17749
693.605	18235
693.624	18586
693.667	19039
693.710	19462
693.725	19616
693.753	20484
693.797	21954
693.840	23393
693.845	23577
693.883	28073
693.926	32246
693.966	35824
693.970	35550
694.013	32131
694.056	28811
694.086	26494
694.099	25579
694.142	22812
694.185	20017
694.206	18533
694.229	18398
694.272	18001
694.315	17987
694.326	17868
694.358	17804
694.401	17571
694.444	17584
694.446	17535
694.487	17814
694.530	18392
694.566	18666
694.573	18650
694.616	18487
694.659	17997
694.686	17620
694.702	17409
694.745	17192
694.787	16751
694.806	16445
694.830	16406
694.873	16539
694.916	16490
694.926	16456
694.959	16633
695.002	16844
695.044	16986
695.046	16964
695.087	17088
695.130	16688
695.166	16468
695.172	16550
695.215	17062
695.258	17637
695.286	17700
695.301	17626
695.343	17856
695.386	17536
695.406	17405
695.428	17402
695.471	17455
695.514	17399
695.526	17349
695.556	17463
695.599	17843
695.641	18000
695.646	17976
695.684	18386
695.726	18511
695.766	18975
695.769	19005
695.811	18714
695.854	18294
695.886	18122
695.896	18231
695.938	18244
695.981	18286
696.005	18279
696.023	18310
696.065	18397
696.108	18503
696.125	18489
696.150	18696
696.192	18948
696.235	19069
696.245	19069
696.277	19255
696.319	19524
696.361	19667
696.365	19644
696.404	19789
696.446	19952
696.485	19840
696.488	19859
696.530	19601
696.572	19304
696.604	19072
696.614	19133
696.656	19216
696.698	19160
696.724	19181
696.740	19194
696.783	18882
696.825	18911
696.844	18776
696.867	18844
696.909	18902
696.951	18862
696.964	18863
696.992	19057
697.034	19207
697.076	19214
697.083	19213
697.118	19204
697.160	19028
697.202	18766
697.203	18715
697.244	19382
697.286	19932
697.323	20419
697.327	20428
697.369	20005
697.411	19660
697.442	19380
697.453	19481
697.494	19531
697.536	19745
697.562	19788
697.578	19994
697.620	20413
697.661	20795
697.682	20980
697.703	20991
697.744	20799
697.786	20678
697.801	20583
697.828	20950
697.869	21479
697.911	21872
697.921	21939
697.952	21489
697.994	20762
698.035	20111
698.040	19970
698.077	20174
698.118	20434
698.160	20654
698.160	20603
698.201	20298
698.243	19901
698.279	19477
698.284	19560
698.325	19936
698.367	20240
698.399	20445
698.408	20591
698.449	21034
698.491	21437
698.518	21672
698.532	21596
698.573	21179
698.614	20795
698.638	20494
698.656	20434
698.697	20199
698.738	19957
698.757	19794
698.779	20039
698.820	20407
698.862	20788
698.877	20873
698.903	20987
698.944	21086
698.985	21190
698.996	21166
699.026	21531
699.067	21965
699.116	22426
699.235	21887
699.354	21114
699.474	19870
699.593	20545
699.713	22865
699.832	21368
699.951	21713
700.070	22335
700.190	19232
700.309	19953
700.428	19918
700.547	20787
700.667	20356
700.786	20316
700.905	20864
701.024	18993
701.143	19475
701.262	19871
701.381	18930
701.500	18653
701.619	20377
701.738	19534
701.857	18475
701.976	19231
702.095	18264
702.214	18499
702.333	19543
702.452	18801
702.571	19680
702.690	19697
702.809	18272
702.928	18057
703.047	17277
703.165	18062
703.284	16869
703.403	17445
703.522	17251
703.640	19430
703.759	18253
703.878	21068
703.997	22445
704.115	17333
704.234	17340
704.353	16829
704.471	17558
704.590	16951
704.708	16670
704.827	16583
704.946	16046
705.064	17074
705.183	18403
705.301	16195
705.420	20653
705.538	26432
705.656	23024
705.775	20245
705.893	21716
706.012	35483
706.130	36133
706.249	21820
706.367	21088
706.485	20540
706.604	21489
706.722	21539
706.840	20668
706.958	23845
707.077	23529
707.195	20288
707.313	20141
707.431	18602
707.549	18669
707.668	19003
707.786	17760
707.904	18136
708.022	18461
708.140	18498
708.258	18317
708.376	18677
708.494	17834
708.612	18564
708.730	20872
708.848	27085
708.966	23919
709.084	23724
709.202	21937
709.320	21302
709.438	22070
709.556	22739
709.674	21500
709.791	22139
709.909	20726
710.027	22112
710.145	20241
710.263	20869
710.380	21078
710.498	21872
710.616	20812
710.733	21071
710.851	19967
710.969	21497
711.086	20592
711.204	20244
711.322	19271
711.439	20148
711.557	20211
711.674	19969
711.792	19284
711.909	19584
712.027	20138
712.144	20957
712.262	18378
712.379	19900
712.497	21669
712.614	29805
712.732	28232
712.849	23604
712.966	22484
713.084	25554
713.201	27641
713.318	24286
713.436	24937
713.553	23916
713.670	24529
713.787	24858
713.905	25662
714.022	25801
714.139	22465
714.256	25275
714.373	27770
714.490	36690
714.608	62639
714.725	169814
714.842	709650
714.959	399675
715.076	41154
715.193	28758
715.310	24712
715.427	23260
715.544	22305
715.661	22011
715.778	21347
715.895	21153
716.011	22795
716.128	21850
716.245	20341
716.362	21064
716.479	21318
716.596	21961
716.713	19795
716.829	19066
716.946	19881
717.063	19766
717.180	17820
717.296	18625
717.413	17684
717.530	19349
717.646	17556
717.763	17519
717.880	17439
717.996	16719
718.113	17061
718.229	18004
718.346	16423
718.462	16573
718.579	16752
718.695	19604
718.812	26364
718.928	20560
719.045	21818
719.161	17061
719.277	17187
719.394	16523
719.510	16748
719.626	17246
719.743	18302
719.859	22421
719.975	30506
720.092	58322
720.208	237317
720.324	327482
720.440	35222
720.557	20240
720.673	20054
720.789	24912
720.905	29702
721.021	52679
721.137	21038
721.253	16260
721.369	15587
721.486	15999
721.602	18390
721.718	20876
721.834	14423
721.950	14300
722.066	14521
722.181	14454
722.297	13793
722.413	15122
722.529	13590
722.645	14167
722.761	13578
722.877	13555
722.993	13544
723.108	14226
723.224	16072
723.340	13449
723.456	13494
723.571	12976
723.687	13714
723.803	12827
723.918	12584
724.034	12874
724.150	12946
724.265	12562
724.381	13670
724.497	25063
724.612	25551
724.728	12492
724.843	12095
724.959	11914
725.074	14864
725.190	24137
725.305	23078
725.421	13176
725.536	11395
725.651	11235
725.767	11393
725.882	11938
725.997	10770
726.113	11197
726.228	11233
726.343	11286
726.459	11074
726.574	10543
726.689	11759
726.804	10521
726.920	10742
727.035	11700
727.150	10947
727.265	10599
727.380	10424
727.495	11386
727.610	10796
727.725	9399
727.841	11520
727.956	13229
728.071	20362
728.186	15156
728.301	10467
728.416	10438
728.531	10893
728.645	10185
728.760	10261
728.875	11109
728.990	9971
729.105	10873
729.220	10089
729.335	10186
729.449	10431
729.564	9396
729.679	8896
729.794	9312
729.908	9560
730.023	10460
730.138	9681
730.253	9966
730.367	10036
730.482	9438
730.596	9061
730.711	8823
730.826	9726
730.940	10877
731.055	10191
731.169	10351
731.284	9405
731.398	9491
731.513	10460
731.627	11053
731.742	10486
731.856	12058
731.970	12698
732.085	12408
732.199	14322
732.313	20060
732.428	34012
732.542	93715
732.656	255121
732.771	93245
732.885	20702
732.999	15394
733.113	14143
733.227	14168
733.342	13304
733.456	12491
733.570	12574
733.684	12498
733.798	11878
733.912	11599
734.026	11015
734.140	10947
734.254	10959
734.368	11869
734.482	17231
734.596	17279
734.710	11340
734.824	10287
734.938	10260
735.052	11082
735.166	10969
735.280	10954
735.393	10409
735.507	10226
735.621	11418
735.735	13129
735.849	17858
735.962	11323
736.076	9796
736.190	10309
736.303	10651
736.417	13262
736.531	13907
736.644	11220
736.758	10662
736.872	9759
736.985	8614
737.099	9683
737.212	9043
737.326	9979
737.439	9511
737.553	8821
737.666	8946
737.780	8917
737.893	8951
738.007	8980
738.120	8964
738.233	9655
738.347	8632
738.460	9888
738.573	8207
738.687	9370
738.800	9504
738.913	9433
739.026	10504
739.140	9280
739.253	9166
739.366	9001
739.479	8208
739.592	7614
739.705	8478
739.818	8526
739.932	9062
740.045	8685
740.158	8875
740.271	7941
740.384	8012
740.497	8259
740.610	7823
740.723	8245
740.836	7804
740.949	8433
741.062	8846
741.174	9751
741.287	8730
741.400	8523
741.513	8186
741.626	8337
741.739	9253
741.851	7922
741.964	7954
742.077	7893
742.189	8159
742.302	8347
742.415	9048
742.527	7872
742.640	7661
742.753	7514
742.865	6919
742.978	6953
743.090	6926
743.203	7314
743.316	7257
743.428	7243
743.541	6463
743.653	6936
743.766	6185
743.878	7780
743.990	7235
744.103	8702
744.215	7808
744.327	7721
744.440	7101
744.552	9309
744.664	10031
744.777	7140
744.889	7377
745.001	7286
745.113	6090
745.226	7031
745.338	6457
745.450	6433
745.562	7134
745.674	6214
745.786	5476
745.898	7204
746.010	6145
746.122	6072
746.234	6902
746.347	7360
746.459	6899
746.570	6570
746.682	6768
746.794	7075
746.906	6977
747.018	5906
747.130	6450
747.242	6776
747.354	5820
747.466	6898
747.577	6330
747.689	5935
747.801	5557
747.913	5424
748.024	4885
748.136	5580
748.248	6497
748.359	6961
748.471	6177
748.583	5829
748.694	5670
748.806	6758
748.918	7159
749.029	7311
749.141	6444
749.252	6547
749.364	7097
749.475	7251
749.587	10471
749.698	7700
749.809	6456
749.921	5783
750.032	5250
750.144	4842
750.255	4981
750.366	5757
750.478	5204
750.589	5702
750.700	5141
750.811	6209
750.923	6347
751.034	7353
751.145	13553
751.256	9298
751.367	5030
751.479	4962
751.590	5270
751.701	5845
751.812	4850
751.923	4982
752.034	4956
752.145	4704
752.256	4241
752.367	5423
752.478	4938
752.589	5655
752.700	4852
752.811	4846
752.922	5184
753.032	4912
753.143	5966
753.254	5728
753.365	5575
753.476	5907
753.586	5152
753.697	5238
753.808	5257
753.919	5006
754.029	4900
754.140	5256
754.251	4624
754.361	4363
754.472	3971
754.582	5375
754.693	5385
754.804	5042
754.914	4274
755.025	4543
755.135	5339
755.246	4557
755.356	4369
755.466	4865
755.577	4674
755.687	4755
755.798	4997
755.908	4662
756.018	4168
756.129	5106
756.239	4536
756.349	4955
756.460	4954
756.570	5850
756.680	4976
756.790	4742
756.900	5345
757.011	5028
757.121	4340
757.231	4534
757.341	4921
757.451	4855
757.561	4621
757.671	4732
757.781	4528
757.891	5273
758.001	4689
758.111	4963
758.221	5310
758.331	5693
758.441	5601
758.551	5746
758.661	6514
758.771	6484
758.880	5230
758.990	5897
759.100	6097
759.210	5697
759.320	5227
759.429	5673
759.539	5072
759.649	5886
759.758	6097
759.868	6262
759.978	6557
760.087	6828
760.197	6267
760.307	7009
760.416	5863
760.526	5920
760.635	5311
760.745	6603
760.854	6612
760.964	7175
761.073	7355
761.182	7710
761.292	7108
761.401	6810
761.511	6339
761.620	6310
761.729	5528
761.839	5579
761.948	5409
762.057	5708
762.166	5448
762.276	5669
762.385	5465
762.494	6034
762.603	5081
762.712	5497
762.822	6379
762.931	6226
763.040	5546
763.149	5973
763.258	5748
763.367	6047
763.476	6186
763.585	5903
763.694	6619
763.803	5858
763.912	6503
764.021	7035
764.130	6304
764.238	6453
764.347	6913
764.456	7271
764.565	7447
764.674	7033
764.783	7373
764.891	7777
765.000	7994
765.109	9049
765.217	9499
765.326	10686
765.435	12717
765.543	15117
765.652	15858
765.761	18598
765.869	23807
765.978	34254
766.086	52112
766.195	93983
766.303	191830
766.412	473369
766.520	968378
766.629	747805
766.737	256220
766.846	102566
766.954	59542
767.062	40687
767.171	31226
767.279	26535
767.387	18721
767.496	15763
767.604	14382
767.712	12517
767.820	11280
767.928	10827
768.037	10644
768.145	9374
768.253	9808
768.361	9677
768.469	9476
768.577	9647
768.685	9302
768.793	9674
768.901	10787
769.009	11548
769.117	11083
769.225	12933
769.333	17031
769.441	23794
769.549	37936
769.657	73818
769.765	173550
769.873	504070
769.981	768709
770.088	291115
770.196	80245
770.304	41452
770.412	27435
770.519	21353
770.627	17569
770.735	13992
770.842	10830
770.950	10806
771.058	10555
771.165	9743
771.273	9314
771.380	8591
771.488	7931
771.595	8449
771.703	9705
771.810	8742
771.918	8315
772.025	8564
772.133	8472
772.240	8893
772.348	9163
772.455	8418
772.562	8097
772.670	8856
772.777	8650
772.884	8197
772.991	8257
773.099	7772
773.206	7675
773.313	7354
773.420	8027
773.528	7880
773.635	6884
773.742	7069
773.849	6974
773.956	6782
774.063	7134
774.170	7130
774.277	7424
774.384	7408
774.491	7030
774.598	6373
774.705	8045
774.812	7737
774.919	8674
775.026	7562
775.133	6750
775.239	6795
775.346	6891
775.453	6583
775.560	5822
775.667	6190
775.773	6247
775.880	6326
775.987	6536
776.093	6417
776.200	6460
776.307	6867
776.413	6135
776.520	6667
776.627	6260
776.733	5981
776.840	5910
776.946	6548
777.053	7625
777.159	7562
777.266	8645
777.372	7430
777.478	8327
777.585	8668
777.691	5909
777.798	6284
777.904	6447
778.010	5970
778.117	8718
778.223	6615
778.329	5994
778.435	5843
778.542	5840
778.648	5964
778.754	5118
778.860	5588
778.966	5849
779.072	5769
779.178	4659
779.284	5515
779.391	4622
779.497	5143
779.603	6115
779.708	5772
779.815	6761
779.920	10456
780.026	28093
780.132	42672
780.238	8455
780.344	5258
780.450	5608
780.556	5583
780.661	4508
780.767	5886
780.873	5399
780.979	5107
781.085	5595
781.190	5169
781.296	3437
781.402	4132
781.507	5573
781.613	4683
781.719	3203
781.824	4571
781.930	5498
782.035	3637
782.141	5304
782.246	4622
782.352	3849
782.457	4618
782.563	4761
782.668	4374
782.773	4972
782.879	3755
782.984	4684
783.090	6099
783.195	5334
783.300	6278
783.405	4887
783.511	4297
783.616	4480
783.721	4426
783.826	5240
783.932	4651
784.037	4351
784.142	5489
784.247	4037
784.352	4355
784.457	4651
784.562	4221
784.667	3732
784.772	4591
784.877	3723
784.982	3220
785.087	4210
785.192	4289
785.297	3796
785.402	4226
785.507	4651
785.611	3667
785.716	4050
785.821	3952
785.926	3266
786.031	3032
786.135	3609
786.240	4108
786.345	3987
786.450	3672
786.554	3798
786.659	3327
786.763	4264
786.868	4409
786.973	3657
787.077	3855
787.182	3222
787.286	3245
787.391	3987
787.495	3115
787.600	3770
787.704	2489
787.809	3400
787.913	4162
788.017	3556
788.122	3808
788.226	3429
788.330	3179
788.435	3665
788.539	4197
788.643	4255
788.747	3068
788.852	3332
788.956	3117
789.060	2914
789.164	3664
789.268	3152
789.372	3134
789.476	3439
789.580	4045
789.684	3304
789.788	4238
789.892	3395
789.996	3437
790.100	3223
790.204	2725
790.308	3927
790.412	4303
790.516	3247
790.620	3964
790.724	3549
790.828	3629
790.931	2782
791.035	3490
791.139	3559
791.242	4131
791.346	3782
791.450	3395
791.554	3849
791.657	3147
791.761	3397
791.864	3472
791.968	3114
792.072	3856
792.175	2982
792.279	2312
792.382	2155
792.486	2767
792.589	2982
792.693	4047
792.796	3090
792.899	3266
793.003	2782
793.106	2621
793.209	3114
793.313	3502
793.416	1710
793.519	2374
793.623	3056
793.726	5015
793.829	5570
793.932	3118
794.035	2736
794.138	2394
794.242	2807
794.345	3628
794.448	3432
794.551	4991
794.654	7147
794.757	13730
794.860	19926
794.963	5703
795.066	3767
795.169	3567
795.272	2465
795.375	2954
795.477	1970
795.580	2423
795.683	2907
795.786	2471
795.889	2442
795.991	2956
796.094	2812
796.197	2531
796.300	3607
796.402	2677
796.505	2321
796.608	1785
796.710	2690
796.813	2313
796.915	1887
797.018	2505
797.120	2489
797.223	2765
797.326	2799
797.428	2678
797.530	3050
797.633	2582
797.735	2925
797.838	2841
797.940	4649
798.042	3802
798.145	2237
798.247	2310
798.349	1037
798.452	2396
798.554	1963
798.656	2408
798.758	2576
798.860	2959
798.962	2151
799.065	2359
799.167	1062
799.269	2702
799.371	2934
799.473	2765
799.575	3028
799.677	3676
799.779	3601
799.881	3044
799.983	4371
800.085	2388
800.187	1315
800.289	2164
800.390	2738
800.492	2744
800.594	2865
800.696	2130
800.798	1719
800.899	1652
801.001	2726
801.103	1663
801.205	1535
801.306	2704
801.408	2287
801.509	2592
801.611	2415
801.713	1868
801.814	2664
801.916	1407
802.017	1836
802.119	2077
802.220	1247
802.322	1414
802.423	2535
802.525	2516
802.626	2898
802.727	1644
802.829	2167
802.930	2049
803.031	2243
803.133	1286
803.234	1252
803.335	1709
803.436	919
803.538	1817
803.639	1452
803.740	1548
803.841	1765
803.942	2328
804.043	1934
804.144	1657
804.245	1326
804.346	2124
804.447	1798
804.548	2171
804.649	2952
804.750	2394
804.851	1382
804.952	1506
805.053	2041
805.154	1442
805.255	1521
805.355	1760
805.456	1045
805.557	1853
805.658	1339
805.758	828
805.859	1539
805.960	1128
806.061	934
806.161	1365
806.262	924
806.362	1655
806.463	1654
806.564	1429
806.664	2433
806.765	1756
806.865	1230
806.966	2257
807.066	551
807.166	1663
807.267	1573
807.367	989
807.468	1503
807.568	1758
807.668	1355
807.769	1517
807.869	1713
807.969	2108
808.069	1206
808.170	1634
808.270	490
808.370	1053
808.470	898
808.570	2248
808.670	2191
808.770	1280
808.870	610
808.970	1701
809.070	865
809.170	897
809.271	1339
809.370	1344
809.470	1344
809.570	2117
809.670	828
809.770	1120
809.870	1630
809.970	1545
810.070	851
810.169	1200
810.269	593
810.369	2022
810.469	682
810.568	1148
810.668	1136
810.768	759
810.867	622
810.967	1211
811.066	1334
811.166	1707
811.265	1481
811.365	1352
811.464	1126
811.564	1412
811.663	1515
811.763	1467
811.862	1520
811.962	1911
812.061	1083
812.160	1276
812.260	1789
812.359	1867
812.458	2252
812.557	3384
812.657	6780
812.756	7552
812.855	3150
812.954	1664
813.053	1454
813.153	1960
813.252	645
813.351	2066
813.450	1238
813.549	1781
813.648	1407
813.747	2450
813.846	1745
813.945	1408
814.044	1916
814.143	1105
814.242	856
814.341	1623
814.439	728
814.538	2033
814.637	1668
814.736	1794
814.835	1401
814.933	2155
815.032	1942
815.131	2087
815.229	1980
815.328	4023
815.427	4011
815.525	3705
815.624	3300
815.722	2677
815.821	2823
815.919	2611
816.018	3908
816.116	3648
816.215	3704
816.313	4223
816.412	4090
816.510	4136
816.609	4993
816.707	4930
816.805	4453
816.904	4251
817.002	4414
817.100	5440
817.198	5332
817.296	5921
817.395	6231
817.493	7950
817.591	7228
817.689	9548
817.787	11611
817.885	16265
817.983	25576
818.081	48128
818.179	105991
818.277	241772
818.375	520737
818.473	370256
818.571	101546
818.669	41157
818.767	29236
818.865	25893
818.963	26913
819.061	32151
819.158	50690
819.256	90798
819.354	194885
819.452	425886
819.549	754309
819.647	432879
819.745	131337
819.842	55428
819.940	34715
820.038	24962
820.135	18886
820.233	14940
820.330	12280
820.428	10095
820.525	9155
820.623	7668
820.720	7162
820.818	6459
820.915	6598
821.012	6354
821.110	5090
821.207	5588
821.304	4247
821.402	5046
821.499	4772
821.596	5343
821.693	4099
821.791	4659
821.888	4191
821.985	5644
822.082	6814
822.179	5328
822.276	3336
822.373	4080
822.470	3498
822.567	2402
822.664	2897
822.761	2349
822.858	1971
822.955	3293
823.052	2564
823.149	3227
823.246	2831
823.343	3219
823.440	3175
823.536	2415
823.633	2988
823.730	2925
823.827	2293
823.923	2790
824.020	3346
824.117	1988
824.213	2325
824.310	2910
824.407	2222
824.503	2221
824.600	2772
824.696	2147
824.793	2315
824.889	2010
824.986	2437
825.082	2355
825.179	2293
825.275	2089
825.371	2408
825.468	2910
825.564	1280
825.660	1845
825.757	2073
825.853	3071
825.949	2334
826.045	1749
826.142	1599
826.238	2312
826.334	1945
826.430	1571
826.526	1768
826.622	1595
826.718	1838
826.814	1696
826.910	2718
827.006	1583
827.102	1688
827.198	1443
827.294	2279
827.390	1835
827.486	1829
827.582	2214
827.678	1037
827.774	2144
827.869	1589
827.965	2206
828.061	1501
828.157	1737
828.252	1844
828.348	2543
828.444	1888
828.539	909
828.635	1666
828.731	1867
828.826	951
828.922	1621
829.017	1215
829.113	2444
829.208	1560
829.304	2076
829.399	2266
829.495	1810
829.590	1956
829.685	1468
829.781	1788
829.876	1358
829.971	1013
830.066	992
830.162	-27
830.257	823
830.352	2030
830.447	1375
830.543	1291
830.638	776
830.733	2395
830.828	1512
830.923	1698
831.018	1018
831.113	1568
831.208	1386
831.303	1393
831.398	714
831.493	586
831.588	1513
831.683	1106
831.778	1159
831.873	560
831.967	1173
832.062	1173
832.157	1453
832.252	2059
832.346	1627
832.441	2352
832.536	1659
832.631	2116
832.725	5329
832.820	4144
832.914	932
833.009	1392
833.104	1608
833.198	1482
833.293	1869
833.387	1199
833.482	1435
833.576	2158
833.670	1357
833.765	772
833.859	1564
833.954	1947
834.048	1650
834.142	1130
834.237	570
834.331	1082
834.425	1315
834.519	1097
834.613	1439
834.708	829
834.802	998
834.896	403
834.990	1601
835.084	753
835.178	1179
835.272	830
835.366	1224
835.460	1289
835.554	1584
835.648	985
835.742	795
835.836	813
835.930	401
836.024	938
836.117	1337
836.211	1022
836.305	1246
836.399	1636
836.493	1848
836.586	1159
836.680	-112
836.774	1526
836.867	492
836.961	352
837.055	727
837.148	739
837.242	899
837.335	841
837.429	932
837.522	354
837.616	1033
837.709	1335
837.803	2209
837.896	2367
837.989	1125
838.083	1383
838.176	1461
838.269	2565
838.363	3047
838.456	1253
838.549	1443
838.642	2243
838.735	3713
838.829	5112
838.922	1728
839.015	1602
839.108	1258
839.201	743
839.294	408
839.387	218
839.480	466
839.573	633
839.666	1597
839.759	1485
839.852	992
839.945	742
840.038	653
840.131	270
840.223	487
840.316	550
840.409	493
840.502	-20
840.594	1027
840.687	818
840.780	1077
840.873	151
840.965	1120
841.058	559
841.150	893
841.243	2997
841.336	2585
841.428	808
841.521	350
841.613	283
841.706	824
841.798	605
841.890	1320
841.983	799
842.075	945
842.167	274
842.260	488
842.352	1429
842.444	1432
842.537	2769
842.629	3652
842.721	4223
842.813	456
842.905	206
842.997	1203
843.090	1092
843.182	957
843.274	1979
843.366	4015
843.458	7819
843.550	15234
843.642	9412
843.734	2343
843.826	1061
843.918	1994
844.009	1201
844.101	931
844.193	-38
844.285	1610
844.377	326
844.469	1235
844.560	879
844.652	1082
844.744	463
844.835	658
844.927	362
845.019	707
845.110	1174
845.202	1088
845.293	350
845.385	430
845.476	678
845.568	548
845.659	603
845.751	589
845.842	-177
845.934	57
846.025	640
846.116	1185
846.208	188
846.299	942
846.390	579
846.482	1084
846.573	361
846.664	1749
846.755	1284
846.846	2084
846.937	1372
847.029	931
847.120	-244
847.211	27
847.302	93
847.393	15
847.484	354
847.575	91
847.666	-223
847.757	236
847.847	353
847.938	313
848.029	371
848.120	601
848.211	365
848.302	775
848.392	490
848.483	749
848.574	-239
848.664	237
848.755	-210
848.846	236
848.936	229
849.027	586
849.118	410
849.208	702
849.299	1388
849.389	2300
849.480	4231
849.570	7745
849.661	14452
849.751	26709
849.841	40776
849.932	12445
850.022	2555
850.112	857
850.203	568
850.293	-251
850.383	429
850.474	1141
850.564	200
850.654	74
850.744	-527
850.834	510
850.924	600
851.014	153
851.104	362
851.194	-132
851.284	778
851.374	771
851.464	1837
851.554	938
851.644	494
851.734	729
851.824	2079
851.914	1912
852.004	1632
852.094	3334
852.183	3787
852.273	1067
852.363	328
852.452	688
852.542	243
852.632	-36
852.721	1400
852.811	367
852.901	1062
852.990	629
853.080	880
853.169	933
853.259	717
853.348	1138
853.438	1597
853.527	2665
853.617	3153
853.706	5483
853.795	9863
853.885	21913
853.974	46555
854.063	82344
854.152	142889
854.242	212866
854.331	67976
854.420	11468
854.509	4050
854.598	4027
854.687	3214
854.777	2499
854.866	2256
854.955	1950
855.044	1115
855.133	1274
855.222	1072
855.311	393
855.400	734
855.488	387
855.577	-299
855.666	665
855.755	784
855.844	877
855.933	794
856.021	1008
856.110	754
856.199	136
856.288	-776
856.376	272
856.465	-182
856.554	-66
856.642	-180
856.731	1048
856.819	895
856.908	-17
856.996	256
857.085	133
857.173	-274
857.262	-513
857.350	902
857.438	742
857.527	146
857.615	1120
857.703	933
857.792	409
857.880	-133
857.968	-111
858.056	-29
858.145	181
858.233	386
858.321	15
858.409	-58
858.497	89
858.585	130
858.673	163
858.761	-527
858.849	-140
858.937	230
859.025	-101
859.113	-735
859.201	644
859.289	1197
859.377	239
859.465	-691
859.552	163
859.640	-297
859.728	108
859.816	-311
859.903	409
859.991	-424
860.079	247
860.166	823
860.254	-267
860.342	-91
860.429	402
860.517	-211
860.604	428
860.692	48
860.779	-273
860.867	-467
860.954	197
861.042	973
861.129	271
861.216	510
861.304	-545
861.391	489
861.478	291
861.565	-262
861.653	522
861.740	-416
861.827	-973
861.914	220
862.001	-255
862.089	176
862.176	22
862.263	256
862.350	-352
862.437	-480
862.524	200
862.611	258
862.698	297
862.785	-581
862.871	936
862.958	354
863.045	529
863.132	-317
863.219	637
863.306	68
863.392	526
863.479	-625
863.566	-626
863.652	523
863.739	-306
863.826	224
863.912	-294
863.999	149
864.086	309
864.172	689
864.259	327
864.345	520
864.432	1069
864.518	-222
864.604	-316
864.691	317
864.777	511
864.863	899
864.950	1643
865.036	1001
865.122	1470
865.209	2533
865.295	3126
865.381	3538
865.467	3345
865.553	4223
865.639	4134
865.726	6832
865.812	11642
865.898	25271
865.984	43758
866.070	59427
866.156	113923
866.242	115635
866.328	28363
866.414	6653
866.499	3517
866.585	2854
866.671	3206
866.757	1981
866.843	2619
866.928	1992
867.014	2134
867.100	1624
867.186	2066
867.271	2018
867.357	3005
867.442	2147
867.528	2567
867.614	2499
867.699	1822
867.785	1267
867.870	1043
867.956	2225
868.041	1911
868.127	1277
868.212	2117
868.297	2958
868.383	1981
868.468	1601
868.553	2902
868.639	4122
868.724	4260
868.809	7814
868.894	7256
868.979	1641
869.065	1917
869.150	1454
869.235	1544
869.320	1017
869.405	1098
869.490	98
869.575	1792
869.660	1746
869.745	1721
869.830	481
869.915	1939
870.000	946
870.085	1225
870.169	1485
870.254	1575
870.339	988
870.424	385
870.509	1217
870.593	1300
870.678	1116
870.763	811
870.847	829
870.932	714
871.016	526
871.101	2008
871.186	942
871.270	675
871.355	1048
871.439	936
871.523	644
871.608	1802
871.692	35
871.777	558
871.861	863
871.945	1145
872.030	1010
872.114	476
872.198	1431
872.282	941
872.367	354
872.451	1041
872.535	679
872.619	1607
872.703	969
872.787	707
872.871	1667
872.955	640
873.039	644
873.123	984
873.207	1392
873.291	1077
873.375	1035
873.459	331
873.543	305
873.627	1063
873.711	669
873.794	1303
873.878	798
873.962	668
874.045	336
874.129	532
874.137	553
874.213	767
874.245	1083
874.296	1597
874.352	941
874.380	619
874.460	56
874.464	33
874.547	455
874.568	401
874.631	225
874.676	571
874.714	872
874.784	215
874.798	79
874.881	552
874.892	528
874.965	399
874.999	237
875.048	20
875.107	621
875.131	855
875.215	1245
875.215	1245
875.298	935
875.323	881
875.381	779
875.430	733
875.465	697
875.538	599
875.548	592
875.631	437
875.646	311
875.714	-351
875.753	143
875.798	752
875.861	445
875.881	336
875.964	734
875.968	731
876.047	631
876.076	585
876.130	564
876.183	424
876.213	350
876.291	1229
876.296	1284
876.379	1559
876.398	1503
876.462	1303
876.506	693
876.545	175
876.613	1111
876.628	1311
876.711	782
876.721	768
876.794	651
876.828	581
876.877	519
876.935	777
876.960	884
877.043	488
877.043	492
877.125	1496
877.150	1513
877.208	1474
877.258	1498
877.291	1487
877.365	1218
877.374	1196
877.456	1228
877.472	1238
877.539	1312
877.579	1356
877.622	1409
877.687	1528
877.704	1560
877.787	1168
877.794	1189
877.869	1402
877.901	1441
877.952	1366
878.008	1027
878.034	965
878.115	1170
878.117	1175
878.199	1523
878.222	1434
878.282	994
878.329	1103
878.364	1349
878.437	1455
878.447	1421
878.529	879
878.544	861
878.611	982
878.651	681
878.694	354
878.758	1053
878.776	1321
878.858	1266
878.865	1313
878.941	1488
878.972	1238
879.023	991
879.078	742
879.105	625
879.185	1092
879.187	1104
879.269	1450
879.292	1366
879.351	1027
879.399	1218
879.433	1357
879.506	1177
879.516	1193
879.598	1294
879.613	1299
879.680	1136
879.720	1167
879.762	1277
879.827	1107
879.844	1120
879.926	1317
879.933	1361
880.007	1239
880.040	1250
880.089	1613
880.147	2210
880.171	2486
880.253	3122
880.254	3129
880.335	5661
880.360	6493
880.417	9337
880.467	11020
880.499	14852
880.574	28554
880.580	28708
880.662	24570
880.680	22130
880.744	9950
880.787	3938
880.825	2202
880.893	998
880.907	1000
880.989	1174
881.000	1186
881.070	1052
881.106	1159
881.152	1332
881.213	1327
881.233	1313
881.315	1044
881.319	1040
881.396	1262
881.426	1230
881.478	1116
881.532	1006
881.559	974
881.639	1343
881.641	1358
881.722	1575
881.745	1623
881.803	1494
881.852	1216
881.885	1055
881.958	1190
881.966	1219
882.047	1094
882.064	1148
882.129	1243
882.171	1214
882.210	1682
882.277	2640
882.291	2821
882.372	3964
882.383	3994
882.454	2555
882.489	1721
882.535	1209
882.596	1325
882.616	1575
882.697	1702
882.702	1730
882.778	1333
882.808	1091
882.859	724
882.914	342
882.940	360
883.020	886
883.021	893
883.102	1022
883.127	1102
883.183	1253
883.233	1380
883.264	1574
883.339	1927
883.345	1862
883.426	748
883.445	487
883.507	794
883.551	1194
883.587	1117
883.657	772
883.668	865
883.749	1830
883.763	1923
883.830	1875
883.869	1741
883.910	1366
883.975	1144
883.991	1199
884.072	1476
884.081	1460
884.152	1227
884.187	1152
884.233	1133
884.292	1224
884.314	1257
884.394	1153
884.398	1163
884.475	1161
884.504	986
884.555	1105
884.610	1402
884.636	1315
884.716	720
884.716	726
884.797	1244
884.821	1336
884.877	1430
884.927	1583
884.958	1521
885.033	1008
885.038	1005
885.118	1082
885.139	1062
885.199	825
885.244	852
885.279	968
885.350	961
885.359	1003
885.439	1449
885.456	1498
885.520	1094
885.561	934
885.600	1117
885.667	1291
885.680	1273
885.760	1255
885.773	1214
885.840	1453
885.878	1632
885.920	1435
885.984	1095
886.000	1182
886.080	1816
886.089	1855
886.160	1824
886.195	1806
886.240	1668
886.300	1424
886.320	1439
886.400	1533
886.406	1534
886.480	1366
886.511	1262
886.560	1414
886.616	1657
886.640	1934
886.720	2889
886.722	2900
886.800	1592
886.827	1053
886.879	1233
886.932	1557
886.959	1554
887.038	1509
887.039	1521
887.119	1963
887.143	2081
887.198	1928
887.248	1824
887.278	1717
887.354	1327
887.358	1319
887.437	1098
887.459	1041
887.517	1401
887.564	1635
887.596	1520
887.669	1215
887.676	1252
887.755	1707
887.774	1812
887.835	1485
887.880	1183
887.914	1285
887.985	1569
887.994	1550
888.073	1114
888.090	1080
888.153	1833
888.195	2253
888.232	2063
888.300	1679
888.311	1612
888.391	1091
888.405	1007
888.470	1122
888.510	1097
888.549	1358
888.615	1907
888.628	1927
888.708	2022
888.720	2012
888.787	1828
888.825	1739
888.866	1441
888.930	950
888.945	1171
889.024	2349
889.035	2495
889.103	2253
889.140	2141
889.182	2166
889.245	2143
889.261	2053
889.340	1602
889.349	1547
889.419	2524
889.454	2996
889.498	2236
889.559	1192
889.577	1268
889.656	1574
889.664	1604
889.735	1525
889.768	1483
889.814	1836
889.873	2294
889.978	1467
890.083	1896
890.187	1372
890.292	2298
890.397	1407
890.501	1557
890.606	1172
890.710	2405
890.815	1895
890.919	1775
891.024	1662
891.128	2469
891.233	2185
891.337	2543
891.442	1845
891.546	2469
891.650	1219
891.755	1850
891.859	1450
891.963	2205
892.068	2667
892.172	2302
892.276	1495
892.380	2029
892.484	1982
892.589	2991
892.693	2159
892.797	2591
892.901	720
893.005	2502
893.109	1344
893.213	2467
893.317	2327
893.421	1444
893.525	740
893.629	939
893.733	1706
893.837	1896
893.941	1574
894.045	2323
894.148	1237
894.252	3592
894.356	2661
894.460	2756
894.564	1768
894.667	1960
894.771	1238
894.875	1128
894.978	1110
895.082	1855
895.186	1515
895.289	2533
895.393	1133
895.496	2369
895.600	1757
895.703	1400
895.807	1511
895.910	1548
896.014	1410
896.117	2116
896.221	751
896.324	2467
896.427	1567
896.531	1532
896.634	1766
896.737	1801
896.840	658
896.944	2057
897.047	1130
897.150	1710
897.253	1036
897.356	1661
897.460	1495
897.563	1453
897.666	710
897.769	1964
897.872	1582
897.975	1927
898.078	1380
898.181	2721
898.284	1158
898.387	1927
898.490	2405
898.593	1355
898.695	1017
898.798	1309
898.901	1205
899.004	2010
899.107	1308
899.209	1975
899.312	1863
899.415	1410
899.518	1057
899.620	861
899.723	1249
899.826	1937
899.928	3831
900.031	3179
900.133	797
900.236	839
900.338	332
900.441	1925
900.543	975
900.646	1165
900.748	784
900.851	1251
900.953	1348
901.055	1254
901.158	2324
901.260	2361
901.362	639
901.465	954
901.567	1231
901.669	2032
901.771	1088
901.873	1536
901.976	1897
902.078	1458
902.180	2206
902.282	1696
902.384	1386
902.486	1968
902.588	2067
902.690	1436
902.792	1658
902.894	1489
902.996	1197
903.098	2358
903.200	817
903.302	1402
903.404	909
903.505	1823
903.607	851
903.709	2084
903.811	2072
903.913	2011
904.014	1322
904.116	1555
904.218	569
904.319	1626
904.421	2206
904.523	2337
904.624	1972
904.726	1016
904.827	1703
904.929	2356
905.030	1234
905.132	2160
905.233	1277
905.335	1172
905.436	1218
905.537	1659
905.639	1143
905.740	1466
905.841	1263
905.943	1633
906.044	1397
906.145	1532
906.247	568
906.348	1867
906.449	1664
906.550	1410
906.651	1305
906.752	1646
906.854	1370
906.955	1036
907.056	542
907.157	1526
907.258	1290
907.359	1623
907.460	1377
907.561	1680
907.662	1748
907.762	1916
907.863	1167
907.964	2158
908.065	1788
908.166	1576
908.267	1011
908.367	1831
908.468	1455
908.569	2360
908.670	1206
908.770	2058
908.871	1920
908.971	2792
909.072	1068
909.173	1867
909.273	1452
909.374	1146
909.474	1030
909.575	1809
909.675	1293
909.776	1292
909.876	2049
909.977	1157
910.077	1283
910.177	1664
910.278	1470
910.378	1009
910.478	1375
910.579	1949
910.679	1173
910.779	1209
910.879	1815
910.980	1353
911.080	668
911.180	2390
911.280	1756
911.380	1361
911.480	790
911.580	990
911.680	731
911.780	1795
911.880	1697
911.980	1326
912.080	1190
912.180	2094
912.280	1701
912.380	1859
912.480	865
912.580	1258
912.679	801
912.779	1827
912.879	1806
912.979	968
913.078	822
913.178	172
913.278	1817
913.377	809
913.477	863
913.577	1265
913.676	1926
913.776	1772
913.875	1650
913.975	1707
914.074	531
914.174	927
914.273	1015
914.373	1599
914.472	1051
914.572	1409
914.671	1159
914.770	945
914.870	1136
914.969	1284
915.068	1732
915.167	649
915.267	427
915.366	1042
915.465	1623
915.564	1319
915.663	1793
915.763	1166
915.862	699
915.961	937
916.060	309
916.159	1109
916.258	875
916.357	759
916.456	1150
916.555	1012
916.654	702
916.752	1602
916.851	908
916.950	1164
917.049	939
917.148	539
917.247	1165
917.345	1401
917.444	1157
917.543	1362
917.642	626
917.740	1514
917.839	557
917.937	1111
918.036	1400
918.135	1422
918.233	571
918.332	1012
918.430	526
918.529	1018
918.627	523
918.726	1935
918.824	979
918.923	230
919.021	1368
919.119	272
919.218	1105
919.316	1011
919.414	979
919.512	1806
919.611	1816
919.709	1895
919.807	911
919.905	1261
920.003	1071
920.102	1529
920.200	644
920.298	2643
920.396	1060
920.494	1842
920.592	524
920.690	1715
920.788	849
920.886	1635
920.984	1585
921.082	757
921.180	1719
921.277	1415
921.375	1195
921.473	2027
921.571	1415
921.669	2461
921.766	1341
921.864	1930
921.962	1947
922.060	1667
922.157	1994
922.255	2194
922.352	1663
922.450	2244
922.548	1903
922.645	1420
922.743	2529
922.840	3143
922.938	4411
923.035	4863
923.133	3726
923.230	4272
923.327	4246
923.425	4326
923.522	5100
923.619	4732
923.717	4020
923.814	3512
923.911	3342
924.008	4593
924.106	3500
924.203	3672
924.300	3654
924.397	4223
924.494	3842
924.591	4014
924.688	2933
924.786	4113
924.883	4511
924.979	3628
925.077	3779
925.173	3990
925.270	3697
925.367	3285
925.464	4805
925.561	4590
925.658	5462
925.755	4292
925.852	4496
925.948	4036
926.045	4062
926.142	4361
926.239	4090
926.335	4724
926.432	4515
926.529	4477
926.625	4568
926.722	4010
926.818	3014
926.915	5381
927.011	3693
927.108	4155
927.204	3356
927.301	3873
927.397	2725
927.494	3996
927.590	3763
927.687	2935
927.783	2911
927.879	3877
927.976	3100
928.072	2938
928.168	3292
928.264	4021
928.361	3402
928.457	3490
928.553	3120
928.649	3237
928.745	2826
928.841	2513
928.937	3197
929.033	3167
929.129	3199
929.225	3379
929.321	3785
929.417	2596
929.513	2570
929.609	3452
929.705	2406
929.801	3558
929.897	2481
929.993	2528
930.089	3469
930.184	2465
930.280	2651
930.376	3805
930.471	2574
930.567	2882
930.663	2781
930.758	2345
930.854	2416
930.950	3183
931.045	2816
931.141	2537
931.236	3380
931.332	3590
931.427	2078
931.523	2113
931.618	2961
931.714	2417
931.809	2244
931.905	2674
932.000	2643
932.095	2226
932.191	2617
932.286	3962
932.381	2881
932.476	2464
932.572	1923
932.667	2353
932.762	1514
932.857	2527
932.952	2462
933.047	3016
933.142	1679
933.237	1549
933.332	2189
933.427	2594
933.522	2291
933.617	2221
933.712	2053
933.807	1879
933.902	2371
933.997	2441
934.092	2430
934.187	2190
934.282	2227
934.376	2453
934.471	1777
934.566	2585
934.661	1319
934.755	2248
934.850	2326
934.945	3000
935.039	1863
935.134	2066
935.228	1274
935.323	3137
935.417	1759
935.512	1671
935.606	1232
935.701	1674
935.795	2299
935.890	2516
935.984	1894
936.079	1894
936.173	1861
936.267	2265
936.362	2192
936.456	1455
936.550	2611
936.644	2288
936.738	1586
936.833	1909
936.927	2145
937.021	2043
937.115	2127
937.209	2308
937.303	1706
937.397	1862
937.491	1435
937.585	2501
937.679	2391
937.773	2089
937.867	984
937.961	2116
938.055	1922
938.149	2889
938.243	1407
938.337	1573
938.430	1802
938.524	2320
938.618	3218
938.712	2488
938.805	2023
938.899	2516
938.993	1853
939.086	2745
939.180	2240
939.274	3239
939.367	3355
939.461	3097
939.554	1609
939.648	1969
939.741	1549
939.835	1168
939.928	2067
940.022	2351
940.115	1735
940.208	2413
940.302	1887
940.395	2737
940.488	1789
940.582	1525
940.675	2463
940.768	1838
940.861	1707
940.954	2526
941.048	2305
941.141	2056
941.234	1226
941.327	2732
941.420	3798
941.513	3381
941.606	1724
941.699	1934
941.792	2132
941.885	2403
941.978	2220
942.071	2114
942.164	1639
942.257	1834
942.349	1806
942.442	1508
942.535	1410
942.628	1134
942.721	1506
942.813	1415
942.906	1670
942.999	1905
943.091	1799
943.184	1671
943.277	642
943.369	2283
943.462	864
943.554	1345
943.647	994
943.739	1820
943.832	1531
943.924	1461
944.017	1672
944.109	1386
944.201	982
944.294	2152
944.386	508
944.478	1999
944.571	1026
944.663	1062
944.755	1104
944.847	1277
944.940	1422
945.032	1787
945.124	578
945.216	1361
945.308	1563
945.400	2348
945.492	333
945.584	361
945.676	1317
945.768	1970
945.860	1136
945.952	1609
946.044	1700
946.136	1217
946.228	1191
946.320	1298
946.412	1028
946.503	1271
946.595	1636
946.687	2112
946.779	1143
946.870	1095
946.962	1066
947.054	1169
947.145	1995
947.237	1813
947.329	734
947.420	468
947.512	1402
947.603	1284
947.695	589
947.786	809
947.878	275
947.969	1466
948.061	1170
948.152	1891
948.243	586
948.335	806
948.426	149
948.517	1324
948.609	1482
948.700	756
948.791	964
948.882	1707
948.973	506
949.065	560
949.156	870
949.247	729
949.338	1143
949.429	413
949.520	717
949.611	870
949.702	1109
949.793	1271
949.884	1271
949.975	555
950.066	313
950.157	482
950.247	-42
950.338	992
950.429	1170
950.520	1438
950.611	196
950.701	993
950.792	1740
950.883	1075
950.973	108
951.064	612
951.155	709
951.245	1985
951.336	667
951.427	1115
951.517	1434
951.608	1129
951.698	898
951.788	1234
951.879	119
951.969	394
952.060	980
952.150	693
952.240	633
952.331	1171
952.421	1812
952.511	688
952.602	358
952.692	867
952.782	742
952.872	699
952.962	-95
953.052	1266
953.143	590
953.233	1073
953.323	193
953.413	1546
953.503	1373
953.593	1486
953.683	597
953.773	1142
953.863	778
953.953	612
954.042	1308
954.132	1126
954.222	557
954.312	573
954.402	895
954.492	1047
954.581	743
954.671	1861
954.761	428
954.850	1637
954.940	946
955.030	362
955.119	-365
955.209	1228
955.298	411
955.388	488
955.477	710
955.567	1399
955.656	167
955.746	633
955.835	242
955.925	331
956.014	-126
956.103	832
956.193	197
956.282	559
956.371	563
956.461	764
956.550	96
956.639	230
956.728	533
956.817	750
956.906	931
956.995	750
957.085	88
957.174	1670
957.263	713
957.352	907
957.441	-188
957.530	550
957.619	-203
957.708	1061
957.796	613
957.885	1516
957.974	711
958.063	1066
958.152	782
958.241	695
958.329	215
958.418	1115
958.507	53
958.596	1547
958.684	271
958.773	760
958.861	-41
958.950	989
959.039	78
959.127	2041
959.216	607
959.304	105
959.393	528
959.481	1295
959.570	-152
959.658	1239
959.746	209
959.835	1203
959.923	882
960.011	569
960.100	598
960.188	806
960.276	957
960.365	821
960.453	520
960.541	510
960.629	808
960.717	729
960.805	120
960.893	858
960.981	716
961.069	1130
961.158	256
961.245	641
961.333	793
961.421	1480
961.509	689
961.597	607
961.685	806
961.773	1025
961.861	629
961.949	742
962.036	-19
962.124	1372
962.212	158
962.299	893
962.387	98
962.475	861
962.562	-111
962.650	1249
962.738	798
962.825	272
962.913	1335
963.000	1456
963.088	568
963.175	607
963.263	127
963.350	680
963.438	308
963.525	2080
963.612	532
963.700	1590
963.787	3276
963.874	4314
963.962	1104
964.049	-95
964.136	-20
964.223	96
964.310	158
964.398	1363
964.485	764
964.572	807
964.659	907
964.746	923
964.833	980
964.920	70
965.007	802
965.094	698
965.181	95
965.268	452
965.355	187
965.441	421
965.528	12
965.615	762
965.702	578
965.789	1442
965.875	330
965.962	909
966.049	1160
966.136	1394
966.222	-3
966.309	1629
966.395	1076
966.482	591
966.569	946
966.655	117
966.742	455
966.828	311
966.915	307
967.001	214
967.087	337
967.174	780
967.260	523
967.347	1226
967.433	744
967.519	3223
967.605	2425
967.692	930
967.778	220
967.864	489
967.950	208
968.036	1326
968.123	244
968.209	1151
968.295	400
968.381	550
968.467	253
968.553	457
968.639	1088
968.725	631
968.811	1526
968.897	2329
968.983	1220
969.069	339
969.154	637
969.240	1085
969.326	66
969.412	96
969.497	819
969.583	24
969.669	755
969.755	718
969.840	598
969.926	800
970.012	1091
970.097	2265
970.183	1896
970.268	2066
970.354	1290
970.439	291
970.525	1304
970.610	1546
970.696	1035
970.781	489
970.866	-415
970.952	-35
971.037	-352
971.122	-253
971.208	389
971.293	295
971.378	22
971.463	872
971.549	771
971.634	-539
971.719	-6
971.804	437
971.889	661
971.974	809
972.059	700
972.144	129
972.229	-117
972.314	933
972.399	-420
972.484	270
972.569	54
972.654	107
972.739	369
972.824	1218
972.908	619
972.993	256
973.078	-38
973.163	1091
973.247	65
973.332	-675
973.417	774
973.501	585
973.586	366
973.671	412
973.755	590
973.840	927
973.924	1003
974.009	986
974.093	662
974.178	1839
974.262	1063
974.346	169
974.431	1025
974.515	211
974.600	471
974.684	810
974.768	536
974.852	1229
974.937	-18
975.021	906
975.105	-7
975.189	471
975.273	517
975.358	56
975.442	-399
975.526	380
975.610	495
975.694	599
975.778	889
975.862	194
975.946	-1095
976.030	390
976.114	521
976.198	935
976.281	270
976.365	1040
976.449	520
976.533	157
976.617	307
976.700	430
976.784	-508
976.868	186
976.951	798
977.035	461
977.119	209
977.202	453
977.286	-294
977.369	435
977.453	155
977.536	1218
977.620	221
977.703	739
977.787	508
977.870	449
977.953	9
978.037	314
978.120	852
978.203	789
978.287	-107
978.370	905
978.453	261
978.536	580
978.620	67
978.703	65
978.786	734
978.869	1117
978.952	-625
979.035	781
979.118	99
979.201	782
979.284	-252
979.367	800
979.450	330
979.533	676
979.616	38
979.699	214
979.782	40
979.865	-24
979.948	-1029
980.030	154
980.113	-99
980.196	887
980.279	-114
980.361	429
980.444	534
980.526	92
980.609	-500
980.692	546
980.774	890
980.857	491
980.939	614
981.022	-137
981.104	33
981.187	165
981.269	70
981.352	-558
981.434	90
981.516	578
981.599	178
981.681	650
981.763	505
981.846	536
981.928	797
982.010	608
982.092	-238
982.174	158
982.256	-167
982.339	756
982.421	251
982.503	480
982.585	186
982.667	265
982.749	-32
982.831	347
982.913	-198
982.995	143
983.077	133
983.158	1229
983.240	117
983.322	390
983.404	-296
983.486	416
983.568	577
983.649	774
983.731	247
983.813	739
983.894	292
983.976	277
984.058	-427
984.139	816
984.221	-11
984.302	561
984.384	-10
984.465	-156
984.547	716
984.628	-281
984.710	-259
984.791	515
984.872	446
984.954	395
985.035	-28
985.116	203
985.198	-383
985.279	1249
985.360	297
985.441	368
985.522	321
985.604	322
985.685	-706
985.766	252
985.847	706
985.928	36
986.009	-292
986.090	94
986.171	108
986.252	417
986.333	275
986.414	-209
986.495	-201
986.576	-213
986.656	829
986.737	592
986.818	509
986.899	549
986.980	124
987.060	163
987.141	-244
987.222	917
987.302	-96
987.383	333
987.464	100
987.544	1101
987.625	296
987.705	628
987.786	552
987.866	-126
987.947	-286
988.027	1175
988.108	577
988.188	337
988.268	404
988.349	954
988.429	-8
988.509	591
988.589	396
988.670	-60
988.750	482
988.830	-142
988.910	501
988.990	1151
989.070	-371
989.151	623
989.231	-415
989.311	431
989.391	-363
989.471	-308
989.551	-45
989.631	452
989.711	-236
989.791	-299
989.870	119
989.950	163
990.030	-89
990.110	273
990.190	-221
990.269	491
990.349	-116
990.429	272
990.509	287
990.588	-56
990.668	93
990.747	79
990.827	-445
990.907	-466
990.986	172
991.066	786
991.145	-710
991.225	-789
991.304	-442
991.383	75
991.463	-248
991.542	162
991.622	-617
991.701	-319
991.780	-398
991.859	-172
991.939	-314
992.018	-546
992.097	-837
992.176	83
992.256	-522
992.335	-30
992.414	-199
992.493	-630
992.572	-709
992.651	143
992.730	-907
992.809	759
992.888	-454
992.967	-63
993.046	24
993.125	-981
993.203	71
993.282	-288
993.361	-592
993.440	-179
993.519	-1380
993.597	-323
993.676	-379
993.755	274
993.834	-283
993.912	59
993.991	78
994.069	-371
994.148	-638
994.226	-128
994.305	-993
994.384	-264
994.462	-33
994.540	-724
994.619	-657
994.697	422
994.776	-141
994.854	-345
994.932	-920
995.011	440
995.089	-787
995.167	-384
995.245	-636
995.324	-185
995.402	-84
995.480	-466
995.558	-1444
995.636	-644
995.714	-770
995.792	-192
995.870	-83
995.948	-474
996.026	-712
996.104	-742
996.182	27
996.260	-149
996.338	-889
996.416	-239
996.494	-739
996.572	-166
996.649	-986
996.727	-583
996.805	26
996.883	-206
996.960	-734
997.038	-252
997.116	-856
997.193	-388
997.271	-205
997.348	-734
997.426	-908
997.504	190
997.581	631
997.658	-386
997.736	-718
997.813	-951
997.891	-359
997.968	-161
998.046	-849
998.123	-462
998.200	-196
998.277	-1225
998.355	-399
998.432	-212
998.509	-626
998.586	436
998.663	-1031
998.741	-382
998.818	-500
998.895	6
998.972	147
999.049	-622
999.126	-984
999.203	-1023
999.280	-335
999.357	-526
999.434	-590
999.511	-352
999.587	-747
999.664	-683
999.741	-380
999.818	-403
999.895	-557
999.971	262
1000.048	-1055
1000.125	266
1000.202	-867
1000.278	-773
1000.355	-205
1000.431	-466
1000.508	-702
1000.584	-799
1000.661	-1395
1000.738	-730
1000.814	-1582
1000.890	-844
1000.967	-723
1001.043	-136
1001.120	-1145
1001.196	297
1001.272	-843
1001.349	-525
1001.425	-726
1001.501	-474
1001.577	-558
1001.654	-982
1001.730	-898
1001.806	-609
1001.882	-741
1001.958	196
1002.034	-753
1002.110	-483
1002.186	-1721
1002.262	-758
1002.338	-983
1002.414	-950
1002.490	-675
1002.566	17
1002.642	-715
1002.718	-384
1002.794	185
1002.870	-24
1002.945	-419
1003.021	-918
1003.097	-1101
1003.173	-1067
1003.248	-679
1003.324	144
1003.400	-1034
1003.475	-1013
1003.551	-1013
1003.626	-354
1003.702	-220
1003.777	-916
1003.853	-1565
1003.928	-535
1004.004	-1172
1004.079	-609
1004.155	-417
1004.230	-622
1004.305	-885
1004.381	-1105
1004.456	-736
1004.531	-839
1004.607	-1305
1004.682	-663
1004.757	-739
1004.832	-822
1004.907	-1151
1004.982	-251
1005.057	-11
1005.133	-664
1005.208	-1287
1005.283	-738
1005.358	-1051
1005.433	-491
1005.508	-1169
1005.583	-351
1005.657	-836
1005.732	-556
1005.807	-1650
1005.882	-116
1005.957	-844
1006.032	-444
1006.106	-978
1006.181	-868
1006.256	-816
1006.331	-385
1006.405	-1334
1006.480	-1047
1006.554	-1106
1006.629	-454
1006.704	-631
1006.778	-451
1006.853	-594
1006.927	-1593
1007.002	-1481
1007.076	-808
1007.150	-695
1007.225	-1446
1007.299	-901
1007.373	-843
1007.448	-1421
1007.522	-480
1007.596	-650
1007.671	-878
1007.745	-1126
1007.819	-346
1007.893	-746
1007.967	-735
1008.041	-1062
1008.115	-247
1008.190	-1319
1008.264	-582
1008.338	-1206
1008.412	-67
1008.486	-522
1008.560	-630
1008.633	-1016
1008.707	-1620
1008.781	-898
1008.855	-957
1008.929	-1513
1009.003	-1288
1009.076	-1023
1009.150	-1011
1009.224	-1243
1009.298	-19
1009.371	-1256
1009.445	-782
1009.519	-1866
1009.592	-1131
1009.666	-498
1009.739	-649
1009.813	-1298
1009.886	-376
1009.960	-1231
1010.033	-1056
1010.107	-1876
1010.180	-1272
1010.253	-1063
1010.327	-616
1010.400	-1222
1010.473	-403
1010.547	-647
1010.620	-1008
1010.693	-1740
1010.766	-1204
1010.840	-925
1010.913	-702
1010.986	-977
1011.059	-1025
1011.132	-743
1011.205	-79
1011.278	-1082
1011.351	-797
1011.424	-1163
1011.497	-654
1011.570	-892
1011.643	-980
1011.716	-740
1011.789	-161
1011.862	-941
1011.934	-1056
1012.007	-910
1012.080	-512
1012.153	-1133
1012.225	-346
1012.298	-839
1012.371	-1279
1012.443	-1349
1012.516	-594
1012.588	-1615
1012.661	-806
1012.733	-983
1012.806	-242
1012.879	-1639
1012.951	-692
1013.023	-316
1013.096	-1356
1013.168	-1573
1013.241	-423
1013.313	-1706
1013.385	-191
1013.458	-957
1013.530	-492
1013.602	-575
1013.674	-1011
1013.746	-1241
1013.819	-1550
1013.891	-957
1013.963	-1132
1014.035	-1059
1014.107	-385
1014.179	-1338
1014.251	-1323
1014.323	-1321
1014.395	-1129
1014.467	-1111
1014.539	-605
1014.611	-1446
1014.683	353
1014.754	-1501
1014.826	-913
1014.898	-1026
1014.970	-964
1015.042	-758
1015.113	-652
1015.185	-1090
1015.257	-1266
1015.328	-827
1015.400	-865
1015.471	-900
1015.543	-1775
1015.615	-829
1015.686	-1464
1015.757	-1750
1015.829	-1218
1015.901	-1290
1015.972	-913
1016.043	-1872
1016.115	-936
1016.186	-1483
1016.257	-616
1016.328	-1120
1016.400	-205
1016.471	-1509
1016.542	-1171
1016.613	-1509
1016.685	54
1016.756	-1172
1016.827	-300
1016.898	-2209
1016.969	-643
1017.040	-1642
1017.111	-1294
1017.182	-1086
1017.253	-1658
1017.324	-1033
1017.395	-575
1017.466	-1132
1017.537	-1107
1017.608	-1566
1017.678	-906
1017.749	-1484
1017.820	-1158
1017.891	-1598
1017.961	-984
1018.032	-873
1018.103	-1065
1018.173	-1126
1018.244	-909
1018.315	-1725
1018.385	-333
1018.456	-1199
1018.526	-479
1018.597	-1272
1018.667	-871
1018.738	-1543
1018.808	-1826
1018.878	-1307
1018.949	-409
1019.019	-1584
1019.089	-982
1019.160	-953
1019.230	-1788
1019.300	-1131
1019.371	-342
1019.441	-1666
1019.511	-1002
1019.581	-1471
1019.651	-657
1019.721	-1608
1019.791	-1388
1019.861	-818
1019.931	-1045
1020.001	-1888
1020.071	-644
1020.141	-1211
1020.211	-604
1020.281	-1730
1020.351	-1514
1020.421	-1092
1020.491	-1142
1020.560	-926
1020.630	-777
1020.700	-1402
1020.770	-298
1020.839	-1245
1020.909	-799
1020.979	-966
1021.048	-1413
1021.118	-1365
1021.187	-873
1021.257	-1450
1021.326	-807
1021.396	-1565
1021.465	-695
1021.535	-1112
1021.604	-1492
1021.674	-1786
1021.743	-874
1021.812	-1272
1021.882	-1353
1021.951	-1172
1022.020	-1560
1022.089	-1104
1022.159	-911
1022.228	-538
1022.297	-432
1022.366	-1226
1022.435	-1095
1022.504	-1620
1022.573	-790
1022.642	-1098
1022.711	-361
1022.781	-1813
1022.849	-1026
1022.918	-1332
1022.987	-85
1023.056	-913
1023.125	-1105
1023.194	-857
1023.263	-444
1023.331	-464
1023.400	-1693
1023.469	-1066
1023.538	-710
1023.606	-1691
1023.675	-1335
1023.744	-1808
1023.812	-806
1023.881	-1519
1023.949	-675
1024.018	-1812
1024.086	-1118
1024.155	-1395
1024.223	-1449
1024.292	-2063
1024.360	-960
1024.429	-1857
1024.497	-392
1024.565	-1121
1024.634	-1443
1024.702	-1176
1024.770	-605
1024.838	-2027
1024.907	-910
1024.975	-1722
1025.043	-802
1025.111	-1588
1025.179	-1081
1025.247	-1508
1025.315	-907
1025.383	-1054
1025.451	-1387
1025.519	-908
1025.587	-767
1025.655	-1694
1025.723	-967
1025.791	-1057
1025.859	-1619
1025.927	-1844
1025.995	-1529
1026.062	-947
1026.130	-640
1026.198	-1060
1026.266	-334
1026.333	-1620
1026.401	-174
1026.469	-691
1026.536	-1451
1026.604	-1078
1026.671	-1721
1026.739	-1290
1026.806	-551
1026.874	-1367
1026.941	-469
1027.009	-1079
1027.076	-1431
1027.144	-1387
1027.211	-1537
1027.278	-1548
1027.345	-1039
1027.413	-1051
1027.480	-816
1027.547	-1030
1027.614	-450
1027.682	-1093
1027.749	-1763
1027.816	-1400
1027.883	-798
1027.950	-1129
1028.017	-1309
1028.084	-1356
1028.151	-1298
1028.218	-939
1028.285	-685
1028.352	-1148
1028.419	-1441
1028.486	-1330
1028.553	-802
1028.619	-966
1028.686	-974
1028.753	-1447
1028.820	-932
1028.886	-758
1028.953	-1422
1029.020	-1709
1029.086	-1355
1029.153	-677
1029.220	-883
1029.286	-1632
1029.353	-949
1029.419	-1300
1029.486	-783
1029.552	-1280
1029.619	-1387
1029.685	-878
1029.751	-1467
1029.818	-774
1029.884	-534
1029.951	-723
1030.017	-768
1030.083	-1689
1030.149	-1486
1030.216	-1279
1030.282	-1286
1030.348	-928
1030.414	-1459
1030.480	-1723
1030.546	-1693
1030.612	-991
1030.678	-2036
1030.744	-1945
1030.810	-986
1030.876	-943
1030.942	-1329
1031.008	-1173
1031.074	-2021
1031.140	-1539
1031.206	-327
1031.272	-1753
1031.337	-1026
1031.403	-844
1031.469	-820
1031.534	-1279
1031.600	-1057
1031.666	-563
1031.731	-1141
1031.797	-1014
1031.863	-1092
1031.928	-1877
1031.994	-1363
1032.059	-1482
1032.125	-311
1032.190	-1346
1032.256	-1119
1032.321	-1627
1032.386	-1500
1032.452	-589
1032.517	-920
1032.582	-2208
1032.647	-1564
1032.713	-1996
1032.778	-745
1032.843	-1343
1032.908	-1113
1032.974	-793
1033.039	-145
1033.104	-827
1033.169	-1200
1033.234	-873
1033.299	-1057
1033.364	-898
1033.429	-957
1033.494	-186
1033.559	-946
1033.624	-1253
1033.688	-1197
1033.753	-1418
1033.818	-378
1033.883	-1380
1033.948	-557
1034.013	-44
1034.077	133
1034.142	-334
1034.207	-55
1034.271	675
1034.336	1409
1034.400	2652
1034.465	1942
1034.530	1186
1034.594	363
1034.658	-640
1034.723	-212
1034.787	-938
1034.852	-898
1034.916	-1141
1034.981	-1038
1035.045	-1060
1035.109	-1683
1035.173	-724
1035.238	-931
1035.302	-1029
1035.366	-1131
1035.430	-1890
1035.495	-835
1035.559	-1127
1035.623	-989
1035.687	-1236
1035.751	-729
1035.815	-1879
1035.879	-1077
1035.943	-971
1036.007	-1487
1036.071	-648
1036.135	-592
1036.198	-977
1036.262	-876
1036.326	-549
1036.390	-450
1036.454	-700
1036.517	-278
1036.581	-6
1036.645	3
1036.709	-124
1036.772	961
1036.836	65
1036.900	-486
1036.963	-1164
1037.026	-1497
1037.090	-967
1037.154	-1064
1037.217	-1434
1037.280	-1231
1037.344	-1802
1037.407	-924
1037.471	-1393
1037.534	-1253
1037.597	-938
1037.661	-624
1037.724	-1483
1037.787	-1309
1037.850	-986
1037.913	-1727
1037.977	-1606
1038.040	-1049
1038.103	-1096
1038.166	-1009
1038.229	-884
1038.292	-912
1038.355	-1395
1038.418	-1236
1038.481	-1005
1038.544	-1390
1038.607	-1483
1038.670	-26
1038.732	-1254
1038.795	-1226
1038.858	-1124
1038.921	-1303
1038.984	-1140
1039.046	-1361
1039.109	-1182
1039.172	-663
1039.234	-1690
1039.297	-2112
1039.360	-1883
1039.422	-1459
1039.485	-701
1039.547	-1873
1039.610	-923
1039.672	-1506
1039.734	-1570
1039.797	-154
1039.859	-1751
1039.922	-677
1039.984	-1427
1040.046	-1101
1040.109	-1102
1040.171	-1483
1040.233	-1242
1040.295	-1125
1040.358	-1732
1040.420	-1215
1040.482	-1031
1040.544	-1949
1040.606	-1545
1040.668	-668
1040.730	-1618
1040.792	-1283
1040.854	-1127
1040.916	-934
1040.978	-1764
1041.040	-1347
1041.102	-2001
1041.164	-863
1041.225	-1479
1041.287	-1075
1041.349	-1599
1041.411	-810
1041.472	-1591
1041.534	-890
1041.596	-1455
1041.657	-1147
1041.719	-1561
1041.781	-1235
1041.842	-1542
1041.904	-607
1041.965	-1536
1042.027	-1155
1042.088	-1247
1042.150	-1048
1042.211	-1951
1042.272	-678
1042.334	-1961
1042.395	-776
1042.456	-1863
1042.518	-1843
1042.579	-1156
1042.640	-1150
1042.701	-1486
1042.763	-1767
1042.824	-1754
1042.885	-1505
1042.946	-1385
1043.007	-980
1043.068	-2091
1043.129	-1146
1043.190	-1693
1043.251	-1212
1043.312	-1493
1043.373	-1455
1043.434	-1970
1043.495	-1236
1043.556	-1270
1043.616	-1397
1043.677	-2335
1043.738	-1637
1043.799	-1823
1043.859	-1252
1043.920	-1890
1043.981	-1655
1044.041	-1747
1044.102	-1021
1044.162	-1362
1044.223	-1379
1044.284	-1730
1044.344	-1470
1044.405	-1888
1044.465	-1311
1044.525	-1513
1044.586	-1209
1044.646	-1657
1044.707	-1688
1044.767	-1454
1044.827	-1295
1044.887	-1933
1044.948	-975
1045.008	-1051
1045.068	-1567
1045.128	-1662
1045.188	-913
1045.249	-755
1045.309	-1300
1045.369	-1869
1045.429	-939
1045.489	-1315
1045.549	-1038
1045.609	-1845
1045.669	-948
1045.729	-1387
1045.789	-849
1045.848	-1301
1045.908	-1071
1045.968	-1660
1046.028	-461
1046.088	-1597
1046.147	-1174
1046.207	-1099
1046.267	-789
1046.326	-1248
1046.386	-780
1046.446	-1287
1046.505	-750
1046.565	-1476
1046.624	-222
1046.684	-676
1046.743	-748
1046.803	-361
1046.862	223
1046.922	0
