'Start Wavelength	183.907
'End Wavelength	1046.922
'Gate Delay	5.000
'Gate Width (ms)	1.050
'Laser Output Level	0.000
'X Position	0.000
'Y Position	0.000
'Z Position	0.000
'Grid Point Number	1.000
'Shot Number	100.000
183.907	95.000
183.977	340.000
184.047	-284
184.116	398
184.186	-59
184.256	198
184.325	-176
184.395	1300
184.465	24
184.534	773
184.604	49
184.674	354
184.743	-120
184.813	316
184.883	-452
184.952	-104
185.022	907
185.092	719
185.161	292
185.231	435
185.301	74
185.370	631
185.440	114
185.509	523
185.579	152
185.649	994
185.718	-353
185.788	555
185.857	-160
185.927	714
185.996	-244
186.066	310
186.136	153
186.205	-11
186.275	-145
186.344	468
186.414	210
186.483	157
186.553	535
186.622	828
186.692	-594
186.761	199
186.831	93
186.900	76
186.970	-191
187.039	666
187.109	135
187.178	75
187.248	-116
187.317	648
187.387	494
187.456	420
187.526	-157
187.595	271
187.664	-543
187.734	670
187.803	403
187.873	422
187.942	95
188.012	-381
188.081	421
188.150	363
188.220	811
188.289	551
188.358	317
188.428	375
188.497	806
188.567	596
188.636	483
188.705	511
188.775	-142
188.844	452
188.913	-433
188.983	1049
189.052	297
189.121	356
189.191	393
189.260	224
189.329	80
189.399	62
189.468	259
189.537	393
189.606	423
189.676	795
189.745	544
189.814	1095
189.883	328
189.953	37
190.022	1005
190.091	1770
190.161	338
190.230	258
190.299	-536
190.368	320
190.437	630
190.507	66
190.576	225
190.645	406
190.714	44
190.783	840
190.853	-192
190.922	444
190.991	247
191.060	826
191.129	211
191.198	357
191.268	521
191.337	821
191.406	-295
191.475	528
191.544	332
191.613	101
191.682	69
191.752	-168
191.821	528
191.890	583
191.959	118
192.028	245
192.097	749
192.166	887
192.235	88
192.304	504
192.373	206
192.442	99
192.511	45
192.580	341
192.650	739
192.719	495
192.788	315
192.857	781
192.926	-40
192.995	580
193.064	871
193.133	1171
193.202	1097
193.271	553
193.340	777
193.409	719
193.478	906
193.547	1750
193.615	1156
193.684	730
193.753	727
193.822	1036
193.891	229
193.960	796
194.029	755
194.098	-42
194.167	-152
194.236	767
194.305	-164
194.374	1017
194.443	-81
194.512	666
194.580	326
194.649	1328
194.718	267
194.787	363
194.856	90
194.925	653
194.994	355
195.062	722
195.131	247
195.200	1499
195.269	403
195.338	597
195.407	49
195.475	732
195.544	771
195.613	456
195.682	-26
195.751	1659
195.819	882
195.888	578
195.957	1622
196.026	1011
196.094	503
196.163	960
196.232	1025
196.301	950
196.369	488
196.438	611
196.507	666
196.576	597
196.644	-228
196.713	681
196.782	-179
196.850	889
196.919	184
196.988	530
197.056	56
197.125	844
197.194	288
197.262	223
197.331	50
197.400	363
197.468	905
197.537	682
197.606	-73
197.674	1631
197.743	2392
197.812	928
197.880	1974
197.949	857
198.017	1706
198.086	1082
198.155	371
198.223	1688
198.292	1976
198.360	1020
198.429	667
198.497	814
198.566	2471
198.635	1231
198.703	798
198.772	1390
198.840	3752
198.909	1014
198.977	328
199.046	981
199.114	1008
199.183	735
199.251	428
199.320	266
199.388	239
199.457	666
199.525	884
199.594	573
199.662	1098
199.731	-59
199.799	242
199.867	1032
199.936	763
200.004	29
200.073	885
200.141	989
200.210	228
200.278	612
200.346	623
200.415	15
200.483	658
200.552	668
200.620	338
200.688	144
200.757	339
200.825	617
200.893	452
200.962	405
201.030	-176
201.098	-81
201.167	666
201.235	828
201.303	227
201.372	219
201.440	904
201.508	786
201.577	699
201.645	227
201.713	193
201.781	920
201.850	1142
201.918	1578
201.986	130
202.055	562
202.123	367
202.191	1293
202.259	-127
202.327	954
202.396	978
202.464	847
202.532	2325
202.600	3952
202.669	931
202.737	941
202.805	160
202.873	1794
202.941	1130
203.009	370
203.078	508
203.146	886
203.214	659
203.282	536
203.350	15
203.418	1026
203.487	378
203.555	567
203.623	1
203.691	802
203.759	-169
203.827	734
203.895	715
203.963	601
204.031	829
204.099	623
204.168	354
204.236	767
204.304	536
204.372	1080
204.440	1359
204.508	331
204.576	520
204.644	515
204.712	-51
204.780	385
204.848	1039
204.916	198
204.984	254
205.052	865
205.120	33
205.188	593
205.256	340
205.324	680
205.392	299
205.460	1499
205.528	279
205.596	937
205.664	679
205.732	999
205.799	5159
205.867	2103
205.935	938
206.003	-84
206.071	1006
206.139	683
206.207	596
206.275	652
206.343	136
206.411	886
206.478	541
206.546	1013
206.614	559
206.682	1172
206.750	209
206.818	1494
206.885	530
206.953	76
207.021	265
207.089	759
207.157	236
207.225	679
207.292	708
207.360	467
207.428	37
207.496	1132
207.563	721
207.631	1190
207.699	1346
207.767	791
207.834	741
207.902	791
207.970	681
208.038	982
208.105	655
208.173	1100
208.241	1566
208.309	910
208.376	1512
208.444	2424
208.512	459
208.579	936
208.647	1042
208.715	1357
208.782	611
208.850	1212
208.918	380
208.985	1107
209.053	1064
209.120	1412
209.188	340
209.256	-93
209.323	1033
209.391	1446
209.459	710
209.526	1248
209.594	394
209.661	1234
209.729	1368
209.796	186
209.864	688
209.932	337
209.999	837
210.067	1663
210.134	1076
210.202	1113
210.269	1647
210.337	1605
210.404	351
210.472	1153
210.539	970
210.607	1735
210.674	1053
210.742	1162
210.809	1857
210.877	2055
210.944	1251
211.012	1812
211.079	712
211.146	1255
211.214	1052
211.281	2089
211.349	680
211.416	1242
211.484	377
211.551	1442
211.618	975
211.686	731
211.753	1684
211.821	854
211.888	1646
211.955	535
212.023	1435
212.090	1599
212.157	438
212.225	1811
212.292	2682
212.359	8865
212.427	11157
212.494	3236
212.561	2221
212.629	2235
212.696	1484
212.763	1274
212.831	1351
212.898	857
212.965	366
213.032	1601
213.100	2285
213.167	1887
213.234	1942
213.301	1128
213.369	749
213.436	1286
213.503	1699
213.570	2938
213.638	1331
213.705	821
213.772	1407
213.839	1914
213.906	1818
213.973	1779
214.041	1096
214.108	1767
214.175	1508
214.242	1800
214.309	1318
214.376	1128
214.444	1242
214.511	1503
214.578	900
214.645	1502
214.712	1165
214.779	1428
214.846	894
214.913	429
214.980	1643
215.048	2330
215.115	2011
215.182	1759
215.249	2021
215.316	2156
215.383	537
215.450	1839
215.517	1010
215.584	1174
215.651	381
215.718	1331
215.785	2121
215.852	1767
215.919	1848
215.986	1766
216.053	1100
216.120	1239
216.187	1256
216.254	1077
216.321	1170
216.388	1037
216.455	2917
216.522	2595
216.589	2268
216.656	4571
216.722	2275
216.789	2080
216.856	2446
216.923	2197
216.990	1820
217.057	1818
217.124	2362
217.191	2304
217.258	2405
217.324	3509
217.391	3535
217.458	2292
217.525	1375
217.592	1562
217.659	1446
217.725	2408
217.792	3739
217.859	4554
217.926	2634
217.993	1010
218.059	1423
218.126	3151
218.193	2288
218.260	1577
218.327	833
218.393	1141
218.460	652
218.527	741
218.594	1785
218.660	4005
218.727	2053
218.794	1182
218.860	421
218.927	620
218.994	984
219.061	1654
219.127	2406
219.194	3232
219.261	1141
219.327	1069
219.394	634
219.461	1028
219.527	1005
219.594	2574
219.661	1416
219.727	1379
219.794	1038
219.860	1552
219.927	6941
219.994	6693
220.060	3896
220.127	2216
220.193	1792
220.260	2318
220.326	2946
220.393	5500
220.460	4104
220.526	2982
220.593	2156
220.659	1761
220.726	3929
220.792	6594
220.859	5420
220.925	9126
220.992	8944
221.058	11045
221.125	7440
221.191	5005
221.258	1800
221.324	2735
221.391	2742
221.457	4762
221.524	2970
221.590	5514
221.657	8147
221.723	4259
221.789	6106
221.856	3539
221.922	2110
221.989	1589
222.055	1144
222.121	1376
222.188	1533
222.254	1611
222.321	493
222.387	692
222.453	384
222.520	3068
222.586	2852
222.652	588
222.719	4643
222.785	5178
222.851	1575
222.918	2471
222.984	6891
223.050	1783
223.116	1057
223.183	1164
223.249	824
223.315	375
223.382	373
223.448	780
223.514	553
223.580	737
223.647	516
223.713	1180
223.779	817
223.845	1134
223.911	1029
223.978	350
224.044	610
224.110	1473
224.176	1099
224.242	1329
224.309	499
224.375	537
224.441	1153
224.507	585
224.573	846
224.639	1362
224.705	1063
224.772	551
224.838	573
224.904	1087
224.970	426
225.036	1063
225.102	1140
225.168	80
225.234	50
225.300	1173
225.366	507
225.432	914
225.499	712
225.565	751
225.631	841
225.697	972
225.763	1214
225.829	1867
225.895	1568
225.961	3159
226.027	1673
226.093	2126
226.159	1746
226.225	5390
226.291	13713
226.357	11675
226.423	5417
226.489	3951
226.554	1843
226.620	2653
226.686	4281
226.752	4838
226.818	11685
226.884	22143
226.950	9773
227.016	3919
227.082	2299
227.148	3095
227.214	2065
227.279	2453
227.345	1890
227.411	1258
227.477	2314
227.543	5297
227.609	4127
227.674	2030
227.740	525
227.806	1160
227.872	1729
227.938	1699
228.003	2108
228.069	771
228.135	1068
228.201	1440
228.267	886
228.332	1747
228.398	2617
228.464	853
228.530	258
228.595	519
228.661	2108
228.727	3241
228.792	-149
228.858	714
228.924	1343
228.990	1598
229.055	1251
229.121	1411
229.187	1556
229.252	1958
229.318	1837
229.384	3777
229.449	1544
229.515	1435
229.581	849
229.646	1023
229.712	2673
229.777	5858
229.843	2915
229.909	3000
229.974	2877
230.040	2083
230.105	1679
230.171	2586
230.236	3162
230.302	4711
230.368	1894
230.433	2588
230.499	1589
230.564	1695
230.630	1570
230.695	810
230.761	1280
230.826	1962
230.892	2400
230.957	735
231.023	948
231.088	1588
231.154	790
231.219	1720
231.284	3272
231.350	2166
231.415	1697
231.481	609
231.546	911
231.612	1376
231.677	761
231.742	1097
231.808	862
231.873	781
231.939	1602
232.004	3716
232.069	1086
232.135	1760
232.200	1601
232.265	841
232.331	1034
232.396	1312
232.461	100
232.527	1855
232.592	357
232.657	1233
232.723	2934
232.788	919
232.853	935
232.918	1360
232.984	1777
233.049	1510
233.114	2044
233.179	3011
233.245	5934
233.310	2943
233.375	1011
233.440	1179
233.506	-205
233.571	921
233.636	669
233.701	1624
233.766	4432
233.832	2326
233.897	2055
233.962	890
234.027	979
234.092	1076
234.157	1299
234.222	1903
234.288	7006
234.353	10097
234.418	5862
234.483	3198
234.548	2366
234.613	1727
234.678	1888
234.743	5234
234.808	9658
234.873	3676
234.938	954
235.004	1933
235.069	1436
235.134	1058
235.199	939
235.264	1586
235.329	1533
235.394	2205
235.459	2341
235.524	1982
235.589	1469
235.654	1543
235.719	1116
235.784	1071
235.849	3137
235.913	4989
235.978	7215
236.043	4196
236.108	2298
236.173	2275
236.238	801
236.303	1917
236.368	1558
236.433	6086
236.498	4720
236.563	3449
236.627	13516
236.692	26371
236.757	10487
236.822	6515
236.887	4403
236.952	3466
237.017	3192
237.081	3501
237.146	5848
237.211	13235
237.276	38104
237.341	31534
237.405	11338
237.470	7086
237.535	3539
237.600	2729
237.664	2429
237.729	2094
237.794	4541
237.859	6078
237.923	3813
237.988	2538
238.053	4388
238.118	6696
238.182	16270
238.247	6290
238.312	4768
238.376	3638
238.441	1599
238.506	2521
238.570	632
238.635	836
238.700	913
238.764	2605
238.829	8187
238.893	3919
238.958	3013
239.023	1928
239.087	2497
239.152	1212
239.216	1260
239.281	1626
239.346	923
239.410	1370
239.475	4888
239.539	17068
239.604	4354
239.668	2413
239.733	1302
239.797	4411
239.862	9673
239.926	7436
239.991	1378
240.055	2180
240.120	1330
240.184	1366
240.249	731
240.313	1127
240.378	3172
240.442	13152
240.507	6950
240.571	3258
240.635	7482
240.700	4180
240.764	2267
240.829	1307
240.893	1206
240.957	2370
241.022	12374
241.086	9648
241.151	2044
241.215	1548
241.279	5222
241.344	4139
241.408	2405
241.472	1980
241.537	1634
241.601	2143
241.665	1007
241.730	1506
241.794	1432
241.858	1142
241.922	1459
241.987	1317
242.051	1256
242.115	1197
242.179	887
242.244	1320
242.308	1166
242.372	2912
242.436	2411
242.501	1147
242.565	1252
242.629	1651
242.693	1234
242.757	1090
242.822	1519
242.886	1617
242.950	1059
243.014	2159
243.078	2339
243.142	1645
243.206	1851
243.271	2256
243.335	2191
243.399	5026
243.463	32432
243.527	26051
243.591	6432
243.655	3745
243.719	2349
243.783	2984
243.847	6439
243.911	6678
243.975	8292
244.040	2611
244.104	2747
244.168	3305
244.232	5484
244.296	5974
244.360	4581
244.424	2593
244.488	2282
244.552	1861
244.615	942
244.679	1898
244.743	3552
244.807	1754
244.871	1030
244.935	1705
244.999	1022
245.063	1582
245.127	2240
245.191	4493
245.255	2422
245.319	4460
245.383	2580
245.446	2725
245.510	1195
245.574	2756
245.638	1307
245.702	5062
245.766	6262
245.829	3138
245.893	2464
245.957	1693
246.021	2569
246.085	3005
246.149	4455
246.212	15107
246.276	9212
246.340	5040
246.404	2944
246.467	6433
246.531	4629
246.595	2966
246.659	2738
246.722	4327
246.786	3601
246.850	6186
246.913	4201
246.977	2091
247.041	2518
247.104	2282
247.168	4362
247.232	15496
247.295	16484
247.359	5282
247.423	6509
247.486	6850
247.550	3102
247.614	4259
247.677	3771
247.741	2170
247.804	2251
247.868	3884
247.932	15475
247.995	11983
248.059	3241
248.122	3243
248.186	4877
248.249	16115
248.313	38744
248.376	25383
248.440	12930
248.503	4930
248.567	5029
248.630	9455
248.694	10498
248.757	23741
248.821	26795
248.884	13217
248.948	21370
249.011	30421
249.075	40519
249.138	20367
249.202	11058
249.265	8226
249.328	8057
249.392	5721
249.455	3165
249.519	4297
249.582	6410
249.645	9221
249.709	4681
249.772	3601
249.835	3477
249.899	3839
249.962	2846
250.025	4836
250.089	17466
250.152	10177
250.215	5606
250.279	4964
250.342	4259
250.405	3491
250.468	4134
250.532	5414
250.595	14423
250.658	64516
250.721	34594
250.785	13654
250.848	9335
250.911	4831
250.974	5089
251.038	16717
251.101	13612
251.164	8666
251.227	8064
251.290	6993
251.354	23457
251.417	66006
251.480	26913
251.543	60420
251.606	99508
251.669	36765
251.732	21318
251.795	26648
251.859	41160
251.922	53680
251.985	17200
252.048	9475
252.111	7606
252.174	8426
252.237	29593
252.300	31882
252.363	66279
252.426	58607
252.489	19463
252.552	11538
252.615	7901
252.678	16990
252.741	28895
252.804	62497
252.867	65632
252.930	33980
252.993	17124
253.056	11307
253.119	6994
253.182	8619
253.245	10159
253.308	7527
253.371	8360
253.434	7222
253.497	11886
253.559	16631
253.622	9884
253.685	16799
253.748	8609
253.811	6421
253.874	8301
253.937	6292
254.000	5946
254.062	19426
254.125	13257
254.188	16371
254.251	7702
254.314	6408
254.376	14771
254.439	10810
254.502	8090
254.565	20882
254.628	15690
254.690	8776
254.753	4287
254.816	5728
254.878	7399
254.941	18244
255.004	6914
255.067	5548
255.129	4090
255.192	3376
255.255	3544
255.317	2552
255.380	861
255.443	2576
255.505	1677
255.568	1660
255.631	1726
255.693	2474
255.756	966
255.819	1857
255.881	1220
255.944	1476
256.006	964
256.069	1523
256.132	1273
256.194	6573
256.257	8357
256.319	7114
256.382	4310
256.444	3386
256.507	1328
256.569	875
256.632	2668
256.694	5527
256.757	27413
256.819	25251
256.882	7719
256.944	4618
257.007	3990
257.069	4778
257.132	1696
257.194	1992
257.257	2062
257.319	1925
257.381	3615
257.444	21556
257.506	54987
257.569	29936
257.631	17546
257.693	7762
257.756	5157
257.818	3260
257.880	2046
257.943	2918
258.005	1956
258.067	1600
258.130	1912
258.192	5646
258.254	5776
258.317	2864
258.379	4995
258.441	14260
258.503	6668
258.566	22351
258.628	7866
258.690	2888
258.753	5095
258.815	5979
258.877	2256
258.939	2518
259.001	1618
259.064	2056
259.126	4401
259.188	3229
259.250	2832
259.312	7020
259.375	11064
259.437	3527
259.499	2694
259.561	2507
259.623	2350
259.685	1525
259.747	4099
259.809	23259
259.872	22542
259.934	44209
259.996	14170
260.058	4297
260.120	2744
260.182	1544
260.244	1824
260.306	1900
260.368	1639
260.430	2797
260.492	7001
260.554	9728
260.616	7956
260.678	29688
260.740	11549
260.802	4424
260.864	3342
260.926	1926
260.988	2939
261.050	4420
261.112	12910
261.174	29184
261.236	8653
261.298	4965
261.359	17013
261.421	7390
261.483	3099
261.545	2221
261.607	1197
261.669	2291
261.731	14143
261.793	12968
261.854	5527
261.916	3526
261.978	2649
262.040	2402
262.102	3203
262.164	5607
262.225	2012
262.287	4982
262.349	9389
262.411	3035
262.472	3128
262.534	14640
262.596	7675
262.658	2806
262.719	1841
262.781	9554
262.843	10232
262.904	3637
262.966	3959
263.028	7957
263.090	58056
263.151	40086
263.213	13216
263.275	6316
263.336	3605
263.398	2192
263.459	1265
263.521	3957
263.583	8068
263.644	2408
263.706	1564
263.767	1066
263.829	1198
263.891	824
263.952	900
264.014	813
264.075	4797
264.137	4746
264.198	1758
264.260	1575
264.321	2675
264.383	10644
264.444	6071
264.506	2614
264.567	1691
264.629	8047
264.690	5201
264.752	1889
264.813	1623
264.875	967
264.936	1472
264.998	690
265.059	577
265.120	1513
265.182	7116
265.243	22713
265.305	6224
265.366	2646
265.427	1647
265.489	1491
265.550	1241
265.611	1993
265.673	1085
265.734	1229
265.795	-418
265.857	1772
265.918	1411
265.979	14365
266.040	35769
266.102	9897
266.163	4654
266.224	3625
266.286	1513
266.347	1656
266.408	2338
266.469	1390
266.530	1282
266.592	1871
266.653	7781
266.714	5141
266.775	1342
266.836	1170
266.898	991
266.959	3289
267.020	1230
267.081	1221
267.142	1807
267.203	1756
267.264	786
267.326	1724
267.387	821
267.448	725
267.509	1307
267.570	1137
267.631	348
267.692	1143
267.753	731
267.814	638
267.875	10234
267.936	6058
267.997	3787
268.058	2810
268.119	1623
268.180	2204
268.241	876
268.302	570
268.363	1070
268.424	1805
268.485	658
268.546	1477
268.607	251
268.668	1456
268.729	823
268.790	964
268.851	1777
268.912	9835
268.972	4679
269.033	1645
269.094	624
269.155	1123
269.216	743
269.277	1118
269.338	1159
269.398	1163
269.459	1763
269.520	3580
269.581	4268
269.642	3384
269.702	1914
269.763	2134
269.824	1678
269.885	3668
269.945	2260
270.006	1107
270.067	830
270.128	444
270.188	-199
270.249	1213
270.310	161
270.370	2219
270.431	309
270.492	1099
270.553	2752
270.613	8323
270.674	7174
270.734	2067
270.795	1977
270.856	3406
270.916	759
270.977	1784
271.038	2382
271.098	2381
271.159	5206
271.219	1929
271.280	1198
271.340	1002
271.401	4594
271.462	5095
271.522	2518
271.583	1802
271.643	1083
271.704	1561
271.764	2596
271.825	14209
271.885	43543
271.946	18827
272.006	8943
272.066	31610
272.127	15928
272.187	5235
272.248	3148
272.308	12400
272.369	19238
272.429	6639
272.489	8702
272.550	5222
272.610	7213
272.671	3093
272.731	8091
272.791	6640
272.852	3742
272.912	2911
272.972	1550
273.033	3304
273.093	4486
273.153	2707
273.214	1754
273.274	4796
273.334	30142
273.394	18242
273.455	7543
273.515	21827
273.575	16244
273.635	8311
273.696	25537
273.756	20850
273.816	6708
273.876	6445
273.936	24392
273.997	11726
274.057	4025
274.117	3762
274.177	17413
274.237	41341
274.297	19998
274.358	20141
274.418	23007
274.478	9250
274.538	3438
274.598	10101
274.658	25783
274.718	15365
274.778	4267
274.838	4474
274.898	24942
274.958	30621
275.018	29844
275.078	10079
275.138	4587
275.198	3263
275.258	2766
275.318	4543
275.378	7966
275.438	5447
275.498	6455
275.558	29573
275.618	29364
275.678	12191
275.738	10384
275.798	5631
275.858	2669
275.918	2421
275.978	2715
276.038	1846
276.098	2276
276.157	14434
276.217	12791
276.277	6071
276.337	4060
276.397	3534
276.457	2580
276.517	2068
276.576	2295
276.636	2869
276.696	6557
276.756	11392
276.815	3792
276.875	3822
276.935	4005
276.995	1581
277.055	1223
277.114	2216
277.174	10390
277.234	11344
277.293	3840
277.353	3270
277.413	2317
277.472	3290
277.532	1859
277.592	6198
277.651	34500
277.711	15232
277.771	18153
277.830	41165
277.890	14679
277.950	47438
278.009	41397
278.069	14096
278.128	35365
278.188	17160
278.248	21743
278.307	35378
278.367	8701
278.426	4972
278.486	2989
278.545	2124
278.605	2610
278.664	2017
278.724	3595
278.783	27671
278.843	18421
278.902	5294
278.962	4834
279.021	5376
279.081	8529
279.140	6136
279.199	4721
279.259	5286
279.318	5652
279.378	8650
279.437	27499
279.496	102786
279.556	183827
279.615	59088
279.675	23687
279.734	19974
279.793	38841
279.853	26448
279.912	9330
279.971	6967
280.031	7785
280.090	25242
280.149	17572
280.208	50768
280.268	147733
280.327	49128
280.386	19391
280.445	19477
280.505	8903
280.564	6870
280.623	5778
280.682	15026
280.742	7991
280.801	3161
280.860	2253
280.919	3238
280.978	1877
281.037	1998
281.097	2003
281.156	2728
281.215	2036
281.274	9041
281.333	23571
281.392	5961
281.451	2043
281.510	2336
281.569	2313
281.628	1149
281.688	1449
281.747	3211
281.806	2069
281.865	1872
281.924	1677
281.983	1532
282.042	913
282.101	1352
282.160	1911
282.219	1778
282.278	5554
282.337	10024
282.396	5115
282.454	4038
282.513	8782
282.572	13771
282.631	3907
282.690	2108
282.749	2714
282.808	2668
282.867	2740
282.926	1535
282.985	1457
283.043	687
283.102	1244
283.161	2834
283.220	17060
283.279	11284
283.338	3473
283.396	2930
283.455	2463
283.514	4680
283.573	3728
283.631	3040
283.690	1965
283.749	3039
283.808	7916
283.866	3629
283.925	2281
283.984	2645
284.043	4627
284.101	2686
284.160	2666
284.219	3862
284.277	3635
284.336	12722
284.395	23965
284.453	8610
284.512	6835
284.570	8409
284.629	7525
284.688	7139
284.746	8179
284.805	10240
284.863	13678
284.922	14646
284.981	19921
285.039	30934
285.098	66256
285.156	167547
285.215	205300
285.273	152268
285.332	81192
285.390	48360
285.449	30337
285.507	20154
285.566	15099
285.624	10777
285.683	8991
285.741	7082
285.799	5713
285.858	6379
285.916	4609
285.975	3811
286.033	3234
286.091	3032
286.150	2835
286.208	3516
286.267	3071
286.325	4305
286.383	5762
286.442	3283
286.500	2534
286.558	1787
286.616	1555
286.675	2911
286.733	2133
286.791	2275
286.850	3429
286.908	7479
286.966	4819
287.024	2402
287.083	1278
287.141	1495
287.199	3103
287.257	3297
287.315	2165
287.374	6194
287.432	7332
287.490	3229
287.548	2715
287.606	1171
287.664	1558
287.723	4881
287.781	2599
287.839	3040
287.897	3176
287.955	3068
288.013	5160
288.071	25413
288.129	154846
288.187	133049
288.245	37250
288.303	16904
288.361	11253
288.419	6993
288.477	3979
288.535	2820
288.593	2338
288.651	1814
288.709	1081
288.767	1199
288.825	749
288.883	1638
288.941	1591
288.999	789
289.057	1162
289.115	1389
289.173	1017
289.231	1436
289.289	854
289.346	1548
289.404	2570
289.462	4638
289.520	2475
289.578	677
289.636	1484
289.694	808
289.751	1111
289.809	1308
289.867	1015
289.925	2488
289.983	1231
290.040	1278
290.098	853
290.156	1686
290.214	1064
290.271	261
290.329	576
290.387	1151
290.444	-546
290.502	-187
290.560	377
290.617	676
290.675	516
290.733	1703
290.790	785
290.848	920
290.906	1000
290.963	1102
291.021	968
291.078	595
291.136	2139
291.194	15260
291.251	8849
291.309	1134
291.366	383
291.424	616
291.481	728
291.539	1521
291.596	418
291.654	396
291.711	191
291.769	3132
291.826	3398
291.884	1335
291.941	793
291.999	1047
292.056	2069
292.114	859
292.171	269
292.228	1030
292.286	2832
292.343	5120
292.401	3569
292.458	1557
292.515	1696
292.573	2456
292.630	2113
292.687	2258
292.745	970
292.802	3859
292.859	13600
292.917	15897
292.974	4400
293.031	2031
293.089	1378
293.146	1333
293.203	867
293.260	1648
293.318	2150
293.375	1895
293.432	1360
293.489	622
293.546	991
293.604	4782
293.661	27589
293.718	23792
293.775	8702
293.832	5648
293.889	4314
293.947	4209
294.004	1470
294.061	3705
294.118	12674
294.175	16944
294.232	10225
294.289	4014
294.346	2459
294.403	2788
294.460	1624
294.517	1743
294.574	1237
294.631	1609
294.688	2206
294.745	21417
294.802	37554
294.859	17591
294.916	8013
294.973	5308
295.030	4852
295.087	2170
295.144	2258
295.201	1622
295.258	856
295.315	5408
295.372	25639
295.429	16215
295.486	5282
295.542	5547
295.599	16685
295.656	12684
295.713	22828
295.770	14547
295.827	4731
295.883	3506
295.940	4081
295.997	6177
296.054	3575
296.111	3474
296.167	1450
296.224	1455
296.281	1265
296.338	806
296.394	1594
296.451	4003
296.508	18212
296.564	12519
296.621	16569
296.678	44452
296.734	22598
296.791	8361
296.848	5388
296.904	10495
296.961	22947
297.018	29427
297.074	10099
297.131	4555
297.187	3828
297.244	14611
297.301	54895
297.357	31042
297.414	10077
297.470	5287
297.527	3361
297.583	2949
297.640	2559
297.696	1833
297.753	1680
297.809	1228
297.866	500
297.922	897
297.979	1261
298.035	2371
298.092	9770
298.148	19434
298.204	7690
298.261	6010
298.317	26918
298.374	29549
298.430	11691
298.486	6839
298.543	3902
298.599	4745
298.656	5754
298.712	17093
298.768	22623
298.824	8305
298.881	2992
298.937	2857
298.993	3751
299.050	2782
299.106	1731
299.162	2658
299.218	1341
299.275	1514
299.331	2837
299.387	19654
299.443	39099
299.500	18473
299.556	7858
299.612	5404
299.668	4619
299.724	5272
299.780	3567
299.837	3033
299.893	13199
299.949	32260
300.005	20782
300.061	37778
300.117	31389
300.173	11877
300.229	8326
300.285	12171
300.341	7780
300.397	4024
300.453	1843
300.510	2562
300.566	913
300.622	5506
300.678	19743
300.734	23133
300.790	31856
300.845	21794
300.901	21738
300.957	24425
301.013	10337
301.069	5909
301.125	4937
301.181	4844
301.237	2747
301.293	1926
301.349	811
301.405	1230
301.461	2618
301.516	2937
301.572	4465
301.628	5607
301.684	6472
301.740	15849
301.796	11175
301.851	13868
301.907	16505
301.963	17663
302.019	67178
302.074	97684
302.130	55569
302.186	22634
302.242	10715
302.297	8106
302.353	13740
302.409	17518
302.464	9900
302.520	20876
302.576	37723
302.631	26400
302.687	10766
302.743	5873
302.798	3223
302.854	2220
302.910	3391
302.965	6067
303.021	7756
303.076	8125
303.132	12840
303.187	9085
303.243	3696
303.299	2688
303.354	2128
303.410	1879
303.465	1585
303.521	1804
303.576	1756
303.632	4108
303.687	20506
303.743	30615
303.798	12925
303.853	6001
303.909	3418
303.964	4391
304.020	8471
304.075	6891
304.130	11434
304.186	18033
304.241	14704
304.297	9055
304.352	4609
304.358	4476
304.407	3389
304.449	3457
304.463	3484
304.518	3048
304.539	2880
304.573	2615
304.629	3059
304.630	3257
304.684	12186
304.720	25875
304.739	32984
304.794	20633
304.811	17662
304.850	9681
304.902	4281
304.905	3980
304.960	3953
304.992	3666
305.015	3430
305.071	3303
305.083	2971
305.126	1783
305.173	1109
305.181	1006
305.236	1529
305.264	1754
305.292	1976
305.347	3054
305.354	3076
305.402	3269
305.445	3265
305.457	3243
305.512	4205
305.535	3940
305.567	3565
305.622	3890
305.626	4611
305.678	17310
305.716	29066
305.733	34030
305.788	23026
305.807	24014
305.843	24497
305.897	32255
305.898	32374
305.953	20278
305.988	14835
306.008	11005
306.063	6473
306.078	5330
306.118	3804
306.168	2396
306.173	2276
306.228	1304
306.259	1512
306.283	1689
306.338	2026
306.349	1929
306.393	1752
306.440	2250
306.448	2294
306.503	1782
306.530	2857
306.558	4566
306.613	10337
306.620	11523
306.668	20244
306.711	25745
306.723	26487
306.778	16160
306.801	13630
306.833	9253
306.888	4535
306.892	4255
306.943	3050
306.982	2474
306.997	2339
307.052	1898
307.072	1891
307.107	2048
307.162	3529
307.163	3537
307.217	4601
307.253	5936
307.272	6549
307.327	5820
307.343	5677
307.381	4580
307.434	4466
307.436	4626
307.491	13791
307.524	19319
307.546	22442
307.600	19200
307.614	18137
307.655	10320
307.704	4858
307.710	4759
307.765	5284
307.795	7429
307.819	10125
307.874	12951
307.885	12806
307.929	8538
307.975	6835
307.984	7071
308.038	9639
308.065	13385
308.093	21649
308.148	60596
308.156	66800
308.202	118027
308.246	125714
308.257	115094
308.312	60456
308.336	41920
308.366	34616
308.421	20329
308.426	19385
308.475	12981
308.517	7953
308.530	7219
308.585	6188
308.607	5758
308.639	5496
308.694	6190
308.697	6411
308.748	12615
308.787	15857
308.803	16133
308.857	12637
308.877	12195
308.912	10279
308.967	8404
308.967	8392
309.021	12561
309.058	16983
309.076	21368
309.130	38071
309.148	47301
309.185	82725
309.238	150459
309.239	151787
309.293	184851
309.328	189398
309.348	155425
309.402	69753
309.418	47346
309.457	33132
309.508	18567
309.511	18328
309.566	17537
309.598	19242
309.620	24324
309.674	40191
309.688	42783
309.729	41908
309.778	37311
309.783	36003
309.837	21882
309.868	15368
309.892	16297
309.946	23038
309.959	24724
310.001	36138
310.049	43308
310.055	41654
310.109	25533
310.139	17552
310.163	13789
310.218	7069
310.229	5816
310.272	4386
310.319	3377
310.326	3344
310.381	2837
310.409	2828
310.435	2629
310.489	1981
310.499	1952
310.543	2428
310.589	2613
310.598	2594
310.652	2732
310.679	2733
310.706	2493
310.760	2013
310.769	1934
310.814	1752
310.859	1665
310.868	1665
310.923	1501
310.948	1536
310.977	1763
311.031	2192
311.038	2239
311.085	2343
311.128	2375
311.139	2323
311.193	2123
311.218	2056
311.247	2150
311.301	2274
311.308	2286
311.356	1860
311.398	1457
311.410	1461
311.464	1511
311.488	1510
311.518	1440
311.572	1421
311.578	1427
311.626	2060
311.668	2538
311.680	2639
311.734	3070
311.758	3277
311.788	3304
311.842	3326
311.847	3330
311.896	3442
311.937	3556
311.950	3646
312.004	3996
312.027	4151
312.058	3537
312.112	2450
312.117	2341
312.165	2068
312.207	1841
312.297	2183
312.386	2269
312.476	2131
312.566	5585
312.656	3737
312.745	1223
312.835	1608
312.925	2022
313.015	1680
313.104	1776
313.194	1861
313.284	1154
313.374	2338
313.463	3789
313.553	1076
313.643	1221
313.732	958
313.822	1245
313.912	2622
314.001	1449
314.091	2554
314.180	2379
314.270	2653
314.360	3814
314.449	3287
314.539	1865
314.628	1163
314.718	1917
314.808	2242
314.897	2302
314.987	1520
315.076	2299
315.166	3866
315.255	3035
315.345	2867
315.434	3325
315.524	2293
315.613	3198
315.703	4962
315.792	6536
315.881	17630
315.971	12824
316.060	5560
316.150	8108
316.239	9497
316.328	5351
316.418	1927
316.507	1559
316.597	2016
316.686	3257
316.775	3714
316.865	9382
316.954	3760
317.043	1114
317.133	1715
317.222	1552
317.311	1323
317.400	2160
317.490	2721
317.579	3946
317.668	2552
317.757	4504
317.847	10405
317.936	34467
318.025	24123
318.114	8561
318.203	5548
318.293	4016
318.382	9058
318.471	9247
318.560	10718
318.649	18061
318.738	8238
318.828	2443
318.917	4024
319.006	3517
319.095	9460
319.184	23315
319.273	22160
319.362	12892
319.451	2878
319.540	2358
319.629	5903
319.718	14540
319.807	4298
319.896	9374
319.985	31668
320.074	22167
320.163	4390
320.252	5154
320.341	3448
320.430	3310
320.519	5411
320.608	4972
320.697	2116
320.786	2334
320.875	3508
320.964	5210
321.053	8462
321.142	12730
321.230	15586
321.319	7959
321.408	20366
321.497	13435
321.586	7254
321.675	8865
321.764	10435
321.852	6286
321.941	10497
322.030	12186
322.119	6243
322.207	22167
322.296	18012
322.385	6801
322.474	7852
322.562	25295
322.651	22345
322.740	9160
322.829	15869
322.917	12381
323.006	9259
323.095	6703
323.183	4273
323.272	6030
323.361	11907
323.449	39402
323.538	22980
323.626	21538
323.715	26553
323.804	5889
323.892	20011
323.981	22378
324.069	4376
324.158	9759
324.246	17703
324.335	5157
324.424	8496
324.512	4990
324.601	9845
324.689	55959
324.778	148693
324.866	35263
324.954	6276
325.043	2779
325.131	5213
325.220	9604
325.308	11857
325.397	8322
325.485	7879
325.574	2184
325.662	2166
325.750	3086
325.839	1600
325.927	720
326.015	2148
326.104	2971
326.192	6432
326.280	2188
326.369	1852
326.457	3504
326.545	5591
326.634	4640
326.722	1626
326.810	1699
326.898	1600
326.987	2189
327.075	5809
327.163	7889
327.251	7359
327.340	51186
327.428	112120
327.516	14774
327.604	2681
327.692	2382
327.781	1997
327.869	4179
327.957	3473
328.045	4132
328.133	1899
328.221	1871
328.309	2278
328.397	2031
328.485	1678
328.574	3447
328.662	13295
328.750	11307
328.838	3149
328.926	2254
329.014	1003
329.102	1768
329.190	5723
329.278	6138
329.366	1232
329.454	1250
329.542	1242
329.630	945
329.718	904
329.806	2079
329.893	1710
329.981	1998
330.069	1709
330.157	10677
330.245	47187
330.333	38381
330.421	6090
330.509	3186
330.597	15355
330.684	17378
330.772	2971
330.860	3152
330.948	4613
331.036	2372
331.123	1396
331.211	1368
331.299	1355
331.387	2198
331.475	7961
331.562	2880
331.650	1471
331.738	1634
331.825	2576
331.913	961
332.001	1071
332.089	974
332.176	3568
332.264	9053
332.352	13342
332.439	2826
332.527	2189
332.614	1475
332.702	2262
332.790	1158
332.877	4078
332.965	12610
333.052	6849
333.140	2880
333.228	11980
333.315	5023
333.403	1354
333.490	4710
333.578	7760
333.665	15088
333.753	11171
333.840	1983
333.928	1398
334.015	5247
334.103	10056
334.190	33199
334.278	17329
334.365	3745
334.452	3477
334.540	1528
334.627	1493
334.715	3622
334.802	4406
334.889	32545
334.977	70236
335.064	10333
335.151	2281
335.239	2359
335.326	1965
335.413	11341
335.501	29010
335.588	5557
335.675	1526
335.762	2138
335.850	4313
335.937	2975
336.024	8040
336.111	41588
336.199	35789
336.286	4992
336.373	1843
336.460	1508
336.547	1949
336.635	1784
336.722	2637
336.809	1931
336.896	1717
336.983	7602
337.070	20383
337.157	38134
337.245	29897
337.332	34365
337.419	3694
337.506	1157
337.593	1032
337.680	3619
337.767	18509
337.854	8386
337.941	6855
338.028	9266
338.115	5771
338.202	1997
338.289	5766
338.376	27130
338.463	16286
338.550	8042
338.637	16564
338.724	3825
338.811	9254
338.898	2908
338.984	669
339.071	1268
339.158	1490
339.245	7307
339.332	6931
339.419	4579
339.506	7088
339.593	1370
339.679	1549
339.766	1197
339.853	901
339.940	6206
340.027	3374
340.113	1437
340.200	3501
340.287	1850
340.374	1674
340.460	5727
340.547	2471
340.634	2914
340.720	13899
340.807	18587
340.894	1531
340.980	1231
341.067	1171
341.154	1551
341.240	2070
341.327	8820
341.414	3782
341.500	3914
341.587	2101
341.674	886
341.760	3594
341.847	7758
341.933	2692
342.020	377
342.106	672
342.193	809
342.279	4186
342.366	3093
342.452	6224
342.539	3305
342.625	5095
342.712	19871
342.798	12516
342.885	2983
342.971	673
343.058	355
343.144	888
343.230	794
343.317	1232
343.403	2157
343.490	66
343.576	991
343.662	365
343.749	2040
343.835	2181
343.921	3362
344.008	30837
344.094	136170
344.180	51688
344.267	6602
344.353	19078
344.439	38458
344.525	11761
344.612	4560
344.698	2372
344.784	2809
344.870	281
344.957	792
345.043	2454
345.129	1864
345.215	5144
345.301	3886
345.387	2343
345.474	740
345.560	395
345.646	759
345.732	925
345.818	1940
345.904	2528
345.990	1472
346.076	1741
346.162	4444
346.249	2675
346.335	945
346.421	1412
346.507	6213
346.593	42597
346.679	21557
346.765	1412
346.851	1251
346.937	1374
347.023	1342
347.108	1353
347.194	2341
347.280	1108
347.366	2277
347.452	6102
347.538	47213
347.624	46286
347.710	32376
347.796	6362
347.882	572
347.967	684
348.053	1693
348.139	1156
348.225	947
348.311	719
348.397	1471
348.482	1171
348.568	2740
348.654	1296
348.740	1859
348.825	1774
348.911	2447
348.997	14405
349.083	57940
349.168	15781
349.254	2117
349.340	1774
349.425	850
349.511	1760
349.597	2357
349.682	3508
349.768	20859
349.854	19561
349.939	2502
350.025	939
350.110	618
350.196	555
350.282	184
350.367	569
350.453	1512
350.538	2510
350.624	2193
350.709	1803
350.795	1020
350.880	733
350.966	691
351.051	2491
351.137	2279
351.222	775
351.308	3670
351.393	20380
351.479	10470
351.564	2327
351.649	860
351.735	813
351.820	481
351.906	649
351.991	1102
352.076	7760
352.162	24812
352.247	6130
352.332	2120
352.418	4321
352.503	6975
352.588	19250
352.673	33435
352.759	7165
352.844	3209
352.929	1300
353.014	3783
353.100	1643
353.185	2662
353.270	5256
353.355	8660
353.441	1626
353.526	1789
353.611	3436
353.696	9033
353.781	3940
353.866	1872
353.952	438
354.037	3924
354.122	12901
354.207	14585
354.292	7204
354.377	1678
354.462	891
354.547	2255
354.632	1421
354.717	1638
354.802	4264
354.887	2619
354.972	589
355.057	1025
355.142	1046
355.227	818
355.312	2991
355.397	6668
355.482	19789
355.567	18282
355.652	5886
355.737	8625
355.822	20374
355.907	38867
355.991	4800
356.076	1456
356.161	1325
356.246	1182
356.331	363
356.416	3894
356.501	34942
356.585	88956
356.670	15228
356.755	3927
356.840	4386
356.924	18938
357.009	126178
357.094	99954
357.179	10729
357.263	6469
357.348	3670
357.433	5642
357.517	2935
357.602	3863
357.687	2999
357.771	3864
357.856	17304
357.941	20115
358.025	14007
358.110	112207
358.195	114714
358.279	12256
358.364	4437
358.448	10634
358.533	46781
358.617	49810
358.702	39055
358.787	23615
358.871	6372
358.956	6647
359.040	2070
359.125	542
359.209	927
359.294	5592
359.378	20091
359.462	9272
359.547	3906
359.631	1474
359.716	1804
359.800	1047
359.885	2254
359.969	2234
360.053	1362
360.138	1266
360.222	2145
360.306	5727
360.391	6014
360.475	6070
360.559	25512
360.644	19815
360.728	20097
360.812	15667
360.896	88916
360.981	51239
361.065	17667
361.149	4465
361.233	3228
361.318	2212
361.402	2343
361.486	2476
361.570	1735
361.654	2292
361.739	5829
361.823	33193
361.907	110368
361.991	32591
362.075	4392
362.159	12422
362.243	11965
362.327	6782
362.411	9654
362.495	5702
362.580	2722
362.664	820
362.748	1070
362.832	2089
362.916	2409
363.000	8746
363.084	39166
363.168	117948
363.252	46665
363.336	6465
363.420	5184
363.503	15888
363.587	36388
363.671	9829
363.755	3577
363.839	5327
363.923	4024
364.007	4637
364.091	9021
364.175	5573
364.258	30069
364.342	35260
364.426	26775
364.510	23549
364.594	8725
364.677	8000
364.761	52962
364.845	88285
364.929	16338
365.013	11524
365.096	6564
365.180	11468
365.264	6653
365.347	33492
365.431	29754
365.515	4912
365.598	2780
365.682	1464
365.766	2062
365.849	3987
365.933	1945
366.017	2340
366.100	2065
366.184	-128
366.267	25
366.351	1139
366.435	446
366.518	1236
366.602	218
366.685	1351
366.769	1065
366.852	1883
366.936	4958
367.019	4851
367.103	1928
367.186	3171
367.270	1381
367.353	254
367.436	943
367.520	949
367.603	1783
367.687	2774
367.770	7244
367.853	5651
367.937	9885
368.020	37732
368.104	13898
368.187	4805
368.270	7665
368.353	7202
368.437	7102
368.520	15262
368.603	17672
368.687	13158
368.770	44332
368.853	18543
368.936	4928
369.020	6574
369.103	2953
369.186	785
369.269	381
369.352	3049
369.436	7534
369.519	4586
369.602	1862
369.685	709
369.768	2420
369.851	1599
369.934	668
370.018	927
370.101	4586
370.184	6171
370.267	2476
370.350	3672
370.433	7531
370.516	22423
370.599	58359
370.682	19962
370.765	14371
370.848	23087
370.931	49171
371.014	36094
371.097	4428
371.180	1713
371.263	626
371.346	528
371.429	990
371.511	848
371.594	2249
371.677	6052
371.760	5204
371.843	4412
371.926	20318
372.009	113638
372.091	63248
372.174	14217
372.257	48735
372.340	38886
372.423	7308
372.505	10552
372.588	5459
372.671	7715
372.754	42306
372.836	45800
372.919	8508
373.002	20343
373.085	11999
373.167	6035
373.250	12778
373.332	45217
373.415	54908
373.498	152173
373.580	99505
373.663	42250
373.746	125579
373.828	42349
373.911	8313
373.993	5710
374.076	12990
374.159	25927
374.241	10552
374.324	30880
374.406	41790
374.489	23906
374.571	118093
374.654	94080
374.736	18116
374.819	59340
374.901	100662
374.983	150578
375.066	44642
375.148	4915
375.231	9250
375.313	34050
375.395	20433
375.478	4835
375.560	1901
375.643	3107
375.725	9700
375.807	71006
375.890	106750
375.972	30361
376.054	12159
376.136	14059
376.219	11576
376.301	11055
376.383	74490
376.465	60105
376.548	12835
376.630	15490
376.712	51937
376.794	57511
376.877	5701
376.959	2008
377.041	1103
377.123	1945
377.205	4217
377.287	1126
377.369	654
377.452	977
377.534	652
377.616	896
377.698	1190
377.780	166
377.862	528
377.944	1766
378.026	814
378.108	455
378.190	-170
378.272	720
378.354	145
378.436	-479
378.518	381
378.600	6205
378.682	9710
378.764	19448
378.846	33211
378.928	6221
379.010	5940
379.091	5182
379.173	2238
379.255	999
379.337	1217
379.419	6025
379.501	35168
379.583	31851
379.664	3959
379.746	5873
379.828	18515
379.910	36342
379.991	44653
380.073	12303
380.155	2777
380.237	2578
380.318	830
380.400	1617
380.482	2274
380.564	8216
380.645	6937
380.727	8808
380.809	5061
380.890	2596
380.972	2890
381.053	2052
381.135	2570
381.217	4614
381.298	22850
381.380	22391
381.461	8239
381.543	36270
381.624	106717
381.706	33772
381.787	5505
381.869	6763
381.951	12446
382.032	92964
382.113	123222
382.195	23899
382.276	8333
382.358	11825
382.439	50125
382.521	66937
382.602	118744
382.684	78578
382.765	58761
382.846	97062
382.928	126395
383.009	132457
383.090	40899
383.172	106686
383.253	352766
383.334	188511
383.416	91325
383.497	85402
383.578	23758
383.659	27505
383.741	80523
383.822	384618
383.903	411664
383.984	91194
384.066	97706
384.147	101966
384.228	26389
384.309	9157
384.390	9136
384.471	6604
384.553	5283
384.634	6083
384.715	9114
384.796	5047
384.877	4316
384.958	14296
385.039	39868
385.120	18721
385.201	5566
385.282	5553
385.363	4554
385.444	5209
385.525	5806
385.606	28437
385.687	60126
385.768	15914
385.849	6725
385.930	25049
386.011	105256
386.092	55190
386.173	5747
386.254	2762
386.335	2361
386.416	2242
386.496	6933
386.577	28507
386.658	14784
386.739	5043
386.820	3436
386.901	1964
386.981	2625
387.062	2046
387.143	2786
387.224	15816
387.304	33186
387.385	11596
387.466	3944
387.547	3731
387.627	3835
387.708	4364
387.789	28471
387.869	77390
387.950	38097
388.031	4287
388.111	1074
388.192	3014
388.273	6210
388.353	6373
388.434	2629
388.514	5055
388.595	32926
388.676	86543
388.756	45989
388.837	21233
388.917	24105
388.998	5496
389.078	1887
389.159	1617
389.239	1629
389.320	2106
389.400	3198
389.480	4847
389.561	22785
389.641	26802
389.722	5020
389.802	5515
389.883	7419
389.963	29016
390.043	36840
390.124	8478
390.204	4510
390.284	21504
390.365	29842
390.445	11759
390.525	36791
390.605	76446
390.686	29389
390.766	7074
390.846	2789
390.927	2027
391.007	1742
391.087	1860
391.167	2576
391.247	1709
391.328	2196
391.408	3125
391.488	3906
391.568	1499
391.648	1814
391.728	5001
391.808	3160
391.888	5278
391.969	7913
392.049	27213
392.129	17307
392.209	6260
392.289	27410
392.369	29909
392.449	9029
392.529	7612
392.609	5778
392.689	6125
392.769	22453
392.849	42716
392.929	15768
393.009	31890
393.089	52003
393.169	24040
393.248	42180
393.328	224154
393.408	556558
393.488	230420
393.568	39792
393.648	16853
393.728	9945
393.807	6294
393.887	5676
393.967	5022
394.047	5130
394.127	5803
394.206	8378
394.286	17593
394.366	110826
394.446	287361
394.525	104014
394.605	14591
394.685	6442
394.764	8612
394.844	18534
394.924	21911
395.003	9213
395.083	5438
395.163	4259
395.242	3759
395.322	3887
395.402	2450
395.481	2866
395.561	4661
395.640	18850
395.720	26284
395.799	21315
395.879	30058
395.958	13749
396.038	23732
396.117	145520
396.197	373624
396.276	146308
396.356	27418
396.435	12988
396.515	10667
396.594	10216
396.673	17812
396.753	42828
396.832	246393
396.912	411269
396.991	131251
397.070	24246
397.150	9496
397.229	6682
397.308	5141
397.388	9643
397.467	7427
397.546	2869
397.625	1915
397.705	3132
397.784	3234
397.863	2837
397.942	1232
398.022	1043
398.101	2187
398.180	16225
398.259	18562
398.338	4157
398.417	2491
398.497	1564
398.576	714
398.655	1076
398.734	792
398.813	372
398.892	1866
398.971	16800
399.050	23016
399.129	2488
399.208	194
399.287	-35
399.366	-15
399.445	400
399.524	118
399.603	15
399.682	1069
399.761	5124
399.840	16903
399.919	31804
399.998	7334
400.077	409
400.156	-17
400.235	237
400.313	-260
400.392	-236
400.471	4147
400.550	22973
400.629	13801
400.708	2261
400.786	717
400.865	1919
400.944	4641
401.023	4164
401.102	84
401.180	-255
401.259	-122
401.338	185
401.416	300
401.495	1903
401.574	525
401.652	690
401.731	363
401.810	1215
401.888	474
401.967	-252
402.046	-278
402.124	400
402.203	2043
402.281	1032
402.360	64
402.438	3503
402.517	5213
402.596	935
402.674	257
402.753	6
402.831	358
402.910	735
402.988	1935
403.066	18998
403.145	29894
403.223	6404
403.302	15959
403.380	22967
403.459	15045
403.537	12265
403.615	1881
403.694	168
403.772	514
403.850	-399
403.929	-726
404.007	-913
404.085	235
404.164	2763
404.242	1490
404.320	626
404.398	833
404.477	4940
404.555	42544
404.633	113361
404.711	33244
404.789	1985
404.868	706
404.946	518
405.024	964
405.102	-520
405.180	-530
405.258	-961
405.336	447
405.415	-218
405.493	490
405.571	1907
405.649	563
405.727	-170
405.805	617
405.883	418
405.961	702
406.039	670
406.117	1167
406.195	1161
406.273	4837
406.351	42513
406.429	72635
406.507	14818
406.585	1578
406.663	71
406.740	1586
406.818	2683
406.896	1261
406.974	-772
407.052	1494
407.130	12861
407.208	63772
407.285	31389
407.363	1906
407.441	613
407.519	107
407.596	-222
407.674	1211
407.752	3314
407.830	7174
407.907	4454
407.985	1504
408.063	-141
408.141	-569
408.218	-228
408.296	1302
408.373	1105
408.451	1489
408.529	1216
408.606	-25
408.684	-347
408.762	-412
408.839	-537
408.917	-781
408.994	-1212
409.072	-722
409.149	-402
409.227	23
409.304	381
409.382	1177
409.459	184
409.537	1137
409.614	1864
409.692	391
409.769	160
409.846	1400
409.924	2195
410.001	2700
410.079	961
410.156	1200
410.233	15
410.311	-291
410.388	-229
410.465	-117
410.543	-655
410.620	-29
410.697	-87
410.775	886
410.852	80
410.929	214
411.006	1078
411.083	670
411.161	532
411.238	2291
411.315	1512
411.392	-68
411.469	-230
411.547	817
411.624	-805
411.701	-833
411.778	430
411.855	2288
411.932	2212
412.009	-127
412.086	-470
412.163	205
412.240	195
412.317	1005
412.394	153
412.471	4
412.548	-1122
412.625	-18
412.702	-671
412.779	817
412.856	927
412.933	-296
413.010	-615
413.087	-223
413.164	2584
413.241	19000
413.318	11008
413.395	1474
413.471	1202
413.548	2234
413.625	-510
413.702	310
413.779	389
413.855	-72
413.932	-963
414.009	-684
414.086	-847
414.162	-666
414.239	-394
414.316	2956
414.393	21780
414.469	25180
414.546	2542
414.623	-476
414.699	-687
414.776	561
414.853	41
414.929	-430
415.006	-726
415.082	83
415.159	-243
415.236	-329
415.312	-31
415.389	317
415.465	2872
415.542	2421
415.618	-60
415.695	1534
415.771	742
415.848	1144
415.924	571
416.000	-218
416.077	-95
416.153	-913
416.230	-1087
416.306	-1103
416.383	-1122
416.459	-956
416.535	-894
416.612	-636
416.688	-102
416.764	-343
416.841	-610
416.917	-706
416.993	-307
417.069	-565
417.146	-402
417.222	829
417.298	1228
417.374	-883
417.451	-360
417.527	-431
417.603	728
417.679	419
417.755	-10
417.831	-681
417.908	-468
417.984	-689
418.060	-1570
418.136	254
418.212	3198
418.288	2283
418.364	-93
418.440	-630
418.516	291
418.592	1077
418.668	1879
418.744	5908
418.820	8033
418.896	3179
418.972	-464
419.048	-90
419.124	682
419.200	3584
419.276	1024
419.352	-680
419.428	-660
419.504	-736
419.579	298
419.655	182
419.731	-260
419.807	769
419.883	7460
419.959	10118
420.034	3240
420.110	499
420.186	7715
420.262	21523
420.337	5748
420.413	414
420.489	15
420.565	-9
420.640	-445
420.716	-606
420.792	-512
420.867	89
420.943	11
421.019	461
421.094	1943
421.170	369
421.245	-655
421.321	-461
421.397	-29
421.472	1018
421.548	1053
421.623	3331
421.699	2098
421.774	768
421.850	1114
421.925	1302
422.001	3372
422.076	1822
422.152	1197
422.227	2464
422.302	5188
422.378	4774
422.453	8022
422.529	17071
422.604	53592
422.679	193338
422.755	232423
422.830	87061
422.905	23855
422.981	9025
423.056	5461
423.131	3684
423.207	2563
423.282	1461
423.357	3697
423.432	4992
423.508	2454
423.583	4153
423.658	10101
423.733	3491
423.808	1476
423.883	2055
423.959	1525
424.034	1314
424.109	475
424.184	28
424.259	259
424.334	29
424.409	-283
424.484	182
424.559	144
424.634	-75
424.709	669
424.784	1822
424.859	413
424.934	-249
425.009	3940
425.084	16928
425.159	17426
425.234	3019
425.309	-616
425.384	102
425.459	7200
425.534	7633
425.609	439
425.683	-647
425.758	-977
425.833	-308
425.908	510
425.983	625
426.058	13198
426.132	20266
426.207	3650
426.282	1193
426.357	50
426.431	-173
426.506	-141
426.581	-3
426.655	65
426.730	10
426.805	148
426.879	0
426.954	-21
427.029	395
427.103	5100
427.178	37484
427.253	57726
427.327	12282
427.402	791
427.476	3990
427.551	8886
427.625	2389
427.700	529
427.774	-1
427.849	4
427.923	218
427.998	231
428.072	-748
428.147	555
428.221	3422
428.296	22053
428.370	40822
428.444	10514
428.519	766
428.593	1922
428.667	4486
428.742	2125
428.816	3970
428.890	6380
428.965	33937
429.039	32368
429.113	8317
429.188	4129
429.262	515
429.336	-496
429.410	4502
429.485	8944
429.559	3228
429.633	4101
429.707	1605
429.781	198
429.855	6682
429.930	33318
430.004	32248
430.078	15779
430.152	23502
430.226	25861
430.300	77321
430.374	39848
430.448	4059
430.522	1789
430.596	11981
430.670	22489
430.744	17064
430.818	77719
430.892	62546
430.966	7538
431.040	1160
431.114	182
431.188	-671
431.262	-576
431.336	-362
431.410	-93
431.484	1862
431.557	7156
431.631	2247
431.705	-134
431.779	357
431.853	12546
431.927	39819
432.000	14531
432.074	921
432.148	-603
432.222	-80
432.295	19
432.369	-650
432.443	-519
432.516	3560
432.590	37673
432.664	55840
432.737	9809
432.811	228
432.885	-273
432.958	-1029
433.032	-1019
433.106	-1323
433.179	-1665
433.253	-987
433.326	-1029
433.400	-562
433.473	-624
433.547	-704
433.620	-681
433.694	-850
433.767	1345
433.841	168
433.914	-635
433.988	-388
434.061	-524
434.134	-586
434.208	-1626
434.281	-1516
434.355	-878
434.428	-532
434.501	-1024
434.575	-1215
434.648	-824
434.721	-557
434.795	-1357
434.868	-957
434.941	-1165
435.014	-650
435.088	-318
435.161	-632
435.234	952
435.307	1925
435.381	1414
435.454	-348
435.527	84
435.600	474
435.673	427
435.746	-504
435.819	-819
435.892	-677
435.966	-597
436.039	-1141
436.112	-805
436.185	-1372
436.258	-1161
436.331	-1940
436.404	-1321
436.477	-1010
436.550	-365
436.623	-1678
436.696	-1366
436.769	-930
436.842	-1607
436.915	-1430
436.987	-717
437.060	261
437.133	-1112
437.206	-1231
437.279	-652
437.352	-547
437.425	-578
437.498	-301
437.570	-182
437.643	1759
437.716	1207
437.789	-1062
437.861	-1299
437.934	1440
438.007	3618
438.080	632
438.152	-674
438.225	382
438.298	4963
438.370	52908
438.443	90800
438.516	20681
438.588	3604
438.661	1
438.734	-165
438.806	61
438.879	90
438.951	-8
439.024	296
439.096	1240
439.169	-36
439.241	-1378
439.314	-1767
439.386	-835
439.459	-157
439.531	388
439.604	783
439.676	244
439.749	-1077
439.821	-579
439.893	-776
439.966	-479
440.038	-833
440.110	-465
440.183	511
440.255	-302
440.327	-1045
440.400	1520
440.472	16962
440.544	59056
440.617	21836
440.689	1451
440.761	567
440.833	1993
440.905	2920
440.978	1264
441.050	-720
441.122	-598
441.194	-1815
441.266	-822
441.338	-898
441.411	-1013
441.483	1771
441.555	19301
441.627	16701
441.699	2408
441.771	721
441.843	-548
441.915	-1005
441.987	-988
442.059	-1381
442.131	-1024
442.203	-153
442.275	130
442.347	660
442.419	1218
442.491	1892
442.563	20324
442.635	38370
442.706	13825
442.778	8048
442.850	3769
442.922	-63
442.994	-549
443.066	-670
443.137	770
443.209	319
443.281	-52
443.353	859
443.425	5542
443.496	27654
443.568	85376
443.640	67488
443.711	21968
443.783	2944
443.855	1000
443.926	-149
443.998	416
444.070	-187
444.141	443
444.213	247
444.285	1698
444.356	1389
444.428	1520
444.499	153
444.571	-1066
444.642	-1232
444.714	-1062
444.785	69
444.857	1227
444.928	1530
445.000	2778
445.071	1435
445.143	1776
445.214	2525
445.285	2265
445.357	4185
445.428	14817
445.500	71258
445.571	127375
445.642	70358
445.714	32361
445.785	12208
445.856	6602
445.928	2033
445.999	2054
446.070	1154
446.141	618
446.213	1097
446.284	1208
446.355	964
446.426	-6
446.497	-727
446.569	-652
446.640	-97
446.711	2329
446.782	1330
446.853	-985
446.924	-362
446.995	153
447.066	-198
447.138	-679
447.209	162
447.280	-920
447.351	-1016
447.422	-1043
447.493	-811
447.564	-809
447.635	431
447.706	1442
447.777	-438
447.847	-1063
447.918	-1339
447.989	-1044
448.060	-406
448.131	125
448.202	2306
448.273	2625
448.344	1813
448.414	-133
448.485	-634
448.556	-648
448.627	-1318
448.698	-784
448.768	-1556
448.839	-601
448.910	-1430
448.981	452
449.051	-70
449.122	8
449.193	-1275
449.263	-1216
449.334	-858
449.405	-865
449.475	522
449.546	2371
449.616	1336
449.687	1345
449.758	335
449.828	-196
449.899	-1445
449.969	-324
450.040	-1124
450.110	-276
450.181	-370
450.251	-341
450.322	-971
450.392	-286
450.463	-729
450.533	-869
450.604	-1018
450.674	-1005
450.744	-1096
450.815	-1123
450.885	-981
450.955	-905
451.026	-1659
451.096	-856
451.166	-1062
451.237	-488
451.307	1541
451.377	3255
451.447	731
451.518	-732
451.588	-505
451.658	-802
451.728	-779
451.799	30
451.869	4262
451.939	3463
452.009	-385
452.079	-493
452.149	-1141
452.219	-287
452.289	1064
452.360	5034
452.430	2979
452.500	-542
452.570	-155
452.640	214
452.710	1654
452.780	6024
452.850	6966
452.920	6848
452.990	5474
453.060	1578
453.129	531
453.199	1142
453.269	1164
453.339	16471
453.409	31831
453.479	21963
453.549	23468
453.619	32050
453.688	31687
453.758	11417
453.828	126
453.898	-246
453.968	-727
454.037	225
454.087	-424
454.107	-711
454.168	6
454.177	92
454.247	-666
454.249	-659
454.316	-993
454.330	-932
454.386	-825
454.411	-412
454.456	63
454.492	1534
454.525	2779
454.574	2889
454.595	2974
454.655	590
454.665	182
454.734	251
454.736	304
454.804	904
454.817	1229
454.873	1897
454.898	2932
454.943	4648
454.979	4572
455.013	4704
455.060	2820
455.082	2014
455.141	1231
455.152	1033
455.221	1349
455.222	1446
455.291	3411
455.303	3669
455.360	5195
455.384	4141
455.430	2395
455.465	2000
455.499	1470
455.546	1782
455.569	1547
455.627	3452
455.638	3907
455.707	2616
455.708	2620
455.777	102
455.789	128
455.846	193
455.869	44
455.916	-309
455.950	-177
455.985	-107
456.031	-185
456.054	-235
456.112	442
456.124	553
456.193	-227
456.193	-248
456.262	-146
456.274	-76
456.332	269
456.355	452
456.401	519
456.436	587
456.470	674
456.516	387
456.540	222
456.597	255
456.609	238
456.678	-52
456.678	-69
456.747	290
456.759	247
456.817	-217
456.840	-110
456.886	32
456.920	249
456.955	530
457.001	431
457.024	485
457.082	1356
457.093	1407
457.162	1440
457.163	1458
457.232	1077
457.243	1150
457.301	1377
457.324	1183
457.370	884
457.405	781
457.439	770
457.485	976
457.508	1035
457.566	1218
457.577	1327
457.646	2412
457.647	2438
457.715	3542
457.727	3886
457.784	7108
457.808	8252
457.853	7965
457.889	9771
457.922	10012
457.969	8911
457.991	10286
458.050	11388
458.060	11868
458.129	17028
458.130	17277
458.198	12778
458.211	11932
458.267	11615
458.292	9284
458.336	7468
458.372	6035
458.405	6168
458.453	8282
458.474	10687
458.533	18311
458.543	18529
458.611	23379
458.614	23780
458.680	17753
458.694	14839
458.749	12197
458.775	9321
458.818	5674
458.855	4049
458.887	2922
458.936	2459
458.955	2218
459.016	2501
459.024	2563
459.093	2529
459.097	2556
459.162	2462
459.177	2503
459.230	3071
459.257	3257
459.299	3218
459.338	3508
459.368	3789
459.418	3863
459.437	3573
459.499	3034
459.505	3033
459.574	3035
459.579	2999
459.643	2689
459.659	2659
459.711	2575
459.740	2653
459.780	2933
459.820	3248
459.849	3354
459.900	3910
459.917	4073
459.981	4292
459.986	4302
460.054	4204
460.061	4303
460.123	5085
460.141	5051
460.191	6263
460.222	7417
460.260	8215
460.302	8940
460.328	7771
460.382	5777
460.397	5829
460.462	5403
460.465	5445
460.534	5982
460.543	6087
460.602	10442
460.623	12332
460.671	20723
460.703	26200
460.739	19580
460.783	13423
460.808	12081
460.864	6726
460.876	6878
460.944	4181
460.945	4143
461.013	3257
461.024	3303
461.081	3917
461.104	4184
461.150	3975
461.184	3763
461.218	3774
461.264	3716
461.286	3665
461.345	3746
461.355	3716
461.423	2936
461.425	2932
461.491	3289
461.505	3400
461.559	5479
461.585	6217
461.628	9138
461.665	12294
461.696	12390
461.745	12577
461.764	10870
461.825	5969
461.832	6185
461.901	5711
461.905	5694
461.969	3825
461.985	3623
462.037	3460
462.065	3171
462.105	3736
462.145	4389
462.173	5284
462.225	6993
462.241	7588
462.305	10058
462.310	9750
462.378	5597
462.385	5105
462.446	5437
462.465	5198
462.514	4720
462.545	4744
462.582	4534
462.625	4003
462.650	3625
462.705	3465
462.718	3785
462.785	4704
462.786	4708
462.854	5194
462.865	5280
462.922	6285
462.945	6675
462.990	5264
463.025	4217
463.058	4365
463.104	4388
463.126	4272
463.184	3609
463.194	3702
463.262	4826
463.264	4864
463.330	4543
463.344	4448
463.398	4915
463.424	5060
463.466	4660
463.504	4591
463.533	4861
463.583	4836
463.601	4915
463.663	5406
463.669	5557
463.737	7233
463.743	7368
463.805	8984
463.823	9515
463.873	13185
463.903	15369
463.940	15037
463.982	14693
464.008	11960
464.062	6505
464.076	6405
464.142	5062
464.144	5077
464.211	5062
464.221	5136
464.279	4948
464.301	4944
464.347	5256
464.381	5423
464.414	5725
464.461	6059
464.482	6432
464.540	7506
464.550	7477
464.617	7358
464.620	7336
464.685	8863
464.699	9175
464.753	11109
464.779	12162
464.820	12659
464.859	12935
464.888	12254
464.938	11122
464.956	10940
465.018	10089
465.023	10111
465.091	10069
465.098	10083
465.158	10555
465.177	10608
465.226	9459
465.257	8729
465.293	9585
465.336	10525
465.361	11327
465.416	13185
465.428	13376
465.495	14155
465.496	14215
465.563	19764
465.575	20668
465.631	22627
465.654	23489
465.698	16132
465.734	10164
465.765	10242
465.813	9822
465.833	9853
465.893	9885
465.900	9859
465.968	9770
465.972	9744
466.035	10007
466.052	10077
466.102	10314
466.131	10344
466.170	10508
466.210	10726
466.237	11104
466.290	11731
466.304	11806
466.369	12058
466.372	12138
466.439	13841
466.449	14048
466.506	14548
466.528	14710
466.573	17343
466.607	19272
466.641	25054
466.687	33013
466.708	34819
466.766	39570
466.775	37345
466.842	20198
466.845	19349
466.909	17416
466.925	16857
466.977	15632
467.004	15003
467.044	15729
467.083	16437
467.111	17905
467.163	20572
467.178	20849
467.242	21766
467.245	21691
467.312	19194
467.321	18823
467.379	17359
467.400	16771
467.446	17172
467.480	17402
467.559	15838
467.638	15005
467.717	15321
467.796	15674
467.875	17101
467.955	14771
468.034	19046
468.113	32852
468.192	43220
468.271	15513
468.350	15262
468.429	16175
468.508	16990
468.588	13549
468.667	13098
468.746	12608
468.825	12530
468.904	11494
468.983	12839
469.062	17100
469.141	17420
469.220	11617
469.299	11935
469.378	13621
469.456	17282
469.535	15023
469.614	14235
469.693	14967
469.772	16973
469.851	18942
469.930	14464
470.009	14222
470.088	14803
470.166	18428
470.245	26334
470.324	32824
470.403	20562
470.482	15377
470.560	14208
470.639	14511
470.718	16516
470.797	12825
470.875	14283
470.954	15807
471.033	17076
471.111	9978
471.190	11132
471.269	10545
471.347	11061
471.426	11232
471.505	12777
471.583	14384
471.662	13012
471.740	12534
471.819	11766
471.898	12015
471.976	12065
472.055	11830
472.133	11977
472.212	13530
472.290	14143
472.369	10768
472.447	10530
472.526	9700
472.604	11911
472.683	11980
472.761	12126
472.839	11368
472.918	11340
472.996	11112
473.075	11424
473.153	11331
473.231	9803
473.310	11952
473.388	11841
473.466	12022
473.545	14871
473.623	18310
473.701	16912
473.780	12035
473.858	11593
473.936	11146
474.014	11248
474.093	11544
474.171	14231
474.249	17396
474.327	12052
474.405	9479
474.484	10711
474.562	11306
474.640	11089
474.718	10999
474.796	12349
474.874	10764
474.952	9370
475.030	10851
475.108	12187
475.187	14358
475.265	13780
475.343	17730
475.421	18965
475.499	10537
475.577	10998
475.655	12043
475.733	18100
475.811	24308
475.889	24794
475.966	15691
476.044	10727
476.122	13135
476.200	16278
476.278	12065
476.356	8885
476.434	9977
476.512	10968
476.590	15078
476.667	12840
476.745	8501
476.823	10620
476.901	8373
476.979	9166
477.056	9882
477.134	10384
477.212	9800
477.290	9683
477.367	8863
477.445	9048
477.523	8969
477.601	9240
477.678	8504
477.756	10072
477.834	10176
477.911	8192
477.989	8915
478.066	7725
478.144	9338
478.222	12032
478.299	19808
478.377	15094
478.454	7466
478.532	7931
478.609	9052
478.687	10028
478.764	8725
478.842	8206
478.919	10247
478.997	9118
479.074	7484
479.152	8511
479.229	9567
479.307	8312
479.384	7079
479.461	6594
479.539	7353
479.616	9063
479.694	7714
479.771	7686
479.848	8117
479.926	10468
480.003	10342
480.080	8039
480.157	6775
480.235	7382
480.312	6891
480.389	8461
480.467	10219
480.544	11875
480.621	8184
480.698	7904
480.775	9261
480.853	8885
480.930	7568
481.007	7959
481.084	7435
481.161	8830
481.238	7810
481.315	7669
481.392	7275
481.470	7404
481.547	6891
481.624	7179
481.701	7129
481.778	7195
481.855	7508
481.932	9721
482.009	15735
482.086	10579
482.163	8686
482.240	12631
482.317	23548
482.393	14894
482.470	7349
482.547	7336
482.624	7671
482.701	8287
482.778	7871
482.855	6609
482.932	7146
483.009	6267
483.085	7926
483.162	9313
483.239	8637
483.316	7607
483.393	7282
483.469	7481
483.546	8588
483.623	7605
483.699	6593
483.776	7534
483.853	8106
483.930	11049
484.006	22350
484.083	37837
484.160	31615
484.236	56101
484.313	39452
484.389	29183
484.466	25962
484.543	24805
484.619	25118
484.696	25765
484.772	25688
484.849	25756
484.925	23051
485.002	23900
485.078	24262
485.155	23753
485.231	21794
485.308	21212
485.384	21601
485.461	24075
485.537	31790
485.614	33591
485.690	21199
485.766	21994
485.843	23963
485.919	32582
485.995	32462
486.072	19141
486.148	19596
486.224	19314
486.301	19246
486.377	21772
486.453	23414
486.530	21679
486.606	32143
486.682	31941
486.758	31051
486.835	32545
486.911	29145
486.987	42891
487.063	54087
487.139	75632
487.215	51287
487.292	24265
487.368	22585
487.444	23731
487.520	28691
487.596	26926
487.672	38733
487.748	91995
487.824	131301
487.900	41103
487.976	24068
488.052	24129
488.128	27279
488.204	23810
488.280	19576
488.356	21868
488.432	31451
488.508	42317
488.584	22425
488.660	18921
488.736	18397
488.812	20118
488.888	26325
488.964	35443
489.039	75056
489.115	111085
489.191	55043
489.267	19418
489.343	17547
489.418	16675
489.494	17462
489.570	16181
489.646	15848
489.722	16117
489.797	16807
489.873	20555
489.949	33578
490.024	27252
490.100	14980
490.176	16866
490.251	18618
490.327	27073
490.403	15831
490.478	15030
490.554	12919
490.629	14129
490.705	12805
490.781	16365
490.856	13187
490.932	17407
491.007	16185
491.083	16287
491.158	13781
491.234	17067
491.309	24884
491.385	25784
491.460	13141
491.536	15190
491.611	13634
491.686	15642
491.762	21970
491.837	45237
491.913	73607
491.988	99318
492.063	126678
492.139	23677
492.214	16709
492.289	11699
492.365	12376
492.440	15177
492.515	12995
492.590	13405
492.666	10321
492.741	14357
492.816	17043
492.891	11449
492.967	11778
493.042	10476
493.117	11139
493.192	9953
493.267	12345
493.342	15104
493.418	13963
493.493	11538
493.568	8746
493.643	10381
493.718	11530
493.793	17503
493.868	24060
493.943	15566
494.018	11880
494.093	10501
494.168	9709
494.243	10200
494.318	9737
494.393	9711
494.468	9619
494.543	9689
494.618	12184
494.693	9898
494.768	10435
494.842	11130
494.917	9706
494.992	11162
495.067	9799
495.142	8246
495.217	10527
495.292	9297
495.366	10951
495.441	13688
495.516	17082
495.591	29009
495.665	93452
495.740	234940
495.815	71004
495.890	14239
495.964	12067
496.039	13659
496.114	11924
496.188	13311
496.263	13350
496.338	11642
496.412	12675
496.487	14399
496.561	16091
496.636	16644
496.710	13218
496.785	14703
496.860	15576
496.934	13063
497.009	14008
497.083	14366
497.158	16858
497.232	17839
497.307	20489
497.381	18691
497.455	20112
497.530	21112
497.604	18454
497.679	19424
497.753	29872
497.827	39253
497.902	40472
497.976	42277
498.050	71697
498.125	222070
498.199	215738
498.273	65802
498.348	55792
498.422	44309
498.496	40195
498.570	34304
498.645	24582
498.719	20699
498.793	21038
498.867	26376
498.941	36466
499.016	80390
499.090	228324
499.164	65616
499.238	14770
499.312	14495
499.386	20615
499.460	15882
499.534	13255
499.609	17308
499.683	20391
499.757	17435
499.831	38534
499.905	140944
499.979	119767
500.053	20998
500.127	24024
500.201	21747
500.275	12810
500.349	12757
500.422	14657
500.496	22055
500.570	52874
500.644	86787
500.718	147505
500.792	26561
500.866	10249
500.940	12406
501.013	10764
501.087	12193
501.161	26223
501.235	30376
501.309	43234
501.382	120555
501.456	98025
501.530	23186
501.603	38397
501.677	14741
501.751	8273
501.825	10279
501.898	17743
501.972	46508
502.046	26035
502.119	10994
502.193	23268
502.266	52459
502.340	21991
502.413	21500
502.487	40981
502.561	23110
502.634	8848
502.708	11029
502.781	10056
502.855	7741
502.928	6606
503.002	6021
503.075	6424
503.149	7449
503.222	5697
503.295	6895
503.369	8702
503.442	11765
503.516	31977
503.589	79016
503.662	48663
503.736	16808
503.809	38569
503.882	32983
503.956	51126
504.029	49365
504.102	52287
504.175	66372
504.249	20317
504.322	11963
504.395	10719
504.468	7254
504.542	7570
504.615	6712
504.688	5890
504.761	6132
504.834	8219
504.907	12232
504.980	21358
505.053	10005
505.127	16603
505.200	13165
505.273	9307
505.346	6640
505.419	5642
505.492	5803
505.565	5227
505.638	5187
505.711	4769
505.784	5247
505.857	5367
505.930	6011
506.003	4544
506.076	5812
506.149	6036
506.221	7964
506.294	8017
506.367	20449
506.440	65178
506.513	31363
506.586	8873
506.659	6683
506.731	6230
506.804	8196
506.877	13645
506.950	7162
507.022	5400
507.095	6311
507.168	8136
507.241	6260
507.313	5789
507.386	7307
507.459	10461
507.531	6529
507.604	5846
507.677	5232
507.749	5772
507.822	8209
507.894	20272
507.967	23632
508.040	13229
508.112	11047
508.185	9481
508.257	10720
508.330	16166
508.402	10216
508.475	8615
508.547	8767
508.620	8569
508.692	11387
508.765	8939
508.837	8241
508.909	7341
508.982	8316
509.054	8634
509.127	8391
509.199	7080
509.271	6752
509.344	6360
509.416	7142
509.488	7135
509.560	7621
509.633	8617
509.705	9830
509.777	9138
509.849	14018
509.922	9640
509.994	7100
510.066	7760
510.138	10066
510.210	19796
510.283	17219
510.355	14847
510.427	16923
510.499	36951
510.571	53788
510.643	15608
510.715	19669
510.787	17811
510.859	11229
510.931	13072
511.003	20103
511.076	16036
511.148	10210
511.219	9724
511.291	11956
511.363	12936
511.435	8448
511.507	8983
511.579	8783
511.651	8393
511.723	8497
511.795	7503
511.867	9394
511.939	9664
512.010	14204
512.082	12993
512.154	9722
512.226	10624
512.298	16813
512.369	24630
512.441	16940
512.513	16076
512.585	14093
512.656	12648
512.728	15217
512.800	11516
512.871	10129
512.943	10861
513.015	10321
513.086	10896
513.158	11404
513.230	12440
513.301	16775
513.373	19001
513.444	12664
513.516	9996
513.588	9830
513.659	10334
513.731	14253
513.802	14067
513.874	26297
513.945	46039
514.016	14715
514.088	9410
514.159	12690
514.231	15403
514.302	22512
514.374	14856
514.445	14264
514.516	18923
514.588	15598
514.659	12592
514.730	19462
514.802	16782
514.873	19586
514.944	17290
515.016	14741
515.087	17148
515.158	17380
515.229	24429
515.301	31558
515.372	32220
515.443	15426
515.514	13011
515.585	11255
515.656	10288
515.728	10326
515.799	10117
515.870	10681
515.941	10745
516.012	12582
516.083	15076
516.154	16757
516.225	19967
516.296	17192
516.367	15619
516.438	18929
516.509	28031
516.580	51832
516.651	149315
516.722	510379
516.793	198493
516.864	32327
516.935	28661
517.006	36518
517.077	61572
517.148	165872
517.219	524099
517.289	826068
517.360	140921
517.431	38752
517.502	19184
517.573	17644
517.643	16126
517.714	18325
517.785	17224
517.856	17457
517.926	19199
517.997	22627
518.068	32050
518.138	51786
518.209	111281
518.280	360905
518.350	1192166
518.421	458579
518.492	46145
518.562	25662
518.633	23304
518.703	22628
518.774	34770
518.845	71467
518.915	68864
518.986	25220
519.056	22773
519.127	37916
519.197	52123
519.268	83266
519.338	46885
519.408	17648
519.479	26179
519.549	18674
519.620	11800
519.690	9600
519.760	10181
519.831	10974
519.901	10791
519.971	9123
520.042	10163
520.112	10869
520.182	13182
520.253	15906
520.323	10441
520.393	17612
520.463	27205
520.534	16605
520.604	34301
520.674	15473
520.744	16006
520.814	39834
520.885	34610
520.955	26362
521.025	78738
521.095	32294
521.165	8247
521.235	7890
521.305	8066
521.375	7971
521.445	9764
521.515	14617
521.585	16978
521.655	18167
521.725	17212
521.795	29314
521.865	22019
521.935	11499
522.005	12344
522.075	6747
522.145	7466
522.215	7853
522.285	10124
522.355	12836
522.424	20026
522.494	19457
522.564	17743
522.634	36805
522.704	106996
522.774	39567
522.843	8805
522.913	7931
522.983	12337
523.053	9514
523.122	10466
523.192	17248
523.262	53024
523.331	52871
523.401	9259
523.471	6678
523.540	8057
523.610	6123
523.680	5660
523.749	6626
523.819	7620
523.888	7625
523.958	6298
524.027	7218
524.097	7354
524.166	7430
524.236	7610
524.305	7827
524.375	6031
524.444	6512
524.514	7577
524.583	7832
524.653	8662
524.722	8972
524.791	6835
524.861	6712
524.930	6044
524.999	7731
525.069	10747
525.138	7751
525.207	8087
525.277	7126
525.346	6808
525.415	6990
525.484	7557
525.554	8125
525.623	7500
525.692	7033
525.761	7185
525.830	8192
525.900	9066
525.969	15167
526.038	26039
526.107	50310
526.176	135147
526.245	112358
526.314	38836
526.383	73637
526.452	107845
526.522	155893
526.591	166154
526.660	53520
526.729	27813
526.797	37484
526.867	90688
526.935	327838
527.004	446480
527.073	227750
527.142	19395
527.211	10633
527.280	10591
527.349	12191
527.418	6502
527.487	7831
527.555	6048
527.624	6119
527.693	5977
527.762	5494
527.831	5673
527.899	6105
527.968	5528
528.037	6602
528.106	7706
528.174	16074
528.243	12183
528.312	15299
528.380	21715
528.449	7410
528.518	5323
528.586	4677
528.655	5118
528.723	4550
528.792	4140
528.861	5163
528.929	4248
528.998	4595
529.066	4212
529.135	4298
529.203	3925
529.272	4825
529.340	5435
529.409	4893
529.477	5037
529.545	6536
529.614	6422
529.682	7111
529.751	8244
529.819	8280
529.887	5876
529.956	4920
530.024	5747
530.092	5591
530.161	6481
530.229	11324
530.297	6928
530.365	4924
530.434	5035
530.502	4450
530.570	4886
530.638	4427
530.707	4865
530.775	6116
530.843	4600
530.911	4385
530.979	3859
531.047	4302
531.115	5182
531.183	4837
531.252	4871
531.320	5049
531.388	3952
531.456	4569
531.524	4610
531.592	5548
531.660	5376
531.728	4812
531.796	4742
531.864	3878
531.932	4182
532.000	5037
532.067	5129
532.135	5431
532.203	7110
532.271	8133
532.339	14362
532.407	37923
532.475	24056
532.542	10365
532.610	14738
532.678	26059
532.746	81488
532.814	214252
532.881	51138
532.949	8527
533.017	6206
533.084	5545
533.152	5002
533.220	5791
533.287	8203
533.355	6347
533.423	5119
533.490	5468
533.558	5856
533.625	5640
533.693	6430
533.761	6235
533.828	5696
533.896	7588
533.963	14030
534.031	17944
534.098	25252
534.166	10846
534.233	5554
534.300	6103
534.368	5900
534.435	6126
534.503	5669
534.570	6892
534.637	6904
534.705	7976
534.772	11237
534.840	20438
534.907	57813
534.974	81138
535.041	11072
535.109	7588
535.176	5585
535.243	5568
535.310	6055
535.378	5541
535.445	4306
535.512	5223
535.579	4929
535.646	5905
535.714	5741
535.781	7920
535.848	6755
535.915	6427
535.982	6581
536.049	6257
536.116	6767
536.183	6326
536.250	6410
536.317	7237
536.384	7658
536.451	11246
536.518	12521
536.585	9020
536.652	10534
536.719	14653
536.786	13454
536.853	10721
536.920	15017
536.987	26527
537.053	35047
537.120	99498
537.187	95599
537.254	9390
537.321	7331
537.388	7067
537.454	6402
537.521	5775
537.588	6329
537.654	8122
537.721	9238
537.788	8741
537.855	7103
537.921	7227
537.988	6979
538.055	7361
538.121	7327
538.188	8261
538.254	12279
538.321	23226
538.388	15697
538.454	7144
538.521	6975
538.587	6510
538.654	6949
538.720	6402
538.787	6340
538.853	6655
538.920	8299
538.986	8849
539.053	7877
539.119	8835
539.185	8174
539.252	9145
539.318	14982
539.385	11308
539.451	10927
539.517	11521
539.583	15889
539.650	29917
539.716	76913
539.782	23610
539.849	8301
539.915	8540
539.981	8782
540.047	9916
540.114	8412
540.180	8748
540.246	10007
540.312	12799
540.378	24386
540.444	29834
540.510	30581
540.576	86683
540.643	31000
540.709	8185
540.775	8110
540.841	9257
540.907	11091
540.973	14912
541.039	14610
541.105	15281
541.171	9969
541.237	8696
541.303	9493
541.369	9908
541.435	13149
541.500	20268
541.566	14849
541.632	7887
541.698	7792
541.764	7122
541.830	6751
541.896	6770
541.961	7163
542.027	7978
542.093	7811
542.159	8565
542.224	9894
542.290	13948
542.356	20571
542.421	24873
542.487	10670
542.553	8383
542.618	9340
542.684	9183
542.750	9077
542.815	12578
542.881	23472
542.947	66702
543.012	60488
543.078	7845
543.143	8473
543.209	8566
543.274	10969
543.340	13033
543.405	27484
543.471	48458
543.536	11116
543.602	7581
543.667	7477
543.732	8164
543.798	7351
543.863	7204
543.928	7817
543.994	6481
544.059	6608
544.124	7394
544.190	6745
544.255	6825
544.320	7888
544.386	9378
544.451	12235
544.516	16984
544.581	18498
544.646	41799
544.712	75915
544.777	16141
544.842	9375
544.907	8824
544.972	9016
545.037	8830
545.102	9124
545.168	9293
545.233	9297
545.298	9956
545.363	12848
545.428	16101
545.493	25287
545.558	58140
545.623	27509
545.688	10058
545.753	9749
545.818	8768
545.883	9415
545.947	9811
546.012	10019
546.077	10689
546.142	9938
546.207	10666
546.272	13113
546.337	15446
546.401	12054
546.466	11306
546.531	11173
546.596	11720
546.661	11822
546.725	11859
546.790	10936
546.855	11713
546.919	12122
546.984	12283
547.049	13687
547.113	15778
547.178	15434
547.243	17674
547.307	19990
547.372	21707
547.436	22630
547.501	22337
547.565	23798
547.630	23976
547.695	24459
547.759	22759
547.823	21707
547.888	20368
547.952	20876
548.017	22161
548.081	23437
548.146	25527
548.210	24779
548.274	23652
548.339	23174
548.403	21584
548.468	20765
548.532	19903
548.596	20670
548.660	21432
548.725	23331
548.789	25362
548.853	26471
548.917	23330
548.982	23556
549.046	23155
549.110	19839
549.174	18922
549.238	21364
549.303	23170
549.367	24058
549.431	22887
549.495	21822
549.559	22762
549.623	24975
549.687	30470
549.751	34514
549.815	32644
549.879	31194
549.943	29482
550.007	30869
550.071	31298
550.135	32389
550.199	28469
550.263	26784
550.327	25426
550.391	27759
550.455	28213
550.519	29666
550.582	32457
550.646	39786
550.710	41630
550.774	34749
550.838	33964
550.901	34899
550.965	37267
551.029	39421
551.093	41893
551.156	46223
551.220	56166
551.284	67057
551.347	49037
551.411	47286
551.475	52321
551.538	37786
551.602	33695
551.666	31963
551.729	30390
551.793	29391
551.856	29282
551.920	28071
551.983	28603
552.047	28408
552.110	28453
552.174	29159
552.237	29599
552.301	27496
552.364	26329
552.428	26774
552.491	26557
552.554	27623
552.618	28742
552.681	31249
552.745	31973
552.808	43735
552.871	55957
552.934	38598
552.998	28764
553.061	27297
553.124	25307
553.187	25645
553.251	25956
553.314	27084
553.377	26401
553.440	27173
553.503	29699
553.567	30841
553.630	28290
553.693	27238
553.756	27151
553.819	26784
553.882	26350
553.945	26649
554.008	25927
554.071	25745
554.134	26623
554.197	25278
554.260	24315
554.323	24898
554.386	25924
554.449	26381
554.512	26856
554.575	24048
554.638	24644
554.701	24864
554.764	25055
554.827	22756
554.889	23228
554.952	21811
555.015	21404
555.078	21218
555.141	21849
555.203	21699
555.266	21569
555.329	22413
555.391	21082
555.454	20618
555.517	21189
555.580	20284
555.642	18843
555.705	19216
555.768	19339
555.830	18657
555.893	16663
555.955	16481
556.018	16736
556.080	16991
556.143	18122
556.206	16911
556.268	18041
556.330	18441
556.393	17559
556.455	17349
556.518	18769
556.580	19294
556.643	15686
556.705	13881
556.767	14622
556.830	15506
556.892	16171
556.955	21303
557.017	18528
557.079	15678
557.142	14072
557.204	16991
557.266	24660
557.328	24161
557.391	12584
557.453	12213
557.515	13512
557.577	14286
557.639	15429
557.701	12604
557.764	11533
557.826	11377
557.888	12861
557.950	13508
558.012	17156
558.074	23493
558.136	36035
558.198	85069
558.260	42213
558.322	13694
558.384	13377
558.446	15782
558.508	17170
558.570	24822
558.632	39773
558.694	70140
558.756	88588
558.818	164436
558.880	439364
558.942	185517
559.003	84135
559.065	55631
559.127	19088
559.189	21411
559.251	30080
559.312	49904
559.374	84910
559.436	242263
559.498	174748
559.559	23994
559.621	21965
559.683	30654
559.744	50063
559.806	105426
559.868	200381
559.929	50428
559.991	25640
560.052	34947
560.114	78995
560.176	72604
560.237	45485
560.299	85360
560.360	27156
560.422	10194
560.483	10270
560.545	9249
560.606	8630
560.667	8357
560.729	7908
560.790	8718
560.852	7667
560.913	7653
560.974	8097
561.036	8029
561.097	7934
561.158	8130
561.220	8722
561.281	8536
561.342	9395
561.403	12075
561.465	14956
561.526	27373
561.587	41881
561.648	14068
561.709	8627
561.771	8826
561.832	8269
561.893	8338
561.954	8429
562.015	7846
562.076	8282
562.137	7467
562.198	8779
562.259	7906
562.320	8126
562.381	8707
562.442	11794
562.503	11190
562.564	6774
562.625	7093
562.686	7634
562.747	7830
562.808	8105
562.869	7897
562.930	8901
562.991	9037
563.051	8221
563.112	7868
563.173	7314
563.234	7632
563.294	7652
563.355	6844
563.416	7733
563.477	7095
563.537	7660
563.598	7583
563.659	7956
563.720	7621
563.780	8033
563.841	8373
563.901	8190
563.962	7312
564.023	7387
564.083	7619
564.144	7441
564.204	7338
564.265	8458
564.325	7919
564.386	11117
564.446	11640
564.507	6944
564.567	7152
564.628	7517
564.688	7303
564.749	7660
564.809	8002
564.869	9255
564.930	7673
564.990	7878
565.050	7242
565.111	8227
565.171	7358
565.231	8316
565.292	8088
565.352	7545
565.412	7080
565.472	8530
565.532	7456
565.593	8100
565.653	7529
565.713	8368
565.773	9307
565.833	9780
565.893	12760
565.953	9102
566.013	7968
566.074	9271
566.134	9718
566.194	11713
566.254	14186
566.314	10765
566.374	8812
566.434	8407
566.494	8047
566.554	9427
566.614	10326
566.673	10268
566.733	10441
566.793	11043
566.853	11724
566.913	11609
566.973	12200
567.033	12141
567.092	11392
567.152	11284
567.212	11385
567.272	11922
567.331	12505
567.391	13674
567.451	13531
567.511	15060
567.570	16070
567.630	12184
567.690	11982
567.749	11648
567.809	13627
567.868	14072
567.928	17468
567.988	20040
568.047	25283
568.107	35334
568.166	48767
568.226	73039
568.285	107338
568.345	89838
568.404	62512
568.464	51165
568.523	46323
568.582	49135
568.642	60592
568.701	80172
568.761	112866
568.820	179174
568.879	183591
568.939	121956
568.998	81543
569.057	58173
569.116	43672
569.176	34467
569.235	27237
569.294	23440
569.353	21188
569.413	18349
569.472	16632
569.531	14853
569.590	13119
569.649	12804
569.708	12260
569.767	12688
569.827	12968
569.886	11616
569.945	10258
570.004	12112
570.063	11130
570.122	10443
570.181	11206
570.240	10337
570.299	10136
570.358	10167
570.417	9157
570.475	7783
570.534	8975
570.593	9147
570.652	9568
570.711	8715
570.770	8009
570.829	8980
570.887	9329
570.946	9911
571.005	8906
571.064	8190
571.122	8975
571.181	8589
571.240	7761
571.299	7265
571.357	7335
571.416	7836
571.475	7657
571.533	8466
571.592	7396
571.650	7600
571.709	7225
571.768	8044
571.826	6931
571.885	7073
571.943	6242
572.002	6765
572.060	6767
572.119	5863
572.177	6107
572.236	6049
572.294	6057
572.352	6360
572.411	5737
572.469	6156
572.528	6448
572.586	6433
572.644	6881
572.703	8786
572.761	7849
572.819	6752
572.877	6309
572.936	6198
572.994	5486
573.052	6225
573.110	5312
573.169	6269
573.227	6243
573.285	6281
573.343	4759
573.401	6380
573.459	5943
573.517	5833
573.576	6507
573.634	6530
573.692	5693
573.750	6010
573.808	6355
573.866	6187
573.924	7098
573.982	6807
574.040	5955
574.098	5892
574.155	5628
574.213	5190
574.271	5795
574.329	5305
574.387	5745
574.445	5174
574.503	5581
574.560	5488
574.618	5303
574.676	5206
574.734	5147
574.792	5819
574.849	5756
574.907	5408
574.965	5067
575.022	4554
575.080	6026
575.138	5451
575.195	5237
575.253	4961
575.311	5375
575.368	5719
575.426	4724
575.483	5034
575.541	4326
575.598	5150
575.656	5346
575.713	4836
575.771	5589
575.828	4666
575.886	4930
575.943	5706
576.001	5282
576.058	5465
576.115	5841
576.173	5554
576.230	6663
576.287	8235
576.345	6705
576.402	6139
576.459	5288
576.517	5352
576.574	5583
576.631	6347
576.688	5800
576.746	5002
576.803	4712
576.860	5677
576.917	4873
576.974	5455
577.031	5734
577.089	5013
577.146	5097
577.203	5760
577.260	4895
577.317	5722
577.374	6032
577.431	5767
577.488	5969
577.545	5439
577.602	5898
577.659	6063
577.716	5356
577.773	5674
577.830	4859
577.886	5396
577.943	5889
578.000	6522
578.057	6950
578.114	7316
578.171	9752
578.227	15038
578.284	7846
578.341	5581
578.398	5615
578.454	6021
578.511	6477
578.568	6902
578.625	6275
578.681	5895
578.738	5372
578.794	5906
578.851	6454
578.908	6057
578.964	6960
579.021	7003
579.077	6213
579.134	5981
579.190	6098
579.247	5516
579.303	5503
579.360	5570
579.416	5733
579.473	6257
579.529	5945
579.586	5454
579.642	5340
579.698	5778
579.755	5925
579.811	6376
579.867	6241
579.924	5839
579.980	5139
580.036	5666
580.093	6038
580.149	5572
580.205	6215
580.261	5816
580.317	5755
580.374	7322
580.430	6474
580.486	6934
580.542	5987
580.598	6259
580.619	6207
580.654	6125
580.692	6607
580.710	6860
580.765	6301
580.767	6291
580.823	6228
580.838	6099
580.879	5753
580.911	6441
580.935	6966
580.984	6438
580.991	6372
581.047	6002
581.057	6096
581.103	6583
581.130	6335
581.159	6080
581.203	6478
581.215	6586
581.270	5815
581.276	5873
581.326	6520
581.349	6443
581.382	6303
581.422	6228
581.438	6225
581.494	6720
581.494	6714
581.550	6632
581.567	6788
581.606	7147
581.640	6854
581.661	6695
581.713	7015
581.717	7038
581.773	6211
581.786	6254
581.829	6407
581.859	6318
581.885	6283
581.932	7140
581.940	7299
581.996	6710
582.004	6750
582.052	6951
582.077	6720
582.107	6510
582.150	6252
582.163	6149
582.219	6605
582.223	6577
582.274	6406
582.296	6612
582.330	6950
582.368	7033
582.386	7040
582.441	6457
582.441	6458
582.497	6765
582.514	6811
582.552	6992
582.587	6549
582.608	6216
582.659	6250
582.663	6259
582.719	7119
582.732	7077
582.774	6982
582.805	7057
582.830	7080
582.877	7330
582.885	7390
582.941	7456
582.950	7367
582.996	6892
583.023	6925
583.052	6929
583.095	7123
583.107	7205
583.162	7071
583.168	7142
583.218	7651
583.240	7380
583.273	7026
583.313	7023
583.328	7046
583.384	7185
583.385	7179
583.439	6862
583.458	6789
583.494	6817
583.531	7271
583.549	7429
583.603	6905
583.605	6884
583.660	7918
583.676	7741
583.715	7540
583.748	7790
583.770	7870
583.820	7368
583.825	7326
583.881	7543
583.893	7598
583.936	7675
583.965	7359
583.991	7130
584.038	6941
584.046	6926
584.101	7849
584.110	7798
584.156	7424
584.183	7665
584.211	7891
584.255	7987
584.266	8021
584.321	7497
584.328	7522
584.376	7689
584.400	7712
584.431	7848
584.472	7858
584.486	7772
584.541	8465
584.545	8466
584.596	8577
584.617	8451
584.651	8334
584.689	8803
584.706	8928
584.761	8429
584.762	8435
584.816	8799
584.834	8978
584.871	9374
584.906	9339
584.926	9226
584.978	9298
584.980	9309
585.035	9501
585.051	9698
585.090	10045
585.123	10362
585.145	10671
585.195	11193
585.200	11226
585.254	11918
585.267	12096
585.309	12470
585.340	12885
585.364	13588
585.412	15509
585.419	15679
585.473	18806
585.484	19759
585.528	23908
585.556	27171
585.583	30968
585.628	38320
585.637	41127
585.692	67224
585.700	75377
585.747	134891
585.772	136054
585.801	117318
585.845	76232
585.856	61384
585.910	24677
585.917	20779
585.965	17027
585.989	15281
586.019	14617
586.061	14165
586.074	14060
586.128	14262
586.133	14258
586.183	14105
586.205	14188
586.237	14839
586.277	15274
586.292	15138
586.346	14732
586.349	14748
586.401	14906
586.421	14906
586.455	15159
586.493	15771
586.509	16021
586.564	17051
586.565	17114
586.618	20563
586.637	21775
586.672	24036
586.709	23363
586.727	21521
586.781	19450
586.781	19435
586.835	18852
586.853	18904
586.889	18563
586.925	18553
586.944	18606
586.996	18756
586.998	18757
587.052	19552
587.068	19761
587.106	20041
587.140	20381
587.161	20595
587.212	21625
587.215	21647
587.269	22372
587.284	22740
587.323	23638
587.356	24243
587.377	24454
587.427	25049
587.431	25113
587.485	26088
587.499	26643
587.539	27984
587.571	28781
587.593	29467
587.643	31494
587.648	31613
587.702	32922
587.715	33506
587.755	35100
587.786	36147
587.810	37044
587.858	39061
587.864	39237
587.917	42395
587.930	43202
587.971	47040
588.001	49896
588.025	51638
588.073	56240
588.079	56824
588.133	62789
588.145	64381
588.187	71360
588.217	76739
588.241	80947
588.288	90964
588.295	92358
588.348	106514
588.360	110176
588.402	124886
588.431	136973
588.456	147726
588.503	172286
588.510	175778
588.564	211956
588.575	221143
588.617	258857
588.646	289916
588.671	320141
588.718	386078
588.725	398003
588.778	505501
588.789	531445
588.832	677520
588.861	781721
588.886	923516
588.932	1151484
588.939	1181567
588.993	1331452
589.004	1381293
589.047	1369488
589.075	1352612
589.100	1258247
589.147	997337
589.154	957111
589.207	647270
589.218	590604
589.261	501730
589.290	451798
589.314	440145
589.361	433852
589.368	438236
589.421	498088
589.433	516146
589.475	659967
589.504	763030
589.528	916531
589.576	1158552
589.582	1168483
589.635	1259952
589.647	1277430
589.689	1062970
589.718	874195
589.742	711949
589.790	405163
589.795	389425
589.849	263517
589.861	236668
589.902	193426
589.932	164755
589.955	150924
590.004	124466
590.009	122108
590.062	100697
590.075	95903
590.115	85853
590.146	78554
590.168	74363
590.218	66319
590.222	65691
590.275	59323
590.289	57846
590.328	53897
590.360	51081
590.381	49506
590.431	46271
590.435	45959
590.488	41909
590.503	41010
590.541	38958
590.574	37265
590.594	36339
590.645	34285
590.647	34138
590.700	32059
590.716	31518
590.753	30231
590.787	29383
590.806	28970
590.859	27700
590.859	27626
590.912	26541
590.930	26278
590.965	25320
591.001	24503
591.018	24137
591.071	23046
591.072	23084
591.124	22202
591.143	21914
591.177	21571
591.214	21469
591.230	21456
591.283	21367
591.285	21408
591.336	20666
591.356	20409
591.389	21223
591.427	22210
591.442	21684
591.495	19855
591.498	19751
591.547	18585
591.569	18185
591.600	17555
591.640	16650
591.653	16572
591.706	16526
591.711	16556
591.759	16664
591.782	16778
591.811	16881
591.853	17127
591.864	17060
591.917	16842
591.924	16844
591.969	16465
591.995	16255
592.022	15908
592.066	15491
592.075	15482
592.127	15556
592.137	15610
592.180	15724
592.208	15824
592.233	15732
592.279	15632
592.285	15458
592.338	14229
592.350	13983
592.390	13838
592.421	13794
592.443	13707
592.491	13587
592.495	13557
592.548	13545
592.562	13565
592.600	13147
592.633	12856
592.653	12984
592.704	13327
592.705	13396
592.775	13071
592.846	13358
592.916	13285
592.987	14179
593.058	14531
593.128	12980
593.199	12700
593.270	12739
593.341	11842
593.411	12204
593.482	12258
593.553	13265
593.623	12292
593.694	11965
593.764	12564
593.835	12165
593.906	11740
593.976	11782
594.047	12648
594.117	12661
594.188	13396
594.258	12615
594.329	11801
594.399	11539
594.470	11472
594.540	11139
594.611	11468
594.681	12816
594.751	12378
594.822	12811
594.892	13657
594.963	13635
595.033	12884
595.103	13028
595.174	12885
595.244	14176
595.314	17874
595.384	18066
595.455	13278
595.525	12831
595.595	13774
595.665	14250
595.736	13565
595.806	13804
595.876	13733
595.946	12860
596.016	12798
596.087	13883
596.157	13728
596.227	14323
596.297	14598
596.367	14584
596.437	15954
596.507	17060
596.577	18910
596.647	20128
596.717	15813
596.787	15813
596.857	16459
596.927	16878
596.997	16537
597.067	17422
597.137	16961
597.207	16973
597.277	17435
597.347	17191
597.417	16408
597.487	16406
597.557	16563
597.626	16791
597.696	17323
597.766	18266
597.836	18826
597.906	19983
597.975	15890
598.045	14679
598.115	15207
598.185	15409
598.254	17626
598.324	19320
598.394	20796
598.464	20838
598.533	20463
598.603	18068
598.672	17386
598.742	17307
598.812	17624
598.881	18059
598.951	17834
599.020	17502
599.090	18897
599.159	18174
599.229	18138
599.299	17858
599.368	17650
599.437	17427
599.507	17983
599.576	16548
599.646	16723
599.715	15648
599.785	14964
599.854	16336
599.924	16124
599.993	16053
600.062	15312
600.132	14967
600.201	15181
600.270	16291
600.340	20599
600.409	19264
600.478	18590
600.547	18653
600.617	18599
600.686	17191
600.755	14819
600.824	14912
600.894	14117
600.963	12552
601.032	13288
601.101	13059
601.170	12129
601.239	12228
601.308	12267
601.378	13092
601.447	10679
601.516	11476
601.585	11713
601.654	12532
601.723	13799
601.792	12314
601.861	12285
601.930	12768
601.999	13624
602.068	15559
602.137	13922
602.206	15670
602.275	13951
602.343	14458
602.412	17175
602.481	15700
602.550	13439
602.619	13803
602.688	13354
602.756	13987
602.825	13761
602.894	13208
602.963	14242
603.032	14248
603.100	13962
603.169	14592
603.238	14468
603.307	14616
603.375	14332
603.444	14694
603.513	14469
603.581	14929
603.650	14457
603.719	14887
603.787	14959
603.856	14793
603.924	15862
603.993	16324
604.061	16706
604.130	17373
604.198	17805
604.267	18229
604.335	18821
604.404	18011
604.472	18540
604.541	19008
604.609	19397
604.678	19051
604.746	19181
604.815	19447
604.883	20195
604.951	19823
605.020	20388
605.088	20018
605.156	20354
605.225	21623
605.293	21467
605.361	21301
605.429	21922
605.498	21830
605.566	22486
605.634	24114
605.702	24518
605.771	24508
605.839	25449
605.907	23621
605.975	24634
606.043	23744
606.111	23193
606.180	23078
606.248	22828
606.316	22897
606.384	22655
606.452	23839
606.520	24666
606.588	29206
606.656	26134
606.724	23292
606.792	23824
606.860	23228
606.928	19204
606.996	18442
607.064	18132
607.132	17327
607.200	18127
607.267	18933
607.335	20452
607.403	20188
607.471	20315
607.539	20148
607.607	19265
607.674	18591
607.742	17539
607.810	17669
607.878	18918
607.946	17894
608.013	18392
608.081	18780
608.149	19570
608.216	19471
608.284	19631
608.352	19175
608.419	19611
608.487	19827
608.555	21849
608.622	19238
608.690	19828
608.757	21564
608.825	22642
608.893	23276
608.960	23297
609.028	22969
609.095	22752
609.163	22591
609.230	21246
609.298	19253
609.365	17560
609.432	18760
609.500	19376
609.567	21779
609.635	24205
609.702	27426
609.769	29410
609.837	27346
609.904	22773
609.971	21163
610.039	22239
610.106	27060
610.173	42158
610.241	91846
610.308	225965
610.375	135637
610.442	59540
610.509	25554
610.577	21769
610.644	19819
610.711	20412
610.778	20540
610.845	20882
610.912	21347
610.980	22538
611.047	23410
611.114	23300
611.181	22113
611.248	21626
611.315	22270
611.382	23690
611.449	23560
611.516	24936
611.583	24518
611.650	24888
611.717	25810
611.784	25972
611.851	27080
611.918	30133
611.984	34714
612.051	44433
612.118	76728
612.185	180117
612.252	478172
612.319	214664
612.386	45692
612.452	34667
612.519	32271
612.586	29528
612.653	30876
612.719	29091
612.786	30479
612.853	28188
612.919	25693
612.986	25227
613.053	25147
613.120	24009
613.186	22111
613.253	22775
613.319	21823
613.386	22766
613.453	22223
613.519	23498
613.586	25190
613.652	28526
613.719	32696
613.785	29791
613.852	26742
613.918	23528
613.985	21658
614.051	22263
614.118	23830
614.184	24455
614.250	23808
614.317	22307
614.383	22213
614.449	22019
614.516	23158
614.582	22807
614.648	23019
614.715	22595
614.781	22313
614.847	21854
614.914	21867
614.980	22362
615.046	21479
615.112	22094
615.179	22341
615.245	22844
615.311	24803
615.377	27065
615.443	39508
615.509	39490
615.575	28205
615.642	26624
615.708	24440
615.774	26698
615.840	30409
615.906	33850
615.972	42452
616.038	66151
616.104	132647
616.170	256202
616.236	629645
616.302	419876
616.368	76119
616.434	54462
616.500	35954
616.565	32856
616.631	38382
616.697	48568
616.763	36598
616.829	38917
616.895	67329
616.961	128328
617.026	110219
617.092	39515
617.158	26613
617.224	24566
617.289	23178
617.355	21729
617.421	21035
617.487	20251
617.552	20088
617.618	19251
617.684	18691
617.749	19314
617.815	18596
617.880	17778
617.946	17617
618.012	17348
618.077	17787
618.143	18083
618.208	16899
618.274	18390
618.339	19270
618.405	18825
618.470	15673
618.536	16557
618.601	16320
618.667	16418
618.732	14748
618.798	14041
618.863	14190
618.928	13368
618.994	14320
619.059	15315
619.124	16535
619.190	21409
619.255	15604
619.320	13980
619.386	14160
619.451	14191
619.516	13900
619.581	14079
619.647	13662
619.712	13856
619.777	13296
619.842	12495
619.907	13618
619.972	14124
620.038	13722
620.103	13818
620.168	12438
620.233	13138
620.298	13431
620.363	12853
620.428	13086
620.493	14058
620.558	14004
620.623	14608
620.688	13906
620.753	14056
620.818	14806
620.883	14562
620.948	13961
621.013	14356
621.078	14342
621.143	13751
621.207	15098
621.272	14974
621.337	15591
621.402	15131
621.467	14658
621.532	16127
621.596	15223
621.661	15129
621.726	13652
621.791	13632
621.855	13603
621.920	14472
621.985	14802
622.049	15363
622.114	15691
622.179	15345
622.243	13435
622.308	15241
622.373	14922
622.437	15073
622.502	14915
622.566	15059
622.631	14021
622.695	14651
622.760	14309
622.824	14790
622.889	15197
622.953	15491
623.018	16083
623.082	24074
623.147	22046
623.211	16522
623.276	16083
623.340	15131
623.404	14615
623.469	13959
623.533	14430
623.597	14216
623.662	14079
623.726	13363
623.790	12556
623.854	12037
623.919	11715
623.983	11204
624.047	12559
624.111	12265
624.176	12535
624.240	12322
624.304	14111
624.368	14169
624.432	12626
624.496	12412
624.560	13246
624.625	15806
624.689	17260
624.753	14344
624.817	13612
624.881	13015
624.945	13898
625.009	11474
625.073	12007
625.137	12778
625.201	13243
625.265	17139
625.329	15709
625.393	12395
625.456	13919
625.520	13093
625.584	13628
625.648	14328
625.712	15031
625.776	19169
625.839	33153
625.903	34488
625.967	16764
626.031	12523
626.095	15799
626.158	22819
626.222	13125
626.286	9420
626.349	8247
626.413	8853
626.477	8181
626.540	9307
626.604	8764
626.668	8687
626.731	7882
626.795	8063
626.858	8871
626.922	8113
626.986	7454
627.049	8168
627.113	8075
627.176	7610
627.240	7730
627.303	7512
627.366	7764
627.430	8073
627.493	7358
627.557	8026
627.620	8035
627.684	7390
627.747	8155
627.810	7961
627.874	7242
627.937	7013
628.000	6612
628.064	7491
628.127	7208
628.190	6290
628.253	6277
628.317	5916
628.380	6120
628.443	5860
628.506	5721
628.569	6059
628.632	5339
628.696	5000
628.759	5423
628.822	5586
628.885	4573
628.948	5207
629.011	4929
629.074	5191
629.137	5086
629.200	4803
629.263	4837
629.326	5053
629.389	4214
629.452	4014
629.515	4488
629.578	5195
629.641	4747
629.704	4529
629.767	5067
629.830	5210
629.892	4128
629.955	4546
630.018	4030
630.081	4898
630.144	6377
630.207	8336
630.269	5626
630.332	5129
630.395	5640
630.458	4929
630.520	3872
630.583	4813
630.646	4313
630.708	3616
630.771	3926
630.834	4408
630.896	4536
630.959	3970
631.021	4388
631.084	4912
631.146	4341
631.209	3846
631.272	4902
631.334	4406
631.397	4731
631.459	3997
631.522	4848
631.584	5599
631.646	5163
631.709	5167
631.771	5721
631.834	8678
631.896	5158
631.958	4726
632.021	4731
632.083	4523
632.145	4476
632.208	4046
632.270	4575
632.332	4671
632.395	4005
632.457	4645
632.519	4334
632.581	4463
632.643	3343
632.706	3834
632.768	4168
632.830	4036
632.892	3411
632.954	3355
633.016	3823
633.078	4242
633.141	3351
633.203	3448
633.265	3704
633.327	3446
633.389	3724
633.451	4168
633.513	4915
633.575	5256
633.637	5367
633.698	5498
633.760	5498
633.822	4155
633.884	4464
633.946	3921
634.008	3895
634.070	4519
634.132	5248
634.193	5210
634.255	5518
634.317	6772
634.379	6504
634.441	6458
634.502	6025
634.564	4524
634.626	5015
634.687	5042
634.749	3953
634.811	3991
634.873	3594
634.934	3159
634.996	2774
635.057	3438
635.119	3219
635.181	3459
635.242	3971
635.304	3878
635.365	3401
635.427	2736
635.488	4170
635.550	4100
635.611	3530
635.673	4155
635.734	3959
635.796	4353
635.857	4614
635.918	4959
635.980	5478
636.041	6298
636.102	6778
636.164	7575
636.225	6821
636.286	7067
636.348	5868
636.409	5203
636.470	4409
636.531	3762
636.593	4580
636.654	4482
636.715	3581
636.776	3062
636.838	3877
636.899	3156
636.960	3297
637.021	2554
637.082	3040
637.143	3014
637.204	2806
637.265	2947
637.326	2524
637.387	3009
637.448	2854
637.509	2810
637.570	2872
637.631	2966
637.692	2196
637.753	1731
637.814	2223
637.875	2537
637.936	2078
637.997	3140
638.058	2696
638.119	2699
638.179	3220
638.240	2864
638.301	2476
638.362	2460
638.423	2281
638.483	2396
638.544	2473
638.605	2148
638.666	2215
638.726	2440
638.787	2468
638.848	2445
638.908	2438
638.969	2239
639.030	2837
639.090	2162
639.151	2114
639.211	2568
639.272	3306
639.332	4764
639.393	7642
639.453	4438
639.514	2645
639.574	2513
639.635	2030
639.695	1791
639.756	2316
639.816	2373
639.877	2248
639.937	3980
639.997	6960
640.058	10380
640.118	3213
640.178	2743
640.239	1631
640.299	1254
640.359	2405
640.420	1845
640.480	2424
640.540	1824
640.600	3659
640.661	3687
640.721	3333
640.781	3065
640.841	4572
640.901	3150
640.961	2249
641.021	2163
641.082	2912
641.142	4020
641.202	5632
641.262	3393
641.322	1516
641.382	2641
641.442	2168
641.502	1216
641.562	2188
641.622	1806
641.682	1701
641.742	2897
641.802	2959
641.861	2160
641.921	2043
641.981	3056
642.041	3794
642.101	2605
642.161	4570
642.221	2240
642.280	2037
642.340	1786
642.400	1415
642.460	1290
642.519	1682
642.579	1944
642.639	1737
642.698	1938
642.758	2354
642.818	2413
642.877	1940
642.937	2303
642.997	2664
643.056	3332
643.116	4622
643.175	3232
643.235	2245
643.294	1836
643.354	2589
643.414	3167
643.473	3209
643.532	4231
643.592	5975
643.651	10447
643.711	17450
643.770	31694
643.830	67689
643.889	153846
643.948	379354
644.008	95985
644.067	12031
644.126	6801
644.186	5237
644.245	3528
644.304	2784
644.363	2963
644.423	3054
644.482	2301
644.541	2038
644.600	2361
644.659	2826
644.719	3745
644.778	4754
644.837	7339
644.896	14369
644.955	27807
645.014	72340
645.073	27432
645.132	4195
645.191	2733
645.250	2741
645.309	2511
645.368	1776
645.427	3430
645.486	3771
645.545	6108
645.604	12628
645.663	4271
645.722	2557
645.781	2578
645.840	3272
645.898	3678
645.957	5444
646.016	9014
646.075	15904
646.134	28876
646.192	56357
646.251	143822
646.310	262180
646.369	39472
646.427	7851
646.486	5138
646.545	3802
646.603	3743
646.662	3298
646.721	1650
646.779	1833
646.838	2305
646.896	1787
646.955	3599
647.014	4348
647.072	7491
647.131	14230
647.189	44150
647.248	25177
647.306	3105
647.365	1753
647.423	1383
647.481	728
647.540	1599
647.598	1993
647.657	1258
647.715	886
647.773	1153
647.832	1105
647.890	791
647.948	849
648.007	509
648.065	1171
648.123	1174
648.181	1524
648.240	1335
648.298	1016
648.356	1267
648.414	696
648.472	1507
648.531	1205
648.589	1724
648.647	1284
648.705	1525
648.763	1144
648.821	1035
648.879	1301
648.937	1489
648.995	1418
649.053	2477
649.111	3464
649.169	5922
649.227	11171
649.285	19923
649.343	41211
649.401	131442
649.459	81492
649.516	14945
649.574	8751
649.632	3884
649.690	3272
649.748	3546
649.806	3453
649.863	5357
649.921	9338
649.979	27263
650.037	23849
650.094	1702
650.152	1575
650.210	1800
650.268	1288
650.325	825
650.383	626
650.440	615
650.498	551
650.556	546
650.613	-134
650.671	802
650.728	1306
650.786	229
650.843	462
650.901	1111
650.958	648
651.016	940
651.073	710
651.131	132
651.188	127
651.246	481
651.303	65
651.360	497
651.418	527
651.475	114
651.532	457
651.590	-13
651.647	1397
651.704	460
651.762	967
651.819	691
651.876	1050
651.933	520
651.990	161
652.048	-250
652.105	-437
652.162	868
652.219	752
652.276	301
652.333	594
652.390	377
652.448	374
652.505	18
652.562	230
652.619	151
652.676	333
652.733	862
652.790	949
652.847	529
652.904	452
652.961	602
653.017	619
653.074	-357
653.131	1255
653.188	552
653.245	339
653.302	231
653.359	662
653.415	212
653.472	-113
653.529	105
653.586	323
653.642	616
653.699	750
653.756	157
653.813	762
653.869	276
653.926	232
653.983	353
654.039	17
654.096	209
654.152	-235
654.209	154
654.266	417
654.322	424
654.379	10
654.435	142
654.492	615
654.548	1185
654.605	1925
654.661	2332
654.717	1385
654.774	244
654.830	369
654.887	496
654.943	380
655.000	441
655.056	511
655.112	219
655.168	300
655.225	330
655.281	628
655.337	376
655.394	733
655.450	2032
655.506	1019
655.562	1416
655.618	2037
655.675	1418
655.731	626
655.787	576
655.843	240
655.899	274
655.955	861
656.011	700
656.067	273
656.123	1786
656.179	1543
656.235	1342
656.291	868
656.347	1862
656.403	1496
656.459	1266
656.515	1716
656.571	509
656.627	1320
656.683	131
656.739	530
656.795	530
656.850	970
656.906	820
656.962	839
657.018	698
657.074	-597
657.129	295
657.185	670
657.241	1153
657.297	2572
657.352	1824
657.408	-226
657.464	1140
657.519	-669
657.575	-172
657.630	273
657.686	21
657.742	107
657.797	384
657.853	-153
657.908	508
657.964	-390
658.019	-321
658.075	-556
658.130	-227
658.186	-266
658.241	-179
658.297	364
658.352	-167
658.407	455
658.463	-35
658.518	-150
658.573	-789
658.629	826
658.684	785
658.739	66
658.795	-511
658.850	188
658.905	-115
658.960	206
659.016	-58
659.071	-129
659.126	800
659.181	453
659.236	1183
659.291	2671
659.346	2674
659.401	1142
659.457	984
659.512	808
659.567	-6
659.622	367
659.677	-286
659.732	244
659.787	625
659.842	-578
659.897	150
659.952	204
660.007	556
660.061	-548
660.116	-400
660.171	-434
660.226	-153
660.281	347
660.336	-425
660.391	-444
660.445	-35
660.500	-156
660.555	-248
660.610	-908
660.664	304
660.719	395
660.774	159
660.828	256
660.883	-355
660.938	403
660.992	459
661.047	161
661.101	113
661.156	132
661.211	-147
661.265	149
661.320	-841
661.374	-351
661.429	-412
661.483	-66
661.538	-426
661.592	438
661.647	-29
661.701	648
661.755	-369
661.810	118
661.864	-413
661.919	76
661.973	-144
662.027	-273
662.081	-329
662.136	-359
662.190	-710
662.244	427
662.299	451
662.353	-178
662.407	-185
662.461	-305
662.515	-190
662.569	75
662.624	-214
662.678	-258
662.732	-276
662.786	-825
662.840	-392
662.894	3
662.948	-296
663.002	-232
663.056	32
663.110	-198
663.164	1
663.218	-23
663.272	-168
663.326	-270
663.380	206
663.434	265
663.488	3
663.542	83
663.595	271
663.649	-839
663.703	-3
663.757	975
663.811	210
663.864	119
663.918	116
663.972	-674
664.026	205
664.079	-868
664.133	-526
664.187	157
664.240	-668
664.294	471
664.348	286
664.401	244
664.455	589
664.508	-290
664.562	-302
664.615	304
664.669	-292
664.722	-490
664.776	-329
664.829	13
664.883	-73
664.936	63
664.990	90
665.043	-253
665.097	36
665.150	-221
665.203	13
665.257	839
665.310	203
665.363	141
665.417	721
665.470	-688
665.523	674
665.576	407
665.630	623
665.683	-695
665.736	-95
665.789	376
665.842	303
665.895	249
665.949	314
666.002	-342
666.055	278
666.108	759
666.161	294
666.214	-33
666.267	208
666.320	1038
666.373	453
666.426	302
666.479	255
666.532	463
666.585	227
666.638	-328
666.691	738
666.744	1163
666.796	-24
666.849	712
666.902	533
666.955	-38
667.008	389
667.060	-273
667.113	189
667.166	-168
667.219	346
667.271	752
667.324	369
667.377	-300
667.430	-264
667.482	501
667.535	1011
667.587	233
667.640	452
667.693	487
667.745	1088
667.798	1350
667.850	2938
667.903	817
667.955	327
668.008	-79
668.060	713
668.113	265
668.165	552
668.218	195
668.270	24
668.322	-448
668.375	4
668.427	568
668.479	714
668.532	-325
668.584	-245
668.636	-519
668.689	344
668.741	-288
668.793	-40
668.845	-1
668.898	452
668.950	195
669.002	430
669.054	-166
669.106	28
669.158	904
669.211	269
669.263	187
669.315	418
669.367	389
669.419	458
669.471	515
669.523	480
669.575	933
669.627	895
669.679	2088
669.731	1052
669.783	1086
669.835	1084
669.886	1088
669.938	1296
669.990	524
670.042	433
670.094	1004
670.146	1038
670.197	1947
670.249	1884
670.301	1719
670.353	3014
670.404	4198
670.456	7415
670.508	10845
670.560	17680
670.611	30234
670.663	51736
670.715	90114
670.766	178701
670.818	426775
670.869	245640
670.921	39084
670.972	13845
671.024	7979
671.075	5605
671.127	3759
671.178	3124
671.230	2523
671.281	2709
671.333	2301
671.384	1227
671.436	1794
671.487	2792
671.538	1833
671.590	2551
671.641	3804
671.692	4973
671.744	8094
671.795	18736
671.846	18011
671.897	5590
671.949	2184
672.000	2027
672.051	1618
672.102	645
672.153	642
672.204	126
672.256	567
672.307	2
672.358	53
672.409	933
672.460	44
672.511	107
672.562	290
672.613	738
672.664	-687
672.715	66
672.766	367
672.817	19
672.868	74
672.919	487
672.970	77
673.021	-257
673.071	-283
673.122	85
673.173	-529
673.224	262
673.275	-76
673.326	821
673.376	-199
673.427	-79
673.478	-112
673.528	-153
673.579	439
673.630	143
673.680	-66
673.731	133
673.782	111
673.832	325
673.883	94
673.934	-63
673.984	95
674.035	-493
674.085	545
674.136	-86
674.186	99
674.237	245
674.287	511
674.338	724
674.388	1086
674.438	285
674.489	356
674.539	218
674.589	284
674.640	-419
674.690	-251
674.740	236
674.791	840
674.841	5
674.891	375
674.942	44
674.992	-166
675.042	-667
675.092	-217
675.142	374
675.193	-199
675.243	414
675.293	415
675.343	31
675.393	-8
675.443	520
675.493	336
675.543	-3
675.593	335
675.643	181
675.693	318
675.743	-340
675.793	86
675.843	-111
675.893	152
675.943	541
675.993	-574
676.043	-57
676.093	-468
676.142	205
676.192	-546
676.242	479
676.292	107
676.341	-232
676.391	-342
676.441	59
676.491	-293
676.540	-442
676.590	-114
676.640	-274
676.689	-26
676.739	-190
676.789	-172
676.838	482
676.888	98
676.937	-148
676.987	125
677.037	-450
677.086	-208
677.136	-554
677.185	14
677.235	108
677.284	338
677.333	-258
677.383	-193
677.432	-267
677.482	60
677.531	77
677.580	-262
677.630	-113
677.679	-1056
677.728	118
677.778	455
677.827	-393
677.876	123
677.925	-217
677.975	-275
678.024	31
678.073	-250
678.122	-277
678.171	-359
678.220	-468
678.269	-145
678.319	641
678.368	-231
678.417	427
678.466	840
678.515	78
678.564	343
678.613	193
678.662	-318
678.711	-194
678.760	-1056
678.809	227
678.857	-459
678.906	-170
678.955	4
679.004	-113
679.053	207
679.102	-617
679.151	-110
679.199	133
679.248	-41
679.297	97
679.346	-377
679.394	903
679.443	-58
679.492	205
679.540	-668
679.589	-100
679.638	77
679.686	-670
679.735	-93
679.784	40
679.832	-466
679.881	422
679.929	-784
679.978	-445
680.026	-640
680.075	311
680.123	62
680.172	44
680.220	-372
680.268	13
680.317	-657
680.365	-518
680.414	15
680.462	-309
680.510	-278
680.559	115
680.607	-286
680.655	-253
680.703	-485
680.752	-307
680.800	376
680.848	118
680.896	-497
680.945	-322
680.993	-597
681.041	-298
681.089	-191
681.137	60
681.185	-378
681.233	-277
681.258	-285
681.281	-307
681.329	-392
681.377	118
681.380	118
681.425	-109
681.473	81
681.502	63
681.521	29
681.569	-320
681.617	-100
681.624	-78
681.665	-31
681.713	-645
681.745	-103
681.761	142
681.809	-288
681.857	77
681.867	103
681.904	147
681.952	357
681.989	654
682.000	727
682.048	131
682.096	15
682.111	38
682.143	38
682.191	326
682.233	-154
682.239	-239
682.286	-401
682.334	592
682.354	425
682.382	191
682.430	114
682.476	669
682.477	669
682.525	684
682.572	506
682.598	586
682.620	642
682.667	308
682.715	165
682.720	246
682.763	842
682.810	-119
682.841	59
682.857	161
682.905	695
682.952	879
682.963	887
683.000	833
683.047	526
683.085	560
683.095	547
683.142	688
683.190	649
683.206	679
683.237	729
683.284	537
683.328	770
683.332	777
683.379	746
683.426	753
683.449	902
683.473	1057
683.521	692
683.568	857
683.571	888
683.615	1148
683.662	888
683.693	597
683.709	437
683.757	1299
683.804	1095
683.814	1195
683.851	1424
683.898	1045
683.936	1259
683.945	1329
683.992	912
684.039	1396
684.057	1484
684.086	1543
684.133	1482
684.179	1282
684.180	1272
684.227	1770
684.274	1299
684.300	1859
684.321	2213
684.368	1182
684.415	2136
684.422	2060
684.462	1578
684.509	1423
684.543	1431
684.556	1401
684.603	966
684.649	1526
684.665	1576
684.696	1792
684.743	1397
684.786	1497
684.790	1491
684.837	1201
684.883	1601
684.908	1681
684.930	1780
684.977	1690
685.023	1639
685.029	1720
685.070	2313
685.117	2392
685.150	1877
685.164	1626
685.210	2135
685.257	2234
685.272	2222
685.303	2236
685.350	1924
685.393	2187
685.396	2206
685.443	2644
685.490	2424
685.514	2417
685.536	2416
685.583	2306
685.629	2349
685.636	2386
685.675	2472
685.722	2485
685.757	2407
685.768	2357
685.815	2195
685.861	2218
685.878	2316
685.908	2602
685.954	2479
686.000	2429
686.000	2423
686.047	2589
686.093	2064
686.121	2087
686.139	2195
686.185	2676
686.232	2654
686.242	2799
686.278	3116
686.324	3077
686.363	2809
686.370	2729
686.416	2427
686.463	2967
686.484	2776
686.509	2722
686.555	2479
686.601	2361
686.606	2384
686.647	2476
686.693	2902
686.727	3084
686.739	3150
686.785	3154
686.831	2791
686.848	2783
686.877	2751
686.923	2288
686.969	2279
686.969	2278
687.015	2322
687.061	2268
687.090	2443
687.107	2625
687.153	2781
687.199	3174
687.211	3070
687.245	2581
687.291	2675
687.332	2696
687.336	2717
687.382	2200
687.428	3029
687.453	3248
687.474	3368
687.520	2639
687.565	2874
687.574	2879
687.611	2911
687.657	2581
687.695	3055
687.702	3167
687.748	3042
687.794	3109
687.816	3170
687.839	3180
687.885	3445
687.931	3131
687.937	3144
687.976	3202
688.022	3449
688.058	3406
688.067	3403
688.113	2804
688.158	3620
688.179	3490
688.204	3373
688.249	3555
688.295	3517
688.300	3543
688.340	3549
688.386	3518
688.421	3413
688.431	3437
688.477	3041
688.522	3613
688.542	3489
688.567	3249
688.613	2930
688.658	3082
688.663	3086
688.703	3377
688.749	3294
688.784	3920
688.794	4055
688.839	3512
688.884	3791
688.905	3685
688.930	3608
688.975	3814
689.020	3436
689.026	3462
689.065	3469
689.110	2951
689.146	3313
689.155	3475
689.201	3342
689.246	3617
689.267	3574
689.291	3468
689.336	3097
689.381	3743
689.388	3750
689.426	3731
689.471	3344
689.509	3409
689.516	3466
689.561	3761
689.606	3919
689.630	3814
689.651	3578
689.696	3544
689.741	3169
689.750	3229
689.785	3710
689.830	3665
689.871	4029
689.875	4050
689.920	3641
689.965	3718
689.992	3694
690.010	3725
690.054	3889
690.099	3627
690.112	3703
690.144	3940
690.189	3543
690.233	3820
690.233	3827
690.278	3654
690.323	3973
690.354	3765
690.367	3700
690.412	3812
690.457	3764
690.474	3753
690.501	3727
690.546	3964
690.590	3454
690.595	3470
690.635	3727
690.680	3808
690.716	3858
690.724	3865
690.769	3952
690.813	3743
690.836	3611
690.857	3569
690.902	3706
690.946	3910
690.957	3983
690.991	4233
691.035	3971
691.077	4294
691.080	4325
691.124	4557
691.168	4582
691.198	4674
691.213	4700
691.257	4502
691.301	4759
691.318	4757
691.346	4762
691.390	4664
691.434	4877
691.439	4864
691.478	4815
691.522	4944
691.559	4759
691.567	4710
691.611	4817
691.655	4619
691.680	4525
691.699	4566
691.743	4840
691.787	4602
691.800	4650
691.831	4699
691.875	4395
691.919	4435
691.921	4426
691.964	4450
692.008	4262
692.041	4150
692.052	4185
692.096	4361
692.139	4528
692.162	4575
692.183	4551
692.227	4535
692.271	4311
692.282	4339
692.315	4608
692.359	4615
692.402	4925
692.403	4936
692.447	4922
692.490	4606
692.523	4485
692.534	4553
692.578	4665
692.622	4798
692.643	4858
692.666	4880
692.709	5045
692.753	4981
692.763	4998
692.797	5035
692.840	4873
692.884	4756
692.884	4768
692.928	4652
692.971	4743
693.004	4854
693.015	4941
693.059	4843
693.102	4852
693.124	5046
693.146	5168
693.189	4876
693.233	4910
693.245	4851
693.276	4794
693.320	4787
693.363	4713
693.365	4707
693.407	5053
693.450	5265
693.485	5305
693.493	5286
693.537	5267
693.580	5180
693.605	5088
693.624	5106
693.667	5465
693.710	5598
693.725	5485
693.753	5110
693.797	4937
693.840	4729
693.845	4687
693.883	4969
693.926	5418
693.966	5454
693.970	5466
694.013	5705
694.056	6208
694.086	6233
694.099	6110
694.142	5822
694.185	5648
694.206	5487
694.229	5494
694.272	5599
694.315	5621
694.326	5594
694.358	5636
694.401	5567
694.444	5800
694.446	5794
694.487	5995
694.530	6078
694.566	6081
694.573	6130
694.616	6496
694.659	6579
694.686	6823
694.702	6637
694.745	5941
694.787	5419
694.806	5098
694.830	5136
694.873	5266
694.916	5327
694.926	5296
694.959	5104
695.002	4868
695.044	4771
695.046	4754
695.087	4934
695.130	4994
695.166	5101
695.172	5168
695.215	5486
695.258	5906
695.286	6016
695.301	5915
695.343	5561
695.386	5421
695.406	5348
695.428	5495
695.471	5467
695.514	5632
695.526	5633
695.556	5545
695.599	5500
695.641	5544
695.646	5526
695.684	5637
695.726	5601
695.766	5605
695.769	5610
695.811	5546
695.854	5288
695.886	5193
695.896	5277
695.938	5488
695.981	5869
696.005	5931
696.023	5868
696.065	5779
696.108	5746
696.125	5660
696.150	5727
696.192	5991
696.235	6119
696.245	6147
696.277	6164
696.319	6182
696.361	6072
696.365	6054
696.404	5916
696.446	5705
696.485	5489
696.488	5515
696.530	5697
696.572	5752
696.604	5866
696.614	5923
696.656	6085
696.698	6195
696.724	6234
696.740	6261
696.783	6317
696.825	6343
696.844	6401
696.867	6298
696.909	5848
696.951	5489
696.964	5404
696.992	5602
697.034	5647
697.076	5845
697.083	5849
697.118	5941
697.160	6012
697.202	6091
697.203	6077
697.244	5958
697.286	5675
697.323	5477
697.327	5518
697.369	5637
697.411	5844
697.442	5969
697.453	6038
697.494	6237
697.536	6447
697.562	6579
697.578	6575
697.620	6504
697.661	6315
697.682	6268
697.703	6291
697.744	6228
697.786	6224
697.801	6195
697.828	6342
697.869	6511
697.911	6743
697.921	6784
697.952	7339
697.994	7931
698.035	8588
698.040	8643
698.077	8192
698.118	7644
698.160	7034
698.160	7008
698.201	6975
698.243	6845
698.279	6706
698.284	6719
698.325	6688
698.367	6610
698.399	6543
698.408	6569
698.449	6591
698.491	6623
698.518	6620
698.532	6691
698.573	6815
698.614	6988
698.638	7057
698.656	7002
698.697	6826
698.738	6635
698.757	6534
698.779	6571
698.820	6595
698.862	6620
698.877	6609
698.903	6837
698.944	7174
698.985	7506
698.996	7578
699.026	7293
699.067	6866
699.116	6338
699.235	6897
699.354	6693
699.474	7071
699.593	6456
699.713	7362
699.832	7962
699.951	6601
700.070	7149
700.190	6979
700.309	6391
700.428	6687
700.547	6474
700.667	6961
700.786	6196
700.905	6517
701.024	6489
701.143	5812
701.262	7019
701.381	5923
701.500	6182
701.619	6540
701.738	7888
701.857	6727
701.976	6058
702.095	5107
702.214	5545
702.333	6049
702.452	7273
702.571	6701
702.690	6347
702.809	6343
702.928	6334
703.047	6654
703.165	6237
703.284	6676
703.403	5639
703.522	5605
703.640	6256
703.759	6364
703.878	6276
703.997	7800
704.115	7340
704.234	5637
704.353	5587
704.471	5715
704.590	5836
704.708	5017
704.827	4992
704.946	5743
705.064	5364
705.183	6696
705.301	6122
705.420	5940
705.538	7087
705.656	7011
705.775	6610
705.893	6052
706.012	6069
706.130	6372
706.249	5812
706.367	7105
706.485	6223
706.604	5938
706.722	5816
706.840	6665
706.958	6209
707.077	6883
707.195	6871
707.313	6350
707.431	5183
707.549	5345
707.668	5671
707.786	6218
707.904	5681
708.022	6314
708.140	5245
708.258	5265
708.376	5436
708.494	5569
708.612	5354
708.730	6082
708.848	7108
708.966	8206
709.084	7069
709.202	6810
709.320	6649
709.438	5914
709.556	6293
709.674	6907
709.791	6072
709.909	6693
710.027	6036
710.145	6202
710.263	6043
710.380	6065
710.498	6262
710.616	6209
710.733	5073
710.851	5746
710.969	6518
711.086	6168
711.204	5807
711.322	6056
711.439	6137
711.557	6214
711.674	5677
711.792	5292
711.909	5581
712.027	5955
712.144	4835
712.262	5374
712.379	5006
712.497	6928
712.614	7279
712.732	8172
712.849	7662
712.966	6963
713.084	6974
713.201	8156
713.318	8332
713.436	6954
713.553	6123
713.670	7145
713.787	6045
713.905	6938
714.022	7779
714.139	7107
714.256	6429
714.373	7715
714.490	10167
714.608	15912
714.725	30389
714.842	118669
714.959	387639
715.076	66705
715.193	11413
715.310	9216
715.427	8190
715.544	6952
715.661	6174
715.778	6016
715.895	6667
716.011	5826
716.128	6057
716.245	7087
716.362	6733
716.479	6277
716.596	8772
716.713	6464
716.829	5269
716.946	5282
717.063	5832
717.180	4729
717.296	5224
717.413	4900
717.530	5261
717.646	4816
717.763	5370
717.880	5265
717.996	4977
718.113	5497
718.229	5380
718.346	4888
718.462	5291
718.579	5096
718.695	5793
718.812	9936
718.928	11241
719.045	6758
719.161	5943
719.277	4827
719.394	4366
719.510	4854
719.626	3992
719.743	4756
719.859	6834
719.975	7362
720.092	11128
720.208	33090
720.324	141664
720.440	75756
720.557	8091
720.673	6775
720.789	7757
720.905	11621
721.021	14214
721.137	15052
721.253	5555
721.369	5029
721.486	4567
721.602	5029
721.718	5549
721.834	4752
721.950	4606
722.066	4699
722.181	3499
722.297	4016
722.413	3942
722.529	4728
722.645	3750
722.761	3748
722.877	3804
722.993	3760
723.108	3963
723.224	4567
723.340	4325
723.456	4386
723.571	3637
723.687	3743
723.803	3870
723.918	3533
724.034	3679
724.150	3260
724.265	3886
724.381	3641
724.497	4895
724.612	11220
724.728	4459
724.843	3872
724.959	3261
725.074	4039
725.190	5056
725.305	11046
725.421	4406
725.536	3670
725.651	3345
725.767	2875
725.882	3445
725.997	2691
726.113	3596
726.228	3334
726.343	3174
726.459	3308
726.574	3290
726.689	3518
726.804	3231
726.920	2738
727.035	3499
727.150	2804
727.265	3268
727.380	2759
727.495	2533
727.610	2840
727.725	2770
727.841	2459
727.956	3037
728.071	3358
728.186	3201
728.301	2943
728.416	3003
728.531	2804
728.645	3233
728.760	2993
728.875	3405
728.990	3252
729.105	3276
729.220	3240
729.335	2827
729.449	4282
729.564	2927
729.679	2655
729.794	3340
729.908	2780
730.023	3097
730.138	2978
730.253	2711
730.367	2588
730.482	2933
730.596	2426
730.711	2680
730.826	3240
730.940	3113
731.055	3055
731.169	2816
731.284	3232
731.398	2495
731.513	2893
731.627	3401
731.742	3449
731.856	3017
731.970	3984
732.085	3985
732.199	3896
732.313	4930
732.428	7449
732.542	14600
732.656	47790
732.771	86067
732.885	16771
732.999	6045
733.113	4333
733.227	4394
733.342	4009
733.456	2701
733.570	2999
733.684	3036
733.798	3207
733.912	3358
734.026	3041
734.140	3549
734.254	3024
734.368	2850
734.482	3573
734.596	6004
734.710	3291
734.824	2422
734.938	2750
735.052	2396
735.166	3382
735.280	2596
735.393	3045
735.507	2431
735.621	2764
735.735	2573
735.849	4456
735.962	4894
736.076	2549
736.190	2379
736.303	3192
736.417	2391
736.531	4669
736.644	3076
736.758	2992
736.872	2677
736.985	2412
737.099	2538
737.212	1895
737.326	2411
737.439	2272
737.553	1709
737.666	2700
737.780	2790
737.893	2587
738.007	2801
738.120	2222
738.233	1996
738.347	2075
738.460	2092
738.573	1898
738.687	2521
738.800	2794
738.913	2036
739.026	3710
739.140	3558
739.253	2599
739.366	2422
739.479	2202
739.592	2062
739.705	2318
739.818	1967
739.932	2272
740.045	1940
740.158	2309
740.271	2630
740.384	1922
740.497	1583
740.610	1710
740.723	2403
740.836	2112
740.949	1936
741.062	2936
741.174	2820
741.287	4138
741.400	2652
741.513	1529
741.626	1926
741.739	2175
741.851	1982
741.964	2030
742.077	2283
742.189	2150
742.302	2673
742.415	2420
742.527	2282
742.640	2030
742.753	2216
742.865	1754
742.978	1616
743.090	1320
743.203	2811
743.316	1839
743.428	2156
743.541	1969
743.653	2090
743.766	2310
743.878	1722
743.990	2007
744.103	2414
744.215	3609
744.327	2255
744.440	2334
744.552	2552
744.664	4374
744.777	4069
744.889	2529
745.001	1616
745.113	1227
745.226	1448
745.338	1826
745.450	1548
745.562	1730
745.674	1957
745.786	1947
745.898	1264
746.010	1522
746.122	2523
746.234	1910
746.347	1451
746.459	2075
746.570	1308
746.682	1621
746.794	1568
746.906	2550
747.018	2085
747.130	1849
747.242	1495
747.354	2031
747.466	2358
747.577	1342
747.689	1317
747.801	1574
747.913	1451
748.024	1686
748.136	1735
748.248	1303
748.359	1116
748.471	1829
748.583	1504
748.694	1688
748.806	1723
748.918	2044
749.029	1490
749.141	2406
749.252	1847
749.364	1840
749.475	1932
749.587	2747
749.698	4393
749.809	2012
749.921	1011
750.032	1393
750.144	1710
750.255	1620
750.366	1457
750.478	1299
750.589	1863
750.700	1572
750.811	940
750.923	1788
751.034	1675
751.145	3612
751.256	7596
751.367	2672
751.479	1564
751.590	933
751.701	1301
751.812	912
751.923	622
752.034	1298
752.145	939
752.256	1526
752.367	1368
752.478	1000
752.589	816
752.700	1395
752.811	1118
752.922	805
753.032	739
753.143	1583
753.254	1519
753.365	1613
753.476	763
753.586	1702
753.697	1520
753.808	1161
753.919	816
754.029	759
754.140	1807
754.251	710
754.361	1055
754.472	1021
754.582	467
754.693	1350
754.804	1350
754.914	551
755.025	1068
755.135	1015
755.246	808
755.356	1319
755.466	1476
755.577	1473
755.687	456
755.798	1006
755.908	1036
756.018	277
756.129	1313
756.239	1148
756.349	1192
756.460	1531
756.570	2168
756.680	1072
756.790	366
756.900	680
757.011	811
757.121	1347
757.231	935
757.341	1248
757.451	946
757.561	1737
757.671	557
757.781	769
757.891	915
758.001	1049
758.111	1115
758.221	1014
758.331	517
758.441	867
758.551	1103
758.661	864
758.771	2675
758.880	706
758.990	1096
759.100	1526
759.210	1215
759.320	1138
759.429	623
759.539	541
759.649	1167
759.758	1979
759.868	179
759.978	1768
760.087	1433
760.197	2109
760.307	1576
760.416	976
760.526	1118
760.635	1841
760.745	782
760.854	1082
760.964	1723
761.073	1901
761.182	1668
761.292	1787
761.401	948
761.511	1097
761.620	2137
761.729	756
761.839	1075
761.948	624
762.057	1395
762.166	756
762.276	558
762.385	891
762.494	768
762.603	1258
762.712	1518
762.822	1017
762.931	725
763.040	1573
763.149	512
763.258	388
763.367	-204
763.476	1565
763.585	102
763.694	884
763.803	1431
763.912	633
764.021	1142
764.130	898
764.238	1638
764.347	951
764.456	505
764.565	1411
764.674	894
764.783	554
764.891	694
765.000	800
765.109	1147
765.217	837
765.326	1535
765.435	2013
765.543	1917
765.652	1079
765.761	1753
765.869	2083
765.978	2492
766.086	2756
766.195	4682
766.303	8929
766.412	19466
766.520	68749
766.629	181115
766.737	56949
766.846	8793
766.954	4135
767.062	3195
767.171	2067
767.279	2155
767.387	1940
767.496	1313
767.604	2063
767.712	1539
767.820	1466
767.928	1302
768.037	876
768.145	802
768.253	1150
768.361	1053
768.469	1171
768.577	1327
768.685	755
768.793	832
768.901	1013
769.009	1366
769.117	703
769.225	1536
769.333	1646
769.441	1440
769.549	2328
769.657	3336
769.765	7721
769.873	22806
769.981	88652
770.088	97243
770.196	10309
770.304	3133
770.412	2843
770.519	1204
770.627	1914
770.735	1475
770.842	1899
770.950	755
771.058	520
771.165	1601
771.273	1410
771.380	1347
771.488	1071
771.595	429
771.703	702
771.810	709
771.918	892
772.025	1048
772.133	795
772.240	1440
772.348	1374
772.455	1142
772.562	1635
772.670	1003
772.777	1216
772.884	1273
772.991	781
773.099	972
773.206	589
773.313	23
773.420	891
773.528	1058
773.635	1401
773.742	733
773.849	784
773.956	715
774.063	635
774.170	1260
774.277	1061
774.384	1320
774.491	1106
774.598	666
774.705	820
774.812	1025
774.919	1661
775.026	1587
775.133	1200
775.239	1624
775.346	1014
775.453	612
775.560	1342
775.667	962
775.773	341
775.880	1155
775.987	970
776.093	1382
776.200	910
776.307	776
776.413	1162
776.520	36
776.627	804
776.733	1429
776.840	1196
776.946	1171
777.053	474
777.159	1949
777.266	2945
777.372	2455
777.478	2611
777.585	2849
777.691	2529
777.798	1668
777.904	1502
778.010	806
778.117	1293
778.223	2179
778.329	1750
778.435	437
778.542	645
778.648	618
778.754	416
778.860	1464
778.966	586
779.072	933
779.178	354
779.284	447
779.391	1089
779.497	317
779.603	1056
779.708	905
779.815	884
779.920	422
780.026	876
780.132	1907
780.238	1363
780.344	375
780.450	843
780.556	587
780.661	372
780.767	682
780.873	1030
780.979	-218
781.085	389
781.190	1009
781.296	844
781.402	339
781.507	430
781.613	525
781.719	810
781.824	713
781.930	1131
782.035	746
782.141	225
782.246	924
782.352	763
782.457	893
782.563	545
782.668	53
782.773	650
782.879	456
782.984	501
783.090	339
783.195	623
783.300	926
783.405	1507
783.511	1173
783.616	428
783.721	522
783.826	549
783.932	421
784.037	767
784.142	1213
784.247	874
784.352	692
784.457	1204
784.562	647
784.667	859
784.772	142
784.877	343
784.982	426
785.087	689
785.192	915
785.297	486
785.402	99
785.507	71
785.611	589
785.716	162
785.821	772
785.926	414
786.031	641
786.135	1196
786.240	-307
786.345	475
786.450	-44
786.554	-231
786.659	651
786.763	231
786.868	361
786.973	315
787.077	-56
787.182	-208
787.286	497
787.391	315
787.495	336
787.600	20
787.704	-54
787.809	156
787.913	325
788.017	335
788.122	-1311
788.226	173
788.330	11
788.435	-232
788.539	195
788.643	298
788.747	376
788.852	500
788.956	-686
789.060	389
789.164	14
789.268	258
789.372	691
789.476	335
789.580	-288
789.684	243
789.788	-8
789.892	-83
789.996	27
790.100	-188
790.204	-19
790.308	485
790.412	-39
790.516	908
790.620	-270
790.724	-37
790.828	68
790.931	863
791.035	-344
791.139	-103
791.242	-430
791.346	305
791.450	292
791.554	382
791.657	-268
791.761	201
791.864	930
791.968	574
792.072	307
792.175	645
792.279	180
792.382	1020
792.486	696
792.589	-218
792.693	-109
792.796	281
792.899	-923
793.003	50
793.106	126
793.209	191
793.313	355
793.416	35
793.519	-311
793.623	739
793.726	1205
793.829	1492
793.932	1281
794.035	-55
794.138	112
794.242	-370
794.345	394
794.448	479
794.551	370
794.654	1221
794.757	1997
794.860	584
794.963	577
795.066	895
795.169	527
795.272	-347
795.375	-179
795.477	48
795.580	89
795.683	-565
795.786	-452
795.889	-832
795.991	-828
796.094	-29
796.197	-322
796.300	56
796.402	-200
796.505	719
796.608	99
796.710	121
796.813	-1014
796.915	171
797.018	298
797.120	-240
797.223	-258
797.326	-482
797.428	-363
797.530	-196
797.633	-176
797.735	471
797.838	-158
797.940	806
798.042	344
798.145	87
798.247	-115
798.349	495
798.452	-432
798.554	-130
798.656	-151
798.758	-249
798.860	285
798.962	197
799.065	11
799.167	-8
799.269	-113
799.371	792
799.473	51
799.575	482
799.677	-101
799.779	-306
799.881	-160
799.983	1274
800.085	1022
800.187	-504
800.289	-241
800.390	385
800.492	-145
800.594	435
800.696	-963
800.798	-191
800.899	-320
801.001	-355
801.103	-199
801.205	-330
801.306	-468
801.408	-401
801.509	60
801.611	383
801.713	-539
801.814	-829
801.916	-125
802.017	-205
802.119	126
802.220	-807
802.322	-286
802.423	-60
802.525	-775
802.626	135
802.727	-163
802.829	-634
802.930	-630
803.031	76
803.133	-259
803.234	284
803.335	-22
803.436	-434
803.538	-493
803.639	380
803.740	-922
803.841	-205
803.942	144
804.043	-243
804.144	-858
804.245	272
804.346	-273
804.447	-352
804.548	399
804.649	6
804.750	688
804.851	431
804.952	519
805.053	-129
805.154	-871
805.255	371
805.355	169
805.456	-940
805.557	-388
805.658	-477
805.758	-623
805.859	184
805.960	-50
806.061	-980
806.161	-166
806.262	-399
806.362	-779
806.463	-216
806.564	140
806.664	-166
806.765	-745
806.865	167
806.966	272
807.066	-44
807.166	-79
807.267	911
807.367	-226
807.468	-128
807.568	-1490
807.668	-531
807.769	-581
807.869	-514
807.969	-621
808.069	370
808.170	-151
808.270	-723
808.370	-338
808.470	-987
808.570	-327
808.670	-264
808.770	-131
808.870	-445
808.970	-625
809.070	-397
809.170	84
809.271	-223
809.370	-324
809.470	-395
809.570	-416
809.670	-593
809.770	-595
809.870	-111
809.970	-467
810.070	-546
810.169	18
810.269	-277
810.369	-275
810.469	-624
810.568	-546
810.668	-272
810.768	-572
810.867	-132
810.967	-866
811.066	-218
811.166	-635
811.265	-374
811.365	-171
811.464	580
811.564	17
811.663	291
811.763	-743
811.862	-203
811.962	-298
812.061	77
812.160	-176
812.260	-45
812.359	867
812.458	266
812.557	927
812.657	1770
812.756	6375
812.855	4945
812.954	498
813.053	-6
813.153	-742
813.252	68
813.351	21
813.450	-566
813.549	-225
813.648	-23
813.747	441
813.846	424
813.945	-179
814.044	-230
814.143	137
814.242	568
814.341	243
814.439	-455
814.538	-92
814.637	18
814.736	-486
814.835	535
814.933	-139
815.032	-78
815.131	-56
815.229	375
815.328	185
815.427	926
815.525	495
815.624	692
815.722	-23
815.821	510
815.919	25
816.018	-27
816.116	408
816.215	1917
816.313	573
816.412	739
816.510	1133
816.609	590
816.707	828
816.805	797
816.904	1087
817.002	1761
817.100	1869
817.198	2114
817.296	2601
817.395	2992
817.493	2687
817.591	3372
817.689	3500
817.787	4751
817.885	7657
817.983	11825
818.081	19917
818.179	37354
818.277	83584
818.375	193624
818.473	336536
818.571	182155
818.669	58022
818.767	28891
818.865	21281
818.963	19434
819.061	20339
819.158	25581
819.256	39984
819.354	71865
819.452	149198
819.549	313841
819.647	416503
819.745	211901
819.842	79598
819.940	38438
820.038	24213
820.135	17127
820.233	12558
820.330	9221
820.428	7453
820.525	6523
820.623	4666
820.720	4441
820.818	3496
820.915	3489
821.012	3160
821.110	2790
821.207	2690
821.304	2044
821.402	1524
821.499	1492
821.596	1751
821.693	1805
821.791	1926
821.888	1753
821.985	2221
822.082	2315
822.179	3370
822.276	1747
822.373	948
822.470	302
822.567	602
822.664	617
822.761	425
822.858	460
822.955	387
823.052	1243
823.149	69
823.246	108
823.343	401
823.440	104
823.536	-444
823.633	226
823.730	199
823.827	353
823.923	-8
824.020	700
824.117	-434
824.213	223
824.310	517
824.407	-554
824.503	-489
824.600	-58
824.696	-455
824.793	281
824.889	-71
824.986	-248
825.082	-82
825.179	-464
825.275	193
825.371	-417
825.468	220
825.564	307
825.660	-816
825.757	-455
825.853	369
825.949	-171
826.045	-204
826.142	-815
826.238	-25
826.334	253
826.430	-715
826.526	-338
826.622	-606
826.718	-131
826.814	-889
826.910	424
827.006	-845
827.102	-825
827.198	-455
827.294	-375
827.390	109
827.486	-259
827.582	-346
827.678	-1140
827.774	-61
827.869	-667
827.965	-350
828.061	-445
828.157	483
828.252	-652
828.348	-300
828.444	-53
828.539	-182
828.635	-335
828.731	-561
828.826	-1078
828.922	-41
829.017	-524
829.113	-72
829.208	-320
829.304	-187
829.399	-342
829.495	-638
829.590	-334
829.685	-131
829.781	311
829.876	-390
829.971	173
830.066	-516
830.162	-398
830.257	-872
830.352	-256
830.447	-479
830.543	-640
830.638	-804
830.733	397
830.828	114
830.923	-200
831.018	-510
831.113	43
831.208	-770
831.303	-647
831.398	109
831.493	-464
831.588	-330
831.683	-783
831.778	-581
831.873	-341
831.967	-270
832.062	-836
832.157	39
832.252	-522
832.346	-1085
832.441	-298
832.536	203
832.631	856
832.725	742
832.820	2920
832.914	1022
833.009	-704
833.104	-595
833.198	-309
833.293	-34
833.387	-463
833.482	-526
833.576	-418
833.670	-625
833.765	274
833.859	-525
833.954	-677
834.048	-563
834.142	-169
834.237	-610
834.331	-464
834.425	-417
834.519	-1309
834.613	-149
834.708	-785
834.802	-590
834.896	-1029
834.990	-1402
835.084	204
835.178	-685
835.272	-467
835.366	-220
835.460	-852
835.554	-211
835.648	-604
835.742	-706
835.836	-128
835.930	-1217
836.024	-588
836.117	-491
836.211	-250
836.305	-9
836.399	7
836.493	152
836.586	-311
836.680	-581
836.774	-974
836.867	-789
836.961	-1140
837.055	-693
837.148	-674
837.242	-1252
837.335	-691
837.429	-776
837.522	-733
837.616	168
837.709	456
837.803	-454
837.896	-597
837.989	-775
838.083	-66
838.176	-585
838.269	77
838.363	63
838.456	-588
838.549	-450
838.642	-470
838.735	600
838.829	1164
838.922	2184
839.015	401
839.108	-1191
839.201	297
839.294	-848
839.387	-334
839.480	-1220
839.573	55
839.666	-269
839.759	206
839.852	-883
839.945	-805
840.038	-1157
840.131	-580
840.223	-640
840.316	114
840.409	-1083
840.502	-1179
840.594	-495
840.687	-65
840.780	-842
840.873	-1030
840.965	-756
841.058	-283
841.150	-527
841.243	1
841.336	437
841.428	-735
841.521	-273
841.613	-807
841.706	-467
841.798	-432
841.890	-1074
841.983	-966
842.075	-329
842.167	-335
842.260	-1243
842.352	-331
842.444	-1125
842.537	249
842.629	-293
842.721	606
842.813	717
842.905	-417
842.997	-867
843.090	-813
843.182	-485
843.274	-735
843.366	38
843.458	910
843.550	3326
843.642	4556
843.734	1222
843.826	-473
843.918	-523
844.009	3
844.101	-275
844.193	-873
844.285	-677
844.377	-862
844.469	-238
844.560	-124
844.652	-364
844.744	-93
844.835	-196
844.927	-582
845.019	-773
845.110	-876
845.202	-468
845.293	-758
845.385	-629
845.476	-813
845.568	-1153
845.659	-428
845.751	-532
845.842	-247
845.934	-589
846.025	-827
846.116	-1180
846.208	-1310
846.299	-1134
846.390	-847
846.482	-403
846.573	-629
846.664	-430
846.755	-383
846.846	120
846.937	782
847.029	-692
847.120	-942
847.211	-1444
847.302	-221
847.393	-1371
847.484	-833
847.575	-1711
847.666	-743
847.757	-577
847.847	-578
847.938	-363
848.029	-1683
848.120	-601
848.211	-1019
848.302	-455
848.392	-931
848.483	-937
848.574	-959
848.664	-1221
848.755	-226
848.846	-833
848.936	-978
849.027	-1045
849.118	-400
849.208	-556
849.299	-685
849.389	-853
849.480	-13
849.570	818
849.661	1920
849.751	5240
849.841	12257
849.932	12230
850.022	1480
850.112	-445
850.203	-704
850.293	-858
850.383	-786
850.474	-102
850.564	-744
850.654	-280
850.744	-713
850.834	-630
850.924	-213
851.014	-1083
851.104	-977
851.194	-914
851.284	-166
851.374	-565
851.464	-249
851.554	285
851.644	-1191
851.734	-503
851.824	-983
851.914	-384
852.004	-892
852.094	-844
852.183	-794
852.273	-1018
852.363	-185
852.452	-376
852.542	-1238
852.632	-1370
852.721	-919
852.811	-626
852.901	-491
852.990	-1024
853.080	-399
853.169	-975
853.259	-625
853.348	-794
853.438	-699
853.527	-379
853.617	-212
853.706	284
853.795	1728
853.885	4125
853.974	9177
854.063	21911
854.152	38662
854.242	82098
854.331	81037
854.420	15206
854.509	2118
854.598	431
854.687	733
854.777	-102
854.866	7
854.955	-217
855.044	-879
855.133	-944
855.222	-479
855.311	-959
855.400	-1238
855.488	-1584
855.577	-1198
855.666	-309
855.755	-355
855.844	-751
855.933	-1231
856.021	-307
856.110	-593
856.199	-357
856.288	-1186
856.376	-1366
856.465	-686
856.554	-1078
856.642	-1185
856.731	80
856.819	-1040
856.908	-904
856.996	-725
857.085	-1305
857.173	-1064
857.262	-316
857.350	-748
857.438	-1053
857.527	-1363
857.615	-1007
857.703	-1157
857.792	-939
857.880	-1048
857.968	-438
858.056	-1392
858.145	-1502
858.233	-1019
858.321	-1043
858.409	-817
858.497	-1256
858.585	-575
858.673	-1126
858.761	-972
858.849	-701
858.937	-801
859.025	-1193
859.113	-514
859.201	-1007
859.289	-977
859.377	-1185
859.465	-745
859.552	-1509
859.640	-1262
859.728	-1342
859.816	-1517
859.903	-1113
859.991	-1565
860.079	-662
860.166	-1177
860.254	-747
860.342	-957
860.429	-1131
860.517	-1288
860.604	-733
860.692	-1152
860.779	-878
860.867	-395
860.954	-1129
861.042	-633
861.129	-832
861.216	-762
861.304	-1341
861.391	-656
861.478	-828
861.565	-845
861.653	-437
861.740	-1560
861.827	-977
861.914	-1309
862.001	-1125
862.089	-1008
862.176	-1596
862.263	-263
862.350	-1452
862.437	-1205
862.524	-878
862.611	-1443
862.698	-1470
862.785	-344
862.871	-1183
862.958	-691
863.045	-883
863.132	-1097
863.219	-1512
863.306	-766
863.392	-942
863.479	-512
863.566	-831
863.652	-226
863.739	-810
863.826	-782
863.912	-477
863.999	-789
864.086	-1625
864.172	-1318
864.259	-758
864.345	-437
864.432	-1291
864.518	-489
864.604	-651
864.691	-808
864.777	-1276
864.863	-1387
864.950	-1053
865.036	-452
865.122	-495
865.209	47
865.295	21
865.381	-458
865.467	-947
865.553	292
865.639	-72
865.726	723
865.812	1513
865.898	3753
865.984	10095
866.070	18203
866.156	27537
866.242	55592
866.328	35689
866.414	4855
866.499	542
866.585	-87
866.671	-549
866.757	160
866.843	-697
866.928	-148
867.014	-1124
867.100	-952
867.186	-619
867.271	-545
867.357	-424
867.442	-121
867.528	720
867.614	108
867.699	-575
867.785	131
867.870	214
867.956	-380
868.041	-684
868.127	-93
868.212	-384
868.297	-388
868.383	126
868.468	-602
868.553	-254
868.639	568
868.724	1190
868.809	1065
868.894	3668
868.979	2321
869.065	-515
869.150	-629
869.235	-778
869.320	-422
869.405	-673
869.490	-90
869.575	-660
869.660	-1111
869.745	-518
869.830	-1191
869.915	-955
870.000	-897
870.085	-790
870.169	-592
870.254	-1333
870.339	-1032
870.424	-904
870.509	-912
870.593	-834
870.678	-921
870.763	-666
870.847	-883
870.932	-976
871.016	-861
871.101	-677
871.186	-793
871.270	-1200
871.355	-1958
871.439	-1134
871.523	-1022
871.608	-730
871.692	-1031
871.777	-792
871.861	-853
871.945	-417
872.030	-1165
872.114	-738
872.198	-214
872.282	-1204
872.367	-867
872.451	-1336
872.535	-893
872.619	-1048
872.703	-989
872.787	-1523
872.871	-1375
872.955	-1016
873.039	-709
873.123	-543
873.207	-1043
873.291	-609
873.375	-850
873.459	-774
873.543	-991
873.627	-1576
873.711	-1111
873.794	-878
873.878	-1095
873.962	-963
874.045	-1411
874.129	-815
874.137	-829
874.213	-971
874.245	-1003
874.296	-1058
874.352	-554
874.380	-304
874.460	-761
874.464	-781
874.547	-656
874.568	-799
874.631	-1196
874.676	-1077
874.714	-1003
874.784	-809
874.798	-762
874.881	-1304
874.892	-1332
874.965	-1540
874.999	-1044
875.048	-364
875.107	-958
875.131	-1202
875.215	-740
875.215	-740
875.298	-821
875.323	-1116
875.381	-1909
875.430	-958
875.465	-238
875.538	-761
875.548	-844
875.631	-919
875.646	-976
875.714	-1181
875.753	-868
875.798	-518
875.861	-224
875.881	-148
875.964	-1333
875.968	-1310
876.047	-849
876.076	-618
876.130	-233
876.183	-658
876.213	-846
876.291	-907
876.296	-916
876.379	-612
876.398	-656
876.462	-809
876.506	-579
876.545	-348
876.613	-408
876.628	-433
876.711	-955
876.721	-948
876.794	-788
876.828	-529
876.877	-252
876.935	-571
876.960	-650
877.043	-149
877.043	-150
877.125	-464
877.150	-274
877.208	83
877.258	84
877.291	94
877.365	-89
877.374	-96
877.456	-417
877.472	-225
877.539	455
877.579	30
877.622	-367
877.687	-202
877.704	-178
877.787	-382
877.794	-398
877.869	-480
877.901	-264
877.952	91
878.008	-54
878.034	-134
878.115	-479
878.117	-484
878.199	-200
878.222	-182
878.282	-320
878.329	-522
878.364	-542
878.437	-475
878.447	-450
878.529	-508
878.544	-503
878.611	-674
878.651	-593
878.694	-473
878.758	-510
878.776	-521
878.858	3
878.865	-21
878.941	-331
878.972	-475
879.023	-708
879.078	-505
879.105	-377
879.185	-117
879.187	-110
879.269	-499
879.292	-520
879.351	-678
879.399	-455
879.433	-346
879.506	-709
879.516	-724
879.598	-891
879.613	-870
879.680	-750
879.720	-421
879.762	-172
879.827	-703
879.844	-766
879.926	-328
879.933	-309
880.007	-449
880.040	-435
880.089	-418
880.147	10
880.171	287
880.253	133
880.254	138
880.335	1173
880.360	1419
880.417	2433
880.467	3247
880.499	4165
880.574	6740
880.580	6944
880.662	11772
880.680	11574
880.744	7107
880.787	3320
880.825	1349
880.893	70
880.907	-112
880.989	-1
881.000	-36
881.070	-143
881.106	-194
881.152	-266
881.213	-317
881.233	-324
881.315	-8
881.319	-23
881.396	126
881.426	204
881.478	-182
881.532	-597
881.559	-563
881.639	-59
881.641	-54
881.722	-225
881.745	-286
881.803	-479
881.852	-701
881.885	-680
881.958	-367
881.966	-350
882.047	-415
882.064	-360
882.129	25
882.171	112
882.210	83
882.277	-65
882.291	20
882.372	898
882.383	1003
882.454	936
882.489	502
882.535	-190
882.596	-505
882.616	-454
882.697	-139
882.702	-154
882.778	-75
882.808	57
882.859	-36
882.914	-231
882.940	-254
883.020	-233
883.021	-229
883.102	-51
883.127	-16
883.183	-27
883.233	-128
883.264	-207
883.339	-56
883.345	-45
883.426	-320
883.445	-341
883.507	-347
883.551	-415
883.587	-327
883.657	-207
883.668	-184
883.749	350
883.763	367
883.830	24
883.869	-266
883.910	-533
883.975	-517
883.991	-420
884.072	-473
884.081	-421
884.152	-250
884.187	-360
884.233	-76
884.292	465
884.314	339
884.394	-320
884.398	-350
884.475	272
884.504	391
884.555	-119
884.610	-383
884.636	-249
884.716	-175
884.716	-171
884.797	20
884.821	94
884.877	53
884.927	-179
884.958	-167
885.033	323
885.038	348
885.118	254
885.139	226
885.199	-56
885.244	-92
885.279	51
885.350	36
885.359	17
885.439	42
885.456	1
885.520	80
885.561	196
885.600	17
885.667	-483
885.680	-480
885.760	-193
885.773	-170
885.840	-23
885.878	56
885.920	85
885.984	-95
886.000	-153
886.080	-41
886.089	-46
886.160	39
886.195	26
886.240	245
886.300	653
886.320	710
886.400	784
886.406	785
886.480	26
886.511	-303
886.560	-139
886.616	-73
886.640	101
886.720	877
886.722	889
886.800	608
886.827	461
886.879	177
886.932	-147
886.959	-44
887.038	385
887.039	388
887.119	189
887.143	125
887.198	61
887.248	43
887.278	159
887.354	316
887.358	318
887.437	361
887.459	338
887.517	572
887.564	846
887.596	908
887.669	918
887.676	879
887.755	311
887.774	177
887.835	335
887.880	476
887.914	559
887.985	614
887.994	613
888.073	683
888.090	672
888.153	317
888.195	65
888.232	249
888.300	586
888.311	526
888.391	122
888.405	31
888.470	367
888.510	590
888.549	350
888.615	-77
888.628	-9
888.708	385
888.720	437
888.787	306
888.825	259
888.866	178
888.930	5
888.945	13
889.024	53
889.035	52
889.103	711
889.140	1081
889.182	838
889.245	444
889.261	394
889.340	163
889.349	133
889.419	433
889.454	578
889.498	871
889.559	1282
889.577	1186
889.656	728
889.664	679
889.735	375
889.768	227
889.814	468
889.873	783
889.978	419
890.083	515
890.187	-379
890.292	-150
890.397	145
890.501	560
890.606	375
890.710	44
890.815	117
890.919	1383
891.024	115
891.128	777
891.233	-56
891.337	-19
891.442	454
891.546	413
891.650	534
891.755	873
891.859	446
891.963	-39
892.068	690
892.172	395
892.276	115
892.380	124
892.484	737
892.589	564
892.693	637
892.797	-100
892.901	356
893.005	-50
893.109	-44
893.213	1415
893.317	26
893.421	173
893.525	-272
893.629	-571
893.733	26
893.837	18
893.941	2
894.045	176
894.148	-146
894.252	594
894.356	1026
894.460	408
894.564	363
894.667	193
894.771	477
894.875	310
894.978	652
895.082	694
895.186	401
895.289	856
895.393	457
895.496	324
895.600	-239
895.703	-108
895.807	474
895.910	226
896.014	376
896.117	53
896.221	496
896.324	645
896.427	349
896.531	93
896.634	825
896.737	1451
896.840	302
896.944	664
897.047	846
897.150	490
897.253	266
897.356	662
897.460	110
897.563	547
897.666	452
897.769	662
897.872	-30
897.975	672
898.078	-181
898.181	278
898.284	1163
898.387	274
898.490	627
898.593	-274
898.695	97
898.798	548
898.901	617
899.004	843
899.107	1264
899.209	8
899.312	266
899.415	643
899.518	895
899.620	367
899.723	735
899.826	1138
899.928	1231
900.031	2169
900.133	1136
900.236	557
900.338	784
900.441	-191
900.543	200
900.646	76
900.748	850
900.851	506
900.953	1162
901.055	414
901.158	266
901.260	975
901.362	413
901.465	-578
901.567	704
901.669	416
901.771	194
901.873	740
901.976	435
902.078	88
902.180	-9
902.282	619
902.384	641
902.486	601
902.588	270
902.690	-326
902.792	348
902.894	129
902.996	842
903.098	377
903.200	427
903.302	-163
903.404	489
903.505	-138
903.607	494
903.709	237
903.811	278
903.913	-294
904.014	-119
904.116	749
904.218	470
904.319	119
904.421	1122
904.523	-111
904.624	782
904.726	595
904.827	-462
904.929	98
905.030	940
905.132	10
905.233	881
905.335	-454
905.436	211
905.537	392
905.639	-9
905.740	1038
905.841	-632
905.943	777
906.044	443
906.145	411
906.247	349
906.348	778
906.449	-7
906.550	601
906.651	390
906.752	-588
906.854	206
906.955	756
907.056	-182
907.157	-65
907.258	768
907.359	-391
907.460	10
907.561	-515
907.662	398
907.762	742
907.863	270
907.964	392
908.065	429
908.166	105
908.267	224
908.367	-586
908.468	9
908.569	356
908.670	127
908.770	359
908.871	939
908.971	644
909.072	466
909.173	641
909.273	305
909.374	48
909.474	541
909.575	44
909.675	402
909.776	376
909.876	858
909.977	393
910.077	630
910.177	463
910.278	750
910.378	-180
910.478	245
910.579	-112
910.679	-563
910.779	579
910.879	38
910.980	-285
911.080	126
911.180	-732
911.280	392
911.380	383
911.480	-96
911.580	603
911.680	667
911.780	818
911.880	87
911.980	1064
912.080	535
912.180	718
912.280	-377
912.380	-210
912.480	560
912.580	653
912.679	-21
912.779	-253
912.879	590
912.979	419
913.078	403
913.178	-273
913.278	318
913.377	473
913.477	178
913.577	88
913.676	-177
913.776	244
913.875	-247
913.975	51
914.074	797
914.174	352
914.273	-152
914.373	592
914.472	226
914.572	-204
914.671	-213
914.770	13
914.870	772
914.969	-120
915.068	-40
915.167	463
915.267	595
915.366	-104
915.465	-140
915.564	-693
915.663	58
915.763	811
915.862	33
915.961	437
916.060	88
916.159	-763
916.258	654
916.357	678
916.456	-312
916.555	16
916.654	523
916.752	529
916.851	864
916.950	302
917.049	-17
917.148	338
917.247	798
917.345	788
917.444	118
917.543	431
917.642	224
917.740	-643
917.839	73
917.937	-168
918.036	613
918.135	-162
918.233	718
918.332	143
918.430	62
918.529	-109
918.627	-240
918.726	51
918.824	236
918.923	-500
919.021	-263
919.119	-242
919.218	59
919.316	-269
919.414	329
919.512	228
919.611	125
919.709	138
919.807	279
919.905	62
920.003	-43
920.102	139
920.200	-161
920.298	540
920.396	389
920.494	419
920.592	-261
920.690	66
920.788	930
920.886	-648
920.984	62
921.082	583
921.180	809
921.277	201
921.375	-226
921.473	63
921.571	8
921.669	-796
921.766	-59
921.864	552
921.962	-356
922.060	254
922.157	238
922.255	257
922.352	-24
922.450	1194
922.548	173
922.645	339
922.743	-86
922.840	374
922.938	686
923.035	1078
923.133	1205
923.230	590
923.327	986
923.425	350
923.522	1164
923.619	861
923.717	660
923.814	723
923.911	1031
924.008	887
924.106	119
924.203	-130
924.300	789
924.397	152
924.494	245
924.591	751
924.688	1093
924.786	648
924.883	683
924.979	778
925.077	20
925.173	595
925.270	196
925.367	563
925.464	171
925.561	516
925.658	919
925.755	294
925.852	1433
925.948	1258
926.045	1015
926.142	594
926.239	813
926.335	602
926.432	847
926.529	546
926.625	1574
926.722	867
926.818	984
926.915	794
927.011	525
927.108	-872
927.204	-277
927.301	-431
927.397	1035
927.494	840
927.590	421
927.687	-209
927.783	653
927.879	262
927.976	-288
928.072	-410
928.168	680
928.264	396
928.361	852
928.457	28
928.553	2
928.649	106
928.745	245
928.841	377
928.937	37
929.033	-275
929.129	425
929.225	-515
929.321	214
929.417	403
929.513	-68
929.609	670
929.705	-137
929.801	117
929.897	-18
929.993	-888
930.089	596
930.184	-352
930.280	503
930.376	-155
930.471	109
930.567	-459
930.663	579
930.758	81
930.854	760
930.950	332
931.045	-24
931.141	267
931.236	205
931.332	15
931.427	-704
931.523	-1137
931.618	420
931.714	-907
931.809	-89
931.905	-434
932.000	123
932.095	-244
932.191	728
932.286	-85
932.381	72
932.476	-678
932.572	14
932.667	13
932.762	-181
932.857	-35
932.952	348
933.047	-292
933.142	288
933.237	-142
933.332	-712
933.427	46
933.522	532
933.617	-477
933.712	26
933.807	-130
933.902	-553
933.997	-307
934.092	573
934.187	38
934.282	-381
934.376	95
934.471	639
934.566	-249
934.661	164
934.755	-490
934.850	404
934.945	-108
935.039	594
935.134	-148
935.228	-296
935.323	-169
935.417	87
935.512	-773
935.606	-443
935.701	-582
935.795	-447
935.890	-165
935.984	227
936.079	68
936.173	160
936.267	-358
936.362	-397
936.456	61
936.550	682
936.644	95
936.738	52
936.833	-932
936.927	-430
937.021	-473
937.115	-267
937.209	-791
937.303	-565
937.397	-414
937.491	-548
937.585	-704
937.679	97
937.773	1006
937.867	-397
937.961	-1189
938.055	-456
938.149	116
938.243	102
938.337	-154
938.430	36
938.524	-496
938.618	195
938.712	703
938.805	42
938.899	-143
938.993	-428
939.086	48
939.180	-26
939.274	252
939.367	289
939.461	550
939.554	264
939.648	-322
939.741	-38
939.835	-973
939.928	-844
940.022	-415
940.115	129
940.208	-378
940.302	-214
940.395	-25
940.488	-97
940.582	33
940.675	-86
940.768	352
940.861	-483
940.954	-239
941.048	-654
941.141	-121
941.234	-82
941.327	317
941.420	46
941.513	821
941.606	179
941.699	-128
941.792	-885
941.885	326
941.978	-99
942.071	-698
942.164	19
942.257	51
942.349	-400
942.442	-591
942.535	-340
942.628	-172
942.721	-588
942.813	-70
942.906	157
942.999	-214
943.091	301
943.184	-707
943.277	-310
943.369	-434
943.462	-246
943.554	-596
943.647	-161
943.739	-285
943.832	-143
943.924	-582
944.017	-462
944.109	-292
944.201	80
944.294	125
944.386	-965
944.478	-617
944.571	-56
944.663	-393
944.755	-382
944.847	207
944.940	-78
945.032	-449
945.124	228
945.216	-755
945.308	-295
945.400	32
945.492	144
945.584	-887
945.676	208
945.768	-770
945.860	-386
945.952	-786
946.044	-536
946.136	508
946.228	-661
946.320	-328
946.412	-352
946.503	-544
946.595	-306
946.687	-71
946.779	-78
946.870	-604
946.962	-258
947.054	-1334
947.145	-794
947.237	-220
947.329	-355
947.420	161
947.512	-580
947.603	427
947.695	-15
947.786	661
947.878	-118
947.969	-203
948.061	27
948.152	-563
948.243	-340
948.335	-955
948.426	-895
948.517	-378
948.609	-137
948.700	-218
948.791	-675
948.882	-549
948.973	-980
949.065	-55
949.156	-631
949.247	-453
949.338	-520
949.429	-1156
949.520	-45
949.611	-947
949.702	-63
949.793	-622
949.884	-628
949.975	-453
950.066	-709
950.157	-762
950.247	22
950.338	-459
950.429	-543
950.520	-497
950.611	-167
950.701	-250
950.792	-418
950.883	-327
950.973	359
951.064	-523
951.155	-917
951.245	-568
951.336	36
951.427	-422
951.517	-255
951.608	-708
951.698	68
951.788	250
951.879	-328
951.969	-357
952.060	-700
952.150	-431
952.240	-1306
952.331	-1387
952.421	-472
952.511	-854
952.602	-537
952.692	-304
952.782	-350
952.872	-313
952.962	132
953.052	-1178
953.143	-683
953.233	-514
953.323	-48
953.413	-448
953.503	-60
953.593	-811
953.683	15
953.773	-784
953.863	47
953.953	-398
954.042	-503
954.132	6
954.222	-992
954.312	4
954.402	140
954.492	-405
954.581	-329
954.671	-207
954.761	-843
954.850	-257
954.940	-749
955.030	-695
955.119	-191
955.209	-277
955.298	-127
955.388	-552
955.477	-599
955.567	-550
955.656	-788
955.746	-645
955.835	-1107
955.925	-1240
956.014	-674
956.103	74
956.193	-1201
956.282	-1066
956.371	-75
956.461	-382
956.550	-470
956.639	-322
956.728	-371
956.817	-359
956.906	-189
956.995	-157
957.085	637
957.174	-655
957.263	-1075
957.352	-140
957.441	-1359
957.530	-526
957.619	-189
957.708	-249
957.796	-1080
957.885	-517
957.974	-222
958.063	-364
958.152	-414
958.241	-765
958.329	-734
958.418	-762
958.507	-1243
958.596	-74
958.684	-80
958.773	-44
958.861	-746
958.950	-659
959.039	-883
959.127	-529
959.216	-221
959.304	-968
959.393	-713
959.481	-976
959.570	-748
959.658	-793
959.746	187
959.835	-1065
959.923	390
960.011	-415
960.100	-112
960.188	-222
960.276	-1273
960.365	-441
960.453	-429
960.541	-143
960.629	-475
960.717	-1128
960.805	-23
960.893	-872
960.981	-1142
961.069	-386
961.158	137
961.245	-1338
961.333	-1233
961.421	-592
961.509	-1189
961.597	-643
961.685	128
961.773	-1072
961.861	-474
961.949	-371
962.036	100
962.124	-291
962.212	-1431
962.299	-456
962.387	-684
962.475	-207
962.562	-113
962.650	-62
962.738	-761
962.825	-588
962.913	-509
963.000	-346
963.088	-310
963.175	-1087
963.263	-324
963.350	-666
963.438	-566
963.525	1
963.612	-25
963.700	-338
963.787	1060
963.874	4086
963.962	1881
964.049	-814
964.136	-997
964.223	-655
964.310	-100
964.398	-335
964.485	-150
964.572	47
964.659	-699
964.746	518
964.833	402
964.920	-1246
965.007	-1213
965.094	-1293
965.181	-1031
965.268	-229
965.355	-1156
965.441	-374
965.528	420
965.615	-919
965.702	-318
965.789	-496
965.875	-760
965.962	-1313
966.049	-646
966.136	-601
966.222	-761
966.309	-1213
966.395	-628
966.482	-752
966.569	-983
966.655	-945
966.742	-610
966.828	-744
966.915	-918
967.001	-810
967.087	-1408
967.174	-1095
967.260	-1076
967.347	-1036
967.433	-1196
967.519	626
967.605	1243
967.692	253
967.778	-1464
967.864	-1214
967.950	-513
968.036	-1172
968.123	-47
968.209	-538
968.295	-442
968.381	-1520
968.467	-293
968.553	-1034
968.639	-1883
968.725	-914
968.811	-534
968.897	131
968.983	185
969.069	-978
969.154	-549
969.240	-1131
969.326	-852
969.412	-25
969.497	-988
969.583	-452
969.669	-1255
969.755	-726
969.840	-493
969.926	-753
970.012	-532
970.097	-706
970.183	-245
970.268	116
970.354	-1028
970.439	-1017
970.525	-382
970.610	548
970.696	-45
970.781	-949
970.866	-1044
970.952	-1187
971.037	-847
971.122	-659
971.208	-351
971.293	-771
971.378	-798
971.463	-1207
971.549	15
971.634	-895
971.719	-1090
971.804	-251
971.889	-1107
971.974	-6
972.059	-1039
972.144	-1041
972.229	-1141
972.314	-643
972.399	-735
972.484	-897
972.569	-453
972.654	-626
972.739	-639
972.824	-199
972.908	-253
972.993	-1338
973.078	-1007
973.163	-245
973.247	-232
973.332	-961
973.417	-815
973.501	-1480
973.586	-1176
973.671	-867
973.755	-627
973.840	-1221
973.924	-595
974.009	-913
974.093	-594
974.178	-51
974.262	-581
974.346	-455
974.431	-9
974.515	-544
974.600	-1403
974.684	-1441
974.768	-988
974.852	-146
974.937	-895
975.021	-1093
975.105	-1175
975.189	-951
975.273	-1361
975.358	-669
975.442	-528
975.526	-1157
975.610	-1736
975.694	-1042
975.778	-449
975.862	-585
975.946	-1248
976.030	-1135
976.114	-1085
976.198	-1532
976.281	-449
976.365	-1254
976.449	-1445
976.533	-907
976.617	-13
976.700	-642
976.784	-187
976.868	-948
976.951	-1524
977.035	-275
977.119	-727
977.202	-1241
977.286	-1588
977.369	-795
977.453	-1232
977.536	-545
977.620	-1251
977.703	-1196
977.787	-1039
977.870	-923
977.953	-831
978.037	-369
978.120	-21
978.203	-632
978.287	-1136
978.370	57
978.453	-516
978.536	-388
978.620	-1031
978.703	-832
978.786	-543
978.869	-1359
978.952	-1504
979.035	-66
979.118	-1740
979.201	-1293
979.284	-344
979.367	-1058
979.450	-1519
979.533	-1581
979.616	-1171
979.699	-27
979.782	-820
979.865	-1023
979.948	-545
980.030	-1158
980.113	-894
980.196	-1393
980.279	-957
980.361	-591
980.444	-1007
980.526	-577
980.609	-854
980.692	-959
980.774	-1249
980.857	-1370
980.939	-782
981.022	-888
981.104	-853
981.187	-131
981.269	-1245
981.352	-986
981.434	-996
981.516	-1275
981.599	-1128
981.681	-941
981.763	-1215
981.846	-1019
981.928	-560
982.010	-727
982.092	-938
982.174	-794
982.256	-659
982.339	-327
982.421	-1712
982.503	-453
982.585	-1301
982.667	-863
982.749	-1226
982.831	-1332
982.913	-1518
982.995	-1128
983.077	-1272
983.158	-508
983.240	-1000
983.322	-677
983.404	-383
983.486	-570
983.568	-1335
983.649	-406
983.731	-878
983.813	-841
983.894	-1344
983.976	-1137
984.058	-579
984.139	-1612
984.221	-1569
984.302	-527
984.384	-889
984.465	-1032
984.547	-1198
984.628	-960
984.710	-1338
984.791	-1247
984.872	-1021
984.954	-1867
985.035	-1481
985.116	-1150
985.198	-738
985.279	-1079
985.360	-1125
985.441	-1340
985.522	-1115
985.604	-807
985.685	-1225
985.766	554
985.847	-1411
985.928	-1299
986.009	-1009
986.090	-927
986.171	-400
986.252	-1338
986.333	-540
986.414	-1666
986.495	-1343
986.576	-1634
986.656	-820
986.737	-554
986.818	-921
986.899	-1460
986.980	-1320
987.060	-1145
987.141	-412
987.222	-737
987.302	-27
987.383	49
987.464	-1000
987.544	-1020
987.625	-897
987.705	-1123
987.786	-1136
987.866	-611
987.947	-824
988.027	-954
988.108	-726
988.188	-1269
988.268	-430
988.349	-603
988.429	-1679
988.509	-436
988.589	-1342
988.670	-1357
988.750	-613
988.830	-901
988.910	-1193
988.990	-580
989.070	-657
989.151	-822
989.231	130
989.311	-1540
989.391	-925
989.471	-1092
989.551	-1209
989.631	-895
989.711	-854
989.791	-1051
989.870	-1428
989.950	-596
990.030	-659
990.110	-1426
990.190	-1803
990.269	-565
990.349	-890
990.429	-1511
990.509	-936
990.588	-924
990.668	-1169
990.747	-1298
990.827	-1307
990.907	-806
990.986	-667
991.066	-626
991.145	-1560
991.225	-1195
991.304	-1160
991.383	-585
991.463	-537
991.542	-743
991.622	-1378
991.701	-949
991.780	-1205
991.859	-921
991.939	-774
992.018	-1625
992.097	-1027
992.176	-1367
992.256	-1770
992.335	-1889
992.414	-1223
992.493	-1009
992.572	-746
992.651	-1828
992.730	-684
992.809	-1220
992.888	-703
992.967	-1613
993.046	-1599
993.125	-996
993.203	-1581
993.282	-612
993.361	-862
993.440	-1113
993.519	-1559
993.597	-708
993.676	-814
993.755	-461
993.834	-891
993.912	-1024
993.991	-864
994.069	-1169
994.148	-1085
994.226	-1110
994.305	-538
994.384	-1766
994.462	-1212
994.540	-825
994.619	-1580
994.697	-1494
994.776	-2030
994.854	-758
994.932	-1517
995.011	-1534
995.089	-1581
995.167	-1895
995.245	-850
995.324	-1089
995.402	-1304
995.480	-837
995.558	-1004
995.636	-1757
995.714	-1294
995.792	-343
995.870	-1334
995.948	-1037
996.026	-924
996.104	-1020
996.182	-1037
996.260	-1628
996.338	-1315
996.416	-1949
996.494	-680
996.572	-1585
996.649	-1456
996.727	-1667
996.805	-828
996.883	-1633
996.960	-1529
997.038	-1947
997.116	-1638
997.193	-2090
997.271	-1670
997.348	-890
997.426	-2042
997.504	-1704
997.581	-1146
997.658	-1554
997.736	-1212
997.813	-1629
997.891	-893
997.968	-725
998.046	-1422
998.123	-1097
998.200	-1203
998.277	-2085
998.355	-828
998.432	-1640
998.509	-1504
998.586	-1072
998.663	-1057
998.741	-2096
998.818	-1444
998.895	-920
998.972	-1404
999.049	-1505
999.126	-1047
999.203	-943
999.280	-1835
999.357	-1921
999.434	-1003
999.511	-960
999.587	-1238
999.664	-1680
999.741	-1788
999.818	-1661
999.895	-1125
999.971	-1334
1000.048	-912
1000.125	-1318
1000.202	-1744
1000.278	-2617
1000.355	-1494
1000.431	-1441
1000.508	-1661
1000.584	-1502
1000.661	-897
1000.738	-1674
1000.814	-1810
1000.890	-2238
1000.967	-1445
1001.043	-1777
1001.120	-1547
1001.196	-918
1001.272	-2044
1001.349	-1912
1001.425	-855
1001.501	-1184
1001.577	-1376
1001.654	-1551
1001.730	-978
1001.806	-1354
1001.882	-1569
1001.958	-1716
1002.034	-2249
1002.110	-1590
1002.186	-2157
1002.262	-1587
1002.338	-1779
1002.414	-744
1002.490	-1707
1002.566	-1162
1002.642	-1746
1002.718	-960
1002.794	-1822
1002.870	-1218
1002.945	-1274
1003.021	-1740
1003.097	-1776
1003.173	-2213
1003.248	-1603
1003.324	-1577
1003.400	-1179
1003.475	-2453
1003.551	-985
1003.626	-1347
1003.702	-2328
1003.777	-1946
1003.853	-1298
1003.928	-1275
1004.004	-2142
1004.079	-1396
1004.155	-1679
1004.230	-2138
1004.305	-787
1004.381	-804
1004.456	-1385
1004.531	-1221
1004.607	-1245
1004.682	-2069
1004.757	-2035
1004.832	-2052
1004.907	-1896
1004.982	-1496
1005.057	-1949
1005.133	-2471
1005.208	-2015
1005.283	-1253
1005.358	-1558
1005.433	-2316
1005.508	-2094
1005.583	-2360
1005.657	-1905
1005.732	-1049
1005.807	-1957
1005.882	-841
1005.957	-1208
1006.032	-1472
1006.106	-2020
1006.181	-1531
1006.256	-1390
1006.331	-1835
1006.405	-2033
1006.480	-1744
1006.554	-2294
1006.629	-2308
1006.704	-1836
1006.778	-1582
1006.853	-2728
1006.927	-2599
1007.002	-1480
1007.076	-2170
1007.150	-1566
1007.225	-2397
1007.299	-1774
1007.373	-2276
1007.448	-1118
1007.522	-1587
1007.596	-1238
1007.671	-2282
1007.745	-2252
1007.819	-2198
1007.893	-1283
1007.967	-1422
1008.041	-2045
1008.115	-1993
1008.190	-1824
1008.264	-2534
1008.338	-2311
1008.412	-2113
1008.486	-1667
1008.560	-1348
1008.633	-1031
1008.707	-1931
1008.781	-1844
1008.855	-2146
1008.929	-2705
1009.003	-2047
1009.076	-2104
1009.150	-2348
1009.224	-1617
1009.298	-2587
1009.371	-1864
1009.445	-1303
1009.519	-1536
1009.592	-1845
1009.666	-1434
1009.739	-1913
1009.813	-1707
1009.886	-2722
1009.960	-2035
1010.033	-1832
1010.107	-1526
1010.180	-2138
1010.253	-1419
1010.327	-2479
1010.400	-2049
1010.473	-2498
1010.547	-1633
1010.620	-1660
1010.693	-1713
1010.766	-1474
1010.840	-2001
1010.913	-2702
1010.986	-1763
1011.059	-2127
1011.132	-1346
1011.205	-936
1011.278	-2156
1011.351	-1680
1011.424	-1457
1011.497	-1125
1011.570	-1779
1011.643	-1906
1011.716	-1971
1011.789	-2742
1011.862	-1818
1011.934	-2256
1012.007	-2386
1012.080	-1680
1012.153	-1925
1012.225	-2378
1012.298	-1652
1012.371	-1624
1012.443	-2118
1012.516	-1236
1012.588	-1312
1012.661	-1891
1012.733	-3387
1012.806	-1862
1012.879	-1796
1012.951	-1693
1013.023	-1912
1013.096	-1494
1013.168	-1960
1013.241	-1392
1013.313	-1637
1013.385	-798
1013.458	-1915
1013.530	-1752
1013.602	-1319
1013.674	-1785
1013.746	-2008
1013.819	-2185
1013.891	-2557
1013.963	-2510
1014.035	-2201
1014.107	-2061
1014.179	-1239
1014.251	-1794
1014.323	-2262
1014.395	-1691
1014.467	-1794
1014.539	-2519
1014.611	-2735
1014.683	-1375
1014.754	-980
1014.826	-1655
1014.898	-1426
1014.970	-2069
1015.042	-1606
1015.113	-2106
1015.185	-1912
1015.257	-2065
1015.328	-1405
1015.400	-1799
1015.471	-1703
1015.543	-1805
1015.615	-2231
1015.686	-1277
1015.757	-1412
1015.829	-1982
1015.901	-1552
1015.972	-1993
1016.043	-1755
1016.115	-2214
1016.186	-1127
1016.257	-1802
1016.328	-2076
1016.400	-2137
1016.471	-2458
1016.542	-1942
1016.613	-1084
1016.685	-1519
1016.756	-1996
1016.827	-2024
1016.898	-2002
1016.969	-1284
1017.040	-2051
1017.111	-2033
1017.182	-1179
1017.253	-1799
1017.324	-922
1017.395	-1976
1017.466	-1852
1017.537	-1634
1017.608	-2312
1017.678	-1545
1017.749	-1917
1017.820	-1728
1017.891	-2045
1017.961	-2167
1018.032	-1503
1018.103	-1473
1018.173	-1498
1018.244	-2124
1018.315	-1787
1018.385	-1431
1018.456	-1312
1018.526	-2715
1018.597	-1446
1018.667	-1854
1018.738	-1252
1018.808	-1547
1018.878	-2070
1018.949	-1478
1019.019	-1576
1019.089	-2091
1019.160	-1277
1019.230	-2366
1019.300	-2030
1019.371	-2915
1019.441	-1577
1019.511	-2291
1019.581	-1334
1019.651	-1899
1019.721	-2096
1019.791	-2482
1019.861	-1885
1019.931	-1594
1020.001	-1821
1020.071	-1329
1020.141	-1958
1020.211	-1181
1020.281	-1626
1020.351	-2238
1020.421	-1749
1020.491	-1827
1020.560	-1900
1020.630	-1210
1020.700	-1464
1020.770	-1709
1020.839	-1516
1020.909	-1399
1020.979	-1372
1021.048	-1906
1021.118	-2324
1021.187	-1407
1021.257	-1490
1021.326	-1489
1021.396	-1981
1021.465	-1213
1021.535	-1488
1021.604	-1841
1021.674	-2147
1021.743	-2627
1021.812	-2196
1021.882	-2039
1021.951	-1373
1022.020	-2220
1022.089	-1117
1022.159	-1758
1022.228	-1726
1022.297	-2264
1022.366	-1409
1022.435	-1822
1022.504	-2248
1022.573	-2029
1022.642	-1452
1022.711	-1312
1022.781	-1099
1022.849	-2036
1022.918	-1927
1022.987	-1394
1023.056	-1584
1023.125	-2507
1023.194	-1799
1023.263	-2120
1023.331	-2556
1023.400	-1701
1023.469	-1709
1023.538	-1465
1023.606	-1089
1023.675	-1732
1023.744	-1805
1023.812	-2292
1023.881	-1386
1023.949	-2093
1024.018	-1855
1024.086	-1929
1024.155	-1577
1024.223	-2371
1024.292	-2101
1024.360	-1559
1024.429	-1064
1024.497	-2024
1024.565	-1301
1024.634	-2477
1024.702	-1570
1024.770	-2303
1024.838	-1942
1024.907	-1673
1024.975	-2422
1025.043	-2164
1025.111	-1611
1025.179	-2108
1025.247	-2477
1025.315	-1830
1025.383	-1753
1025.451	-1453
1025.519	-1924
1025.587	-1988
1025.655	-1217
1025.723	-1861
1025.791	-1643
1025.859	-2221
1025.927	-2034
1025.995	-2014
1026.062	-1991
1026.130	-2340
1026.198	-1735
1026.266	-1993
1026.333	-2546
1026.401	-2068
1026.469	-1460
1026.536	-2451
1026.604	-1727
1026.671	-2123
1026.739	-1980
1026.806	-2154
1026.874	-1376
1026.941	-1683
1027.009	-1791
1027.076	-1810
1027.144	-1393
1027.211	-1798
1027.278	-1906
1027.345	-2791
1027.413	-1878
1027.480	-2288
1027.547	-1697
1027.614	-2381
1027.682	-1918
1027.749	-1791
1027.816	-2213
1027.883	-1970
1027.950	-1978
1028.017	-1894
1028.084	-1880
1028.151	-1746
1028.218	-2320
1028.285	-1448
1028.352	-1806
1028.419	-1790
1028.486	-1928
1028.553	-1693
1028.619	-1977
1028.686	-2184
1028.753	-1573
1028.820	-2391
1028.886	-1997
1028.953	-1359
1029.020	-2019
1029.086	-2716
1029.153	-1309
1029.220	-1885
1029.286	-2061
1029.353	-3031
1029.419	-2142
1029.486	-2064
1029.552	-1355
1029.619	-1503
1029.685	-1641
1029.751	-1769
1029.818	-1807
1029.884	-2523
1029.951	-915
1030.017	-2122
1030.083	-2116
1030.149	-2103
1030.216	-2333
1030.282	-1765
1030.348	-1878
1030.414	-1859
1030.480	-1237
1030.546	-1696
1030.612	-2189
1030.678	-1953
1030.744	-1738
1030.810	-1809
1030.876	-2212
1030.942	-2748
1031.008	-1705
1031.074	-1704
1031.140	-2066
1031.206	-2493
1031.272	-1485
1031.337	-1747
1031.403	-2207
1031.469	-2126
1031.534	-2078
1031.600	-1967
1031.666	-1856
1031.731	-1954
1031.797	-2322
1031.863	-2167
1031.928	-1937
1031.994	-2523
1032.059	-1235
1032.125	-1727
1032.190	-2169
1032.256	-2403
1032.321	-1676
1032.386	-2073
1032.452	-2129
1032.517	-2701
1032.582	-2039
1032.647	-2021
1032.713	-2102
1032.778	-1448
1032.843	-1941
1032.908	-1818
1032.974	-2514
1033.039	-1775
1033.104	-2239
1033.169	-1745
1033.234	-2136
1033.299	-1942
1033.364	-1812
1033.429	-1740
1033.494	-1777
1033.559	-2065
1033.624	-2263
1033.688	-1759
1033.753	-2242
1033.818	-2149
1033.883	-1409
1033.948	-1498
1034.013	-1677
1034.077	-2265
1034.142	-1400
1034.207	-2082
1034.271	-1925
1034.336	-1743
1034.400	-2015
1034.465	-1357
1034.530	-776
1034.594	-1020
1034.658	-1858
1034.723	-2712
1034.787	-1060
1034.852	-2367
1034.916	-1984
1034.981	-2376
1035.045	-2164
1035.109	-1321
1035.173	-1794
1035.238	-1917
1035.302	-1813
1035.366	-2087
1035.430	-1921
1035.495	-2189
1035.559	-1265
1035.623	-1836
1035.687	-2731
1035.751	-2182
1035.815	-2322
1035.879	-2217
1035.943	-2142
1036.007	-2568
1036.071	-2056
1036.135	-1793
1036.198	-2191
1036.262	-2162
1036.326	-1415
1036.390	-2229
1036.454	-1920
1036.517	-2852
1036.581	-1079
1036.645	-1778
1036.709	-1547
1036.772	-932
1036.836	-1331
1036.900	-1303
1036.963	-2035
1037.026	-1804
1037.090	-1887
1037.154	-2472
1037.217	-1379
1037.280	-2757
1037.344	-2019
1037.407	-2013
1037.471	-1418
1037.534	-2410
1037.597	-2184
1037.661	-3115
1037.724	-2303
1037.787	-1833
1037.850	-2061
1037.913	-1722
1037.977	-1245
1038.040	-2103
1038.103	-2298
1038.166	-2220
1038.229	-1480
1038.292	-2209
1038.355	-1484
1038.418	-1908
1038.481	-2275
1038.544	-2238
1038.607	-1706
1038.670	-2015
1038.732	-1638
1038.795	-2619
1038.858	-2644
1038.921	-1740
1038.984	-1978
1039.046	-3114
1039.109	-2168
1039.172	-2120
1039.234	-1897
1039.297	-2216
1039.360	-1951
1039.422	-1831
1039.485	-1815
1039.547	-3024
1039.610	-1944
1039.672	-2716
1039.734	-1661
1039.797	-2381
1039.859	-2441
1039.922	-2385
1039.984	-2053
1040.046	-2867
1040.109	-1675
1040.171	-2678
1040.233	-2480
1040.295	-2151
1040.358	-2046
1040.420	-2969
1040.482	-1805
1040.544	-2089
1040.606	-1824
1040.668	-2429
1040.730	-1972
1040.792	-1787
1040.854	-1800
1040.916	-2350
1040.978	-2696
1041.040	-1100
1041.102	-2262
1041.164	-2094
1041.225	-1528
1041.287	-2545
1041.349	-2187
1041.411	-2527
1041.472	-1715
1041.534	-2160
1041.596	-1178
1041.657	-2013
1041.719	-1807
1041.781	-1928
1041.842	-1683
1041.904	-2522
1041.965	-1650
1042.027	-2485
1042.088	-1884
1042.150	-1852
1042.211	-1534
1042.272	-1883
1042.334	-2422
1042.395	-1525
1042.456	-2723
1042.518	-2479
1042.579	-2737
1042.640	-1978
1042.701	-1956
1042.763	-1776
1042.824	-2671
1042.885	-1800
1042.946	-2676
1043.007	-2053
1043.068	-1628
1043.129	-2183
1043.190	-2045
1043.251	-1898
1043.312	-2623
1043.373	-1811
1043.434	-1889
1043.495	-1839
1043.556	-1916
1043.616	-2320
1043.677	-1703
1043.738	-2598
1043.799	-2085
1043.859	-1768
1043.920	-1805
1043.981	-3042
1044.041	-1872
1044.102	-1888
1044.162	-1982
1044.223	-2463
1044.284	-2463
1044.344	-2073
1044.405	-1371
1044.465	-1908
1044.525	-1679
1044.586	-2473
1044.646	-1773
1044.707	-2051
1044.767	-2240
1044.827	-2143
1044.887	-1666
1044.948	-2044
1045.008	-2077
1045.068	-1849
1045.128	-2426
1045.188	-2356
1045.249	-1934
1045.309	-2260
1045.369	-1773
1045.429	-1972
1045.489	-2251
1045.549	-1326
1045.609	-1784
1045.669	-2112
1045.729	-1733
1045.789	-2216
1045.848	-1607
1045.908	-1671
1045.968	-1730
1046.028	-2251
1046.088	-1806
1046.147	-1723
1046.207	-1106
1046.267	-1529
1046.326	-1435
1046.386	-2420
1046.446	-779
1046.505	-1542
1046.565	-1476
1046.624	-1491
1046.684	-1776
1046.743	-893
1046.803	-518
1046.862	-608
1046.922	0
