'Start Wavelength	183.907
'End Wavelength	1046.922
'Gate Delay	5.000
'Gate Width (ms)	1.050
'Laser Output Level	0.000
'X Position	0.000
'Y Position	0.000
'Z Position	0.000
'Grid Point Number	1.000
'Shot Number	100.000
183.907	1019.000
183.977	326.000
184.047	356
184.116	64
184.186	-195
184.256	337
184.325	325
184.395	430
184.465	711
184.534	197
184.604	801
184.674	351
184.743	292
184.813	-88
184.883	436
184.952	651
185.022	-17
185.092	312
185.161	-91
185.231	273
185.301	731
185.370	251
185.440	-53
185.509	-368
185.579	-255
185.649	-59
185.718	772
185.788	-41
185.857	-204
185.927	193
185.996	175
186.066	-954
186.136	-220
186.205	320
186.275	-4
186.344	-151
186.414	56
186.483	-169
186.553	536
186.622	210
186.692	221
186.761	134
186.831	76
186.900	78
186.970	-67
187.039	689
187.109	201
187.178	52
187.248	89
187.317	176
187.387	-368
187.456	717
187.526	627
187.595	-602
187.664	-244
187.734	461
187.803	-593
187.873	357
187.942	387
188.012	-419
188.081	-146
188.150	188
188.220	773
188.289	746
188.358	-145
188.428	741
188.497	-222
188.567	637
188.636	-288
188.705	47
188.775	1
188.844	-671
188.913	339
188.983	1194
189.052	-326
189.121	-530
189.191	-622
189.260	604
189.329	886
189.399	187
189.468	-13
189.537	790
189.606	412
189.676	-623
189.745	329
189.814	216
189.883	404
189.953	428
190.022	833
190.091	598
190.161	102
190.230	337
190.299	-31
190.368	773
190.437	427
190.507	115
190.576	-176
190.645	-221
190.714	-291
190.783	516
190.853	-199
190.922	-45
190.991	-240
191.060	368
191.129	-240
191.198	-498
191.268	-104
191.337	136
191.406	396
191.475	-663
191.544	416
191.613	-18
191.682	85
191.752	514
191.821	620
191.890	157
191.959	-239
192.028	224
192.097	210
192.166	-2
192.235	453
192.304	212
192.373	-547
192.442	-166
192.511	225
192.580	-17
192.650	298
192.719	734
192.788	-339
192.857	386
192.926	-219
192.995	1073
193.064	377
193.133	738
193.202	531
193.271	942
193.340	763
193.409	536
193.478	56
193.547	510
193.615	238
193.684	615
193.753	724
193.822	1042
193.891	-120
193.960	943
194.029	298
194.098	138
194.167	143
194.236	963
194.305	129
194.374	230
194.443	98
194.512	352
194.580	6
194.649	833
194.718	-557
194.787	705
194.856	298
194.925	715
194.994	403
195.062	317
195.131	-41
195.200	621
195.269	1101
195.338	140
195.407	342
195.475	45
195.544	-121
195.613	482
195.682	173
195.751	857
195.819	-140
195.888	631
195.957	490
196.026	111
196.094	1221
196.163	983
196.232	416
196.301	-121
196.369	434
196.438	220
196.507	697
196.576	-425
196.644	377
196.713	526
196.782	27
196.850	147
196.919	204
196.988	408
197.056	-288
197.125	-254
197.194	731
197.262	-260
197.331	111
197.400	642
197.468	-428
197.537	185
197.606	-107
197.674	21
197.743	606
197.812	-122
197.880	554
197.949	492
198.017	877
198.086	521
198.155	686
198.223	525
198.292	1229
198.360	632
198.429	529
198.497	303
198.566	1000
198.635	596
198.703	794
198.772	-324
198.840	858
198.909	811
198.977	-139
199.046	324
199.114	328
199.183	303
199.251	-76
199.320	-119
199.388	-284
199.457	360
199.525	-158
199.594	881
199.662	297
199.731	738
199.799	-103
199.867	772
199.936	-251
200.004	-4
200.073	339
200.141	-313
200.210	-196
200.278	256
200.346	617
200.415	823
200.483	490
200.552	448
200.620	-148
200.688	-12
200.757	-137
200.825	113
200.893	204
200.962	524
201.030	140
201.098	-273
201.167	470
201.235	148
201.303	207
201.372	83
201.440	-202
201.508	449
201.577	328
201.645	642
201.713	1347
201.781	361
201.850	-39
201.918	343
201.986	-79
202.055	785
202.123	0
202.191	-100
202.259	-402
202.327	543
202.396	855
202.464	251
202.532	770
202.600	2137
202.669	939
202.737	110
202.805	605
202.873	829
202.941	469
203.009	970
203.078	-132
203.146	46
203.214	467
203.282	463
203.350	826
203.418	294
203.487	141
203.555	358
203.623	196
203.691	445
203.759	-44
203.827	-361
203.895	-504
203.963	263
204.031	-448
204.099	1096
204.168	69
204.236	366
204.304	193
204.372	292
204.440	-164
204.508	487
204.576	16
204.644	-311
204.712	-604
204.780	183
204.848	793
204.916	287
204.984	415
205.052	546
205.120	235
205.188	202
205.256	-157
205.324	25
205.392	292
205.460	907
205.528	138
205.596	-64
205.664	635
205.732	-90
205.799	1316
205.867	1435
205.935	443
206.003	684
206.071	-23
206.139	-249
206.207	750
206.275	525
206.343	565
206.411	637
206.478	615
206.546	449
206.614	385
206.682	41
206.750	26
206.818	298
206.885	757
206.953	412
207.021	424
207.089	1228
207.157	-23
207.225	700
207.292	-77
207.360	402
207.428	-266
207.496	38
207.563	653
207.631	658
207.699	505
207.767	404
207.834	209
207.902	613
207.970	511
208.038	-156
208.105	-123
208.173	954
208.241	196
208.309	1133
208.376	557
208.444	638
208.512	291
208.579	897
208.647	884
208.715	958
208.782	810
208.850	79
208.918	795
208.985	585
209.053	-462
209.120	876
209.188	766
209.256	605
209.323	70
209.391	724
209.459	1030
209.526	809
209.594	-19
209.661	397
209.729	221
209.796	916
209.864	748
209.932	580
209.999	711
210.067	992
210.134	409
210.202	719
210.269	1098
210.337	1109
210.404	234
210.472	679
210.539	620
210.607	763
210.674	362
210.742	641
210.809	903
210.877	306
210.944	182
211.012	97
211.079	640
211.146	193
211.214	565
211.281	841
211.349	988
211.416	319
211.484	604
211.551	196
211.618	402
211.686	76
211.753	211
211.821	380
211.888	164
211.955	657
212.023	958
212.090	915
212.157	566
212.225	401
212.292	1297
212.359	3292
212.427	4370
212.494	1194
212.561	717
212.629	735
212.696	185
212.763	513
212.831	372
212.898	966
212.965	318
213.032	512
213.100	112
213.167	502
213.234	590
213.301	1388
213.369	397
213.436	74
213.503	1291
213.570	467
213.638	1156
213.705	-221
213.772	59
213.839	1188
213.906	456
213.973	699
214.041	834
214.108	791
214.175	616
214.242	708
214.309	1110
214.376	463
214.444	88
214.511	1432
214.578	219
214.645	584
214.712	299
214.779	810
214.846	1100
214.913	582
214.980	1078
215.048	1420
215.115	1487
215.182	882
215.249	463
215.316	342
215.383	272
215.450	164
215.517	-259
215.584	-139
215.651	166
215.718	-150
215.785	856
215.852	343
215.919	673
215.986	764
216.053	965
216.120	482
216.187	1038
216.254	1173
216.321	123
216.388	961
216.455	1225
216.522	528
216.589	1212
216.656	2388
216.722	2016
216.789	1289
216.856	1261
216.923	963
216.990	608
217.057	911
217.124	1073
217.191	1047
217.258	1078
217.324	2161
217.391	2026
217.458	1460
217.525	1071
217.592	1153
217.659	295
217.725	568
217.792	1078
217.859	1537
217.926	799
217.993	629
218.059	950
218.126	333
218.193	881
218.260	351
218.327	-112
218.393	597
218.460	176
218.527	-160
218.594	191
218.660	1295
218.727	726
218.794	254
218.860	758
218.927	558
218.994	-237
219.061	701
219.127	472
219.194	1225
219.261	356
219.327	820
219.394	490
219.461	197
219.527	834
219.594	1730
219.661	427
219.727	87
219.794	636
219.860	720
219.927	582
219.994	1340
220.060	2581
220.127	1397
220.193	1173
220.260	889
220.326	1756
220.393	1642
220.460	3428
220.526	1375
220.593	951
220.659	1138
220.726	1164
220.792	3156
220.859	2440
220.925	4307
220.992	6033
221.058	5060
221.125	3631
221.191	2445
221.258	1091
221.324	1043
221.391	604
221.457	562
221.524	746
221.590	1249
221.657	4210
221.723	2598
221.789	2564
221.856	1833
221.922	1056
221.989	263
222.055	632
222.121	436
222.188	1470
222.254	719
222.321	747
222.387	531
222.453	1274
222.520	836
222.586	-109
222.652	1126
222.719	560
222.785	134
222.851	1114
222.918	93
222.984	-486
223.050	-77
223.116	-603
223.183	1100
223.249	274
223.315	-13
223.382	151
223.448	381
223.514	-494
223.580	360
223.647	338
223.713	-435
223.779	384
223.845	-347
223.911	90
223.978	93
224.044	447
224.110	-190
224.176	723
224.242	723
224.309	351
224.375	365
224.441	-3
224.507	237
224.573	-169
224.639	1134
224.705	364
224.772	634
224.838	44
224.904	1397
224.970	282
225.036	309
225.102	138
225.168	213
225.234	575
225.300	437
225.366	214
225.432	453
225.499	231
225.565	850
225.631	637
225.697	216
225.763	620
225.829	762
225.895	1143
225.961	1362
226.027	917
226.093	1037
226.159	1394
226.225	2117
226.291	4651
226.357	6931
226.423	2833
226.489	2099
226.554	1092
226.620	1117
226.686	1575
226.752	2287
226.818	4128
226.884	11800
226.950	7099
227.016	2600
227.082	1823
227.148	871
227.214	1341
227.279	1593
227.345	664
227.411	886
227.477	1254
227.543	3958
227.609	2049
227.674	482
227.740	467
227.806	347
227.872	985
227.938	1028
228.003	974
228.069	350
228.135	85
228.201	281
228.267	694
228.332	1401
228.398	909
228.464	1076
228.530	360
228.595	974
228.661	520
228.727	964
228.792	1388
228.858	607
228.924	-246
228.990	934
229.055	292
229.121	308
229.187	264
229.252	884
229.318	150
229.384	435
229.449	414
229.515	85
229.581	-198
229.646	993
229.712	-341
229.777	2552
229.843	1525
229.909	1510
229.974	462
230.040	1325
230.105	919
230.171	1340
230.236	1089
230.302	2515
230.368	755
230.433	672
230.499	544
230.564	1274
230.630	35
230.695	348
230.761	953
230.826	407
230.892	1195
230.957	425
231.023	-62
231.088	933
231.154	93
231.219	1084
231.284	1379
231.350	1049
231.415	-241
231.481	528
231.546	586
231.612	556
231.677	737
231.742	66
231.808	1040
231.873	365
231.939	-56
232.004	1885
232.069	888
232.135	1148
232.200	608
232.265	948
232.331	516
232.396	470
232.461	-96
232.527	54
232.592	177
232.657	928
232.723	969
232.788	-8
232.853	198
232.918	439
232.984	230
233.049	171
233.114	580
233.179	732
233.245	1717
233.310	1748
233.375	213
233.440	845
233.506	346
233.571	172
233.636	-416
233.701	96
233.766	1371
233.832	402
233.897	709
233.962	44
234.027	1010
234.092	846
234.157	276
234.222	671
234.288	1359
234.353	3542
234.418	2251
234.483	1955
234.548	638
234.613	1584
234.678	1187
234.743	1030
234.808	3204
234.873	1608
234.938	1283
235.004	479
235.069	620
235.134	190
235.199	436
235.264	-306
235.329	516
235.394	1461
235.459	825
235.524	211
235.589	745
235.654	1037
235.719	624
235.784	1494
235.849	1229
235.913	1238
235.978	1625
236.043	1487
236.108	791
236.173	756
236.238	1147
236.303	415
236.368	310
236.433	1393
236.498	2099
236.563	1521
236.627	3888
236.692	14772
236.757	7177
236.822	3221
236.887	2330
236.952	1781
237.017	1295
237.081	1934
237.146	2210
237.211	5279
237.276	15793
237.341	19692
237.405	6870
237.470	3524
237.535	2040
237.600	1147
237.664	1185
237.729	962
237.794	1847
237.859	2706
237.923	1703
237.988	779
238.053	2300
238.118	1557
238.182	5409
238.247	4145
238.312	1587
238.376	1740
238.441	95
238.506	1608
238.570	178
238.635	1382
238.700	704
238.764	124
238.829	1896
238.893	1859
238.958	973
239.023	1323
239.087	342
239.152	998
239.216	-539
239.281	663
239.346	1106
239.410	198
239.475	963
239.539	5004
239.604	1535
239.668	933
239.733	647
239.797	2461
239.862	5049
239.926	3625
239.991	799
240.055	921
240.120	569
240.184	526
240.249	779
240.313	107
240.378	212
240.442	2961
240.507	3212
240.571	645
240.635	1999
240.700	1697
240.764	957
240.829	367
240.893	51
240.957	104
241.022	2670
241.086	3546
241.151	1644
241.215	230
241.279	1821
241.344	1570
241.408	707
241.472	1540
241.537	1381
241.601	1319
241.665	433
241.730	704
241.794	1055
241.858	1304
241.922	756
241.987	1035
242.051	189
242.115	455
242.179	699
242.244	784
242.308	1143
242.372	481
242.436	300
242.501	1345
242.565	-127
242.629	160
242.693	448
242.757	-8
242.822	-328
242.886	1329
242.950	202
243.014	614
243.078	846
243.142	1511
243.206	613
243.271	1115
243.335	897
243.399	1394
243.463	7984
243.527	14625
243.591	2887
243.655	2131
243.719	709
243.783	1566
243.847	2009
243.911	2828
243.975	2761
244.040	800
244.104	2234
244.168	1121
244.232	1535
244.296	2839
244.360	2287
244.424	1690
244.488	842
244.552	595
244.615	76
244.679	977
244.743	1353
244.807	645
244.871	1078
244.935	928
244.999	-100
245.063	715
245.127	1139
245.191	1053
245.255	1751
245.319	1469
245.383	230
245.446	1737
245.510	543
245.574	264
245.638	1306
245.702	1377
245.766	2799
245.829	1795
245.893	818
245.957	1150
246.021	519
246.085	1181
246.149	1541
246.212	4967
246.276	5390
246.340	2107
246.404	1566
246.467	2219
246.531	2344
246.595	2669
246.659	1623
246.722	1144
246.786	1614
246.850	2696
246.913	2245
246.977	200
247.041	756
247.104	1496
247.168	1588
247.232	4639
247.295	8772
247.359	3385
247.423	1971
247.486	3505
247.550	1630
247.614	1748
247.677	1758
247.741	1430
247.804	786
247.868	2027
247.932	4824
247.995	8181
248.059	1839
248.122	1286
248.186	2512
248.249	3975
248.313	15872
248.376	12844
248.440	7523
248.503	2341
248.567	3513
248.630	3963
248.694	4781
248.757	7765
248.821	14473
248.884	6991
248.948	8218
249.011	11649
249.075	18438
249.138	12250
249.202	5059
249.265	3225
249.328	2953
249.392	2545
249.455	2759
249.519	1548
249.582	2902
249.645	4060
249.709	3087
249.772	1930
249.835	2325
249.899	1829
249.962	2342
250.025	1990
250.089	7469
250.152	6690
250.215	3533
250.279	2250
250.342	2900
250.405	2070
250.468	2922
250.532	2576
250.595	5263
250.658	22413
250.721	22534
250.785	8282
250.848	5397
250.911	3875
250.974	2910
251.038	5141
251.101	8614
251.164	4258
251.227	5114
251.290	3778
251.354	6461
251.417	27459
251.480	17453
251.543	17306
251.606	44898
251.669	22663
251.732	11069
251.795	11961
251.859	14015
251.922	27352
251.985	11946
252.048	5881
252.111	4365
252.174	4557
252.237	9759
252.300	16633
252.363	21517
252.426	33356
252.489	10262
252.552	6100
252.615	4872
252.678	6202
252.741	14410
252.804	19387
252.867	34090
252.930	17649
252.993	9326
253.056	5862
253.119	3876
253.182	4181
253.245	5225
253.308	3939
253.371	3792
253.434	3446
253.497	3820
253.559	9345
253.622	4925
253.685	6486
253.748	5263
253.811	2313
253.874	4030
253.937	2845
254.000	3089
254.062	6120
254.125	6801
254.188	7075
254.251	4809
254.314	2211
254.376	4930
254.439	5034
254.502	4394
254.565	6853
254.628	8646
254.690	3663
254.753	2060
254.816	2195
254.878	2292
254.941	7137
255.004	4560
255.067	2634
255.129	1477
255.192	2302
255.255	1167
255.317	1846
255.380	561
255.443	1626
255.505	571
255.568	314
255.631	512
255.693	1036
255.756	136
255.819	1901
255.881	616
255.944	705
256.006	1839
256.069	845
256.132	216
256.194	1987
256.257	3446
256.319	2435
256.382	1272
256.444	1998
256.507	1661
256.569	1574
256.632	1718
256.694	1703
256.757	10022
256.819	18023
256.882	4572
256.944	2469
257.007	2551
257.069	1789
257.132	1687
257.194	1781
257.257	1485
257.319	1101
257.381	1231
257.444	6777
257.506	28088
257.569	18908
257.631	8774
257.693	5175
257.756	2652
257.818	1536
257.880	1179
257.943	1926
258.005	1443
258.067	962
258.130	749
258.192	1911
258.254	2840
258.317	877
258.379	657
258.441	5823
258.503	3771
258.566	6336
258.628	4395
258.690	724
258.753	1857
258.815	2844
258.877	836
258.939	1401
259.001	1014
259.064	259
259.126	625
259.188	1294
259.250	1397
259.312	1608
259.375	3920
259.437	2279
259.499	1362
259.561	882
259.623	905
259.685	830
259.747	1573
259.809	5279
259.872	6815
259.934	14999
259.996	7413
260.058	2177
260.120	1160
260.182	941
260.244	559
260.306	328
260.368	1021
260.430	137
260.492	2037
260.554	3590
260.616	2585
260.678	8313
260.740	6217
260.802	1532
260.864	1365
260.926	136
260.988	1223
261.050	1306
261.112	3352
261.174	10024
261.236	4610
261.298	1630
261.359	3625
261.421	4936
261.483	720
261.545	1576
261.607	-649
261.669	1226
261.731	2619
261.793	5178
261.854	1388
261.916	1887
261.978	709
262.040	1200
262.102	1462
262.164	1895
262.225	633
262.287	401
262.349	3778
262.411	2019
262.472	959
262.534	2409
262.596	3223
262.658	1658
262.719	660
262.781	1980
262.843	3951
262.904	2297
262.966	1490
263.028	522
263.090	12776
263.151	19139
263.213	5681
263.275	2954
263.336	1134
263.398	1366
263.459	24
263.521	1102
263.583	4174
263.644	1659
263.706	90
263.767	214
263.829	551
263.891	661
263.952	231
264.014	207
264.075	978
264.137	1939
264.198	800
264.260	-309
264.321	-217
264.383	3301
264.444	3238
264.506	1285
264.567	454
264.629	2460
264.690	2032
264.752	665
264.813	629
264.875	-62
264.936	613
264.998	379
265.059	185
265.120	222
265.182	1153
265.243	12485
265.305	5238
265.366	1638
265.427	1010
265.489	1290
265.550	-574
265.611	849
265.673	-99
265.734	377
265.795	30
265.857	246
265.918	-114
265.979	3348
266.040	19404
266.102	9111
266.163	2808
266.224	2176
266.286	1165
266.347	-32
266.408	354
266.469	1009
266.530	-487
266.592	-186
266.653	2329
266.714	2361
266.775	808
266.836	42
266.898	-361
266.959	821
267.020	228
267.081	-165
267.142	542
267.203	161
267.264	-98
267.326	1256
267.387	121
267.448	805
267.509	79
267.570	400
267.631	465
267.692	124
267.753	425
267.814	-214
267.875	3112
267.936	4166
267.997	1579
268.058	1976
268.119	545
268.180	465
268.241	479
268.302	-71
268.363	-1
268.424	366
268.485	-50
268.546	-803
268.607	-538
268.668	-528
268.729	-49
268.790	57
268.851	506
268.912	2535
268.972	1437
269.033	645
269.094	454
269.155	1045
269.216	289
269.277	173
269.338	40
269.398	554
269.459	-442
269.520	892
269.581	1268
269.642	2238
269.702	369
269.763	1035
269.824	728
269.885	1528
269.945	1549
270.006	510
270.067	509
270.128	211
270.188	-3
270.249	-628
270.310	-13
270.370	757
270.431	580
270.492	-642
270.553	241
270.613	2525
270.674	4044
270.734	1053
270.795	-88
270.856	1376
270.916	-225
270.977	896
271.038	918
271.098	559
271.159	1659
271.219	1237
271.280	203
271.340	630
271.401	-160
271.462	1488
271.522	1118
271.583	467
271.643	675
271.704	418
271.764	1191
271.825	3449
271.885	16305
271.946	14321
272.006	3765
272.066	11252
272.127	12036
272.187	3512
272.248	1363
272.308	2216
272.369	11723
272.429	4318
272.489	2860
272.550	2263
272.610	4389
272.671	1987
272.731	2268
272.791	2635
272.852	1043
272.912	1095
272.972	136
273.033	1216
273.093	1195
273.153	726
273.214	768
273.274	692
273.334	9515
273.394	10999
273.455	3572
273.515	6917
273.575	10216
273.635	3910
273.696	7876
273.756	12809
273.816	3995
273.876	2760
273.936	6292
273.997	6863
274.057	1562
274.117	1412
274.177	4155
274.237	18797
274.297	9966
274.358	7875
274.418	11585
274.478	5938
274.538	2245
274.598	2079
274.658	6942
274.718	7403
274.778	2309
274.838	1268
274.898	4856
274.958	9838
275.018	14366
275.078	7035
275.138	2564
275.198	1982
275.258	568
275.318	1450
275.378	3363
275.438	3122
275.498	1663
275.558	7569
275.618	12477
275.678	7028
275.738	5405
275.798	2718
275.858	815
275.918	1098
275.978	1203
276.038	1014
276.098	131
276.157	3852
276.217	7426
276.277	2799
276.337	1971
276.397	937
276.457	1853
276.517	1036
276.576	656
276.636	432
276.696	1974
276.756	5292
276.815	2298
276.875	1340
276.935	1738
276.995	1353
277.055	967
277.114	1017
277.174	2822
277.234	7509
277.293	2064
277.353	1695
277.413	1520
277.472	1055
277.532	1327
277.592	1774
277.651	12700
277.711	13499
277.771	4851
277.830	21297
277.890	9718
277.950	14771
278.009	31439
278.069	8752
278.128	15233
278.188	12890
278.248	7523
278.307	20193
278.367	8120
278.426	3505
278.486	1810
278.545	1488
278.605	2312
278.664	619
278.724	1584
278.783	9267
278.843	14325
278.902	3826
278.962	2654
279.021	2016
279.081	3412
279.140	2927
279.199	2322
279.259	2854
279.318	3297
279.378	4702
279.437	7873
279.496	33295
279.556	83362
279.615	45068
279.675	12871
279.734	8530
279.793	14298
279.853	19766
279.912	5904
279.971	4055
280.031	3093
280.090	10797
280.149	11835
280.208	11738
280.268	61856
280.327	39965
280.386	9981
280.445	9605
280.505	6227
280.564	3294
280.623	2205
280.682	5882
280.742	6432
280.801	2074
280.860	1505
280.919	2267
280.978	1451
281.037	730
281.097	479
281.156	1429
281.215	1617
281.274	2501
281.333	12502
281.392	4917
281.451	2049
281.510	1543
281.569	1098
281.628	630
281.688	1638
281.747	1591
281.806	867
281.865	701
281.924	863
281.983	825
282.042	821
282.101	1043
282.160	804
282.219	1049
282.278	1674
282.337	5255
282.396	2767
282.454	1312
282.513	2790
282.572	8602
282.631	2604
282.690	1372
282.749	637
282.808	1645
282.867	1248
282.926	1341
282.985	34
283.043	129
283.102	958
283.161	819
283.220	5709
283.279	7800
283.338	2127
283.396	1414
283.455	1734
283.514	1940
283.573	2342
283.631	1601
283.690	1479
283.749	1552
283.808	4070
283.866	3103
283.925	1185
283.984	1718
284.043	1620
284.101	1823
284.160	1745
284.219	2434
284.277	2080
284.336	4395
284.395	12906
284.453	8067
284.512	3941
284.570	5914
284.629	4683
284.688	3769
284.746	5099
284.805	6345
284.863	8655
284.922	8825
284.981	10676
285.039	15986
285.098	30834
285.156	81752
285.215	142250
285.273	124300
285.332	65942
285.390	34456
285.449	22706
285.507	14026
285.566	10616
285.624	7464
285.683	6033
285.741	4747
285.799	3717
285.858	3744
285.916	3957
285.975	3378
286.033	2626
286.091	2720
286.150	1539
286.208	2284
286.267	2300
286.325	2503
286.383	3584
286.442	3028
286.500	2015
286.558	1632
286.616	1845
286.675	2156
286.733	1305
286.791	1574
286.850	1505
286.908	2926
286.966	3838
287.024	2339
287.083	1528
287.141	1529
287.199	1989
287.257	2501
287.315	2299
287.374	2203
287.432	4662
287.490	2366
287.548	1503
287.606	1382
287.664	1247
287.723	2606
287.781	1513
287.839	1388
287.897	1810
287.955	1409
288.013	2402
288.071	7167
288.129	54330
288.187	105221
288.245	33899
288.303	11506
288.361	6413
288.419	4509
288.477	3001
288.535	1913
288.593	1695
288.651	1026
288.709	1052
288.767	919
288.825	361
288.883	730
288.941	196
288.999	803
289.057	-126
289.115	71
289.173	907
289.231	396
289.289	653
289.346	963
289.404	1616
289.462	2169
289.520	1691
289.578	736
289.636	311
289.694	268
289.751	40
289.809	150
289.867	-227
289.925	2473
289.983	12
290.040	148
290.098	-202
290.156	532
290.214	1066
290.271	-90
290.329	13
290.387	483
290.444	215
290.502	-28
290.560	-413
290.617	188
290.675	-107
290.733	392
290.790	-3
290.848	988
290.906	297
290.963	571
291.021	331
291.078	397
291.136	298
291.194	5385
291.251	7221
291.309	1339
291.366	-8
291.424	34
291.481	411
291.539	556
291.596	464
291.654	209
291.711	84
291.769	685
291.826	1981
291.884	759
291.941	78
291.999	397
292.056	846
292.114	723
292.171	44
292.228	574
292.286	776
292.343	2120
292.401	1988
292.458	608
292.515	-313
292.573	1413
292.630	342
292.687	975
292.745	103
292.802	1392
292.859	4727
292.917	11410
292.974	3505
293.031	1375
293.089	769
293.146	297
293.203	440
293.260	260
293.318	-174
293.375	939
293.432	-216
293.489	-444
293.546	260
293.604	1446
293.661	10471
293.718	19308
293.775	7380
293.832	4209
293.889	2081
293.947	2600
294.004	1189
294.061	1344
294.118	5747
294.175	8549
294.232	7538
294.289	2200
294.346	1408
294.403	1508
294.460	1336
294.517	679
294.574	556
294.631	-117
294.688	1029
294.745	7542
294.802	23564
294.859	13874
294.916	5088
294.973	2860
295.030	2291
295.087	2464
295.144	1082
295.201	1662
295.258	295
295.315	1823
295.372	12254
295.429	15536
295.486	5029
295.542	2509
295.599	6320
295.656	7718
295.713	10843
295.770	13323
295.827	4837
295.883	2117
295.940	1959
295.997	2994
296.054	2442
296.111	1557
296.167	1099
296.224	74
296.281	762
296.338	842
296.394	657
296.451	1605
296.508	8546
296.564	10201
296.621	6781
296.678	24345
296.734	23415
296.791	8085
296.848	3113
296.904	4685
296.961	11009
297.018	20401
297.074	10418
297.131	3760
297.187	1957
297.244	4831
297.301	28176
297.357	32690
297.414	10556
297.470	4978
297.527	2018
297.583	1721
297.640	1076
297.696	1741
297.753	981
297.809	1306
297.866	-253
297.922	683
297.979	219
298.035	832
298.092	2517
298.148	12412
298.204	8305
298.261	3128
298.317	11652
298.374	24807
298.430	11183
298.486	4913
298.543	3379
298.599	2587
298.656	3926
298.712	7180
298.768	14523
298.824	8607
298.881	3243
298.937	1653
298.993	1647
299.050	1706
299.106	2051
299.162	1940
299.218	1786
299.275	1451
299.331	1495
299.387	6977
299.443	26948
299.500	20217
299.556	7479
299.612	3812
299.668	3692
299.724	5703
299.780	2717
299.837	1794
299.893	5190
299.949	19581
300.005	16903
300.061	21225
300.117	29418
300.173	12434
300.229	6041
300.285	7809
300.341	7515
300.397	4027
300.453	2711
300.510	1948
300.566	1880
300.622	2813
300.678	11590
300.734	17580
300.790	20761
300.845	20862
300.901	14778
300.957	18806
301.013	11096
301.069	5064
301.125	3688
301.181	2968
301.237	2390
301.293	1851
301.349	1056
301.405	919
301.461	1971
301.516	2739
301.572	2992
301.628	4728
301.684	3571
301.740	9355
301.796	10552
301.851	8540
301.907	11101
301.963	10782
302.019	29885
302.074	71870
302.130	57921
302.186	25367
302.242	10755
302.297	6248
302.353	7749
302.409	13450
302.464	8749
302.520	9669
302.576	25761
302.631	24221
302.687	11569
302.743	5001
302.798	2188
302.854	2199
302.910	2419
302.965	2819
303.021	5815
303.076	5803
303.132	7707
303.187	7422
303.243	3966
303.299	2177
303.354	1598
303.410	1902
303.465	1548
303.521	1293
303.576	1335
303.632	1563
303.687	8922
303.743	24098
303.798	16194
303.853	7030
303.909	3167
303.964	3116
304.020	4614
304.075	5848
304.130	6017
304.186	11173
304.241	11343
304.297	8486
304.352	4147
304.358	3997
304.407	2774
304.449	2250
304.463	2076
304.518	2292
304.539	2176
304.573	1984
304.629	1771
304.630	1833
304.684	4772
304.720	15415
304.739	20857
304.794	24323
304.811	20835
304.850	11818
304.902	4701
304.905	4281
304.960	3104
304.992	3255
305.015	3399
305.071	3513
305.083	3365
305.126	2662
305.173	2203
305.181	2143
305.236	1057
305.264	1739
305.292	2522
305.347	2999
305.354	3074
305.402	3503
305.445	3400
305.457	3369
305.512	4348
305.535	4323
305.567	4119
305.622	3928
305.626	4143
305.678	10031
305.716	21563
305.733	25819
305.788	24952
305.807	23138
305.843	19293
305.897	26504
305.898	26598
305.953	22354
305.988	15540
306.008	11624
306.063	6474
306.078	5489
306.118	3685
306.168	2987
306.173	2943
306.228	2144
306.259	1976
306.283	1894
306.338	1475
306.349	1670
306.393	2793
306.440	3468
306.448	3495
306.503	2855
306.530	2552
306.558	3394
306.613	7999
306.620	8920
306.668	16392
306.711	24702
306.723	25460
306.778	19389
306.801	15610
306.833	10909
306.888	4276
306.892	4003
306.943	3151
306.982	2991
306.997	2927
307.052	3209
307.072	2902
307.107	2714
307.162	3524
307.163	3530
307.217	5220
307.253	5907
307.272	5982
307.327	6837
307.343	6837
307.381	6343
307.434	5476
307.436	5682
307.491	11990
307.524	18363
307.546	21127
307.600	22878
307.614	21986
307.655	14402
307.704	6969
307.710	6797
307.765	6111
307.795	6938
307.819	8791
307.874	14254
307.885	14572
307.929	11632
307.975	9352
307.984	9757
308.038	13516
308.065	16165
308.093	28751
308.148	67187
308.156	75584
308.202	141884
308.246	177193
308.257	166360
308.312	88199
308.336	56618
308.366	44190
308.421	27663
308.426	26210
308.475	17364
308.517	10973
308.530	10234
308.585	8616
308.607	8343
308.639	8494
308.694	8645
308.697	8702
308.748	14179
308.787	19093
308.803	19107
308.857	16271
308.877	15143
308.912	14271
308.967	13943
308.967	13916
309.021	20309
309.058	25582
309.076	32560
309.130	56411
309.148	65830
309.185	114445
309.238	204670
309.239	206249
309.293	253026
309.328	257888
309.348	218219
309.402	103899
309.418	73322
309.457	51743
309.508	30029
309.511	29835
309.566	28930
309.598	30092
309.620	38418
309.674	63464
309.688	69194
309.729	67562
309.778	60149
309.783	58468
309.837	37060
309.868	25675
309.892	27001
309.946	33378
309.959	35494
310.001	50348
310.049	64455
310.055	62216
310.109	37535
310.139	24047
310.163	19335
310.218	10949
310.229	9348
310.272	7499
310.319	5649
310.326	5531
310.381	4996
310.409	4856
310.435	4742
310.489	4321
310.499	4258
310.543	4330
310.589	4449
310.598	4454
310.652	4412
310.679	4433
310.706	4170
310.760	3432
310.769	3309
310.814	2915
310.859	2732
310.868	2904
310.923	3481
310.948	3900
310.977	4251
311.031	4806
311.038	4880
311.085	4727
311.128	4391
311.139	4346
311.193	4266
311.218	4124
311.247	4023
311.301	3926
311.308	3898
311.356	3532
311.398	3208
311.410	3237
311.464	3319
311.488	3301
311.518	3244
311.572	3306
311.578	3297
311.626	4590
311.668	5759
311.680	5754
311.734	5546
311.758	5460
311.788	5582
311.842	5761
311.847	5764
311.896	6187
311.937	6554
311.950	6788
312.004	7708
312.027	8080
312.058	6946
312.112	4899
312.117	4682
312.165	4514
312.207	4355
312.297	5317
312.386	5115
312.476	4917
312.566	10858
312.656	5934
312.745	3207
312.835	3328
312.925	4541
313.015	3184
313.104	4935
313.194	4158
313.284	4247
313.374	5417
313.463	6811
313.553	2913
313.643	3380
313.732	3285
313.822	3720
313.912	4948
314.001	4850
314.091	5386
314.180	7050
314.270	6415
314.360	7156
314.449	6310
314.539	4314
314.628	3775
314.718	4623
314.808	5888
314.897	5158
314.987	4299
315.076	5334
315.166	8019
315.255	6804
315.345	6526
315.434	5850
315.524	4976
315.613	7204
315.703	9070
315.792	15282
315.881	43928
315.971	21914
316.060	11374
316.150	13793
316.239	14011
316.328	7247
316.418	3748
316.507	5042
316.597	6511
316.686	6694
316.775	6954
316.865	14596
316.954	5316
317.043	3235
317.133	4479
317.222	3664
317.311	4392
317.400	3796
317.490	5238
317.579	7709
317.668	5522
317.757	9507
317.847	23220
317.936	77901
318.025	38792
318.114	17896
318.203	12561
318.293	12168
318.382	26361
318.471	21052
318.560	25456
318.649	40739
318.738	12192
318.828	6154
318.917	6790
319.006	6296
319.095	18391
319.184	49467
319.273	35821
319.362	20352
319.451	5668
319.540	6422
319.629	12362
319.718	24564
319.807	8757
319.896	16796
319.985	63333
320.074	32389
320.163	6638
320.252	9891
320.341	7959
320.430	8324
320.519	10676
320.608	7957
320.697	5208
320.786	6003
320.875	7607
320.964	10443
321.053	14981
321.142	21642
321.230	25913
321.319	16596
321.408	40763
321.497	21138
321.586	15564
321.675	15979
321.764	17007
321.852	11267
321.941	20751
322.030	17473
322.119	13536
322.207	40581
322.296	26754
322.385	14135
322.474	16727
322.562	49893
322.651	33412
322.740	17130
322.829	26116
322.917	21002
323.006	15232
323.095	13074
323.183	7926
323.272	11370
323.361	19055
323.449	57798
323.538	23470
323.626	36027
323.715	30721
323.804	8770
323.892	33706
323.981	27187
324.069	7311
324.158	16295
324.246	20999
324.335	8816
324.424	15524
324.512	6420
324.601	7433
324.689	13222
324.778	29669
324.866	17085
324.954	6292
325.043	4831
325.131	8182
325.220	14251
325.308	16657
325.397	12861
325.485	10370
325.574	4613
325.662	4259
325.750	4433
325.839	4161
325.927	3007
326.015	4825
326.104	5802
326.192	9046
326.280	4326
326.369	3225
326.457	6700
326.545	12717
326.634	7241
326.722	3297
326.810	3773
326.898	3298
326.987	5389
327.075	10151
327.163	11074
327.251	5440
327.340	8486
327.428	16767
327.516	4695
327.604	3728
327.692	3678
327.781	3766
327.869	6895
327.957	5168
328.045	5524
328.133	2719
328.221	3728
328.309	3903
328.397	3403
328.485	4579
328.574	7117
328.662	25949
328.750	16631
328.838	4869
328.926	3807
329.014	3260
329.102	5163
329.190	11907
329.278	11430
329.366	3027
329.454	3438
329.542	3032
329.630	2300
329.718	3663
329.806	4638
329.893	4568
329.981	4917
330.069	6352
330.157	26387
330.245	105079
330.333	69345
330.421	10153
330.509	6481
330.597	28664
330.684	25457
330.772	6686
330.860	6997
330.948	9531
331.036	5731
331.123	2744
331.211	3161
331.299	3168
331.387	6512
331.475	17266
331.562	6042
331.650	2899
331.738	3745
331.825	5034
331.913	3321
332.001	3326
332.089	4052
332.176	6194
332.264	15642
332.352	16892
332.439	5959
332.527	3855
332.614	3549
332.702	4007
332.790	3248
332.877	7340
332.965	20702
333.052	10087
333.140	7819
333.228	25857
333.315	9805
333.403	4277
333.490	9867
333.578	13851
333.665	32838
333.753	18926
333.840	4681
333.928	5109
334.015	10161
334.103	16117
334.190	63697
334.278	24488
334.365	9512
334.452	9741
334.540	5592
334.627	5350
334.715	7902
334.802	11239
334.889	57446
334.977	90709
335.064	19108
335.151	7837
335.239	6411
335.326	6888
335.413	25443
335.501	54194
335.588	8842
335.675	5389
335.762	6385
335.850	11783
335.937	10560
336.024	18672
336.111	77817
336.199	57069
336.286	14460
336.373	6920
336.460	4377
336.547	4366
336.635	5096
336.722	5881
336.809	4313
336.896	5589
336.983	16512
337.070	42423
337.157	71543
337.245	42874
337.332	39493
337.419	5265
337.506	4507
337.593	3766
337.680	10120
337.767	44853
337.854	15530
337.941	14021
338.028	17305
338.115	8335
338.202	5375
338.289	9489
338.376	42297
338.463	18618
338.550	19147
338.637	33758
338.724	7784
338.811	14885
338.898	4154
338.984	3302
339.071	4019
339.158	4608
339.245	14233
339.332	12424
339.419	8314
339.506	10985
339.593	2778
339.679	3466
339.766	3613
339.853	3533
339.940	11711
340.027	5355
340.113	3387
340.200	5024
340.287	4467
340.374	4899
340.460	10177
340.547	5675
340.634	6341
340.720	27110
340.807	24947
340.894	4034
340.980	3601
341.067	3656
341.154	3904
341.240	6193
341.327	16545
341.414	6744
341.500	10719
341.587	4252
341.674	3039
341.760	8241
341.847	13928
341.933	4728
342.020	2413
342.106	1893
342.193	3673
342.279	8638
342.366	5866
342.452	10566
342.539	6499
342.625	10533
342.712	33499
342.798	17575
342.885	6546
342.971	2809
343.058	2531
343.144	2766
343.230	3356
343.317	4100
343.403	4607
343.490	2375
343.576	2454
343.662	3102
343.749	4279
343.835	4429
343.921	6763
344.008	43275
344.094	158566
344.180	47425
344.267	10470
344.353	32713
344.439	51158
344.525	18007
344.612	8304
344.698	5404
344.784	4400
344.870	3148
344.957	3997
345.043	6108
345.129	4566
345.215	9549
345.301	7488
345.387	4557
345.474	2367
345.560	1721
345.646	2861
345.732	3247
345.818	4994
345.904	5866
345.990	4382
346.076	3416
346.162	8906
346.249	5317
346.335	2684
346.421	3407
346.507	10388
346.593	61650
346.679	21810
346.765	4476
346.851	3962
346.937	4850
347.023	3389
347.108	4212
347.194	4139
347.280	4173
347.366	4725
347.452	12417
347.538	67799
347.624	55004
347.710	48622
347.796	7231
347.882	3624
347.967	2988
348.053	4105
348.139	3883
348.225	2617
348.311	3463
348.397	2658
348.482	3680
348.568	6132
348.654	2692
348.740	5757
348.825	8066
348.911	6290
348.997	21498
349.083	72870
349.168	14764
349.254	5028
349.340	5994
349.425	2857
349.511	4113
349.597	5478
349.682	8260
349.768	37155
349.854	27478
349.939	3947
350.025	2249
350.110	2522
350.196	2958
350.282	3032
350.367	2249
350.453	3668
350.538	5220
350.624	4788
350.709	5322
350.795	2441
350.880	2921
350.966	2941
351.051	6072
351.137	4817
351.222	2566
351.308	8250
351.393	35357
351.479	14443
351.564	5367
351.649	3171
351.735	2394
351.820	2514
351.906	2408
351.991	3893
352.076	15793
352.162	38328
352.247	8061
352.332	3589
352.418	10056
352.503	14072
352.588	39668
352.673	50352
352.759	10535
352.844	5076
352.929	3563
353.014	7771
353.100	4769
353.185	8125
353.270	12182
353.355	14518
353.441	3947
353.526	3253
353.611	8213
353.696	14192
353.781	7027
353.866	4074
353.952	3253
354.037	8489
354.122	23392
354.207	21871
354.292	11416
354.377	3742
354.462	2415
354.547	4689
354.632	4401
354.717	5221
354.802	10589
354.887	5181
354.972	3127
355.057	2871
355.142	2915
355.227	3582
355.312	5554
355.397	13040
355.482	36169
355.567	24808
355.652	11106
355.737	14234
355.822	37601
355.907	51937
355.991	7516
356.076	3727
356.161	4091
356.246	3251
356.331	3754
356.416	6930
356.501	55163
356.585	99053
356.670	16444
356.755	7779
356.840	8186
356.924	33769
357.009	166630
357.094	96748
357.179	14235
357.263	10870
357.348	7629
357.433	10703
357.517	8266
357.602	7864
357.687	6169
357.771	10092
357.856	41948
357.941	33841
358.025	24248
358.110	146692
358.195	110177
358.279	14572
358.364	8140
358.448	22814
358.533	78976
358.617	70461
358.702	61527
358.787	30964
358.871	11501
358.956	12003
359.040	5418
359.125	3973
359.209	3857
359.294	15679
359.378	43684
359.462	16604
359.547	6656
359.631	4361
359.716	3060
359.800	3625
359.885	5834
359.969	5147
360.053	3334
360.138	3717
360.222	5112
360.306	11884
360.391	10744
360.475	16372
360.559	51953
360.644	34377
360.728	27698
360.812	25879
360.896	112904
360.981	55463
361.065	27146
361.149	7206
361.233	6331
361.318	5986
361.402	7001
361.486	6288
361.570	4442
361.654	5612
361.739	11713
361.823	51038
361.907	126993
361.991	32642
362.075	10021
362.159	22865
362.243	20787
362.327	18613
362.411	31571
362.495	17288
362.580	7042
362.664	5605
362.748	6127
362.832	7452
362.916	12087
363.000	35489
363.084	105992
363.168	162237
363.252	47235
363.336	12406
363.420	12788
363.503	34962
363.587	65471
363.671	14673
363.755	7623
363.839	12986
363.923	7015
364.007	11655
364.091	16345
364.175	15449
364.258	69266
364.342	78352
364.426	105611
364.510	76939
364.594	24061
364.677	18375
364.761	79630
364.845	93833
364.929	22454
365.013	19633
365.096	12968
365.180	18915
365.264	12515
365.347	67212
365.431	45681
365.515	9364
365.598	5615
365.682	4584
365.766	5694
365.849	10117
365.933	5735
366.017	6961
366.100	6003
366.184	2980
366.267	3402
366.351	3536
366.435	3469
366.518	2515
366.602	2467
366.685	3355
366.769	4301
366.852	5950
366.936	13165
367.019	9408
367.103	5336
367.186	9739
367.270	4440
367.353	2696
367.436	3435
367.520	2814
367.603	4930
367.687	6701
367.770	14133
367.853	9146
367.937	19228
368.020	55332
368.104	16955
368.187	9952
368.270	14667
368.353	13822
368.437	12347
368.520	25297
368.603	22462
368.687	24388
368.770	68222
368.853	22004
368.936	11228
369.020	14069
369.103	5970
369.186	3793
369.269	4334
369.352	7099
369.436	13620
369.519	8641
369.602	4643
369.685	4527
369.768	5573
369.851	4380
369.934	3161
370.018	4001
370.101	10115
370.184	10614
370.267	5963
370.350	10219
370.433	16848
370.516	40936
370.599	81041
370.682	27251
370.765	28056
370.848	37426
370.931	75996
371.014	41690
371.097	6995
371.180	6472
371.263	3449
371.346	3162
371.429	4160
371.511	3564
371.594	7104
371.677	11936
371.760	12466
371.843	11141
371.926	38159
372.009	138864
372.091	62658
372.174	24909
372.257	69670
372.340	43390
372.423	16364
372.505	21200
372.588	10526
372.671	16738
372.754	68983
372.836	54289
372.919	17789
373.002	43491
373.085	21089
373.167	11200
373.250	26064
373.332	68224
373.415	76982
373.498	182935
373.580	95394
373.663	71620
373.746	149415
373.828	41687
373.911	12847
373.993	10593
374.076	32572
374.159	46609
374.241	17803
374.324	55041
374.406	55570
374.489	36593
374.571	149701
374.654	95420
374.736	25865
374.819	81759
374.901	122766
374.983	159698
375.066	39547
375.148	9600
375.231	23934
375.313	67948
375.395	32612
375.478	9417
375.560	6658
375.643	6564
375.725	17775
375.807	99419
375.890	110977
375.972	36607
376.054	17186
376.136	22718
376.219	15433
376.301	21151
376.383	100570
376.465	59269
376.548	21230
376.630	25223
376.712	77884
376.794	62424
376.877	6988
376.959	2971
377.041	4562
377.123	6368
377.205	10098
377.287	3446
377.369	2936
377.452	3215
377.534	3588
377.616	3594
377.698	3559
377.780	3347
377.862	3729
377.944	3544
378.026	2358
378.108	2502
378.190	2586
378.272	3061
378.354	2855
378.436	2634
378.518	4039
378.600	16075
378.682	17223
378.764	35508
378.846	45316
378.928	10195
379.010	12379
379.091	9325
379.173	4232
379.255	3892
379.337	5342
379.419	14215
379.501	59172
379.583	37878
379.664	6801
379.746	12924
379.828	34571
379.910	57758
379.991	62562
380.073	15034
380.155	5799
380.237	5223
380.318	3740
380.400	3595
380.482	6953
380.564	16034
380.645	13593
380.727	16503
380.809	9435
380.890	6776
380.972	5639
381.053	4624
381.135	5423
381.217	11954
381.298	41300
381.380	31369
381.461	15854
381.543	63365
381.624	128999
381.706	33236
381.787	11162
381.869	12324
381.951	24211
382.032	122284
382.113	121724
382.195	27337
382.276	14758
382.358	24411
382.439	76126
382.521	86997
382.602	139311
382.684	81752
382.765	100470
382.846	153658
382.928	253271
383.009	202096
383.090	90762
383.172	267263
383.253	570316
383.334	241952
383.416	137824
383.497	104349
383.578	46309
383.659	72924
383.741	218627
383.822	670371
383.903	513582
383.984	135601
384.066	154832
384.147	129132
384.228	34515
384.309	19378
384.390	16762
384.471	12149
384.553	12733
384.634	13756
384.715	15109
384.796	10251
384.877	10474
384.958	32653
385.039	58122
385.120	24829
385.201	10111
385.282	10914
385.363	10989
385.444	11349
385.525	15432
385.606	52127
385.687	72134
385.768	17561
385.849	13215
385.930	44155
386.011	119702
386.092	49421
386.173	9724
386.254	6423
386.335	6279
386.416	7081
386.496	18726
386.577	47331
386.658	20640
386.739	10141
386.820	8917
386.901	6516
386.981	7600
387.062	5429
387.143	8724
387.224	34735
387.304	49542
387.385	17153
387.466	10313
387.547	12928
387.627	9602
387.708	13172
387.789	58155
387.869	106731
387.950	40843
388.031	6310
388.111	4750
388.192	9496
388.273	14471
388.353	12171
388.434	7313
388.514	10420
388.595	52742
388.676	101687
388.756	54455
388.837	36809
388.917	32972
388.998	7728
389.078	5509
389.159	5616
389.239	4734
389.320	7455
389.400	7449
389.480	12024
389.561	42039
389.641	34102
389.722	8273
389.802	12670
389.883	15535
389.963	48750
390.043	45727
390.124	11586
390.204	11863
390.284	42850
390.365	40459
390.445	23709
390.525	78625
390.605	104058
390.686	37485
390.766	12600
390.846	6902
390.927	4457
391.007	4668
391.087	6395
391.167	6573
391.247	5769
391.328	6948
391.408	9724
391.488	9629
391.568	5014
391.648	5893
391.728	10010
391.808	9657
391.888	10634
391.969	18963
392.049	46024
392.129	23757
392.209	16579
392.289	49711
392.369	40516
392.449	19826
392.529	17722
392.609	13820
392.689	15713
392.769	45530
392.849	61952
392.929	31194
393.009	68396
393.089	81741
393.169	64170
393.248	153256
393.328	541515
393.408	820413
393.488	333956
393.568	89375
393.648	41884
393.728	26485
393.807	19096
393.887	15519
393.967	14033
394.047	14077
394.127	16148
394.206	20657
394.286	48346
394.366	234830
394.446	404688
394.525	126558
394.605	27015
394.685	16701
394.764	23443
394.844	42309
394.924	44165
395.003	17276
395.083	10375
395.163	9991
395.242	8665
395.322	9496
395.402	8326
395.481	9295
395.561	15342
395.640	48149
395.720	56085
395.799	54587
395.879	57748
395.958	29604
396.038	70208
396.117	314902
396.197	526170
396.276	194568
396.356	53804
396.435	34403
396.515	27226
396.594	30648
396.673	52017
396.753	145241
396.832	527769
396.912	586458
396.991	181496
397.070	46039
397.150	23112
397.229	17372
397.308	18689
397.388	37095
397.467	25221
397.546	9503
397.625	6090
397.705	9237
397.784	10322
397.863	6262
397.942	4863
398.022	4156
398.101	9633
398.180	39813
398.259	31861
398.338	8866
398.417	5821
398.497	4141
398.576	4972
398.655	3593
398.734	3254
398.813	3666
398.892	9061
398.971	40568
399.050	35697
399.129	5239
399.208	2428
399.287	2582
399.366	2180
399.445	2604
399.524	2504
399.603	2638
399.682	5089
399.761	11804
399.840	41766
399.919	52534
399.998	9582
400.077	2941
400.156	1875
400.235	4030
400.313	2797
400.392	3206
400.471	14204
400.550	38424
400.629	15553
400.708	4570
400.786	2790
400.865	7268
400.944	11407
401.023	7257
401.102	2102
401.180	1846
401.259	1691
401.338	2338
401.416	3890
401.495	4554
401.574	2709
401.652	1521
401.731	3903
401.810	3635
401.888	2796
401.967	1168
402.046	2275
402.124	2901
402.203	5141
402.281	3397
402.360	3706
402.438	10720
402.517	11639
402.596	4015
402.674	3018
402.753	1417
402.831	2223
402.910	2991
402.988	9417
403.066	48524
403.145	47623
403.223	14417
403.302	41300
403.380	41963
403.459	34820
403.537	20282
403.615	5890
403.694	1325
403.772	2103
403.850	1275
403.929	1324
404.007	1016
404.085	5338
404.164	7633
404.242	3259
404.320	2051
404.398	4409
404.477	12334
404.555	77639
404.633	121081
404.711	26045
404.789	4931
404.868	3075
404.946	1980
405.024	1239
405.102	464
405.180	1214
405.258	414
405.336	1892
405.415	753
405.493	4242
405.571	5873
405.649	2472
405.727	1213
405.805	3484
405.883	3265
405.961	2866
406.039	3633
406.117	1289
406.195	4173
406.273	13731
406.351	77054
406.429	79042
406.507	12226
406.585	2607
406.663	2521
406.740	3843
406.818	4373
406.896	2723
406.974	2301
407.052	3853
407.130	33335
407.208	86099
407.285	26825
407.363	2718
407.441	1761
407.519	1622
407.596	2221
407.674	4364
407.752	7719
407.830	13665
407.907	8007
407.985	3759
408.063	2141
408.141	532
408.218	2779
408.296	3556
408.373	3113
408.451	3808
408.529	2404
408.606	1357
408.684	974
408.762	591
408.839	408
408.917	841
408.994	892
409.072	1532
409.149	1372
409.227	4022
409.304	6079
409.382	6030
409.459	4373
409.537	8605
409.614	8149
409.692	4419
409.769	3884
409.846	7784
409.924	11724
410.001	9400
410.079	5483
410.156	4108
410.233	2996
410.311	2293
410.388	2030
410.465	2112
410.543	3733
410.620	2468
410.697	1919
410.775	4075
410.852	865
410.929	3369
411.006	5509
411.083	3701
411.161	5889
411.238	8189
411.315	4391
411.392	2265
411.469	2643
411.547	4006
411.624	1621
411.701	1749
411.778	1949
411.855	5207
411.932	4518
412.009	1125
412.086	602
412.163	2107
412.240	2298
412.317	2259
412.394	2497
412.471	1461
412.548	139
412.625	1517
412.702	1870
412.779	3853
412.856	4234
412.933	1011
413.010	332
413.087	2127
413.164	12244
413.241	32448
413.318	11286
413.395	4187
413.471	5303
413.548	4075
413.625	709
413.702	1339
413.779	2289
413.855	988
413.932	-75
414.009	94
414.086	290
414.162	858
414.239	2142
414.316	10891
414.393	41373
414.469	26647
414.546	1291
414.623	340
414.699	1151
414.776	1072
414.853	-183
414.929	933
415.006	875
415.082	1106
415.159	1233
415.236	1596
415.312	848
415.389	2735
415.465	6336
415.542	3912
415.618	662
415.695	3628
415.771	2870
415.848	1538
415.924	648
416.000	922
416.077	1427
416.153	194
416.230	60
416.306	260
416.383	108
416.459	956
416.535	-243
416.612	271
416.688	199
416.764	1336
416.841	646
416.917	1672
416.993	1202
417.069	1477
417.146	1638
417.222	3359
417.298	2265
417.374	1651
417.451	976
417.527	1839
417.603	2550
417.679	1743
417.755	1633
417.831	-57
417.908	408
417.984	424
418.060	-68
418.136	2447
418.212	6699
418.288	3000
418.364	1009
418.440	498
418.516	2471
418.592	2902
418.668	6382
418.744	12442
418.820	12138
418.896	2834
418.972	-218
419.048	996
419.124	3901
419.200	5725
419.276	1043
419.352	36
419.428	362
419.504	846
419.579	2131
419.655	2096
419.731	1369
419.807	5472
419.883	14119
419.959	13973
420.034	4746
420.110	3172
420.186	19297
420.262	30206
420.337	6114
420.413	2890
420.489	1568
420.565	1601
420.640	664
420.716	1807
420.792	349
420.867	1972
420.943	1365
421.019	3596
421.094	4083
421.170	2370
421.245	937
421.321	1821
421.397	2249
421.472	3882
421.548	4691
421.623	7533
421.699	4624
421.774	5114
421.850	3710
421.925	6829
422.001	8322
422.076	7418
422.152	7694
422.227	12278
422.302	16566
422.378	22490
422.453	38794
422.529	82187
422.604	217640
422.679	395176
422.755	360995
422.830	174624
422.905	65297
422.981	33461
423.056	20457
423.131	15438
423.207	11154
423.282	9005
423.357	12554
423.432	10714
423.508	7317
423.583	12982
423.658	15246
423.733	6521
423.808	4933
423.883	5841
423.959	5808
424.034	4711
424.109	4872
424.184	2464
424.259	2014
424.334	1365
424.409	1008
424.484	1625
424.559	1759
424.634	1943
424.709	2761
424.784	4626
424.859	2785
424.934	3243
425.009	12956
425.084	31895
425.159	20078
425.234	3829
425.309	1420
425.384	7511
425.459	23139
425.534	11616
425.609	1833
425.683	1617
425.758	1335
425.833	839
425.908	2309
425.983	7114
426.058	28526
426.132	24110
426.207	3872
426.282	2956
426.357	2692
426.431	2306
426.506	1078
426.581	1631
426.655	1606
426.730	1273
426.805	1125
426.879	1790
426.954	1023
427.029	3236
427.103	18482
427.178	70805
427.253	58962
427.327	9061
427.402	4161
427.476	18475
427.551	17458
427.625	3650
427.700	1995
427.774	586
427.849	1548
427.923	2027
427.998	552
428.072	1653
428.147	4490
428.221	17456
428.296	78560
428.370	82580
428.444	12328
428.519	2967
428.593	7714
428.667	8904
428.742	8646
428.816	11301
428.890	35602
428.965	106510
429.039	53934
429.113	13320
429.188	6999
429.262	2150
429.336	2332
429.410	12759
429.485	13056
429.559	7609
429.633	8124
429.707	2958
429.781	5483
429.855	36819
429.930	99599
430.004	52741
430.078	38700
430.152	47272
430.226	85972
430.300	158465
430.374	42511
430.448	7816
430.522	9644
430.596	35805
430.670	37741
430.744	64107
430.818	164343
430.892	60739
430.966	6682
431.040	2157
431.114	1556
431.188	1050
431.262	529
431.336	1169
431.410	2594
431.484	10102
431.557	12973
431.631	3083
431.705	2325
431.779	9068
431.853	62035
431.927	88482
432.000	15943
432.074	2161
432.148	1231
432.222	2273
432.295	441
432.369	990
432.443	1852
432.516	16395
432.590	74247
432.664	54505
432.737	6427
432.811	179
432.885	-186
432.958	-392
433.032	-878
433.106	22
433.179	-426
433.253	-410
433.326	-211
433.400	-80
433.473	-360
433.547	-130
433.620	417
433.694	2057
433.767	3755
433.841	733
433.914	276
433.988	852
434.061	269
434.134	-85
434.208	-375
434.281	-296
434.355	-502
434.428	339
434.501	721
434.575	-40
434.648	-431
434.721	-13
434.795	-282
434.868	-673
434.941	31
435.014	-701
435.088	286
435.161	1880
435.234	3979
435.307	6042
435.381	3815
435.454	1915
435.527	3747
435.600	4722
435.673	3646
435.746	2118
435.819	1183
435.892	932
435.966	955
436.039	-233
436.112	423
436.185	-639
436.258	-432
436.331	-271
436.404	172
436.477	-3
436.550	-764
436.623	-396
436.696	-1077
436.769	120
436.842	708
436.915	-533
436.987	1083
437.060	469
437.133	-311
437.206	20
437.279	189
437.352	-160
437.425	-117
437.498	595
437.570	1733
437.643	4365
437.716	1135
437.789	93
437.861	809
437.934	8757
438.007	8291
438.080	1248
438.152	1249
438.225	2405
438.298	19854
438.370	103889
438.443	86548
438.516	17643
438.588	4119
438.661	602
438.734	1054
438.806	296
438.879	1976
438.951	1628
439.024	3939
439.096	3015
439.169	-3
439.241	-213
439.314	-336
439.386	297
439.459	2208
439.531	3937
439.604	2922
439.676	490
439.749	-410
439.821	-189
439.893	456
439.966	-75
440.038	233
440.110	2174
440.183	974
440.255	67
440.327	1935
440.400	7938
440.472	52160
440.544	77333
440.617	14275
440.689	4226
440.761	3877
440.833	8607
440.905	8229
440.978	1679
441.050	-219
441.122	482
441.194	-323
441.266	551
441.338	-495
441.411	1248
441.483	12058
441.555	39030
441.627	16708
441.699	2675
441.771	2789
441.843	1493
441.915	161
441.987	799
442.059	195
442.131	1937
442.203	2011
442.275	3531
442.347	3682
442.419	5345
442.491	22953
442.563	104489
442.635	83362
442.706	19888
442.778	15776
442.850	4871
442.922	2191
442.994	2114
443.066	3297
443.137	3526
443.209	3404
443.281	4446
443.353	8907
443.425	32464
443.496	151676
443.568	242619
443.640	122124
443.711	24985
443.783	5994
443.855	3613
443.926	1733
443.998	2119
444.070	2230
444.141	2962
444.213	3755
444.285	5096
444.356	3711
444.428	3412
444.499	1759
444.571	1001
444.642	1000
444.714	1588
444.785	3410
444.857	4736
444.928	6529
445.000	7341
445.071	4672
445.143	8701
445.214	7684
445.285	8622
445.357	23275
445.428	76392
445.500	266582
445.571	253444
445.642	138809
445.714	50602
445.785	23696
445.856	10031
445.928	6859
445.999	6836
446.070	4465
446.141	3557
446.213	6372
446.284	4642
446.355	1485
446.426	1523
446.497	1357
446.569	2042
446.640	4542
446.711	5521
446.782	1939
446.853	1089
446.924	2484
446.995	1927
447.066	1744
447.138	1818
447.209	1953
447.280	485
447.351	-300
447.422	73
447.493	93
447.564	1639
447.635	3014
447.706	3081
447.777	-42
447.847	56
447.918	-696
447.989	504
448.060	1263
448.131	4000
448.202	5587
448.273	4495
448.344	2303
448.414	462
448.485	533
448.556	1281
448.627	21
448.698	383
448.768	-874
448.839	338
448.910	734
448.981	3037
449.051	2076
449.122	340
449.193	-439
449.263	213
449.334	241
449.405	-41
449.475	5131
449.546	5623
449.616	3687
449.687	4325
449.758	1835
449.828	599
449.899	423
449.969	8
450.040	218
450.110	1417
450.181	867
450.251	1039
450.322	467
450.392	232
450.463	-255
450.533	-92
450.604	-206
450.674	365
450.744	564
450.815	548
450.885	285
450.955	551
451.026	400
451.096	721
451.166	522
451.237	1629
451.307	7622
451.377	5725
451.447	282
451.518	-128
451.588	71
451.658	435
451.728	1323
451.799	5544
451.869	12084
451.939	4322
452.009	472
452.079	-368
452.149	372
452.219	1189
452.289	7530
452.360	10653
452.430	3020
452.500	1214
452.570	2918
452.640	4105
452.710	10475
452.780	20624
452.850	14453
452.920	15292
452.990	8105
453.060	2855
453.129	2504
453.199	4150
453.269	6415
453.339	31602
453.409	56835
453.479	33372
453.549	55906
453.619	63941
453.688	40744
453.758	7478
453.828	1196
453.898	1352
453.968	1335
454.037	1443
454.087	849
454.107	598
454.168	1182
454.177	1265
454.247	543
454.249	527
454.316	-122
454.330	11
454.386	488
454.411	1159
454.456	2221
454.492	5773
454.525	8926
454.574	6074
454.595	4859
454.655	1558
454.665	1016
454.734	1741
454.736	1743
454.804	1175
454.817	2077
454.873	5840
454.898	8135
454.943	12320
454.979	8959
455.013	5927
455.060	2584
455.082	1042
455.141	1203
455.152	1229
455.221	2888
455.222	2994
455.291	10826
455.303	10163
455.360	7161
455.384	5627
455.430	2875
455.465	2806
455.499	2624
455.546	5278
455.569	6510
455.627	7231
455.638	7404
455.707	1962
455.708	1962
455.777	825
455.789	772
455.846	463
455.869	244
455.916	-96
455.950	102
455.985	234
456.031	607
456.054	764
456.112	256
456.124	170
456.193	479
456.193	470
456.262	826
456.274	974
456.332	1464
456.355	1237
456.401	822
456.436	1064
456.470	1283
456.516	846
456.540	608
456.597	-366
456.609	-527
456.678	419
456.678	415
456.747	616
456.759	601
456.817	407
456.840	345
456.886	394
456.920	634
456.955	743
457.001	940
457.024	1098
457.082	1162
457.093	1092
457.162	1365
457.163	1372
457.232	2007
457.243	1953
457.301	1649
457.324	1317
457.370	753
457.405	874
457.439	894
457.485	1051
457.508	1170
457.566	796
457.577	759
457.646	1947
457.647	1958
457.715	3058
457.727	3426
457.784	5855
457.808	7660
457.853	9807
457.889	14596
457.922	18185
457.969	14070
457.991	13368
458.050	11390
458.060	11078
458.129	16813
458.130	17140
458.198	27145
458.211	25657
458.267	20022
458.292	14858
458.336	7425
458.372	6058
458.405	5996
458.453	7292
458.474	8449
458.533	14860
458.543	15369
458.611	30866
458.614	31340
458.680	35062
458.694	30008
458.749	16102
458.775	11962
458.818	5780
458.855	4058
458.887	2588
458.936	1978
458.955	1780
459.016	1782
459.024	1835
459.093	2446
459.097	2438
459.162	2069
459.177	2072
459.230	1898
459.257	2210
459.299	2711
459.338	2593
459.368	2463
459.418	2700
459.437	2737
459.499	3015
459.505	3037
459.574	1254
459.579	1266
459.643	1733
459.659	1759
459.711	1859
459.740	1662
459.780	1122
459.820	1320
459.849	1609
459.900	1746
459.917	1780
459.981	2082
459.986	2109
460.054	2056
460.061	2130
460.123	3099
460.141	3165
460.191	3270
460.222	3439
460.260	3485
460.302	4289
460.328	4259
460.382	3740
460.397	3821
460.462	2374
460.465	2314
460.534	2592
460.543	2512
460.602	3487
460.623	4317
460.671	6703
460.703	8511
460.739	7690
460.783	8267
460.808	8893
460.864	4840
460.876	4248
460.944	1622
460.945	1595
461.013	1380
461.024	1402
461.081	1793
461.104	2062
461.150	2051
461.184	2087
461.218	2339
461.264	2005
461.286	1806
461.345	2054
461.355	2112
461.423	2338
461.425	2332
461.491	1886
461.505	1944
461.559	3247
461.585	3531
461.628	3824
461.665	4753
461.696	5211
461.745	7467
461.764	7548
461.825	5202
461.832	5221
461.901	2568
461.905	2550
461.969	1742
461.985	1752
462.037	2566
462.065	2614
462.105	1912
462.145	1701
462.173	2355
462.225	3309
462.241	3483
462.305	4773
462.310	4697
462.378	4253
462.385	3982
462.446	3504
462.465	3239
462.514	2565
462.545	2622
462.582	2518
462.625	2417
462.650	2328
462.705	2123
462.718	2155
462.785	1866
462.786	1862
462.854	2183
462.865	2159
462.922	2515
462.945	3046
462.990	3378
463.025	3088
463.058	2704
463.104	1801
463.126	1759
463.184	2105
463.194	2130
463.262	2339
463.264	2347
463.330	2310
463.344	2332
463.398	2792
463.424	2960
463.466	2666
463.504	2460
463.533	2449
463.583	2274
463.601	2276
463.663	2273
463.669	2309
463.737	2746
463.743	2820
463.805	4308
463.823	4675
463.873	5426
463.903	5914
463.940	6288
463.982	7395
464.008	6994
464.062	5063
464.076	4821
464.142	2423
464.144	2398
464.211	2380
464.221	2436
464.279	2475
464.301	2527
464.347	2466
464.381	2331
464.414	2595
464.461	2958
464.482	3016
464.540	3400
464.550	3467
464.617	3930
464.620	3936
464.685	4745
464.699	4918
464.753	5170
464.779	5253
464.820	5710
464.859	6251
464.888	5780
464.938	4799
464.956	4818
465.018	4877
465.023	4843
465.091	4338
465.098	4296
465.158	4066
465.177	3973
465.226	4271
465.257	4539
465.293	4694
465.336	4685
465.361	5007
465.416	5693
465.428	5769
465.495	6374
465.496	6387
465.563	7456
465.575	7602
465.631	9459
465.654	10534
465.698	8329
465.734	6035
465.765	5676
465.813	4626
465.833	4400
465.893	4342
465.900	4358
465.968	4578
465.972	4588
466.035	4346
466.052	4261
466.102	4176
466.131	4130
466.170	4685
466.210	5256
466.237	5441
466.290	5865
466.304	5896
466.369	5928
466.372	5937
466.439	6042
466.449	6036
466.506	6570
466.528	6792
466.573	8169
466.607	9194
466.641	10887
466.687	13205
466.708	14054
466.766	16524
466.775	15859
466.842	10927
466.845	10672
466.909	8360
466.925	7830
466.977	7181
467.004	6939
467.044	7385
467.083	7824
467.111	8195
467.163	8875
467.178	9078
467.242	9890
467.245	9870
467.312	9261
467.321	9172
467.379	8170
467.400	7792
467.446	7820
467.480	7827
467.559	7183
467.638	6656
467.717	6746
467.796	7122
467.875	7879
467.955	7060
468.034	8764
468.113	13492
468.192	17807
468.271	8094
468.350	6646
468.429	9541
468.508	8606
468.588	7490
468.667	6046
468.746	5533
468.825	5828
468.904	5647
468.983	5926
469.062	7418
469.141	7890
469.220	5369
469.299	5702
469.378	5559
469.456	8802
469.535	6851
469.614	6290
469.693	6952
469.772	7513
469.851	8269
469.930	6914
470.009	6630
470.088	6703
470.166	8994
470.245	15265
470.324	17358
470.403	10662
470.482	7189
470.560	5999
470.639	6119
470.718	8288
470.797	6084
470.875	7212
470.954	6699
471.033	7789
471.111	4695
471.190	4556
471.269	4363
471.347	4924
471.426	4886
471.505	5643
471.583	7259
471.662	6383
471.740	5681
471.819	4843
471.898	4954
471.976	5618
472.055	5367
472.133	5321
472.212	6030
472.290	5970
472.369	4859
472.447	4870
472.526	4253
472.604	5458
472.683	5949
472.761	5684
472.839	4567
472.918	5218
472.996	4582
473.075	5004
473.153	5656
473.231	4025
473.310	5615
473.388	5570
473.466	5552
473.545	6793
473.623	8181
473.701	7378
473.780	4992
473.858	5108
473.936	5414
474.014	5626
474.093	4754
474.171	6311
474.249	6611
474.327	5304
474.405	4081
474.484	4712
474.562	4529
474.640	4608
474.718	6658
474.796	5754
474.874	5648
474.952	4860
475.030	5367
475.108	5073
475.187	6223
475.265	6079
475.343	7531
475.421	9205
475.499	5271
475.577	5328
475.655	5498
475.733	7429
475.811	10594
475.889	10492
475.966	7849
476.044	5101
476.122	5886
476.200	6750
476.278	5127
476.356	4172
476.434	4336
476.512	5780
476.590	7134
476.667	6361
476.745	3521
476.823	4446
476.901	4047
476.979	4789
477.056	4012
477.134	5171
477.212	4842
477.290	4150
477.367	4181
477.445	4053
477.523	3654
477.601	4693
477.678	4318
477.756	3646
477.834	4026
477.911	3678
477.989	3930
478.066	3433
478.144	3964
478.222	5942
478.299	9030
478.377	7158
478.454	3213
478.532	3431
478.609	4346
478.687	4783
478.764	3518
478.842	4383
478.919	5075
478.997	4013
479.074	3470
479.152	3340
479.229	4292
479.307	2909
479.384	3469
479.461	3297
479.539	2877
479.616	3705
479.694	3206
479.771	3630
479.848	3856
479.926	4151
480.003	4843
480.080	3755
480.157	3899
480.235	3312
480.312	2900
480.389	3679
480.467	3659
480.544	5416
480.621	3858
480.698	3698
480.775	3671
480.853	3488
480.930	2983
481.007	3648
481.084	4215
481.161	2598
481.238	3344
481.315	2805
481.392	2973
481.470	3304
481.547	2575
481.624	2528
481.701	3243
481.778	3156
481.855	3124
481.932	4294
482.009	5379
482.086	4113
482.163	3019
482.240	6439
482.317	10023
482.393	6958
482.470	3055
482.547	3217
482.624	3875
482.701	2870
482.778	2975
482.855	3470
482.932	3194
483.009	2975
483.085	3215
483.162	3733
483.239	4190
483.316	2592
483.393	3571
483.469	2518
483.546	3768
483.623	3418
483.699	1891
483.776	3268
483.853	2697
483.930	3831
484.006	10052
484.083	15832
484.160	14826
484.236	26383
484.313	19985
484.389	13956
484.466	12158
484.543	12322
484.619	12498
484.696	12747
484.772	11601
484.849	11258
484.925	10979
485.002	10736
485.078	10990
485.155	11905
485.231	9632
485.308	9734
485.384	9725
485.461	11025
485.537	13469
485.614	15337
485.690	9930
485.766	10062
485.843	10509
485.919	15272
485.995	14983
486.072	8099
486.148	8859
486.224	8308
486.301	9016
486.377	10616
486.453	10605
486.530	10041
486.606	15288
486.682	15548
486.758	14332
486.835	14483
486.911	13084
486.987	19429
487.063	25876
487.139	34176
487.215	23771
487.292	12041
487.368	10429
487.444	11966
487.520	12800
487.596	14137
487.672	22969
487.748	55201
487.824	82259
487.900	27722
487.976	13451
488.052	11688
488.128	13349
488.204	11260
488.280	9490
488.356	10490
488.432	13895
488.508	20018
488.584	10412
488.660	9506
488.736	8421
488.812	9485
488.888	12064
488.964	17842
489.039	34935
489.115	50700
489.191	26685
489.267	9327
489.343	8283
489.418	7484
489.494	7612
489.570	6870
489.646	7652
489.722	7742
489.797	7917
489.873	8676
489.949	14022
490.024	13120
490.100	7489
490.176	8211
490.251	8152
490.327	11622
490.403	7325
490.478	7218
490.554	5632
490.629	5924
490.705	6084
490.781	7261
490.856	6231
490.932	8335
491.007	7875
491.083	7706
491.158	6239
491.234	8054
491.309	10896
491.385	10985
491.460	6229
491.536	6775
491.611	6492
491.686	6502
491.762	10125
491.837	20940
491.913	34786
491.988	45846
492.063	57638
492.139	11865
492.214	8076
492.289	5340
492.365	5196
492.440	6818
492.515	5099
492.590	6852
492.666	4694
492.741	6410
492.816	7160
492.891	5276
492.967	5192
493.042	3909
493.117	5603
493.192	5160
493.267	4925
493.342	7902
493.418	7500
493.493	5509
493.568	3880
493.643	4734
493.718	5596
493.793	7198
493.868	10054
493.943	6969
494.018	6305
494.093	4501
494.168	4845
494.243	4709
494.318	4212
494.393	4454
494.468	4586
494.543	4581
494.618	5756
494.693	5056
494.768	4487
494.842	4197
494.917	4210
494.992	4872
495.067	3952
495.142	3039
495.217	5034
495.292	4663
495.366	4737
495.441	6619
495.516	7108
495.591	14396
495.665	45195
495.740	104310
495.815	36164
495.890	6255
495.964	4643
496.039	6092
496.114	4505
496.188	5452
496.263	5922
496.338	5083
496.412	4476
496.487	6432
496.561	7520
496.636	7888
496.710	5953
496.785	6112
496.860	6904
496.934	6178
497.009	6052
497.083	7224
497.158	6659
497.232	8072
497.307	9600
497.381	8759
497.455	9188
497.530	10215
497.604	9249
497.679	9769
497.753	14344
497.827	19150
497.902	18730
497.976	19957
498.050	32638
498.125	86373
498.199	97397
498.273	33689
498.348	27973
498.422	20995
498.496	18896
498.570	16622
498.645	10500
498.719	9145
498.793	9931
498.867	11859
498.941	15544
499.016	35253
499.090	84016
499.164	34604
499.238	6652
499.312	7106
499.386	8037
499.460	7814
499.534	6341
499.609	7450
499.683	8470
499.757	7814
499.831	15748
499.905	52702
499.979	52742
500.053	9205
500.127	11059
500.201	9544
500.275	5569
500.349	5590
500.422	6329
500.496	10386
500.570	23085
500.644	37163
500.718	57775
500.792	14135
500.866	4631
500.940	5465
501.013	5717
501.087	5487
501.161	10969
501.235	11646
501.309	17446
501.382	45656
501.456	42814
501.530	11119
501.603	14792
501.677	6730
501.751	3641
501.825	4203
501.898	7802
501.972	17398
502.046	12349
502.119	4644
502.193	10265
502.266	20127
502.340	9999
502.413	9221
502.487	16280
502.561	10229
502.634	4462
502.708	4593
502.781	4640
502.855	2610
502.928	1825
503.002	2032
503.075	2516
503.149	2206
503.222	2158
503.295	2345
503.369	3442
503.442	5866
503.516	12696
503.589	32020
503.662	21582
503.736	7951
503.809	15417
503.882	15457
503.956	20461
504.029	24955
504.102	32139
504.175	42589
504.249	14169
504.322	6188
504.395	4261
504.468	4077
504.542	2968
504.615	2063
504.688	1850
504.761	2408
504.834	3214
504.907	5762
504.980	9798
505.053	4013
505.127	5057
505.200	6347
505.273	3604
505.346	2348
505.419	1831
505.492	2514
505.565	2046
505.638	1387
505.711	1306
505.784	1635
505.857	1050
505.930	3106
506.003	1910
506.076	2973
506.149	1744
506.221	2471
506.294	4225
506.367	8283
506.440	24829
506.513	16037
506.586	3494
506.659	2418
506.731	2357
506.804	3176
506.877	6107
506.950	3440
507.022	2134
507.095	2121
507.168	3900
507.241	1929
507.313	2038
507.386	1838
507.459	4843
507.531	2579
507.604	1439
507.677	2808
507.749	1320
507.822	4448
507.894	9320
507.967	10994
508.040	5894
508.112	4823
508.185	5041
508.257	3946
508.330	7320
508.402	4029
508.475	4037
508.547	3674
508.620	3568
508.692	5135
508.765	4388
508.837	2644
508.909	3501
508.982	3625
509.054	4670
509.127	3078
509.199	3527
509.271	2712
509.344	2437
509.416	3898
509.488	2790
509.560	2931
509.633	3578
509.705	4480
509.777	3835
509.849	5655
509.922	3619
509.994	3061
510.066	4051
510.138	4687
510.210	9415
510.283	7781
510.355	5954
510.427	5205
510.499	6306
510.571	5196
510.643	5012
510.715	8120
510.787	6572
510.859	5469
510.931	5741
511.003	9056
511.076	7364
511.148	4381
511.219	3654
511.291	5471
511.363	5844
511.435	3492
511.507	3861
511.579	4349
511.651	4436
511.723	4237
511.795	3504
511.867	3685
511.939	5355
512.010	6117
512.082	5689
512.154	4001
512.226	4667
512.298	6823
512.369	10608
512.441	8974
512.513	7743
512.585	5447
512.656	6427
512.728	6061
512.800	4880
512.871	4230
512.943	4541
513.015	4155
513.086	5034
513.158	5248
513.230	5530
513.301	8269
513.373	9077
513.444	5694
513.516	4092
513.588	4996
513.659	5236
513.731	6685
513.802	5872
513.874	12879
513.945	20703
514.016	7296
514.088	4104
514.159	5572
514.231	7633
514.302	9601
514.374	6499
514.445	5354
514.516	9248
514.588	7178
514.659	5734
514.730	7616
514.802	8481
514.873	7922
514.944	9039
515.016	6429
515.087	7251
515.158	7352
515.229	9158
515.301	10094
515.372	11880
515.443	7008
515.514	6408
515.585	4247
515.656	6013
515.728	4716
515.799	5277
515.870	4390
515.941	5471
516.012	6162
516.083	7149
516.154	6680
516.225	10416
516.296	10157
516.367	7337
516.438	9143
516.509	14829
516.580	28797
516.651	89377
516.722	278812
516.793	107937
516.864	17168
516.935	14860
517.006	20479
517.077	35894
517.148	97410
517.219	336125
517.289	476477
517.360	75684
517.431	21298
517.502	8647
517.573	8864
517.643	8873
517.714	8318
517.785	9928
517.856	8833
517.926	10855
517.997	13224
518.068	19610
518.138	32419
518.209	69378
518.280	240712
518.350	744490
518.421	267278
518.492	26948
518.562	13343
518.633	12722
518.703	12447
518.774	22860
518.845	48912
518.915	48512
518.986	15676
519.056	12706
519.127	18375
519.197	24033
519.268	34852
519.338	21148
519.408	8001
519.479	12289
519.549	8389
519.620	6179
519.690	3727
519.760	3846
519.831	4915
519.901	4457
519.971	4165
520.042	3392
520.112	4012
520.182	5474
520.253	7406
520.323	5451
520.393	9495
520.463	17397
520.534	11141
520.604	23518
520.674	9860
520.744	9549
520.814	25257
520.885	22295
520.955	12159
521.025	32533
521.095	14638
521.165	4042
521.235	3545
521.305	3161
521.375	3893
521.445	3870
521.515	6318
521.585	6889
521.655	6590
521.725	5151
521.795	3741
521.865	2727
521.935	5116
522.005	3869
522.075	2823
522.145	3669
522.215	3312
522.285	4488
522.355	5098
522.424	9569
522.494	8361
522.564	8066
522.634	17728
522.704	48805
522.774	16857
522.843	4389
522.913	3426
522.983	5309
523.053	4348
523.122	4738
523.192	7603
523.262	25271
523.331	23123
523.401	5191
523.471	3114
523.540	3552
523.610	1967
523.680	2783
523.749	2592
523.819	3327
523.888	2324
523.958	2439
524.027	2674
524.097	3460
524.166	3238
524.236	2920
524.305	3898
524.375	2533
524.444	2810
524.514	2964
524.583	3206
524.653	3016
524.722	3869
524.791	3075
524.861	3930
524.930	2828
524.999	2638
525.069	5445
525.138	3761
525.207	3113
525.277	3621
525.346	2498
525.415	3418
525.484	3449
525.554	2954
525.623	3366
525.692	2852
525.761	3134
525.830	4061
525.900	4723
525.969	8159
526.038	17970
526.107	35842
526.176	101636
526.245	84034
526.314	28227
526.383	52573
526.452	78049
526.522	115858
526.591	121599
526.660	31404
526.729	15377
526.797	21141
526.867	51239
526.935	180824
527.004	279560
527.073	160219
527.142	12858
527.211	5734
527.280	5670
527.349	5668
527.418	2711
527.487	3572
527.555	2629
527.624	1912
527.693	1773
527.762	2697
527.831	2471
527.899	2448
527.968	2873
528.037	1732
528.106	3504
528.174	7930
528.243	5331
528.312	6413
528.380	10317
528.449	2666
528.518	2667
528.586	1089
528.655	2276
528.723	2009
528.792	1977
528.861	1295
528.929	1517
528.998	1519
529.066	1707
529.135	2290
529.203	1283
529.272	1841
529.340	1729
529.409	1774
529.477	1426
529.545	2044
529.614	3776
529.682	3112
529.751	3085
529.819	4708
529.887	2379
529.956	2198
530.024	1850
530.092	1193
530.161	3270
530.229	5359
530.297	2004
530.365	2048
530.434	1326
530.502	543
530.570	1546
530.638	588
530.707	2948
530.775	2667
530.843	1273
530.911	2144
530.979	837
531.047	1578
531.115	2440
531.183	1777
531.252	2135
531.320	733
531.388	-101
531.456	1970
531.524	464
531.592	1635
531.660	2360
531.728	1914
531.796	1449
531.864	1515
531.932	2285
532.000	2244
532.067	1244
532.135	1737
532.203	3377
532.271	3226
532.339	6865
532.407	18847
532.475	10274
532.542	4096
532.610	5200
532.678	11325
532.746	42203
532.814	97912
532.881	22416
532.949	3244
533.017	2495
533.084	1951
533.152	1874
533.220	1535
533.287	2686
533.355	2206
533.423	2111
533.490	822
533.558	1891
533.625	2525
533.693	2983
533.761	3215
533.828	2090
533.896	2383
533.963	6230
534.031	7654
534.098	11863
534.166	4502
534.233	1451
534.300	2285
534.368	3197
534.435	2036
534.503	3331
534.570	4398
534.637	3308
534.705	4297
534.772	6749
534.840	12493
534.907	44392
534.974	62471
535.041	8295
535.109	3567
535.176	2315
535.243	2521
535.310	2921
535.378	2265
535.445	2595
535.512	2203
535.579	2722
535.646	1985
535.714	2837
535.781	3289
535.848	3599
535.915	3132
535.982	2934
536.049	2224
536.116	2676
536.183	1653
536.250	2285
536.317	2954
536.384	3719
536.451	5739
536.518	5462
536.585	3648
536.652	5542
536.719	7939
536.786	6252
536.853	3281
536.920	7760
536.987	13183
537.053	15901
537.120	48413
537.187	41878
537.254	4308
537.321	2392
537.388	3638
537.454	2801
537.521	1892
537.588	2300
537.654	3348
537.721	4485
537.788	4499
537.855	3084
537.921	3705
537.988	2620
538.055	3028
538.121	3281
538.188	3654
538.254	5942
538.321	12264
538.388	7481
538.454	3920
538.521	2902
538.587	3656
538.654	3369
538.720	3680
538.787	2891
538.853	3351
538.920	3391
538.986	2985
539.053	3240
539.119	3638
539.185	4497
539.252	4218
539.318	6448
539.385	5499
539.451	4775
539.517	5783
539.583	6756
539.650	13985
539.716	35290
539.782	10012
539.849	3757
539.915	3673
539.981	4684
540.047	4880
540.114	4291
540.180	3969
540.246	4309
540.312	6455
540.378	11793
540.444	15127
540.510	15731
540.576	40982
540.643	12638
540.709	3185
540.775	4016
540.841	4229
540.907	4431
540.973	9092
541.039	8239
541.105	8689
541.171	4491
541.237	3827
541.303	4346
541.369	5372
541.435	7038
541.500	10680
541.566	6210
541.632	3204
541.698	3341
541.764	2881
541.830	2722
541.896	2791
541.961	2948
542.027	2674
542.093	3427
542.159	3965
542.224	4136
542.290	6914
542.356	9786
542.421	13341
542.487	5960
542.553	4151
542.618	3919
542.684	3763
542.750	3613
542.815	6164
542.881	10511
542.947	32687
543.012	26142
543.078	2651
543.143	3549
543.209	3960
543.274	4450
543.340	6641
543.405	12759
543.471	21195
543.536	4452
543.602	3980
543.667	2620
543.732	4194
543.798	2627
543.863	3492
543.928	2744
543.994	2474
544.059	3404
544.124	3198
544.190	2868
544.255	3230
544.320	3066
544.386	4153
544.451	6164
544.516	7371
544.581	8702
544.646	21821
544.712	34047
544.777	7253
544.842	4091
544.907	4156
544.972	4645
545.037	3598
545.102	4799
545.168	3771
545.233	5033
545.298	5473
545.363	6392
545.428	8286
545.493	12552
545.558	28467
545.623	12310
545.688	3865
545.753	4844
545.818	4190
545.883	5306
545.947	4138
546.012	5935
546.077	4910
546.142	5778
546.207	5540
546.272	7862
546.337	7050
546.401	6566
546.466	6480
546.531	4785
546.596	7493
546.661	7345
546.725	7685
546.790	6129
546.855	6414
546.919	6717
546.984	8480
547.049	8344
547.113	10396
547.178	10441
547.243	12619
547.307	14771
547.372	15889
547.436	15237
547.501	16283
547.565	17950
547.630	16166
547.695	17222
547.759	16449
547.823	15872
547.888	14689
547.952	16169
548.017	16298
548.081	17447
548.146	18801
548.210	18568
548.274	19038
548.339	17528
548.403	16736
548.468	15258
548.532	14778
548.596	15339
548.660	16184
548.725	18755
548.789	19787
548.853	19772
548.917	18049
548.982	17671
549.046	16722
549.110	14995
549.174	14662
549.238	16540
549.303	17514
549.367	19416
549.431	17633
549.495	17068
549.559	17103
549.623	20022
549.687	23380
549.751	24695
549.815	25667
549.879	26052
549.943	23699
550.007	26055
550.071	24759
550.135	24569
550.199	22159
550.263	22342
550.327	21063
550.391	22066
550.455	22853
550.519	24822
550.582	27328
550.646	31024
550.710	32904
550.774	29188
550.838	28478
550.901	29558
550.965	32270
551.029	32131
551.093	37451
551.156	40328
551.220	47632
551.284	54528
551.347	42567
551.411	38412
551.475	38950
551.538	32412
551.602	30563
551.666	26841
551.729	25739
551.793	25817
551.856	25156
551.920	24961
551.983	24613
552.047	23509
552.110	25411
552.174	24992
552.237	25479
552.301	23598
552.364	22745
552.428	22305
552.491	23756
552.554	24678
552.618	24544
552.681	26471
552.745	27936
552.808	36396
552.871	44165
552.934	31197
552.998	25350
553.061	24179
553.124	21970
553.187	22922
553.251	23324
553.314	23328
553.377	22983
553.440	25511
553.503	25743
553.567	27611
553.630	25549
553.693	24503
553.756	25152
553.819	24038
553.882	23077
553.945	23403
554.008	23844
554.071	24237
554.134	24665
554.197	22878
554.260	23475
554.323	24241
554.386	23601
554.449	23806
554.512	24596
554.575	23034
554.638	23700
554.701	22218
554.764	23128
554.827	20993
554.889	20790
554.952	19382
555.015	18627
555.078	19932
555.141	20976
555.203	19639
555.266	19427
555.329	19545
555.391	18245
555.454	18764
555.517	17357
555.580	17446
555.642	15931
555.705	15328
555.768	16408
555.830	17109
555.893	15110
555.955	14649
556.018	15031
556.080	15638
556.143	15441
556.206	15195
556.268	15479
556.330	13768
556.393	14865
556.455	13850
556.518	14965
556.580	15608
556.643	12850
556.705	12457
556.767	11195
556.830	13139
556.892	13063
556.955	16405
557.017	13688
557.079	12549
557.142	12115
557.204	12632
557.266	19201
557.328	16403
557.391	9987
557.453	9400
557.515	10943
557.577	11002
557.639	11444
557.701	10197
557.764	8883
557.826	10623
557.888	11352
557.950	11465
558.012	14719
558.074	21440
558.136	36596
558.198	87279
558.260	36377
558.322	10866
558.384	10872
558.446	13652
558.508	15187
558.570	22206
558.632	34031
558.694	57596
558.756	79862
558.818	168107
558.880	413057
558.942	155087
559.003	89917
559.065	50748
559.127	17078
559.189	19787
559.251	27812
559.312	46648
559.374	87005
559.436	252962
559.498	151690
559.559	21926
559.621	20838
559.683	30608
559.744	49470
559.806	115711
559.868	196598
559.929	43734
559.991	24384
560.052	34915
560.114	86575
560.176	70766
560.237	48772
560.299	86067
560.360	22785
560.422	8003
560.483	6976
560.545	6920
560.606	5841
560.667	6404
560.729	5791
560.790	4884
560.852	5703
560.913	5271
560.974	5029
561.036	4856
561.097	5441
561.158	5477
561.220	5051
561.281	5024
561.342	5702
561.403	8253
561.465	10428
561.526	18730
561.587	26534
561.648	7056
561.709	6272
561.771	5171
561.832	5056
561.893	4991
561.954	4481
562.015	4674
562.076	5004
562.137	4837
562.198	4922
562.259	5734
562.320	5406
562.381	6221
562.442	7071
562.503	6954
562.564	5860
562.625	5233
562.686	5192
562.747	5218
562.808	5405
562.869	5430
562.930	5642
562.991	5330
563.051	4961
563.112	4283
563.173	4797
563.234	4167
563.294	4925
563.355	4444
563.416	5006
563.477	4968
563.537	4959
563.598	5294
563.659	5660
563.720	4849
563.780	5044
563.841	6086
563.901	5062
563.962	4436
564.023	4845
564.083	4746
564.144	5303
564.204	5372
564.265	5843
564.325	6527
564.386	8140
564.446	8131
564.507	4652
564.567	5202
564.628	5297
564.688	5035
564.749	4806
564.809	5565
564.869	6462
564.930	5326
564.990	5979
565.050	4964
565.111	5887
565.171	4714
565.231	5350
565.292	6156
565.352	4892
565.412	5618
565.472	5176
565.532	5481
565.593	5964
565.653	5478
565.713	5637
565.773	6466
565.833	8122
565.893	10054
565.953	7049
566.013	5997
566.074	6727
566.134	7904
566.194	10476
566.254	11760
566.314	7891
566.374	6812
566.434	6792
566.494	7779
566.554	7727
566.614	9321
566.673	8487
566.733	9502
566.793	9831
566.853	9629
566.913	10571
566.973	10624
567.033	11259
567.092	10084
567.152	10499
567.212	10601
567.272	10816
567.331	12139
567.391	11864
567.451	13683
567.511	14830
567.570	14945
567.630	11438
567.690	10792
567.749	11107
567.809	12896
567.868	14350
567.928	15853
567.988	19279
568.047	24821
568.107	31937
568.166	44648
568.226	67700
568.285	91211
568.345	74657
568.404	58709
568.464	51822
568.523	49214
568.582	52809
568.642	62074
568.701	78020
568.761	105345
568.820	161168
568.879	152095
568.939	110346
568.998	81684
569.057	65693
569.116	53482
569.176	43193
569.235	36150
569.294	30272
569.353	27557
569.413	24607
569.472	21863
569.531	18672
569.590	17874
569.649	16382
569.708	13733
569.767	14166
569.827	14625
569.886	14155
569.945	11042
570.004	11135
570.063	10928
570.122	11159
570.181	11095
570.240	10700
570.299	10714
570.358	11243
570.417	9332
570.475	8338
570.534	8157
570.593	8979
570.652	9014
570.711	9170
570.770	8583
570.829	9018
570.887	8905
570.946	9058
571.005	7921
571.064	8113
571.122	9053
571.181	8499
571.240	7254
571.299	6199
571.357	5939
571.416	6824
571.475	6518
571.533	7617
571.592	6443
571.650	6831
571.709	6148
571.768	7865
571.826	6560
571.885	6204
571.943	5078
572.002	5074
572.060	6220
572.119	5877
572.177	6059
572.236	5060
572.294	5521
572.352	5199
572.411	5249
572.469	5387
572.528	5783
572.586	5789
572.644	6222
572.703	9363
572.761	6059
572.819	4851
572.877	5051
572.936	4456
572.994	5979
573.052	5591
573.110	5127
573.169	5767
573.227	5537
573.285	5365
573.343	5220
573.401	5092
573.459	5063
573.517	5615
573.576	5132
573.634	6321
573.692	5629
573.750	5289
573.808	4820
573.866	6571
573.924	5415
573.982	5871
574.040	5142
574.098	5314
574.155	4990
574.213	4948
574.271	4588
574.329	5881
574.387	5127
574.445	5435
574.503	4896
574.560	3831
574.618	5203
574.676	4538
574.734	4552
574.792	4770
574.849	5098
574.907	4481
574.965	4408
575.022	3698
575.080	4583
575.138	5351
575.195	4188
575.253	5024
575.311	5521
575.368	4472
575.426	3833
575.483	3575
575.541	4676
575.598	3378
575.656	4647
575.713	4744
575.771	4521
575.828	3659
575.886	4180
575.943	5251
576.001	4777
576.058	4064
576.115	5982
576.173	6702
576.230	5808
576.287	7135
576.345	6638
576.402	4794
576.459	5538
576.517	4396
576.574	4620
576.631	4805
576.688	4531
576.746	4555
576.803	5092
576.860	4910
576.917	4186
576.974	5365
577.031	4023
577.089	5583
577.146	4734
577.203	5249
577.260	5330
577.317	5487
577.374	6391
577.431	5968
577.488	5486
577.545	4526
577.602	4832
577.659	4533
577.716	4879
577.773	4731
577.830	4764
577.886	4674
577.943	4587
578.000	5280
578.057	5023
578.114	5506
578.171	5081
578.227	5532
578.284	4521
578.341	5728
578.398	4431
578.454	6207
578.511	6653
578.568	6450
578.625	5380
578.681	5655
578.738	5183
578.794	5556
578.851	5740
578.908	5460
578.964	5099
579.021	6236
579.077	5551
579.134	6756
579.190	5436
579.247	5181
579.303	5335
579.360	5348
579.416	4745
579.473	4604
579.529	5767
579.586	5206
579.642	5193
579.698	5397
579.755	5147
579.811	6220
579.867	5647
579.924	5605
579.980	4715
580.036	6079
580.093	4905
580.149	5228
580.205	5269
580.261	6179
580.317	6593
580.374	5996
580.430	7260
580.486	7507
580.542	5709
580.598	6735
580.619	6713
580.654	6676
580.692	6140
580.710	5866
580.765	6726
580.767	6750
580.823	6439
580.838	6543
580.879	6815
580.911	6695
580.935	6585
580.984	5852
580.991	5750
581.047	7146
581.057	6989
581.103	6296
581.130	6281
581.159	6236
581.203	6749
581.215	6885
581.270	6495
581.276	6566
581.326	7167
581.349	6817
581.382	6274
581.422	7154
581.438	7522
581.494	7618
581.494	7614
581.550	6699
581.567	6930
581.606	7314
581.640	7565
581.661	7720
581.713	7452
581.717	7424
581.773	7000
581.786	7044
581.829	7266
581.859	7595
581.885	7849
581.932	7938
581.940	7941
581.996	8251
582.004	8267
582.052	8247
582.077	7918
582.107	7604
582.150	8021
582.163	8121
582.219	8427
582.223	8431
582.274	8474
582.296	8819
582.330	9343
582.368	9310
582.386	9306
582.441	9299
582.441	9294
582.497	8774
582.514	8839
582.552	9264
582.587	9186
582.608	9074
582.659	8939
582.663	8928
582.719	10243
582.732	10051
582.774	9347
582.805	9662
582.830	9947
582.877	9972
582.885	9968
582.941	10415
582.950	10401
582.996	10320
583.023	10277
583.052	10262
583.095	10674
583.107	10768
583.162	10546
583.168	10589
583.218	10918
583.240	10884
583.273	10941
583.313	11219
583.328	11331
583.384	11244
583.385	11284
583.439	12264
583.458	12245
583.494	12146
583.531	11881
583.549	11869
583.603	12510
583.605	12526
583.660	12339
583.676	12311
583.715	12204
583.748	12600
583.770	13035
583.820	13361
583.825	13350
583.881	13790
583.893	13642
583.936	13411
583.965	13711
583.991	13861
584.038	14192
584.046	14292
584.101	13969
584.110	14014
584.156	14327
584.183	14936
584.211	15432
584.255	15008
584.266	14998
584.321	14451
584.328	14618
584.376	15686
584.400	15989
584.431	16803
584.472	16458
584.486	16208
584.541	16945
584.545	16951
584.596	17483
584.617	17560
584.651	17774
584.689	18323
584.706	18626
584.761	19062
584.762	19047
584.816	19278
584.834	19546
584.871	19965
584.906	20294
584.926	20777
584.978	21774
584.980	21814
585.035	22040
585.051	22399
585.090	24359
585.123	25087
585.145	25344
585.195	27064
585.200	27317
585.254	29580
585.267	30285
585.309	33477
585.340	36253
585.364	38662
585.412	44436
585.419	45446
585.473	55577
585.484	58132
585.528	71581
585.556	81467
585.583	102100
585.628	139341
585.637	161760
585.692	321567
585.700	352333
585.747	564756
585.772	613867
585.801	461143
585.845	223775
585.856	190302
585.910	79594
585.917	67268
585.965	53179
585.989	46938
586.019	44766
586.061	41807
586.074	41389
586.128	40141
586.133	40014
586.183	40868
586.205	40776
586.237	40813
586.277	40754
586.292	40795
586.346	41397
586.349	41346
586.401	42204
586.421	42439
586.455	43301
586.493	44379
586.509	45903
586.564	50923
586.565	50987
586.618	64295
586.637	68132
586.672	67228
586.709	63515
586.727	61536
586.781	58956
586.781	59073
586.835	57622
586.853	57182
586.889	56299
586.925	54855
586.944	55206
586.996	57157
586.998	57321
587.052	58855
587.068	59147
587.106	61184
587.140	63004
587.161	64014
587.212	66142
587.215	66462
587.269	70025
587.284	70791
587.323	73314
587.356	75337
587.377	76752
587.427	80371
587.431	80839
587.485	84774
587.499	85540
587.539	90026
587.571	93621
587.593	96101
587.643	101600
587.648	102529
587.702	109215
587.715	110927
587.755	117538
587.786	122274
587.810	126681
587.858	134514
587.864	136031
587.917	149542
587.930	152387
587.971	164527
588.001	172566
588.025	180855
588.073	197556
588.079	200544
588.133	223593
588.145	228534
588.187	252735
588.217	269428
588.241	286944
588.288	321277
588.295	327769
588.348	378510
588.360	389053
588.402	443038
588.431	480933
588.456	521156
588.503	601155
588.510	617390
588.564	745611
588.575	772692
588.617	925660
588.646	1032460
588.671	1171379
588.718	1439887
588.725	1506383
588.778	2016161
588.789	2119590
588.832	2636016
588.861	2979942
588.886	3096360
588.932	3221240
588.939	3165274
588.993	2560956
589.004	2464792
589.047	2939766
589.075	3206443
589.100	3131683
589.147	2895477
589.154	2818360
589.207	2172540
589.218	2039538
589.261	1798946
589.290	1640626
589.314	1648970
589.361	1669818
589.368	1716017
589.421	2086769
589.433	2165415
589.475	2653884
589.504	2982186
589.528	3024584
589.576	2984644
589.582	2985358
589.635	2959112
589.647	2934566
589.689	2742280
589.718	2566269
589.742	2192898
589.790	1446012
589.795	1405999
589.849	1008553
589.861	915658
589.902	770501
589.932	661940
589.955	609951
590.004	496165
590.009	490424
590.062	415187
590.075	395960
590.115	359666
590.146	329417
590.168	315882
590.218	283864
590.222	282621
590.275	255473
590.289	247763
590.328	234037
590.360	221530
590.381	215102
590.431	198376
590.435	198188
590.488	184077
590.503	179805
590.541	173928
590.574	167756
590.594	165095
590.645	156115
590.647	156278
590.700	147550
590.716	144409
590.753	141371
590.787	137828
590.806	135801
590.859	128513
590.859	128875
590.912	124851
590.930	123075
590.965	120452
591.001	117108
591.018	116570
591.071	113917
591.072	113494
591.124	109911
591.143	108071
591.177	106666
591.214	104538
591.230	104785
591.283	104218
591.285	103833
591.336	103068
591.356	102182
591.389	101133
591.427	99109
591.442	98171
591.495	93322
591.498	92641
591.547	91058
591.569	89873
591.600	89708
591.640	88613
591.653	88732
591.706	87953
591.711	87557
591.759	87748
591.782	87337
591.811	88924
591.853	90496
591.864	90322
591.917	87512
591.924	86786
591.969	85114
591.995	83680
592.022	83518
592.066	82406
592.075	82939
592.127	84272
592.137	84203
592.180	88048
592.208	90011
592.233	88457
592.279	84434
592.285	84384
592.338	81245
592.350	80213
592.390	79492
592.421	78423
592.443	78752
592.491	78488
592.495	78832
592.548	79324
592.562	79144
592.600	79131
592.633	78548
592.653	78392
592.704	76744
592.705	77163
592.775	75807
592.846	77494
592.916	78627
592.987	80445
593.058	80135
593.128	75185
593.199	74053
593.270	72981
593.341	73793
593.411	72831
593.482	76475
593.553	75095
593.623	74641
593.694	74757
593.764	77163
593.835	75068
593.906	74346
593.976	75366
594.047	75824
594.117	80383
594.188	84649
594.258	77795
594.329	75088
594.399	76319
594.470	76782
594.540	76579
594.611	79729
594.681	77377
594.751	78838
594.822	81707
594.892	85262
594.963	86239
595.033	86364
595.103	86297
595.174	87358
595.244	97405
595.314	115746
595.384	96340
595.455	89843
595.525	91918
595.595	94508
595.665	96668
595.736	94119
595.806	93316
595.876	93875
595.946	93737
596.016	95945
596.087	100558
596.157	100640
596.227	98864
596.297	102147
596.367	107513
596.437	114623
596.507	122230
596.577	134853
596.647	122730
596.717	117717
596.787	121124
596.857	121999
596.927	121443
596.997	122310
597.067	120857
597.137	123908
597.207	125558
597.277	126159
597.347	123903
597.417	119187
597.487	118729
597.557	121649
597.626	124296
597.696	128265
597.766	129612
597.836	136439
597.906	122692
597.975	110805
598.045	110678
598.115	113558
598.185	118698
598.254	130099
598.324	143878
598.394	149631
598.464	149563
598.533	143266
598.603	135855
598.672	129903
598.742	131255
598.812	130788
598.881	132234
598.951	133097
599.020	132439
599.090	136798
599.159	141090
599.229	138234
599.299	132546
599.368	135575
599.437	135654
599.507	127655
599.576	120934
599.646	120410
599.715	118498
599.785	117249
599.854	115255
599.924	115855
599.993	114277
600.062	113514
600.132	114577
600.201	119262
600.270	137702
600.340	150489
600.409	145072
600.478	142968
600.547	143052
600.617	144870
600.686	116092
600.755	104501
600.824	99889
600.894	97661
600.963	93041
601.032	92975
601.101	90462
601.170	87094
601.239	86458
601.308	88137
601.378	88184
601.447	84343
601.516	84381
601.585	87301
601.654	92993
601.723	92157
601.792	88787
601.861	91234
601.930	95295
601.999	101606
602.068	98160
602.137	102188
602.206	105387
602.275	100077
602.343	105410
602.412	108443
602.481	102039
602.550	99762
602.619	101728
602.688	105063
602.756	104962
602.825	105753
602.894	106599
602.963	108555
603.032	109799
603.100	109869
603.169	108649
603.238	111074
603.307	111595
603.375	110145
603.444	113717
603.513	115697
603.581	116233
603.650	119397
603.719	118046
603.787	116231
603.856	121937
603.924	127654
603.993	130839
604.061	132246
604.130	137980
604.198	140748
604.267	143743
604.335	145883
604.404	147861
604.472	149651
604.541	149913
604.609	153440
604.678	153523
604.746	151677
604.815	157137
604.883	162304
604.951	160574
605.020	161856
605.088	166567
605.156	168422
605.225	169924
605.293	172552
605.361	171363
605.429	174848
605.498	175927
605.566	182889
605.634	188663
605.702	194589
605.771	201180
605.839	206063
605.907	201362
605.975	196538
606.043	188985
606.111	189041
606.180	186905
606.248	187040
606.316	184222
606.384	186195
606.452	190586
606.520	200343
606.588	204298
606.656	195664
606.724	195807
606.792	184387
606.860	170192
606.928	152454
606.996	145128
607.064	139978
607.132	143404
607.200	150988
607.267	159132
607.335	158188
607.403	166336
607.471	163702
607.539	152963
607.607	157555
607.674	141358
607.742	138563
607.810	139610
607.878	139710
607.946	138879
608.013	144259
608.081	149770
608.149	153720
608.216	152579
608.284	159993
608.352	160353
608.419	161833
608.487	161096
608.555	158648
608.622	156289
608.690	162062
608.757	178217
608.825	190588
608.893	186797
608.960	182734
609.028	182206
609.095	178557
609.163	173521
609.230	158602
609.298	136706
609.365	140190
609.432	151219
609.500	162091
609.567	182173
609.635	210337
609.702	231885
609.769	232395
609.837	197832
609.904	157150
609.971	159914
610.039	178129
610.106	228247
610.173	417264
610.241	1042714
610.308	1276115
610.375	419528
610.442	214513
610.509	171117
610.577	159694
610.644	159608
610.711	161692
610.778	165488
610.845	168331
610.912	179134
610.980	187757
611.047	188636
611.114	187974
611.181	183609
611.248	177578
611.315	182988
611.382	191527
611.449	197768
611.516	202525
611.583	201684
611.650	203882
611.717	207120
611.784	211574
611.851	221245
611.918	243791
611.984	285111
612.051	393056
612.118	750722
612.185	1928313
612.252	2566582
612.319	636599
612.386	320765
612.452	272185
612.519	249554
612.586	242168
612.653	239881
612.719	237988
612.786	235457
612.853	219432
612.919	205101
612.986	210501
613.053	201246
613.120	189622
613.186	178790
613.253	178654
613.319	176954
613.386	180003
613.453	183652
613.519	189935
613.586	192814
613.652	214694
613.719	205346
613.785	204459
613.852	187539
613.918	184916
613.985	183628
614.051	189317
614.118	193493
614.184	192246
614.250	180972
614.317	188667
614.383	184180
614.449	187498
614.516	187901
614.582	188263
614.648	185428
614.715	182048
614.781	183593
614.847	178933
614.914	182227
614.980	178925
615.046	176208
615.112	180622
615.179	184010
615.245	191587
615.311	200078
615.377	232876
615.443	289382
615.509	244490
615.575	216974
615.642	208236
615.708	209160
615.774	221608
615.840	240481
615.906	271532
615.972	348209
616.038	568373
616.104	1087625
616.170	2270819
616.236	3476089
616.302	1115013
616.368	482556
616.434	353246
616.500	272500
616.565	275311
616.631	350744
616.697	341237
616.763	297423
616.829	386002
616.895	724496
616.961	997372
617.026	546433
617.092	265368
617.158	214985
617.224	200214
617.289	184824
617.355	173678
617.421	166338
617.487	167680
617.552	159920
617.618	154154
617.684	153253
617.749	156506
617.815	148898
617.880	143687
617.946	143082
618.012	145191
618.077	149963
618.143	145935
618.208	140649
618.274	150810
618.339	158774
618.405	139863
618.470	127198
618.536	130794
618.601	129140
618.667	127347
618.732	115257
618.798	113171
618.863	109925
618.928	109622
618.994	112051
619.059	114508
619.124	128784
619.190	128404
619.255	111005
619.320	108934
619.386	109677
619.451	109243
619.516	106001
619.581	104633
619.647	108265
619.712	110819
619.777	106164
619.842	104914
619.907	108251
619.972	110792
620.038	111612
620.103	106115
620.168	104836
620.233	104789
620.298	106637
620.363	107487
620.428	109229
620.493	112653
620.558	114795
620.623	115577
620.688	116048
620.753	114128
620.818	115612
620.883	118912
620.948	117984
621.013	114514
621.078	115627
621.143	114998
621.207	118692
621.272	117611
621.337	117259
621.402	114178
621.467	117461
621.532	122898
621.596	118637
621.661	113199
621.726	107945
621.791	108699
621.855	111999
621.920	112782
621.985	112859
622.049	118764
622.114	116432
622.179	117525
622.243	115996
622.308	121268
622.373	123879
622.437	125470
622.502	116842
622.566	115444
622.631	113265
622.695	115612
622.760	115822
622.824	116198
622.889	115849
622.953	120275
623.018	135542
623.082	162470
623.147	129422
623.211	122854
623.276	121831
623.340	118601
623.404	111121
623.469	109419
623.533	111857
623.597	110220
623.662	109013
623.726	106012
623.790	96879
623.854	93578
623.919	94795
623.983	96597
624.047	97224
624.111	97972
624.176	101349
624.240	102859
624.304	112618
624.368	105263
624.432	100181
624.496	103325
624.560	108408
624.625	119370
624.689	112712
624.753	110607
624.817	110250
624.881	105072
624.945	99613
625.009	91271
625.073	93975
625.137	98717
625.201	109226
625.265	121409
625.329	102740
625.393	99712
625.456	101213
625.520	101687
625.584	106635
625.648	114071
625.712	126743
625.776	170486
625.839	214279
625.903	155983
625.967	90196
626.031	98217
626.095	142500
626.158	125335
626.222	85131
626.286	72038
626.349	70525
626.413	67483
626.477	66924
626.540	69232
626.604	66534
626.668	64342
626.731	63272
626.795	64208
626.858	66307
626.922	63767
626.986	63218
627.049	63164
627.113	65589
627.176	63631
627.240	62577
627.303	61212
627.366	62801
627.430	62932
627.493	63214
627.557	62305
627.620	63633
627.684	63200
627.747	66301
627.810	62814
627.874	56941
627.937	54241
628.000	55964
628.064	56970
628.127	51553
628.190	49496
628.253	48584
628.317	49073
628.380	45701
628.443	44973
628.506	45851
628.569	43567
628.632	40912
628.696	40477
628.759	39399
628.822	39097
628.885	38295
628.948	38546
629.011	37982
629.074	38478
629.137	37885
629.200	37469
629.263	38756
629.326	36462
629.389	35477
629.452	35903
629.515	35437
629.578	35308
629.641	36983
629.704	37030
629.767	38248
629.830	35537
629.892	33771
629.955	33714
630.018	34974
630.081	37174
630.144	45419
630.207	39989
630.269	38485
630.332	36509
630.395	36288
630.458	33615
630.520	32906
630.583	33347
630.646	31355
630.708	32343
630.771	32201
630.834	33195
630.896	32600
630.959	33099
631.021	32699
631.084	33187
631.146	33443
631.209	36764
631.272	33848
631.334	33796
631.397	34406
631.459	34557
631.522	38336
631.584	38379
631.646	40620
631.709	44812
631.771	49270
631.834	49606
631.896	40902
631.958	36999
632.021	35751
632.083	32975
632.145	34307
632.208	33114
632.270	33280
632.332	32730
632.395	30659
632.457	32487
632.519	31129
632.581	29845
632.643	30306
632.706	30859
632.768	29411
632.830	29439
632.892	30137
632.954	30995
633.016	31576
633.078	30318
633.141	30888
633.203	30446
633.265	29965
633.327	30239
633.389	30956
633.451	32685
633.513	37411
633.575	37283
633.637	38054
633.698	39235
633.760	35088
633.822	35659
633.884	36232
633.946	36582
634.008	36992
634.070	39604
634.132	40319
634.193	45763
634.255	49965
634.317	51594
634.379	52698
634.441	49023
634.502	43366
634.564	39750
634.626	35476
634.687	33235
634.749	32475
634.811	31118
634.873	30719
634.934	30317
634.996	30076
635.057	30588
635.119	30782
635.181	31369
635.242	32650
635.304	31478
635.365	31214
635.427	32040
635.488	32346
635.550	31691
635.611	31908
635.673	32131
635.734	35350
635.796	36706
635.857	40829
635.918	43876
635.980	46894
636.041	50399
636.102	54374
636.164	57406
636.225	55547
636.286	50612
636.348	44329
636.409	39151
636.470	35246
636.531	33417
636.593	33437
636.654	32474
636.715	27948
636.776	27638
636.838	25783
636.899	27023
636.960	26321
637.021	25215
637.082	25260
637.143	25568
637.204	24499
637.265	23146
637.326	24473
637.387	24590
637.448	22881
637.509	24486
637.570	23883
637.631	23724
637.692	22320
637.753	22392
637.814	21883
637.875	22558
637.936	22967
637.997	22460
638.058	23414
638.119	23517
638.179	21762
638.240	22201
638.301	22134
638.362	21386
638.423	21312
638.483	20707
638.544	20889
638.605	21332
638.666	19390
638.726	20181
638.787	20246
638.848	20479
638.908	20488
638.969	19669
639.030	20027
639.090	19585
639.151	19500
639.211	21882
639.272	23468
639.332	35113
639.393	35477
639.453	23360
639.514	24625
639.574	21889
639.635	19410
639.695	19252
639.756	19614
639.816	20481
639.877	21502
639.937	28948
639.997	45456
640.058	30976
640.118	20289
640.178	19163
640.239	17970
640.299	18245
640.359	18281
640.420	19901
640.480	21466
640.540	24343
640.600	27082
640.661	25207
640.721	24302
640.781	26994
640.841	24253
640.901	20054
640.961	19589
641.021	20855
641.082	24534
641.142	30439
641.202	27025
641.262	17568
641.322	18548
641.382	16796
641.442	17718
641.502	16837
641.562	17569
641.622	18224
641.682	19455
641.742	21999
641.802	23184
641.861	20260
641.921	18738
641.981	20293
642.041	19872
642.101	22740
642.161	22617
642.221	16320
642.280	16012
642.340	16436
642.400	16219
642.460	17522
642.519	16023
642.579	17180
642.639	17464
642.698	16383
642.758	18603
642.818	16889
642.877	17256
642.937	18804
642.997	18543
643.056	26116
643.116	25215
643.175	19241
643.235	18490
643.294	19737
643.354	20091
643.414	22754
643.473	26057
643.532	33420
643.592	46809
643.651	73021
643.711	129104
643.770	247414
643.830	525860
643.889	1568761
643.948	1084943
644.008	131746
644.067	54282
644.126	38501
644.186	30228
644.245	25475
644.304	21821
644.363	21110
644.423	19324
644.482	19584
644.541	20349
644.600	20374
644.659	26499
644.719	31602
644.778	47485
644.837	80317
644.896	151338
644.955	408704
645.014	374927
645.073	52811
645.132	28072
645.191	24839
645.250	21190
645.309	22630
645.368	23364
645.427	28530
645.486	41629
645.545	96825
645.604	61969
645.663	20920
645.722	19126
645.781	20735
645.840	23886
645.898	30236
645.957	41768
646.016	68227
646.075	122366
646.134	236790
646.192	519621
646.251	1423733
646.310	573667
646.369	78237
646.427	43965
646.486	34930
646.545	25316
646.603	21960
646.662	19262
646.721	17622
646.779	18020
646.838	18487
646.896	22944
646.955	30515
647.014	47550
647.072	84546
647.131	222785
647.189	304776
647.248	43330
647.306	19261
647.365	16403
647.423	13242
647.481	15071
647.540	12795
647.598	13542
647.657	12766
647.715	12423
647.773	11757
647.832	12972
647.890	11617
647.948	11567
648.007	11566
648.065	11369
648.123	11087
648.181	11521
648.240	11267
648.298	9866
648.356	10692
648.414	11285
648.472	11316
648.531	11445
648.589	10572
648.647	10354
648.705	11554
648.763	11241
648.821	11584
648.879	12383
648.937	14455
648.995	17375
649.053	22279
649.111	33763
649.169	56610
649.227	104681
649.285	199598
649.343	569727
649.401	786726
649.459	118824
649.516	60880
649.574	26078
649.632	22959
649.690	22785
649.748	25912
649.806	34950
649.863	61401
649.921	140261
649.979	254985
650.037	46828
650.094	15216
650.152	12988
650.210	11050
650.268	10946
650.325	10376
650.383	10307
650.440	8619
650.498	9299
650.556	9675
650.613	8402
650.671	8809
650.728	8027
650.786	9803
650.843	11201
650.901	13323
650.958	9024
651.016	8384
651.073	7372
651.131	7836
651.188	6948
651.246	8661
651.303	7360
651.360	8185
651.418	6638
651.475	7716
651.532	6815
651.590	8334
651.647	6478
651.704	8029
651.762	7266
651.819	7690
651.876	6616
651.933	6986
651.990	6879
652.048	6971
652.105	7157
652.162	7904
652.219	6512
652.276	7535
652.333	6682
652.390	6092
652.448	7133
652.505	6865
652.562	6373
652.619	6927
652.676	6604
652.733	6844
652.790	6609
652.847	5850
652.904	6911
652.961	5514
653.017	6331
653.074	6922
653.131	6968
653.188	6694
653.245	5458
653.302	7189
653.359	6286
653.415	6771
653.472	6474
653.529	5870
653.586	5845
653.642	5804
653.699	6555
653.756	6153
653.813	6254
653.869	6758
653.926	6560
653.983	6191
654.039	5701
654.096	6268
654.152	6202
654.209	6463
654.266	6066
654.322	5929
654.379	6529
654.435	6357
654.492	7383
654.548	8677
654.605	15343
654.661	13793
654.717	6242
654.774	6412
654.830	6701
654.887	7028
654.943	5198
655.000	6826
655.056	5849
655.112	6165
655.168	5248
655.225	7851
655.281	6978
655.337	8116
655.394	11366
655.450	12134
655.506	8451
655.562	11123
655.618	14491
655.675	6407
655.731	5943
655.787	5908
655.843	6867
655.899	6220
655.955	6634
656.011	6381
656.067	4881
656.123	6556
656.179	5563
656.235	6909
656.291	5432
656.347	6343
656.403	6605
656.459	6524
656.515	6542
656.571	7172
656.627	6922
656.683	5722
656.739	6412
656.795	5721
656.850	6982
656.906	7204
656.962	7599
657.018	6225
657.074	6971
657.129	8329
657.185	11113
657.241	19438
657.297	24834
657.352	7984
657.408	5189
657.464	7118
657.519	6271
657.575	4840
657.630	5627
657.686	5524
657.742	5474
657.797	5627
657.853	4793
657.908	5862
657.964	5201
658.019	4907
658.075	5873
658.130	5950
658.186	4131
658.241	5237
658.297	5170
658.352	5166
658.407	5581
658.463	4553
658.518	4998
658.573	5187
658.629	4558
658.684	4618
658.739	5068
658.795	4683
658.850	4862
658.905	4845
658.960	5323
659.016	4874
659.071	5426
659.126	6128
659.181	6267
659.236	8744
659.291	12832
659.346	9775
659.401	7147
659.457	5612
659.512	5415
659.567	5497
659.622	4481
659.677	4989
659.732	4769
659.787	4882
659.842	5522
659.897	7340
659.952	5944
660.007	5309
660.061	4221
660.116	4969
660.171	4471
660.226	4802
660.281	4882
660.336	4327
660.391	4476
660.445	4566
660.500	4379
660.555	5226
660.610	4492
660.664	5512
660.719	4947
660.774	5644
660.828	4662
660.883	5414
660.938	4875
660.992	5089
661.047	4802
661.101	4689
661.156	4809
661.211	4285
661.265	3772
661.320	4493
661.374	4335
661.429	4981
661.483	4782
661.538	4182
661.592	3627
661.647	4290
661.701	4025
661.755	5508
661.810	4979
661.864	4203
661.919	3632
661.973	4398
662.027	4409
662.081	4827
662.136	4454
662.190	4565
662.244	5681
662.299	5152
662.353	3461
662.407	4355
662.461	4250
662.515	5472
662.569	4439
662.624	5591
662.678	4182
662.732	4597
662.786	5139
662.840	4848
662.894	4102
662.948	4515
663.002	4404
663.056	4854
663.110	3583
663.164	4789
663.218	4783
663.272	4417
663.326	4771
663.380	5514
663.434	5205
663.488	5074
663.542	5263
663.595	4928
663.649	3681
663.703	4747
663.757	4797
663.811	4749
663.864	4047
663.918	5112
663.972	4607
664.026	5170
664.079	4282
664.133	4770
664.187	4703
664.240	4586
664.294	4589
664.348	4299
664.401	3920
664.455	5016
664.508	3895
664.562	5739
664.615	3679
664.669	4233
664.722	4792
664.776	3751
664.829	4230
664.883	4648
664.936	4096
664.990	4620
665.043	4719
665.097	4837
665.150	5491
665.203	4535
665.257	5089
665.310	4999
665.363	4700
665.417	5556
665.470	5260
665.523	4754
665.576	5179
665.630	5313
665.683	4913
665.736	4721
665.789	5842
665.842	5330
665.895	4914
665.949	5400
666.002	4222
666.055	5194
666.108	4492
666.161	4966
666.214	5112
666.267	5721
666.320	6516
666.373	7020
666.426	5047
666.479	5450
666.532	5026
666.585	6167
666.638	7514
666.691	5944
666.744	7056
666.796	5295
666.849	5976
666.902	6106
666.955	5208
667.008	4837
667.060	3830
667.113	3904
667.166	4161
667.219	5080
667.271	4795
667.324	4922
667.377	4283
667.430	4879
667.482	4611
667.535	5408
667.587	5711
667.640	5794
667.693	5931
667.745	9362
667.798	14631
667.850	9092
667.903	5354
667.955	5395
668.008	4841
668.060	5248
668.113	5584
668.165	5363
668.218	4749
668.270	6004
668.322	4901
668.375	5618
668.427	5568
668.479	4431
668.532	5264
668.584	5564
668.636	5568
668.689	5485
668.741	4897
668.793	5107
668.845	4814
668.898	5157
668.950	4938
669.002	4993
669.054	5065
669.106	5372
669.158	5644
669.211	4864
669.263	4954
669.315	5992
669.367	5238
669.419	5108
669.471	7179
669.523	7595
669.575	8659
669.627	9050
669.679	6407
669.731	5872
669.783	6060
669.835	7071
669.886	6784
669.938	6663
669.990	5840
670.042	6064
670.094	5810
670.146	6565
670.197	7137
670.249	8716
670.301	9262
670.353	12337
670.404	16833
670.456	25022
670.508	39309
670.560	64442
670.611	113224
670.663	197253
670.715	374136
670.766	932649
670.818	661197
670.869	103871
670.921	34477
670.972	23604
671.024	17003
671.075	12759
671.127	10592
671.178	8456
671.230	8612
671.281	9109
671.333	8710
671.384	9068
671.436	9822
671.487	12856
671.538	16296
671.590	21818
671.641	34139
671.692	52083
671.744	103339
671.795	134044
671.846	60375
671.897	25907
671.949	15843
672.000	12333
672.051	10251
672.102	8517
672.153	7633
672.204	6356
672.256	5565
672.307	6255
672.358	6014
672.409	5597
672.460	5641
672.511	4792
672.562	4772
672.613	4798
672.664	4695
672.715	4590
672.766	4594
672.817	4067
672.868	4206
672.919	3805
672.970	4711
673.021	4070
673.071	3742
673.122	5116
673.173	4409
673.224	4450
673.275	4517
673.326	4323
673.376	3841
673.427	3402
673.478	3507
673.528	4880
673.579	3133
673.630	3726
673.680	4622
673.731	3421
673.782	4072
673.832	4934
673.883	4299
673.934	4142
673.984	3883
674.035	4653
674.085	3489
674.136	5178
674.186	4122
674.237	5777
674.287	7974
674.338	6724
674.388	4496
674.438	3764
674.489	4014
674.539	5581
674.589	4733
674.640	4823
674.690	4846
674.740	4049
674.791	5087
674.841	4194
674.891	4261
674.942	3554
674.992	3983
675.042	3742
675.092	3146
675.142	3280
675.193	3386
675.243	3397
675.293	4248
675.343	3504
675.393	3789
675.443	4570
675.493	3398
675.543	3350
675.593	3741
675.643	4305
675.693	3340
675.743	3649
675.793	3704
675.843	3046
675.893	3383
675.943	3338
675.993	3161
676.043	3433
676.093	2998
676.142	2769
676.192	3383
676.242	3803
676.292	3027
676.341	3027
676.391	3627
676.441	2566
676.491	2903
676.540	3016
676.590	2733
676.640	3167
676.689	3520
676.739	2631
676.789	3133
676.838	3076
676.888	3506
676.937	2822
676.987	3073
677.037	3142
677.086	2236
677.136	3136
677.185	2985
677.235	3304
677.284	2313
677.333	2207
677.383	1861
677.432	2358
677.482	2409
677.531	3331
677.580	2785
677.630	2945
677.679	2250
677.728	3226
677.778	3361
677.827	2302
677.876	1711
677.925	2746
677.975	2456
678.024	2539
678.073	2380
678.122	3412
678.171	3005
678.220	2885
678.269	4046
678.319	3962
678.368	4222
678.417	4336
678.466	3910
678.515	3149
678.564	2573
678.613	4138
678.662	2746
678.711	2514
678.760	3000
678.809	2707
678.857	2051
678.906	2544
678.955	2326
679.004	3387
679.053	2831
679.102	1988
679.151	2553
679.199	2814
679.248	3065
679.297	2349
679.346	2497
679.394	3385
679.443	2132
679.492	2288
679.540	2311
679.589	2703
679.638	2750
679.686	2960
679.735	2026
679.784	2969
679.832	3975
679.881	3359
679.929	2384
679.978	2114
680.026	2204
680.075	2452
680.123	1866
680.172	3060
680.220	1983
680.268	1783
680.317	1966
680.365	2258
680.414	2016
680.462	2186
680.510	1650
680.559	1999
680.607	2123
680.655	2559
680.703	1557
680.752	2575
680.800	1864
680.848	1567
680.896	1694
680.945	2325
680.993	1760
681.041	2441
681.089	2500
681.137	2512
681.185	1503
681.233	1570
681.258	1754
681.281	1896
681.329	2166
681.377	1726
681.380	1775
681.425	2019
681.473	2759
681.502	2980
681.521	3079
681.569	2548
681.617	3028
681.624	2940
681.665	2123
681.713	3122
681.745	2889
681.761	2732
681.809	3164
681.857	3323
681.867	3222
681.904	2729
681.952	3465
681.989	3141
682.000	3005
682.048	3355
682.096	3205
682.111	3293
682.143	3353
682.191	3075
682.233	3668
682.239	3731
682.286	2984
682.334	2597
682.354	2913
682.382	3240
682.430	3324
682.476	3656
682.477	3635
682.525	3798
682.572	3926
682.598	3552
682.620	3202
682.667	4301
682.715	4326
682.720	4348
682.763	4176
682.810	4079
682.841	4425
682.857	4579
682.905	4506
682.952	4588
682.963	4588
683.000	4405
683.047	3908
683.085	4564
683.095	4726
683.142	4628
683.190	4819
683.206	4645
683.237	4178
683.284	4641
683.328	4716
683.332	4710
683.379	4633
683.426	4555
683.449	4876
683.473	5099
683.521	5843
683.568	4832
683.571	4857
683.615	4871
683.662	5492
683.693	5196
683.709	5010
683.757	4868
683.804	5363
683.814	5325
683.851	5140
683.898	5621
683.936	5910
683.945	5926
683.992	5597
684.039	5188
684.057	5540
684.086	6178
684.133	7119
684.179	6531
684.180	6481
684.227	6283
684.274	6311
684.300	6765
684.321	7123
684.368	6812
684.415	6316
684.422	6361
684.462	6446
684.509	6286
684.543	6311
684.556	6294
684.603	5896
684.649	5960
684.665	6098
684.696	6445
684.743	6556
684.786	6618
684.790	6611
684.837	7291
684.883	6778
684.908	6959
684.930	7040
684.977	7295
685.023	8438
685.029	8360
685.070	7601
685.117	7527
685.150	7410
685.164	7363
685.210	7980
685.257	8446
685.272	8638
685.303	8942
685.350	7895
685.393	8694
685.396	8759
685.443	8520
685.490	9224
685.514	9221
685.536	9170
685.583	9082
685.629	8777
685.636	8876
685.675	9069
685.722	8697
685.757	8429
685.768	8423
685.815	8865
685.861	9373
685.878	9264
685.908	8932
685.954	9069
686.000	9263
686.000	9263
686.047	9056
686.093	9531
686.121	10437
686.139	11017
686.185	10204
686.232	11049
686.242	11054
686.278	10391
686.324	9863
686.363	9336
686.370	9297
686.416	8782
686.463	8955
686.484	8851
686.509	8833
686.555	9278
686.601	9244
686.606	9293
686.647	9639
686.693	9272
686.727	9027
686.739	8947
686.785	8780
686.831	8847
686.848	9119
686.877	9503
686.923	9113
686.969	9038
686.969	9037
687.015	9668
687.061	9246
687.090	9497
687.107	9612
687.153	10011
687.199	9656
687.211	9559
687.245	9319
687.291	9485
687.332	10045
687.336	10117
687.382	10398
687.428	10560
687.453	10464
687.474	10190
687.520	10400
687.565	9962
687.574	9862
687.611	9522
687.657	9999
687.695	9400
687.702	9358
687.748	9847
687.794	10825
687.816	10760
687.839	10541
687.885	10367
687.931	10196
687.937	10221
687.976	10375
688.022	10609
688.058	10118
688.067	10106
688.113	10434
688.158	11583
688.179	11822
688.204	11749
688.249	11425
688.295	11258
688.300	11184
688.340	10994
688.386	11675
688.421	11333
688.431	11244
688.477	11245
688.522	11651
688.542	11680
688.567	11607
688.613	11710
688.658	11350
688.663	11305
688.703	11237
688.749	11593
688.784	11953
688.794	12022
688.839	11612
688.884	11629
688.905	11563
688.930	11530
688.975	11213
689.020	11274
689.026	11301
689.065	11716
689.110	11123
689.146	11690
689.155	11806
689.201	11617
689.246	11789
689.267	11499
689.291	11227
689.336	11716
689.381	11402
689.388	11490
689.426	12111
689.471	11856
689.509	11687
689.516	11679
689.561	11291
689.606	12198
689.630	12137
689.651	11977
689.696	11965
689.741	11341
689.750	11386
689.785	11801
689.830	11525
689.871	11969
689.875	12021
689.920	11932
689.965	11987
689.992	11890
690.010	11860
690.054	11879
690.099	11918
690.112	12042
690.144	12353
690.189	11945
690.233	11563
690.233	11577
690.278	11729
690.323	11769
690.354	11680
690.367	11751
690.412	12238
690.457	12421
690.474	12565
690.501	12531
690.546	12364
690.590	12381
690.595	12294
690.635	11917
690.680	12008
690.716	11869
690.724	11860
690.769	11822
690.813	12053
690.836	11975
690.857	12066
690.902	12548
690.946	12771
690.957	12780
690.991	12773
691.035	13305
691.077	13348
691.080	13408
691.124	14329
691.168	14567
691.198	15609
691.213	15848
691.257	15455
691.301	15445
691.318	15284
691.346	15040
691.390	14842
691.434	14522
691.439	14476
691.478	14287
691.522	13993
691.559	13852
691.567	13984
691.611	14599
691.655	15067
691.680	15261
691.699	15115
691.743	14646
691.787	14440
691.800	14326
691.831	14264
691.875	14465
691.919	14204
691.921	14169
691.964	14128
692.008	14669
692.041	14736
692.052	14829
692.096	14714
692.139	15327
692.162	15443
692.183	15335
692.227	14704
692.271	14720
692.282	14585
692.315	14643
692.359	15311
692.402	15166
692.403	15193
692.447	15182
692.490	15340
692.523	15405
692.534	15443
692.578	15431
692.622	15301
692.643	15258
692.666	15140
692.709	14781
692.753	14483
692.763	14434
692.797	14649
692.840	14608
692.884	14663
692.884	14695
692.928	14864
692.971	15216
693.004	15254
693.015	15266
693.059	15306
693.102	15542
693.124	15429
693.146	15296
693.189	14956
693.233	15189
693.245	15096
693.276	15243
693.320	15753
693.363	15712
693.365	15690
693.407	15717
693.450	15716
693.485	15441
693.493	15417
693.537	15430
693.580	15594
693.605	15495
693.624	15619
693.667	15783
693.710	15935
693.725	16049
693.753	16460
693.797	16810
693.840	17639
693.845	17612
693.883	18066
693.926	18998
693.966	19636
693.970	19619
694.013	19107
694.056	18618
694.086	18247
694.099	18058
694.142	16924
694.185	16287
694.206	15817
694.229	15947
694.272	16449
694.315	16650
694.326	16675
694.358	16799
694.401	17016
694.444	17160
694.446	17127
694.487	17923
694.530	18745
694.566	19553
694.573	19420
694.616	17952
694.659	16668
694.686	15734
694.702	15657
694.745	15729
694.787	15307
694.806	15186
694.830	15199
694.873	15165
694.916	15142
694.926	15063
694.959	15191
695.002	15669
695.044	15691
695.046	15664
695.087	15840
695.130	16099
695.166	16142
695.172	16188
695.215	16213
695.258	16231
695.286	16385
695.301	16456
695.343	16284
695.386	15973
695.406	15957
695.428	16026
695.471	15898
695.514	15686
695.526	15688
695.556	16225
695.599	16655
695.641	17138
695.646	17137
695.684	17035
695.726	16982
695.766	16873
695.769	16904
695.811	16825
695.854	16642
695.886	16418
695.896	16474
695.938	16638
695.981	16869
696.005	16837
696.023	16720
696.065	16547
696.108	16252
696.125	16168
696.150	16764
696.192	17447
696.235	18198
696.245	18360
696.277	18266
696.319	18042
696.361	17666
696.365	17611
696.404	17990
696.446	18238
696.485	18415
696.488	18447
696.530	18242
696.572	18154
696.604	17900
696.614	17970
696.656	18051
696.698	18318
696.724	18459
696.740	18396
696.783	17865
696.825	17610
696.844	17334
696.867	17448
696.909	17743
696.951	17876
696.964	17957
696.992	18116
697.034	17995
697.076	17979
697.083	17947
697.118	18448
697.160	18856
697.202	19224
697.203	19186
697.244	18835
697.286	18408
697.323	17954
697.327	18031
697.369	18271
697.411	18577
697.442	18771
697.453	18813
697.494	18728
697.536	18673
697.562	18609
697.578	18852
697.620	19296
697.661	19772
697.682	19924
697.703	20255
697.744	20929
697.786	21531
697.801	21701
697.828	22539
697.869	23802
697.911	24996
697.921	25234
697.952	24072
697.994	22434
698.035	20774
698.040	20521
698.077	20421
698.118	20241
698.160	20091
698.160	20037
698.201	19946
698.243	19790
698.279	19622
698.284	19705
698.325	19987
698.367	20250
698.399	20416
698.408	20412
698.449	20162
698.491	19860
698.518	19613
698.532	19750
698.573	20037
698.614	20295
698.638	20397
698.656	20429
698.697	20372
698.738	20321
698.757	20236
698.779	20555
698.820	21083
698.862	21593
698.877	21727
698.903	21766
698.944	21729
698.985	21703
698.996	21638
699.026	21637
699.067	21557
699.116	21406
699.235	21618
699.354	20388
699.474	20331
699.593	21491
699.713	22531
699.832	20270
699.951	21636
700.070	21973
700.190	19635
700.309	19761
700.428	20395
700.547	19811
700.667	18390
700.786	21286
700.905	21005
701.024	18520
701.143	20519
701.262	18196
701.381	18475
701.500	19979
701.619	20453
701.738	21004
701.857	19539
701.976	17517
702.095	17389
702.214	19380
702.333	20659
702.452	19274
702.571	17989
702.690	18667
702.809	17845
702.928	17634
703.047	17260
703.165	17909
703.284	18023
703.403	17020
703.522	17642
703.640	19067
703.759	18189
703.878	24038
703.997	21021
704.115	17757
704.234	15835
704.353	17560
704.471	16336
704.590	16415
704.708	15843
704.827	16702
704.946	15222
705.064	17470
705.183	17319
705.301	16681
705.420	19349
705.538	21606
705.656	17853
705.775	17261
705.893	18249
706.012	20173
706.130	19033
706.249	18769
706.367	18669
706.485	17619
706.604	18394
706.722	18907
706.840	20093
706.958	22098
707.077	19763
707.195	17321
707.313	17903
707.431	16165
707.549	17045
707.668	16348
707.786	16991
707.904	17318
708.022	16243
708.140	16980
708.258	16064
708.376	16663
708.494	15811
708.612	17181
708.730	19670
708.848	23251
708.966	20544
709.084	21827
709.202	18681
709.320	18331
709.438	18670
709.556	18883
709.674	19110
709.791	19401
709.909	17671
710.027	17621
710.145	18038
710.263	17654
710.380	18012
710.498	18094
710.616	17739
710.733	17580
710.851	18276
710.969	18513
711.086	17133
711.204	18496
711.322	17477
711.439	17223
711.557	18117
711.674	17346
711.792	16656
711.909	17384
712.027	15799
712.144	16127
712.262	17129
712.379	17078
712.497	20030
712.614	24232
712.732	21291
712.849	19864
712.966	20013
713.084	24197
713.201	23739
713.318	20217
713.436	19894
713.553	19659
713.670	20403
713.787	22379
713.905	24028
714.022	21569
714.139	20549
714.256	25372
714.373	31155
714.490	49768
714.608	97089
714.725	354560
714.842	1247227
714.959	274772
715.076	39911
715.193	27832
715.310	24123
715.427	21219
715.544	18687
715.661	19499
715.778	17763
715.895	19349
716.011	19455
716.128	19525
716.245	17072
716.362	18824
716.479	23329
716.596	18779
716.713	17198
716.829	16773
716.946	16886
717.063	15680
717.180	15149
717.296	14816
717.413	14641
717.530	15450
717.646	15109
717.763	14624
717.880	15179
717.996	15001
718.113	15013
718.229	15711
718.346	13820
718.462	15017
718.579	16376
718.695	23669
718.812	31551
718.928	19318
719.045	19736
719.161	14274
719.277	14822
719.394	15263
719.510	14495
719.626	15183
719.743	17846
719.859	24025
719.975	38621
720.092	105924
720.208	456331
720.324	304672
720.440	27675
720.557	19735
720.673	21301
720.789	30855
720.905	39371
721.021	48681
721.137	15553
721.253	14186
721.369	13968
721.486	15419
721.602	18033
721.718	17976
721.834	12004
721.950	13060
722.066	13207
722.181	11920
722.297	12313
722.413	13921
722.529	12158
722.645	12425
722.761	11288
722.877	12708
722.993	11645
723.108	13739
723.224	14811
723.340	12601
723.456	11374
723.571	11899
723.687	11750
723.803	10524
723.918	11263
724.034	11847
724.150	11637
724.265	11403
724.381	14769
724.497	31644
724.612	16157
724.728	11175
724.843	11119
724.959	11649
725.074	14416
725.190	29697
725.305	15555
725.421	11963
725.536	10144
725.651	9230
725.767	9755
725.882	9895
725.997	9981
726.113	10341
726.228	10507
726.343	10133
726.459	8822
726.574	10306
726.689	10925
726.804	9423
726.920	9974
727.035	9354
727.150	9696
727.265	9785
727.380	10113
727.495	10551
727.610	9039
727.725	9087
727.841	9350
727.956	9018
728.071	10815
728.186	10602
728.301	8282
728.416	9378
728.531	9703
728.645	8957
728.760	8900
728.875	10615
728.990	10371
729.105	9556
729.220	9400
729.335	11074
729.449	9374
729.564	9204
729.679	7625
729.794	8878
729.908	8333
730.023	9304
730.138	8396
730.253	8895
730.367	8601
730.482	7726
730.596	8734
730.711	8863
730.826	9074
730.940	9766
731.055	8943
731.169	9960
731.284	8176
731.398	8979
731.513	9140
731.627	10607
731.742	9937
731.856	13948
731.970	11976
732.085	14333
732.199	18323
732.313	29579
732.428	56857
732.542	173336
732.656	312738
732.771	71995
732.885	23557
732.999	16379
733.113	14453
733.227	14243
733.342	11720
733.456	11203
733.570	11468
733.684	11377
733.798	10524
733.912	10011
734.026	10072
734.140	9536
734.254	10098
734.368	12229
734.482	18785
734.596	12133
734.710	8961
734.824	10142
734.938	8322
735.052	9700
735.166	9767
735.280	11023
735.393	8791
735.507	9058
735.621	12274
735.735	13573
735.849	15111
735.962	9679
736.076	8613
736.190	9454
736.303	9225
736.417	14332
736.531	10017
736.644	9115
736.758	8833
736.872	8748
736.985	7681
737.099	8812
737.212	8170
737.326	8084
737.439	8281
737.553	8574
737.666	8877
737.780	8618
737.893	7373
738.007	8420
738.120	7917
738.233	7699
738.347	7547
738.460	8692
738.573	7856
738.687	8732
738.800	8854
738.913	10332
739.026	10189
739.140	7825
739.253	7039
739.366	7270
739.479	7244
739.592	6478
739.705	7402
739.818	7974
739.932	7657
740.045	9847
740.158	8291
740.271	6930
740.384	7857
740.497	7408
740.610	7231
740.723	8149
740.836	8717
740.949	7346
741.062	8905
741.174	11962
741.287	8164
741.400	8431
741.513	8213
741.626	8722
741.739	8461
741.851	8066
741.964	7169
742.077	7680
742.189	6994
742.302	7605
742.415	8587
742.527	8552
742.640	7727
742.753	6614
742.865	6114
742.978	7094
743.090	6249
743.203	6473
743.316	6693
743.428	6080
743.541	6554
743.653	5216
743.766	5886
743.878	6621
743.990	6845
744.103	9149
744.215	6446
744.327	7180
744.440	7747
744.552	9462
744.664	10976
744.777	7013
744.889	5971
745.001	6037
745.113	6012
745.226	5828
745.338	5970
745.450	6446
745.562	6027
745.674	5808
745.786	5183
745.898	5716
746.010	5881
746.122	6914
746.234	7804
746.347	6720
746.459	5947
746.570	5922
746.682	5603
746.794	6564
746.906	5832
747.018	6167
747.130	5452
747.242	5597
747.354	5365
747.466	6136
747.577	5833
747.689	6404
747.801	5497
747.913	5387
748.024	4633
748.136	4889
748.248	5165
748.359	5392
748.471	4997
748.583	5854
748.694	3880
748.806	5860
748.918	5523
749.029	7263
749.141	6181
749.252	6326
749.364	6102
749.475	9911
749.587	13706
749.698	7000
749.809	5272
749.921	5303
750.032	5060
750.144	5250
750.255	4481
750.366	4667
750.478	5447
750.589	6005
750.700	4196
750.811	6072
750.923	6082
751.034	8560
751.145	18768
751.256	9518
751.367	4941
751.479	5890
751.590	4413
751.701	5462
751.812	3865
751.923	5401
752.034	4364
752.145	5491
752.256	4699
752.367	4906
752.478	4550
752.589	4581
752.700	4502
752.811	4592
752.922	3841
753.032	3889
753.143	6311
753.254	5058
753.365	5807
753.476	5461
753.586	4954
753.697	4451
753.808	4249
753.919	4475
754.029	4989
754.140	4678
754.251	3891
754.361	4101
754.472	4836
754.582	4309
754.693	4852
754.804	4739
754.914	4119
755.025	3771
755.135	3524
755.246	4641
755.356	3992
755.466	4498
755.577	3251
755.687	4666
755.798	3880
755.908	3931
756.018	3800
756.129	4589
756.239	3490
756.349	3996
756.460	3486
756.570	5076
756.680	4236
756.790	4601
756.900	5368
757.011	4929
757.121	3951
757.231	3656
757.341	3656
757.451	4274
757.561	3821
757.671	3771
757.781	3525
757.891	4399
758.001	3956
758.111	4651
758.221	4798
758.331	4893
758.441	5504
758.551	6034
758.661	8433
758.771	5319
758.880	4893
758.990	4385
759.100	3338
759.210	4324
759.320	4752
759.429	5218
759.539	4708
759.649	6479
759.758	5283
759.868	6714
759.978	6557
760.087	6510
760.197	6845
760.307	6825
760.416	6151
760.526	6185
760.635	5967
760.745	5744
760.854	6291
760.964	7047
761.073	8314
761.182	7806
761.292	6961
761.401	6361
761.511	4579
761.620	5494
761.729	4617
761.839	4861
761.948	4568
762.057	4102
762.166	4955
762.276	4341
762.385	5354
762.494	5746
762.603	3781
762.712	4237
762.822	4543
762.931	3633
763.040	4092
763.149	4164
763.258	4940
763.367	4827
763.476	3686
763.585	3802
763.694	4246
763.803	4648
763.912	4737
764.021	5604
764.130	4682
764.238	4589
764.347	3526
764.456	4910
764.565	4782
764.674	5032
764.783	5354
764.891	4602
765.000	5368
765.109	5310
765.217	4745
765.326	5305
765.435	6861
765.543	7704
765.652	6837
765.761	7070
765.869	9302
765.978	12737
766.086	19077
766.195	38021
766.303	81791
766.412	266495
766.520	676382
766.629	268795
766.737	48092
766.846	23201
766.954	13801
767.062	12207
767.171	9306
767.279	7643
767.387	6986
767.496	6679
767.604	5329
767.712	5204
767.820	5721
767.928	5874
768.037	4416
768.145	5182
768.253	5104
768.361	5511
768.469	4521
768.577	5012
768.685	5070
768.793	4861
768.901	4317
769.009	4967
769.117	4719
769.225	6286
769.333	6918
769.441	10376
769.549	15837
769.657	30745
769.765	85807
769.873	334166
769.981	398910
770.088	56425
770.196	16612
770.304	11408
770.412	9154
770.519	7748
770.627	6282
770.735	6206
770.842	4965
770.950	5915
771.058	5489
771.165	5577
771.273	5675
771.380	5636
771.488	5120
771.595	6212
771.703	5445
771.810	6296
771.918	5633
772.025	5508
772.133	5833
772.240	6606
772.348	5447
772.455	6785
772.562	5782
772.670	6213
772.777	5419
772.884	6105
772.991	5374
773.099	5737
773.206	5509
773.313	6294
773.420	5087
773.528	4885
773.635	4966
773.742	5796
773.849	5257
773.956	5836
774.063	4789
774.170	6289
774.277	5497
774.384	5344
774.491	4219
774.598	4998
774.705	5195
774.812	5889
774.919	7092
775.026	5849
775.133	5152
775.239	5458
775.346	4609
775.453	3983
775.560	4904
775.667	5357
775.773	4740
775.880	5269
775.987	5332
776.093	5258
776.200	4402
776.307	4689
776.413	4663
776.520	4435
776.627	5189
776.733	5116
776.840	4312
776.946	5096
777.053	4837
777.159	5477
777.266	5778
777.372	4929
777.478	5481
777.585	6151
777.691	4546
777.798	4518
777.904	4978
778.010	5453
778.117	7529
778.223	5660
778.329	4781
778.435	5267
778.542	4331
778.648	4818
778.754	3599
778.860	3930
778.966	4584
779.072	4440
779.178	3763
779.284	4646
779.391	3123
779.497	3542
779.603	4860
779.708	3675
779.815	4258
779.920	4204
780.026	8719
780.132	8464
780.238	4341
780.344	3774
780.450	4067
780.556	4581
780.661	3154
780.767	3937
780.873	3657
780.979	4208
781.085	4032
781.190	3716
781.296	3064
781.402	3228
781.507	4007
781.613	3823
781.719	3225
781.824	4710
781.930	4016
782.035	3839
782.141	2704
782.246	3505
782.352	3722
782.457	3395
782.563	3609
782.668	3554
782.773	3775
782.879	3957
782.984	3724
783.090	4219
783.195	4940
783.300	6235
783.405	4751
783.511	2992
783.616	3470
783.721	3389
783.826	3153
783.932	3206
784.037	3207
784.142	3584
784.247	3627
784.352	3629
784.457	3026
784.562	4294
784.667	3489
784.772	3718
784.877	2208
784.982	4087
785.087	3392
785.192	2837
785.297	2922
785.402	3397
785.507	3633
785.611	3288
785.716	2602
785.821	2997
785.926	2085
786.031	2765
786.135	2663
786.240	3033
786.345	3362
786.450	2748
786.554	2493
786.659	3071
786.763	2176
786.868	3382
786.973	3272
787.077	2761
787.182	3114
787.286	3235
787.391	2888
787.495	3090
787.600	2797
787.704	2600
787.809	3300
787.913	2757
788.017	2527
788.122	3137
788.226	2869
788.330	1562
788.435	2244
788.539	3095
788.643	2397
788.747	2162
788.852	1436
788.956	2904
789.060	2818
789.164	2010
789.268	2843
789.372	2816
789.476	1628
789.580	2628
789.684	2027
789.788	2453
789.892	1644
789.996	2881
790.100	2256
790.204	2861
790.308	2431
790.412	2092
790.516	2032
790.620	2516
790.724	2913
790.828	2303
790.931	2377
791.035	2817
791.139	2465
791.242	2558
791.346	2802
791.450	1997
791.554	2457
791.657	2627
791.761	2594
791.864	3226
791.968	2907
792.072	2348
792.175	2606
792.279	2093
792.382	3075
792.486	3180
792.589	2788
792.693	2963
792.796	2607
792.899	2966
793.003	2411
793.106	2404
793.209	2343
793.313	3189
793.416	1914
793.519	2478
793.623	2399
793.726	6341
793.829	5669
793.932	2106
794.035	1443
794.138	3198
794.242	2772
794.345	2921
794.448	3514
794.551	3275
794.654	6099
794.757	5883
794.860	4419
794.963	4293
795.066	1927
795.169	2915
795.272	2214
795.375	2034
795.477	1929
795.580	2129
795.683	1242
795.786	2522
795.889	510
795.991	2504
796.094	2401
796.197	2348
796.300	2316
796.402	1870
796.505	1346
796.608	1681
796.710	2252
796.813	2786
796.915	1518
797.018	2238
797.120	1910
797.223	1975
797.326	2146
797.428	1629
797.530	1595
797.633	2290
797.735	2506
797.838	3246
797.940	4862
798.042	2074
798.145	2363
798.247	1759
798.349	1855
798.452	2139
798.554	1618
798.656	2068
798.758	2964
798.860	3030
798.962	1838
799.065	2081
799.167	1955
799.269	2811
799.371	1768
799.473	2986
799.575	2630
799.677	3084
799.779	3402
799.881	3803
799.983	4739
800.085	2868
800.187	1972
800.289	1809
800.390	2617
800.492	1986
800.594	2453
800.696	2199
800.798	1003
800.899	1122
801.001	1445
801.103	2345
801.205	1926
801.306	1702
801.408	1927
801.509	1196
801.611	1881
801.713	1762
801.814	595
801.916	1293
802.017	970
802.119	1620
802.220	1555
802.322	797
802.423	2287
802.525	3019
802.626	1743
802.727	2721
802.829	1624
802.930	1431
803.031	1881
803.133	1838
803.234	996
803.335	2231
803.436	1124
803.538	1152
803.639	1308
803.740	2077
803.841	1317
803.942	1492
804.043	1113
804.144	1187
804.245	1702
804.346	2328
804.447	940
804.548	2400
804.649	4365
804.750	2463
804.851	1224
804.952	2123
805.053	1129
805.154	1181
805.255	1436
805.355	1667
805.456	991
805.557	1843
805.658	220
805.758	2157
805.859	1069
805.960	924
806.061	1181
806.161	1423
806.262	1546
806.362	1209
806.463	1528
806.564	2406
806.664	1335
806.765	1975
806.865	1895
806.966	1898
807.066	1042
807.166	1713
807.267	1144
807.367	996
807.468	1063
807.568	1227
807.668	1878
807.769	2252
807.869	1413
807.969	855
808.069	1420
808.170	1921
808.270	486
808.370	1755
808.470	1702
808.570	3245
808.670	1771
808.770	2115
808.870	802
808.970	1160
809.070	279
809.170	1586
809.271	639
809.370	1617
809.470	1026
809.570	1515
809.670	1228
809.770	740
809.870	1944
809.970	1032
810.070	576
810.169	1596
810.269	176
810.369	1911
810.469	1539
810.568	1568
810.668	767
810.768	1250
810.867	1052
810.967	556
811.066	523
811.166	1572
811.265	756
811.365	1405
811.464	1247
811.564	2335
811.663	1874
811.763	1937
811.862	1655
811.962	1647
812.061	1319
812.160	1763
812.260	1030
812.359	2055
812.458	2620
812.557	4600
812.657	10887
812.756	10429
812.855	3698
812.954	2128
813.053	1816
813.153	1698
813.252	1913
813.351	2023
813.450	1630
813.549	2125
813.648	1227
813.747	2290
813.846	2713
813.945	2055
814.044	1336
814.143	3474
814.242	2316
814.341	2249
814.439	2001
814.538	3533
814.637	2167
814.736	3183
814.835	2972
814.933	2706
815.032	2956
815.131	3500
815.229	4483
815.328	4967
815.427	5263
815.525	5072
815.624	3996
815.722	4247
815.821	5128
815.919	5177
816.018	5460
816.116	7079
816.215	5724
816.313	6432
816.412	6729
816.510	7298
816.609	7745
816.707	7930
816.805	8032
816.904	9005
817.002	10275
817.100	11644
817.198	12305
817.296	13983
817.395	14955
817.493	18120
817.591	19661
817.689	25530
817.787	33105
817.885	46333
817.983	73214
818.081	128748
818.179	255567
818.277	545378
818.375	912115
818.473	615623
818.571	257590
818.669	132783
818.767	93311
818.865	80400
818.963	83342
819.061	101927
819.158	145791
819.256	241081
819.354	448206
819.452	846343
819.549	1095937
819.647	712616
819.745	341668
819.842	182406
819.940	114309
820.038	78527
820.135	58234
820.233	46414
820.330	36304
820.428	29309
820.525	24487
820.623	22179
820.720	18052
820.818	16491
820.915	15308
821.012	13853
821.110	11751
821.207	11095
821.304	9801
821.402	9388
821.499	10031
821.596	8475
821.693	7578
821.791	8493
821.888	7903
821.985	9968
822.082	12023
822.179	8740
822.276	5824
822.373	5314
822.470	5457
822.567	5204
822.664	4425
822.761	5310
822.858	4369
822.955	4507
823.052	4095
823.149	4174
823.246	3878
823.343	4200
823.440	4212
823.536	3420
823.633	3476
823.730	4561
823.827	3368
823.923	3333
824.020	3736
824.117	2817
824.213	2792
824.310	4016
824.407	2270
824.503	3222
824.600	2667
824.696	3165
824.793	2635
824.889	3280
824.986	2671
825.082	2683
825.179	2127
825.275	2022
825.371	2565
825.468	3676
825.564	1644
825.660	2103
825.757	3040
825.853	2154
825.949	1968
826.045	2120
826.142	1183
826.238	2648
826.334	1459
826.430	635
826.526	2293
826.622	2019
826.718	1181
826.814	1494
826.910	2427
827.006	1388
827.102	1048
827.198	2151
827.294	2013
827.390	2604
827.486	1770
827.582	998
827.678	562
827.774	2481
827.869	1380
827.965	2305
828.061	1637
828.157	1409
828.252	1567
828.348	1791
828.444	1559
828.539	1679
828.635	833
828.731	1773
828.826	744
828.922	2072
829.017	1626
829.113	2726
829.208	1010
829.304	1169
829.399	2353
829.495	2517
829.590	1729
829.685	942
829.781	1818
829.876	2144
829.971	2126
830.066	1176
830.162	538
830.257	1380
830.352	1680
830.447	1687
830.543	1276
830.638	299
830.733	2276
830.828	1753
830.923	1083
831.018	1636
831.113	1497
831.208	1429
831.303	866
831.398	1624
831.493	1307
831.588	1788
831.683	814
831.778	1818
831.873	1051
831.967	1764
832.062	766
832.157	1257
832.252	1998
832.346	1591
832.441	2204
832.536	3010
832.631	3644
832.725	8268
832.820	3147
832.914	1070
833.009	804
833.104	1207
833.198	1636
833.293	1565
833.387	1332
833.482	1874
833.576	1224
833.670	1539
833.765	1158
833.859	2016
833.954	2127
834.048	1755
834.142	598
834.237	671
834.331	600
834.425	844
834.519	155
834.613	1467
834.708	1165
834.802	179
834.896	581
834.990	935
835.084	1162
835.178	949
835.272	1206
835.366	1366
835.460	1493
835.554	913
835.648	983
835.742	1254
835.836	716
835.930	-3
836.024	1294
836.117	2388
836.211	852
836.305	1999
836.399	2619
836.493	1219
836.586	1506
836.680	1456
836.774	535
836.867	1531
836.961	258
837.055	901
837.148	161
837.242	509
837.335	953
837.429	867
837.522	-750
837.616	1326
837.709	1559
837.803	3072
837.896	703
837.989	1161
838.083	2002
838.176	1255
838.269	4023
838.363	3404
838.456	863
838.549	2824
838.642	2549
838.735	5492
838.829	6708
838.922	1582
839.015	472
839.108	421
839.201	502
839.294	658
839.387	1194
839.480	289
839.573	1261
839.666	1682
839.759	2162
839.852	359
839.945	-45
840.038	759
840.131	384
840.223	661
840.316	970
840.409	-425
840.502	740
840.594	376
840.687	-563
840.780	816
840.873	-498
840.965	450
841.058	1572
841.150	1944
841.243	3396
841.336	1681
841.428	447
841.521	558
841.613	439
841.706	1273
841.798	495
841.890	1129
841.983	221
842.075	470
842.167	573
842.260	911
842.352	1145
842.444	654
842.537	1729
842.629	4903
842.721	4088
842.813	651
842.905	130
842.997	500
843.090	404
843.182	1651
843.274	1638
843.366	4706
843.458	10741
843.550	16161
843.642	5608
843.734	1311
843.826	595
843.918	1369
844.009	1164
844.101	600
844.193	216
844.285	573
844.377	1053
844.469	148
844.560	380
844.652	731
844.744	536
844.835	1121
844.927	495
845.019	681
845.110	1297
845.202	1030
845.293	-276
845.385	731
845.476	772
845.568	1022
845.659	512
845.751	897
845.842	54
845.934	194
846.025	133
846.116	764
846.208	-95
846.299	464
846.390	393
846.482	65
846.573	863
846.664	1689
846.755	1408
846.846	3454
846.937	670
847.029	980
847.120	-234
847.211	130
847.302	469
847.393	79
847.484	610
847.575	327
847.666	-91
847.757	722
847.847	682
847.938	949
848.029	-28
848.120	1137
848.211	179
848.302	232
848.392	415
848.483	227
848.574	275
848.664	449
848.755	1413
848.846	98
848.936	-83
849.027	1435
849.118	122
849.208	1265
849.299	1187
849.389	1988
849.480	5430
849.570	12043
849.661	20484
849.751	41903
849.841	49211
849.932	11295
850.022	2286
850.112	1552
850.203	1058
850.293	239
850.383	1050
850.474	-259
850.564	837
850.654	123
850.744	100
850.834	994
850.924	294
851.014	1025
851.104	-204
851.194	643
851.284	936
851.374	1331
851.464	1173
851.554	1071
851.644	144
851.734	1102
851.824	1156
851.914	344
852.004	451
852.094	722
852.183	339
852.273	688
852.363	242
852.452	408
852.542	380
852.632	268
852.721	1333
852.811	600
852.901	721
852.990	680
853.080	414
853.169	1146
853.259	1721
853.348	1512
853.438	1656
853.527	3024
853.617	3665
853.706	7960
853.795	14349
853.885	30679
853.974	67271
854.063	114111
854.152	217483
854.242	243372
854.331	67162
854.420	15430
854.509	6836
854.598	5587
854.687	4061
854.777	3755
854.866	1761
854.955	2636
855.044	706
855.133	1656
855.222	901
855.311	397
855.400	286
855.488	572
855.577	549
855.666	1737
855.755	715
855.844	853
855.933	-695
856.021	1375
856.110	-54
856.199	822
856.288	-691
856.376	258
856.465	-194
856.554	544
856.642	-117
856.731	-8
856.819	760
856.908	468
856.996	649
857.085	174
857.173	139
857.262	796
857.350	-438
857.438	182
857.527	-340
857.615	306
857.703	399
857.792	61
857.880	118
857.968	857
858.056	-415
858.145	740
858.233	184
858.321	-29
858.409	782
858.497	-18
858.585	191
858.673	661
858.761	-640
858.849	378
858.937	-67
859.025	743
859.113	15
859.201	-366
859.289	280
859.377	212
859.465	54
859.552	719
859.640	453
859.728	924
859.816	736
859.903	225
859.991	-592
860.079	475
860.166	679
860.254	667
860.342	-112
860.429	-773
860.517	-216
860.604	818
860.692	-310
860.779	28
860.867	-160
860.954	268
861.042	825
861.129	1164
861.216	29
861.304	8
861.391	14
861.478	496
861.565	-501
861.653	1121
861.740	-321
861.827	371
861.914	-404
862.001	178
862.089	356
862.176	354
862.263	-507
862.350	17
862.437	-59
862.524	-233
862.611	-359
862.698	501
862.785	28
862.871	127
862.958	459
863.045	761
863.132	-301
863.219	178
863.306	-2
863.392	656
863.479	43
863.566	264
863.652	361
863.739	305
863.826	-15
863.912	564
863.999	-845
864.086	299
864.172	-259
864.259	1224
864.345	547
864.432	565
864.518	96
864.604	327
864.691	345
864.777	821
864.863	648
864.950	486
865.036	1594
865.122	2578
865.209	3119
865.295	2508
865.381	3143
865.467	3341
865.553	4217
865.639	5341
865.726	7889
865.812	16372
865.898	33396
865.984	60013
866.070	82577
866.156	156750
866.242	118708
866.328	26563
866.414	7560
866.499	4229
866.585	3504
866.671	3276
866.757	3197
866.843	2810
866.928	1745
867.014	1665
867.100	2249
867.186	2035
867.271	2683
867.357	2307
867.442	2247
867.528	2039
867.614	1544
867.699	1590
867.785	1889
867.870	1543
867.956	1749
868.041	3343
868.127	1337
868.212	1693
868.297	1582
868.383	2642
868.468	1445
868.553	3519
868.639	4810
868.724	5083
868.809	11015
868.894	6953
868.979	1559
869.065	1661
869.150	664
869.235	1579
869.320	666
869.405	1461
869.490	581
869.575	1072
869.660	1406
869.745	710
869.830	1435
869.915	1295
870.000	972
870.085	1139
870.169	433
870.254	1676
870.339	706
870.424	828
870.509	104
870.593	1399
870.678	576
870.763	1144
870.847	750
870.932	101
871.016	709
871.101	999
871.186	563
871.270	1682
871.355	1142
871.439	1009
871.523	561
871.608	1022
871.692	427
871.777	1460
871.861	798
871.945	1031
872.030	622
872.114	1205
872.198	515
872.282	584
872.367	108
872.451	932
872.535	122
872.619	581
872.703	639
872.787	26
872.871	653
872.955	438
873.039	338
873.123	620
873.207	435
873.291	719
873.375	-405
873.459	1297
873.543	-66
873.627	700
873.711	324
873.794	1405
873.878	880
873.962	1218
874.045	600
874.129	659
874.137	640
874.213	447
874.245	347
874.296	189
874.352	400
874.380	501
874.460	458
874.464	456
874.547	471
874.568	437
874.631	329
874.676	533
874.714	721
874.784	361
874.798	287
874.881	920
874.892	799
874.965	-25
874.999	154
875.048	397
875.107	515
875.131	553
875.215	645
875.215	644
875.298	-151
875.323	49
875.381	550
875.430	867
875.465	1110
875.538	634
875.548	553
875.631	1111
875.646	987
875.714	548
875.753	343
875.798	64
875.861	266
875.881	310
875.964	794
875.968	761
876.047	223
876.076	298
876.130	432
876.183	358
876.213	383
876.291	863
876.296	883
876.379	109
876.398	300
876.462	937
876.506	439
876.545	-4
876.613	398
876.628	502
876.711	428
876.721	421
876.794	429
876.828	585
876.877	618
876.935	736
876.960	856
877.043	264
877.043	268
877.125	1233
877.150	903
877.208	25
877.258	599
877.291	1059
877.365	663
877.374	592
877.456	496
877.472	457
877.539	436
877.579	516
877.622	605
877.687	679
877.704	670
877.787	555
877.794	507
877.869	202
877.901	329
877.952	388
878.008	247
878.034	235
878.115	748
878.117	758
878.199	180
878.222	295
878.282	544
878.329	691
878.364	775
878.437	819
878.447	821
878.529	258
878.544	271
878.611	401
878.651	315
878.694	280
878.758	144
878.776	76
878.858	634
878.865	643
878.941	878
878.972	704
879.023	250
879.078	507
879.105	669
879.185	-224
879.187	-240
879.269	821
879.292	583
879.351	-194
879.399	-19
879.433	275
879.506	71
879.516	12
879.598	192
879.613	141
879.680	85
879.720	145
879.762	92
879.827	-131
879.844	-161
879.926	-40
879.933	9
880.007	506
880.040	652
880.089	857
880.147	916
880.171	961
880.253	3136
880.254	3154
880.335	5423
880.360	5968
880.417	7514
880.467	8732
880.499	9532
880.574	17772
880.580	18384
880.662	14331
880.680	12035
880.744	3723
880.787	2022
880.825	783
880.893	379
880.907	336
880.989	634
881.000	588
881.070	247
881.106	199
881.152	-5
881.213	45
881.233	119
881.315	-462
881.319	-442
881.396	-42
881.426	-7
881.478	-99
881.532	106
881.559	377
881.639	44
881.641	24
881.722	63
881.745	58
881.803	329
881.852	291
881.885	55
881.958	51
881.966	103
882.047	456
882.064	539
882.129	674
882.171	690
882.210	695
882.277	1127
882.291	1223
882.372	1316
882.383	1181
882.454	216
882.489	54
882.535	-110
882.596	-71
882.616	-43
882.697	83
882.702	84
882.778	25
882.808	11
882.859	101
882.914	123
882.940	67
883.020	338
883.021	341
883.102	126
883.127	114
883.183	155
883.233	117
883.264	21
883.339	139
883.345	131
883.426	-568
883.445	-636
883.507	141
883.551	603
883.587	299
883.657	-148
883.668	-112
883.749	109
883.763	112
883.830	1
883.869	-193
883.910	-587
883.975	-543
883.991	-450
884.072	-465
884.081	-440
884.152	-327
884.187	-478
884.233	-229
884.292	623
884.314	559
884.394	-472
884.398	-502
884.475	-426
884.504	-451
884.555	-235
884.610	-69
884.636	-246
884.716	-47
884.716	-44
884.797	-39
884.821	-106
884.877	-347
884.927	-233
884.958	-121
885.033	-53
885.038	-56
885.118	256
885.139	172
885.199	179
885.244	474
885.279	603
885.350	697
885.359	660
885.439	173
885.456	84
885.520	412
885.561	632
885.600	299
885.667	-255
885.680	-238
885.760	-27
885.773	-17
885.840	40
885.878	48
885.920	52
885.984	107
886.000	45
886.080	-286
886.089	-312
886.160	-274
886.195	-207
886.240	-71
886.300	-49
886.320	-59
886.400	-77
886.406	-81
886.480	-151
886.511	-145
886.560	109
886.616	454
886.640	612
886.720	972
886.722	979
886.800	59
886.827	-280
886.879	-352
886.932	-367
886.959	-140
887.038	607
887.039	603
887.119	-20
887.143	-141
887.198	224
887.248	521
887.278	291
887.354	-345
887.358	-337
887.437	-128
887.459	-31
887.517	123
887.564	88
887.596	-104
887.669	-438
887.676	-422
887.755	-165
887.774	-118
887.835	7
887.880	129
887.914	-49
887.985	-454
887.994	-428
888.073	-154
888.090	-94
888.153	-57
888.195	-69
888.232	-174
888.300	-339
888.311	-297
888.391	18
888.405	81
888.470	333
888.510	448
888.549	205
888.615	-161
888.628	-204
888.708	-548
888.720	-580
888.787	-386
888.825	-293
888.866	-418
888.930	-648
888.945	-550
889.024	-40
889.035	44
889.103	584
889.140	814
889.182	592
889.245	293
889.261	194
889.340	-257
889.349	-308
889.419	-104
889.454	4
889.498	-23
889.559	-62
889.577	-22
889.656	176
889.664	195
889.735	109
889.768	68
889.814	-60
889.873	-227
889.978	-951
890.083	-111
890.187	-475
890.292	423
890.397	-215
890.501	-988
890.606	-751
890.710	507
890.815	195
890.919	-299
891.024	-573
891.128	-325
891.233	-450
891.337	96
891.442	-309
891.546	-335
891.650	-507
891.755	284
891.859	257
891.963	330
892.068	466
892.172	-310
892.276	-291
892.380	-213
892.484	-505
892.589	-507
892.693	-127
892.797	970
892.901	81
893.005	-773
893.109	156
893.213	297
893.317	-353
893.421	-251
893.525	584
893.629	-34
893.733	61
893.837	104
893.941	-444
894.045	-4
894.148	-691
894.252	712
894.356	-3
894.460	1070
894.564	-310
894.667	20
894.771	58
894.875	771
894.978	-523
895.082	100
895.186	-747
895.289	479
895.393	585
895.496	461
895.600	-13
895.703	-602
895.807	-232
895.910	-116
896.014	-241
896.117	-77
896.221	-3
896.324	-538
896.427	-70
896.531	267
896.634	208
896.737	462
896.840	-553
896.944	-376
897.047	27
897.150	682
897.253	-172
897.356	297
897.460	161
897.563	377
897.666	-852
897.769	-83
897.872	625
897.975	126
898.078	-216
898.181	-302
898.284	-602
898.387	12
898.490	322
898.593	-488
898.695	228
898.798	-447
898.901	-341
899.004	343
899.107	-9
899.209	715
899.312	-380
899.415	-152
899.518	-563
899.620	267
899.723	122
899.826	706
899.928	374
900.031	-493
900.133	-611
900.236	477
900.338	-214
900.441	174
900.543	-537
900.646	105
900.748	-9
900.851	-61
900.953	-223
901.055	280
901.158	-812
901.260	298
901.362	889
901.465	211
901.567	334
901.669	-124
901.771	33
901.873	-242
901.976	137
902.078	-192
902.180	34
902.282	510
902.384	-550
902.486	-124
902.588	578
902.690	242
902.792	59
902.894	388
902.996	-236
903.098	457
903.200	135
903.302	-126
903.404	548
903.505	-218
903.607	-204
903.709	194
903.811	-237
903.913	352
904.014	-891
904.116	-229
904.218	-80
904.319	242
904.421	-597
904.523	-600
904.624	-325
904.726	29
904.827	-175
904.929	563
905.030	340
905.132	579
905.233	-545
905.335	-343
905.436	258
905.537	-19
905.639	-326
905.740	234
905.841	-215
905.943	115
906.044	-376
906.145	-189
906.247	26
906.348	-159
906.449	173
906.550	246
906.651	-167
906.752	-451
906.854	-442
906.955	531
907.056	-172
907.157	-583
907.258	10
907.359	351
907.460	-63
907.561	678
907.662	356
907.762	331
907.863	-472
907.964	441
908.065	369
908.166	-196
908.267	-287
908.367	-357
908.468	-134
908.569	230
908.670	505
908.770	463
908.871	-69
908.971	-709
909.072	-203
909.173	737
909.273	472
909.374	224
909.474	-770
909.575	296
909.675	-217
909.776	667
909.876	810
909.977	743
910.077	-529
910.177	-1108
910.278	7
910.378	307
910.478	349
910.579	163
910.679	565
910.779	-258
910.879	9
910.980	-116
911.080	-1236
911.180	-141
911.280	-703
911.380	449
911.480	-610
911.580	344
911.680	32
911.780	-21
911.880	446
911.980	570
912.080	-71
912.180	723
912.280	-141
912.380	785
912.480	-527
912.580	155
912.679	-524
912.779	147
912.879	83
912.979	8
913.078	245
913.178	308
913.278	439
913.377	-249
913.477	-434
913.577	312
913.676	372
913.776	-370
913.875	528
913.975	822
914.074	565
914.174	-11
914.273	-779
914.373	-98
914.472	-328
914.572	181
914.671	39
914.770	319
914.870	-78
914.969	-491
915.068	-221
915.167	577
915.267	-185
915.366	28
915.465	-740
915.564	-61
915.663	-243
915.763	452
915.862	48
915.961	-43
916.060	183
916.159	-673
916.258	-140
916.357	-64
916.456	534
916.555	-402
916.654	-960
916.752	-429
916.851	-1154
916.950	302
917.049	-218
917.148	107
917.247	-175
917.345	546
917.444	19
917.543	184
917.642	558
917.740	-697
917.839	-136
917.937	303
918.036	228
918.135	-407
918.233	432
918.332	366
918.430	126
918.529	-98
918.627	-54
918.726	437
918.824	101
918.923	286
919.021	-385
919.119	-61
919.218	22
919.316	-20
919.414	60
919.512	-457
919.611	-201
919.709	-236
919.807	-51
919.905	-147
920.003	-55
920.102	768
920.200	-480
920.298	746
920.396	346
920.494	569
920.592	-648
920.690	61
920.788	-21
920.886	564
920.984	418
921.082	-345
921.180	145
921.277	-545
921.375	407
921.473	-108
921.571	132
921.669	790
921.766	-90
921.864	743
921.962	-119
922.060	-153
922.157	92
922.255	338
922.352	-408
922.450	370
922.548	-61
922.645	80
922.743	37
922.840	-238
922.938	173
923.035	829
923.133	-336
923.230	63
923.327	248
923.425	1228
923.522	-297
923.619	380
923.717	-190
923.814	246
923.911	-93
924.008	380
924.106	134
924.203	734
924.300	-460
924.397	562
924.494	560
924.591	199
924.688	-24
924.786	-285
924.883	700
924.979	516
925.077	584
925.173	577
925.270	337
925.367	-55
925.464	-90
925.561	607
925.658	487
925.755	439
925.852	535
925.948	-214
926.045	-270
926.142	323
926.239	527
926.335	236
926.432	233
926.529	149
926.625	89
926.722	-482
926.818	127
926.915	56
927.011	1066
927.108	-55
927.204	-482
927.301	120
927.397	-510
927.494	-374
927.590	-492
927.687	-153
927.783	-185
927.879	366
927.976	-365
928.072	560
928.168	148
928.264	695
928.361	-246
928.457	-11
928.553	355
928.649	-239
928.745	8
928.841	16
928.937	-283
929.033	20
929.129	-521
929.225	-445
929.321	503
929.417	-61
929.513	-484
929.609	389
929.705	-299
929.801	-430
929.897	-768
929.993	-363
930.089	-435
930.184	154
930.280	183
930.376	41
930.471	321
930.567	348
930.663	199
930.758	-32
930.854	-542
930.950	40
931.045	-519
931.141	849
931.236	-86
931.332	-667
931.427	-654
931.523	-227
931.618	-8
931.714	-255
931.809	-151
931.905	77
932.000	-100
932.095	-517
932.191	-596
932.286	-5
932.381	-41
932.476	-545
932.572	-464
932.667	-142
932.762	-491
932.857	-216
932.952	409
933.047	294
933.142	-490
933.237	-340
933.332	-1079
933.427	-209
933.522	-328
933.617	-98
933.712	-104
933.807	-260
933.902	-399
933.997	6
934.092	410
934.187	135
934.282	-198
934.376	222
934.471	-729
934.566	-822
934.661	-996
934.755	-804
934.850	-785
934.945	293
935.039	-64
935.134	646
935.228	-117
935.323	-152
935.417	-214
935.512	-104
935.606	17
935.701	-42
935.795	-776
935.890	283
935.984	406
936.079	-243
936.173	-229
936.267	-205
936.362	-177
936.456	381
936.550	-37
936.644	-495
936.738	-603
936.833	-628
936.927	-398
937.021	-358
937.115	-599
937.209	-662
937.303	-189
937.397	15
937.491	-115
937.585	202
937.679	-1216
937.773	-1327
937.867	-631
937.961	-461
938.055	-177
938.149	578
938.243	-199
938.337	-34
938.430	-65
938.524	-551
938.618	-191
938.712	-209
938.805	531
938.899	-472
938.993	-780
939.086	72
939.180	-604
939.274	-211
939.367	-516
939.461	207
939.554	380
939.648	124
939.741	-614
939.835	25
939.928	-732
940.022	-290
940.115	-577
940.208	542
940.302	-33
940.395	-36
940.488	-760
940.582	3
940.675	-1564
940.768	-321
940.861	-1403
940.954	-386
941.048	-494
941.141	-322
941.234	-1215
941.327	-58
941.420	-971
941.513	8
941.606	-324
941.699	-303
941.792	-488
941.885	-26
941.978	47
942.071	-955
942.164	-497
942.257	-609
942.349	164
942.442	-26
942.535	-851
942.628	39
942.721	-607
942.813	-616
942.906	-665
942.999	-575
943.091	-462
943.184	-1484
943.277	-552
943.369	-417
943.462	-766
943.554	-664
943.647	-831
943.739	363
943.832	-709
943.924	-523
944.017	-1081
944.109	-206
944.201	-406
944.294	95
944.386	-874
944.478	-562
944.571	-75
944.663	-316
944.755	74
944.847	-540
944.940	-155
945.032	-515
945.124	91
945.216	-92
945.308	-278
945.400	-596
945.492	-529
945.584	-555
945.676	-325
945.768	226
945.860	-424
945.952	157
946.044	-1047
946.136	-620
946.228	-824
946.320	-421
946.412	-1251
946.503	-1015
946.595	-295
946.687	-787
946.779	-915
946.870	-324
946.962	-680
947.054	-270
947.145	-636
947.237	-884
947.329	-560
947.420	-90
947.512	-732
947.603	-674
947.695	-1274
947.786	-488
947.878	-720
947.969	91
948.061	-842
948.152	-577
948.243	30
948.335	-517
948.426	-1360
948.517	-732
948.609	-925
948.700	-261
948.791	-937
948.882	-36
948.973	-1580
949.065	-788
949.156	-33
949.247	-665
949.338	-855
949.429	-665
949.520	-1137
949.611	-385
949.702	-469
949.793	-483
949.884	-301
949.975	-716
950.066	-1669
950.157	-1024
950.247	-1980
950.338	-180
950.429	-632
950.520	-599
950.611	-1065
950.701	-404
950.792	-410
950.883	-6
950.973	-592
951.064	-174
951.155	-614
951.245	-932
951.336	-1012
951.427	-721
951.517	-155
951.608	-529
951.698	-665
951.788	-865
951.879	-1367
951.969	-658
952.060	-267
952.150	-136
952.240	-1375
952.331	-986
952.421	-883
952.511	-920
952.602	-528
952.692	-699
952.782	-636
952.872	-1574
952.962	-797
953.052	-495
953.143	-1267
953.233	-825
953.323	-231
953.413	-380
953.503	-590
953.593	-588
953.683	-795
953.773	-943
953.863	-901
953.953	-1024
954.042	-1017
954.132	-476
954.222	-1466
954.312	-740
954.402	-1482
954.492	-1650
954.581	-889
954.671	-273
954.761	-1267
954.850	-533
954.940	-1109
955.030	-1044
955.119	-1144
955.209	-987
955.298	-995
955.388	20
955.477	-778
955.567	-296
955.656	-804
955.746	-398
955.835	-916
955.925	-1038
956.014	-1181
956.103	-514
956.193	-1379
956.282	-420
956.371	-507
956.461	-1133
956.550	-1932
956.639	-998
956.728	-1244
956.817	-835
956.906	-1731
956.995	-586
957.085	-1318
957.174	-1351
957.263	-942
957.352	-1573
957.441	-556
957.530	-1082
957.619	-521
957.708	-791
957.796	-795
957.885	-55
957.974	-1998
958.063	-861
958.152	-1962
958.241	-832
958.329	-1550
958.418	-1065
958.507	-1903
958.596	-1002
958.684	-1138
958.773	-1390
958.861	-1782
958.950	-925
959.039	-1038
959.127	-985
959.216	-1121
959.304	-1184
959.393	-1650
959.481	-1255
959.570	-977
959.658	-504
959.746	-1290
959.835	-1069
959.923	-1310
960.011	-1471
960.100	-1668
960.188	-169
960.276	-1324
960.365	-1600
960.453	-1592
960.541	-1457
960.629	-954
960.717	-992
960.805	-1317
960.893	-1152
960.981	-1179
961.069	-870
961.158	-1491
961.245	-771
961.333	-1688
961.421	-1643
961.509	-1668
961.597	-1305
961.685	-1272
961.773	-875
961.861	-1329
961.949	-1224
962.036	-950
962.124	-1472
962.212	-982
962.299	-1519
962.387	-1392
962.475	-1054
962.562	-1249
962.650	-1299
962.738	-1481
962.825	-2129
962.913	-1198
963.000	-670
963.088	-738
963.175	-1339
963.263	-959
963.350	-1555
963.438	-1714
963.525	-1336
963.612	-1238
963.700	-754
963.787	-579
963.874	-7
963.962	-1392
964.049	-1918
964.136	-1543
964.223	-1626
964.310	-1497
964.398	-933
964.485	-1575
964.572	-1482
964.659	-868
964.746	-1447
964.833	-1958
964.920	-840
965.007	-1686
965.094	-1130
965.181	-1366
965.268	-1202
965.355	-1206
965.441	-968
965.528	-1404
965.615	-809
965.702	-1364
965.789	-1264
965.875	-955
965.962	-1406
966.049	-1151
966.136	-671
966.222	-742
966.309	-933
966.395	-1436
966.482	-904
966.569	-1864
966.655	-1121
966.742	-1765
966.828	-947
966.915	-1586
967.001	-1157
967.087	-1321
967.174	-361
967.260	-1321
967.347	-933
967.433	-1383
967.519	-1736
967.605	-1007
967.692	-1245
967.778	-1001
967.864	-1635
967.950	-1016
968.036	-1483
968.123	-1779
968.209	-1665
968.295	-1248
968.381	-383
968.467	-1204
968.553	-1638
968.639	-866
968.725	-1454
968.811	-1356
968.897	-513
968.983	-1261
969.069	-1270
969.154	-1785
969.240	-1277
969.326	-1713
969.412	-1044
969.497	-1261
969.583	-917
969.669	-938
969.755	-1001
969.840	-840
969.926	-425
970.012	-1803
970.097	-374
970.183	-992
970.268	-745
970.354	-628
970.439	-1617
970.525	-958
970.610	-2023
970.696	-1171
970.781	-1500
970.866	-1902
970.952	-675
971.037	-1163
971.122	-1189
971.208	-1110
971.293	-1386
971.378	-1397
971.463	-1733
971.549	-989
971.634	-1923
971.719	-1312
971.804	-1326
971.889	-1337
971.974	-1375
972.059	-1354
972.144	-503
972.229	-1565
972.314	-1046
972.399	-1836
972.484	-1340
972.569	-1347
972.654	-1293
972.739	-1164
972.824	-1171
972.908	-520
972.993	-1482
973.078	-1688
973.163	-1208
973.247	-1495
973.332	-1740
973.417	-1290
973.501	-1945
973.586	-1510
973.671	-1816
973.755	-1191
973.840	-992
973.924	-1783
974.009	-341
974.093	-2141
974.178	-161
974.262	-1728
974.346	-460
974.431	-2116
974.515	-1494
974.600	-1973
974.684	-2007
974.768	-2196
974.852	-647
974.937	-1202
975.021	-1211
975.105	-1540
975.189	-1019
975.273	-1463
975.358	-1935
975.442	-1551
975.526	-1087
975.610	-2053
975.694	-1449
975.778	-1334
975.862	-1727
975.946	-1860
976.030	-955
976.114	-1674
976.198	-1928
976.281	-1644
976.365	-1577
976.449	-1298
976.533	-1258
976.617	-2227
976.700	-1303
976.784	-1702
976.868	-1252
976.951	-1964
977.035	-822
977.119	-1451
977.202	-1586
977.286	-1703
977.369	-965
977.453	-1227
977.536	-1207
977.620	-1254
977.703	-1065
977.787	-1582
977.870	-416
977.953	-708
978.037	-753
978.120	-1356
978.203	-1540
978.287	-1565
978.370	-1595
978.453	-1753
978.536	-1230
978.620	-1221
978.703	-1624
978.786	-1546
978.869	-1511
978.952	-1404
979.035	-971
979.118	-724
979.201	-977
979.284	-1764
979.367	-1959
979.450	-1962
979.533	-1365
979.616	-2120
979.699	-1457
979.782	-578
979.865	-1278
979.948	-1243
980.030	-1809
980.113	-1095
980.196	-1490
980.279	-2004
980.361	-1578
980.444	-1983
980.526	-2106
980.609	-1461
980.692	-1157
980.774	-1247
980.857	-1416
980.939	-1226
981.022	-820
981.104	-2092
981.187	-1772
981.269	-1128
981.352	-616
981.434	-2244
981.516	-928
981.599	-1376
981.681	-935
981.763	-1477
981.846	-1184
981.928	-1568
982.010	-2100
982.092	-1492
982.174	-1834
982.256	-2444
982.339	-857
982.421	-2062
982.503	-1099
982.585	-2166
982.667	-1394
982.749	-1824
982.831	-1140
982.913	-1709
982.995	-1331
983.077	-1901
983.158	-1771
983.240	-2261
983.322	-1161
983.404	-1033
983.486	-1622
983.568	-1018
983.649	-999
983.731	-1402
983.813	-2238
983.894	-1373
983.976	-1989
984.058	-1595
984.139	-992
984.221	-1969
984.302	-1290
984.384	-1184
984.465	-737
984.547	-1524
984.628	-1257
984.710	-1248
984.791	-1128
984.872	-1408
984.954	-1759
985.035	-1699
985.116	-1345
985.198	-1413
985.279	-1850
985.360	-1208
985.441	-1287
985.522	-1143
985.604	-1389
985.685	-2503
985.766	-986
985.847	-1252
985.928	-972
986.009	-1473
986.090	-1576
986.171	-1689
986.252	-929
986.333	-1381
986.414	-888
986.495	-1784
986.576	-2099
986.656	-1874
986.737	-1048
986.818	-1372
986.899	-1798
986.980	-1701
987.060	-2038
987.141	-2190
987.222	-2711
987.302	-1422
987.383	-1178
987.464	-2227
987.544	-1066
987.625	-1966
987.705	-1888
987.786	-1946
987.866	-1661
987.947	-1652
988.027	-1475
988.108	-1252
988.188	-1586
988.268	-1034
988.349	-887
988.429	-2159
988.509	-1301
988.589	-1640
988.670	-2515
988.750	-1038
988.830	-2073
988.910	-2231
988.990	-1371
989.070	-2157
989.151	-1801
989.231	-1951
989.311	-1245
989.391	-1937
989.471	-2046
989.551	-1937
989.631	-2112
989.711	-1581
989.791	-1112
989.870	-2644
989.950	-1191
990.030	-1878
990.110	-1510
990.190	-2494
990.269	-1840
990.349	-1934
990.429	-1913
990.509	-1136
990.588	-1724
990.668	-1687
990.747	-1564
990.827	-2371
990.907	-1845
990.986	-2033
991.066	-1309
991.145	-2137
991.225	-1694
991.304	-2825
991.383	-868
991.463	-1538
991.542	-1468
991.622	-2399
991.701	-2227
991.780	-2007
991.859	-1301
991.939	-1758
992.018	-1077
992.097	-1325
992.176	-1722
992.256	-2149
992.335	-2775
992.414	-1945
992.493	-2033
992.572	-1380
992.651	-1259
992.730	-1792
992.809	-1529
992.888	-2151
992.967	-1226
993.046	-2367
993.125	-2046
993.203	-1527
993.282	-2720
993.361	-2568
993.440	-1726
993.519	-2324
993.597	-1331
993.676	-2016
993.755	-1439
993.834	-2361
993.912	-2867
993.991	-1559
994.069	-1585
994.148	-1982
994.226	-2583
994.305	-1938
994.384	-1385
994.462	-1376
994.540	-1688
994.619	-1789
994.697	-2849
994.776	-2669
994.854	-1766
994.932	-2418
995.011	-1198
995.089	-2091
995.167	-1940
995.245	-1697
995.324	-1950
995.402	-2639
995.480	-1950
995.558	-2687
995.636	-2372
995.714	-2447
995.792	-1315
995.870	-2440
995.948	-1681
996.026	-2410
996.104	-2592
996.182	-1910
996.260	-1935
996.338	-2377
996.416	-1652
996.494	-2700
996.572	-1588
996.649	-2036
996.727	-2668
996.805	-1602
996.883	-2185
996.960	-1410
997.038	-1868
997.116	-2332
997.193	-2746
997.271	-1616
997.348	-2338
997.426	-1242
997.504	-2309
997.581	-2723
997.658	-2125
997.736	-2614
997.813	-2543
997.891	-2006
997.968	-1820
998.046	-954
998.123	-2677
998.200	-2656
998.277	-2298
998.355	-2565
998.432	-2637
998.509	-2411
998.586	-1714
998.663	-1823
998.741	-1825
998.818	-2226
998.895	-2647
998.972	-2007
999.049	-1437
999.126	-2869
999.203	-2376
999.280	-1660
999.357	-1654
999.434	-2512
999.511	-1851
999.587	-2790
999.664	-2615
999.741	-2040
999.818	-1644
999.895	-1973
999.971	-2419
1000.048	-2707
1000.125	-2186
1000.202	-2432
1000.278	-2670
1000.355	-1485
1000.431	-2663
1000.508	-2433
1000.584	-2249
1000.661	-2319
1000.738	-2356
1000.814	-2669
1000.890	-1910
1000.967	-2462
1001.043	-2686
1001.120	-2849
1001.196	-1776
1001.272	-2417
1001.349	-2222
1001.425	-2804
1001.501	-1999
1001.577	-3029
1001.654	-2394
1001.730	-2206
1001.806	-2706
1001.882	-3118
1001.958	-1936
1002.034	-1672
1002.110	-1900
1002.186	-2250
1002.262	-2581
1002.338	-2845
1002.414	-2804
1002.490	-3219
1002.566	-1708
1002.642	-2441
1002.718	-1896
1002.794	-2284
1002.870	-2319
1002.945	-2296
1003.021	-2560
1003.097	-2837
1003.173	-2057
1003.248	-3252
1003.324	-1995
1003.400	-2380
1003.475	-2444
1003.551	-2333
1003.626	-2201
1003.702	-2791
1003.777	-2247
1003.853	-2925
1003.928	-2616
1004.004	-2502
1004.079	-1873
1004.155	-2913
1004.230	-3238
1004.305	-2038
1004.381	-2508
1004.456	-2035
1004.531	-2023
1004.607	-2673
1004.682	-2511
1004.757	-2793
1004.832	-2178
1004.907	-2789
1004.982	-2027
1005.057	-1938
1005.133	-2431
1005.208	-2959
1005.283	-2288
1005.358	-2266
1005.433	-2299
1005.508	-2373
1005.583	-2468
1005.657	-3020
1005.732	-2931
1005.807	-2706
1005.882	-2759
1005.957	-2750
1006.032	-1814
1006.106	-2276
1006.181	-2228
1006.256	-2704
1006.331	-2593
1006.405	-2433
1006.480	-1730
1006.554	-2783
1006.629	-2031
1006.704	-2841
1006.778	-2413
1006.853	-2023
1006.927	-2697
1007.002	-3098
1007.076	-2931
1007.150	-3012
1007.225	-2585
1007.299	-1710
1007.373	-2735
1007.448	-2235
1007.522	-1536
1007.596	-1780
1007.671	-1637
1007.745	-2030
1007.819	-3509
1007.893	-2477
1007.967	-2064
1008.041	-2888
1008.115	-1849
1008.190	-2663
1008.264	-2091
1008.338	-2356
1008.412	-2559
1008.486	-1521
1008.560	-2593
1008.633	-2906
1008.707	-2291
1008.781	-2442
1008.855	-3026
1008.929	-1954
1009.003	-2338
1009.076	-2525
1009.150	-2517
1009.224	-2290
1009.298	-2409
1009.371	-3451
1009.445	-1944
1009.519	-2429
1009.592	-2511
1009.666	-2202
1009.739	-2713
1009.813	-2940
1009.886	-2056
1009.960	-2368
1010.033	-1623
1010.107	-2661
1010.180	-2354
1010.253	-2232
1010.327	-2953
1010.400	-2072
1010.473	-2333
1010.547	-2044
1010.620	-2035
1010.693	-2396
1010.766	-2182
1010.840	-2347
1010.913	-2339
1010.986	-2503
1011.059	-2093
1011.132	-3103
1011.205	-2261
1011.278	-3125
1011.351	-2393
1011.424	-2890
1011.497	-3003
1011.570	-2578
1011.643	-2588
1011.716	-2524
1011.789	-2925
1011.862	-2480
1011.934	-2525
1012.007	-3147
1012.080	-2836
1012.153	-2714
1012.225	-1916
1012.298	-2814
1012.371	-2563
1012.443	-2345
1012.516	-2834
1012.588	-2702
1012.661	-2547
1012.733	-3199
1012.806	-2005
1012.879	-2609
1012.951	-2031
1013.023	-2534
1013.096	-2693
1013.168	-2730
1013.241	-2523
1013.313	-2618
1013.385	-2504
1013.458	-2405
1013.530	-2538
1013.602	-3637
1013.674	-2509
1013.746	-2710
1013.819	-2470
1013.891	-2351
1013.963	-2280
1014.035	-2828
1014.107	-2061
1014.179	-2266
1014.251	-3149
1014.323	-2436
1014.395	-1960
1014.467	-2713
1014.539	-2623
1014.611	-2778
1014.683	-2685
1014.754	-1960
1014.826	-3040
1014.898	-2808
1014.970	-3329
1015.042	-1959
1015.113	-2325
1015.185	-2822
1015.257	-2119
1015.328	-2483
1015.400	-2658
1015.471	-2501
1015.543	-2489
1015.615	-2361
1015.686	-2607
1015.757	-2919
1015.829	-2408
1015.901	-3058
1015.972	-1697
1016.043	-2625
1016.115	-1884
1016.186	-2633
1016.257	-3037
1016.328	-2598
1016.400	-1289
1016.471	-3140
1016.542	-1864
1016.613	-2778
1016.685	-2108
1016.756	-2440
1016.827	-2481
1016.898	-3423
1016.969	-2303
1017.040	-2535
1017.111	-2117
1017.182	-2628
1017.253	-2179
1017.324	-3373
1017.395	-2614
1017.466	-2416
1017.537	-2053
1017.608	-2954
1017.678	-3063
1017.749	-2469
1017.820	-2177
1017.891	-3419
1017.961	-2617
1018.032	-2514
1018.103	-1611
1018.173	-2352
1018.244	-2323
1018.315	-2869
1018.385	-2436
1018.456	-2108
1018.526	-2750
1018.597	-2755
1018.667	-2273
1018.738	-2648
1018.808	-2859
1018.878	-2777
1018.949	-1801
1019.019	-2410
1019.089	-2355
1019.160	-2557
1019.230	-2976
1019.300	-2229
1019.371	-3542
1019.441	-2643
1019.511	-2209
1019.581	-2326
1019.651	-2207
1019.721	-2788
1019.791	-2700
1019.861	-2749
1019.931	-2153
1020.001	-2424
1020.071	-1798
1020.141	-2540
1020.211	-2820
1020.281	-3199
1020.351	-2451
1020.421	-2607
1020.491	-1756
1020.560	-2536
1020.630	-2527
1020.700	-2729
1020.770	-2003
1020.839	-2347
1020.909	-2982
1020.979	-3506
1021.048	-2485
1021.118	-2011
1021.187	-3011
1021.257	-2210
1021.326	-2561
1021.396	-3085
1021.465	-2720
1021.535	-1539
1021.604	-2156
1021.674	-2526
1021.743	-2349
1021.812	-2208
1021.882	-2212
1021.951	-2234
1022.020	-2298
1022.089	-1996
1022.159	-2005
1022.228	-3026
1022.297	-1960
1022.366	-1929
1022.435	-3312
1022.504	-2012
1022.573	-2515
1022.642	-2982
1022.711	-2252
1022.781	-1866
1022.849	-2447
1022.918	-2407
1022.987	-2503
1023.056	-2607
1023.125	-2112
1023.194	-1959
1023.263	-2125
1023.331	-2261
1023.400	-2645
1023.469	-2276
1023.538	-1979
1023.606	-3315
1023.675	-1996
1023.744	-2745
1023.812	-2593
1023.881	-2341
1023.949	-2371
1024.018	-3333
1024.086	-2577
1024.155	-2971
1024.223	-2767
1024.292	-2780
1024.360	-2070
1024.429	-2782
1024.497	-2440
1024.565	-2451
1024.634	-1818
1024.702	-2535
1024.770	-2311
1024.838	-2786
1024.907	-1917
1024.975	-2586
1025.043	-2109
1025.111	-2261
1025.179	-2549
1025.247	-2555
1025.315	-2103
1025.383	-2442
1025.451	-2067
1025.519	-2253
1025.587	-1955
1025.655	-2345
1025.723	-2487
1025.791	-2230
1025.859	-1698
1025.927	-1672
1025.995	-2117
1026.062	-1848
1026.130	-2013
1026.198	-2758
1026.266	-1899
1026.333	-2053
1026.401	-2233
1026.469	-1986
1026.536	-2088
1026.604	-2053
1026.671	-2252
1026.739	-2995
1026.806	-2043
1026.874	-2596
1026.941	-2247
1027.009	-2107
1027.076	-2742
1027.144	-2815
1027.211	-2515
1027.278	-2288
1027.345	-2630
1027.413	-2248
1027.480	-2660
1027.547	-1827
1027.614	-2736
1027.682	-2818
1027.749	-2630
1027.816	-2249
1027.883	-2216
1027.950	-2318
1028.017	-3038
1028.084	-2181
1028.151	-3359
1028.218	-2452
1028.285	-2047
1028.352	-2601
1028.419	-2635
1028.486	-2559
1028.553	-2649
1028.619	-1921
1028.686	-2633
1028.753	-2667
1028.820	-2382
1028.886	-2220
1028.953	-2521
1029.020	-1890
1029.086	-2283
1029.153	-1811
1029.220	-2402
1029.286	-1692
1029.353	-2471
1029.419	-1893
1029.486	-2228
1029.552	-2660
1029.619	-1628
1029.685	-2531
1029.751	-2535
1029.818	-2287
1029.884	-2492
1029.951	-1949
1030.017	-1821
1030.083	-2617
1030.149	-1943
1030.216	-2757
1030.282	-1546
1030.348	-1796
1030.414	-3055
1030.480	-2785
1030.546	-2650
1030.612	-2531
1030.678	-2975
1030.744	-2076
1030.810	-2703
1030.876	-2354
1030.942	-1995
1031.008	-2930
1031.074	-2158
1031.140	-2500
1031.206	-2308
1031.272	-2858
1031.337	-1794
1031.403	-2355
1031.469	-2317
1031.534	-2462
1031.600	-2449
1031.666	-2257
1031.731	-2646
1031.797	-2548
1031.863	-2425
1031.928	-2546
1031.994	-2555
1032.059	-2233
1032.125	-1783
1032.190	-2485
1032.256	-2985
1032.321	-2558
1032.386	-2718
1032.452	-2536
1032.517	-2725
1032.582	-2196
1032.647	-2783
1032.713	-2175
1032.778	-1823
1032.843	-2488
1032.908	-2482
1032.974	-2513
1033.039	-1991
1033.104	-2203
1033.169	-2311
1033.234	-2944
1033.299	-1217
1033.364	-2089
1033.429	-2400
1033.494	-2837
1033.559	-2944
1033.624	-3157
1033.688	-2091
1033.753	-3144
1033.818	-1808
1033.883	-2090
1033.948	-1876
1034.013	-2701
1034.077	-2120
1034.142	-2031
1034.207	-2118
1034.271	-878
1034.336	-2064
1034.400	-2527
1034.465	-1646
1034.530	-2176
1034.594	-2587
1034.658	-2778
1034.723	-2699
1034.787	-2045
1034.852	-2329
1034.916	-2411
1034.981	-2016
1035.045	-2244
1035.109	-2127
1035.173	-2823
1035.238	-2472
1035.302	-2470
1035.366	-2855
1035.430	-2178
1035.495	-1763
1035.559	-2002
1035.623	-2326
1035.687	-2465
1035.751	-2554
1035.815	-2756
1035.879	-3325
1035.943	-2783
1036.007	-2823
1036.071	-2581
1036.135	-1912
1036.198	-2917
1036.262	-1842
1036.326	-2339
1036.390	-2100
1036.454	-2546
1036.517	-2125
1036.581	-2642
1036.645	-2987
1036.709	-2610
1036.772	-2599
1036.836	-3011
1036.900	-2440
1036.963	-2770
1037.026	-2569
1037.090	-2657
1037.154	-2737
1037.217	-2725
1037.280	-2881
1037.344	-3678
1037.407	-2988
1037.471	-2959
1037.534	-1726
1037.597	-2361
1037.661	-1998
1037.724	-2464
1037.787	-2140
1037.850	-2519
1037.913	-2473
1037.977	-2183
1038.040	-2684
1038.103	-2732
1038.166	-2772
1038.229	-2573
1038.292	-3033
1038.355	-2382
1038.418	-2223
1038.481	-2402
1038.544	-2846
1038.607	-2485
1038.670	-2489
1038.732	-3036
1038.795	-2764
1038.858	-2311
1038.921	-2617
1038.984	-2358
1039.046	-2668
1039.109	-2727
1039.172	-2298
1039.234	-3520
1039.297	-2564
1039.360	-2728
1039.422	-2630
1039.485	-2578
1039.547	-2508
1039.610	-2672
1039.672	-2702
1039.734	-2089
1039.797	-2755
1039.859	-2728
1039.922	-2659
1039.984	-2697
1040.046	-2640
1040.109	-3189
1040.171	-2982
1040.233	-3261
1040.295	-2008
1040.358	-2421
1040.420	-2436
1040.482	-2647
1040.544	-3135
1040.606	-2759
1040.668	-2076
1040.730	-2467
1040.792	-2531
1040.854	-2847
1040.916	-1947
1040.978	-2443
1041.040	-3021
1041.102	-2392
1041.164	-1948
1041.225	-2417
1041.287	-2375
1041.349	-2883
1041.411	-2919
1041.472	-2669
1041.534	-2766
1041.596	-3406
1041.657	-2746
1041.719	-2578
1041.781	-2818
1041.842	-2720
1041.904	-2401
1041.965	-2230
1042.027	-2730
1042.088	-3167
1042.150	-2175
1042.211	-2494
1042.272	-1927
1042.334	-2567
1042.395	-2439
1042.456	-2520
1042.518	-2154
1042.579	-2653
1042.640	-2624
1042.701	-2902
1042.763	-2877
1042.824	-2975
1042.885	-2518
1042.946	-2550
1043.007	-2718
1043.068	-2681
1043.129	-2215
1043.190	-2533
1043.251	-3026
1043.312	-2993
1043.373	-3151
1043.434	-2703
1043.495	-2328
1043.556	-2073
1043.616	-2883
1043.677	-2489
1043.738	-3242
1043.799	-3010
1043.859	-2888
1043.920	-3103
1043.981	-2105
1044.041	-2625
1044.102	-2573
1044.162	-2396
1044.223	-2711
1044.284	-1888
1044.344	-3104
1044.405	-2458
1044.465	-2538
1044.525	-2754
1044.586	-3042
1044.646	-2325
1044.707	-1579
1044.767	-2812
1044.827	-2624
1044.887	-2705
1044.948	-2187
1045.008	-2362
1045.068	-2426
1045.128	-2848
1045.188	-2494
1045.249	-2806
1045.309	-2528
1045.369	-2160
1045.429	-2209
1045.489	-2906
1045.549	-2635
1045.609	-2496
1045.669	-2651
1045.729	-3930
1045.789	-2609
1045.848	-2535
1045.908	-2543
1045.968	-2614
1046.028	-2850
1046.088	-2119
1046.147	-1964
1046.207	-2277
1046.267	-1874
1046.326	-2553
1046.386	-1990
1046.446	-2322
1046.505	-2181
1046.565	-1719
1046.624	-1717
1046.684	-1915
1046.743	-1844
1046.803	-1661
1046.862	-1900
1046.922	0
