'Start Wavelength	183.907
'End Wavelength	1046.922
'Gate Delay	5.000
'Gate Width (ms)	1.050
'Laser Output Level	0.000
'X Position	0.000
'Y Position	0.000
'Z Position	0.000
'Grid Point Number	1.000
'Shot Number	100.000
183.907	652.000
183.977	301.000
184.047	-38
184.116	213
184.186	613
184.256	-2
184.325	-480
184.395	293
184.465	766
184.534	773
184.604	344
184.674	531
184.743	153
184.813	-53
184.883	-192
184.952	199
185.022	389
185.092	538
185.161	-298
185.231	126
185.301	-359
185.370	574
185.440	803
185.509	852
185.579	-257
185.649	436
185.718	462
185.788	763
185.857	555
185.927	871
185.996	42
186.066	-92
186.136	-181
186.205	684
186.275	356
186.344	98
186.414	559
186.483	525
186.553	1086
186.622	891
186.692	937
186.761	318
186.831	615
186.900	263
186.970	841
187.039	892
187.109	1317
187.178	1086
187.248	1128
187.317	607
187.387	867
187.456	736
187.526	311
187.595	776
187.664	348
187.734	863
187.803	460
187.873	1084
187.942	843
188.012	444
188.081	686
188.150	1107
188.220	1648
188.289	1293
188.358	1386
188.428	947
188.497	601
188.567	1038
188.636	794
188.705	646
188.775	838
188.844	955
188.913	1071
188.983	569
189.052	802
189.121	830
189.191	802
189.260	805
189.329	490
189.399	869
189.468	264
189.537	585
189.606	546
189.676	1009
189.745	-30
189.814	1256
189.883	447
189.953	478
190.022	918
190.091	2153
190.161	2351
190.230	870
190.299	648
190.368	582
190.437	545
190.507	984
190.576	677
190.645	616
190.714	583
190.783	910
190.853	750
190.922	1592
190.991	947
191.060	1468
191.129	923
191.198	844
191.268	1125
191.337	853
191.406	1120
191.475	421
191.544	902
191.613	1013
191.682	311
191.752	433
191.821	611
191.890	284
191.959	991
192.028	1255
192.097	555
192.166	936
192.235	805
192.304	200
192.373	474
192.442	920
192.511	359
192.580	479
192.650	383
192.719	1010
192.788	797
192.857	939
192.926	446
192.995	681
193.064	917
193.133	1242
193.202	1610
193.271	1648
193.340	1128
193.409	1932
193.478	1720
193.547	1567
193.615	1241
193.684	2468
193.753	1582
193.822	1316
193.891	908
193.960	1052
194.029	1403
194.098	960
194.167	73
194.236	764
194.305	862
194.374	-367
194.443	828
194.512	755
194.580	1342
194.649	1195
194.718	945
194.787	272
194.856	60
194.925	1957
194.994	1506
195.062	694
195.131	1533
195.200	2205
195.269	2721
195.338	1050
195.407	664
195.475	953
195.544	1567
195.613	2053
195.682	1475
195.751	3004
195.819	1962
195.888	1395
195.957	3714
196.026	1404
196.094	1985
196.163	2784
196.232	1806
196.301	1717
196.369	1701
196.438	1441
196.507	1160
196.576	957
196.644	646
196.713	1014
196.782	1141
196.850	1898
196.919	29
196.988	1221
197.056	509
197.125	730
197.194	230
197.262	850
197.331	819
197.400	513
197.468	1260
197.537	1129
197.606	1890
197.674	2217
197.743	2922
197.812	1593
197.880	3009
197.949	1194
198.017	2249
198.086	1361
198.155	673
198.223	1417
198.292	2908
198.360	1291
198.429	959
198.497	707
198.566	2049
198.635	2068
198.703	657
198.772	1622
198.840	3599
198.909	2384
198.977	1238
199.046	1675
199.114	689
199.183	1346
199.251	1085
199.320	776
199.388	900
199.457	1393
199.525	1542
199.594	1329
199.662	1267
199.731	1267
199.799	1449
199.867	1305
199.936	1182
200.004	1350
200.073	1770
200.141	1134
200.210	1172
200.278	1294
200.346	987
200.415	2080
200.483	1940
200.552	1335
200.620	1049
200.688	765
200.757	500
200.825	782
200.893	1036
200.962	1909
201.030	756
201.098	316
201.167	852
201.235	1388
201.303	1118
201.372	1499
201.440	391
201.508	1880
201.577	1345
201.645	1293
201.713	1144
201.781	919
201.850	1383
201.918	1413
201.986	1416
202.055	1505
202.123	1343
202.191	1422
202.259	911
202.327	1070
202.396	313
202.464	1498
202.532	1480
202.600	5697
202.669	2033
202.737	1345
202.805	1806
202.873	1200
202.941	1445
203.009	1171
203.078	488
203.146	1399
203.214	450
203.282	1973
203.350	1436
203.418	1742
203.487	1081
203.555	1555
203.623	1140
203.691	977
203.759	1184
203.827	852
203.895	2047
203.963	1642
204.031	1252
204.099	1407
204.168	2187
204.236	1838
204.304	2273
204.372	2576
204.440	542
204.508	1266
204.576	1014
204.644	1007
204.712	157
204.780	1224
204.848	1423
204.916	463
204.984	744
205.052	1932
205.120	1954
205.188	2039
205.256	633
205.324	903
205.392	1082
205.460	1473
205.528	1340
205.596	1129
205.664	647
205.732	1273
205.799	4204
205.867	4166
205.935	1234
206.003	1518
206.071	866
206.139	1414
206.207	899
206.275	1811
206.343	1846
206.411	1099
206.478	1336
206.546	1168
206.614	1091
206.682	1316
206.750	1723
206.818	2632
206.885	2119
206.953	905
207.021	1277
207.089	1318
207.157	540
207.225	852
207.292	985
207.360	1446
207.428	1271
207.496	739
207.563	584
207.631	1461
207.699	689
207.767	1104
207.834	1062
207.902	1765
207.970	1749
208.038	1353
208.105	1468
208.173	1043
208.241	1291
208.309	1708
208.376	2593
208.444	4099
208.512	1361
208.579	1298
208.647	2107
208.715	2106
208.782	1945
208.850	1913
208.918	1239
208.985	1505
209.053	1464
209.120	1677
209.188	1322
209.256	1611
209.323	1391
209.391	2739
209.459	2037
209.526	704
209.594	1489
209.661	1353
209.729	1168
209.796	2037
209.864	2026
209.932	1919
209.999	1859
210.067	3144
210.134	1054
210.202	1670
210.269	3413
210.337	2965
210.404	1341
210.472	1981
210.539	1575
210.607	1801
210.674	2223
210.742	1586
210.809	2288
210.877	2912
210.944	2932
211.012	2246
211.079	1638
211.146	1835
211.214	1548
211.281	3955
211.349	2123
211.416	2150
211.484	2434
211.551	2087
211.618	2067
211.686	2222
211.753	1951
211.821	1842
211.888	2011
211.955	2013
212.023	1856
212.090	1863
212.157	1714
212.225	2530
212.292	2981
212.359	7106
212.427	13008
212.494	5069
212.561	2836
212.629	2880
212.696	1992
212.763	2178
212.831	1270
212.898	1961
212.965	1431
213.032	2379
213.100	2189
213.167	2447
213.234	2874
213.301	2646
213.369	1797
213.436	1105
213.503	1530
213.570	2821
213.638	1779
213.705	2061
213.772	1362
213.839	3565
213.906	3338
213.973	3251
214.041	2330
214.108	2597
214.175	2733
214.242	2369
214.309	2342
214.376	2614
214.444	1889
214.511	2244
214.578	1636
214.645	2967
214.712	2491
214.779	3208
214.846	2436
214.913	2428
214.980	3928
215.048	3787
215.115	4844
215.182	3890
215.249	3133
215.316	2393
215.383	2415
215.450	2068
215.517	3203
215.584	2122
215.651	1852
215.718	2782
215.785	3329
215.852	3384
215.919	3826
215.986	3727
216.053	2664
216.120	2635
216.187	2771
216.254	3381
216.321	2807
216.388	2714
216.455	3132
216.522	3422
216.589	4644
216.656	8033
216.722	5410
216.789	3610
216.856	3183
216.923	2718
216.990	3400
217.057	3190
217.124	4354
217.191	4266
217.258	4513
217.324	5221
217.391	3948
217.458	2915
217.525	2040
217.592	2428
217.659	2936
217.725	3366
217.792	5922
217.859	3908
217.926	1575
217.993	2270
218.059	2166
218.126	1856
218.193	1270
218.260	2045
218.327	1780
218.393	2235
218.460	1432
218.527	1982
218.594	3298
218.660	6203
218.727	4933
218.794	3370
218.860	2038
218.927	2107
218.994	1489
219.061	2113
219.127	2735
219.194	4893
219.261	1706
219.327	1791
219.394	1373
219.461	1853
219.527	1414
219.594	4208
219.661	2234
219.727	1864
219.794	1674
219.860	1262
219.927	1781
219.994	4679
220.060	7825
220.127	4902
220.193	3247
220.260	3057
220.326	3695
220.393	5193
220.460	6535
220.526	4848
220.593	2942
220.659	3965
220.726	4147
220.792	7579
220.859	6422
220.925	9768
220.992	11349
221.058	11148
221.125	10231
221.191	7311
221.258	3092
221.324	2813
221.391	3017
221.457	1742
221.524	2495
221.590	3302
221.657	9248
221.723	5533
221.789	7045
221.856	4597
221.922	2656
221.989	3016
222.055	3137
222.121	2863
222.188	5189
222.254	3092
222.321	3269
222.387	1556
222.453	1916
222.520	2661
222.586	1685
222.652	2113
222.719	2722
222.785	2031
222.851	1638
222.918	2023
222.984	3270
223.050	4852
223.116	2210
223.183	2855
223.249	563
223.315	1482
223.382	1979
223.448	1790
223.514	1734
223.580	866
223.647	639
223.713	1400
223.779	1894
223.845	2376
223.911	2300
223.978	1749
224.044	1135
224.110	1910
224.176	1793
224.242	1595
224.309	1505
224.375	1006
224.441	1447
224.507	1785
224.573	2115
224.639	622
224.705	769
224.772	1867
224.838	1210
224.904	2340
224.970	1348
225.036	1908
225.102	2325
225.168	2285
225.234	1756
225.300	1724
225.366	1756
225.432	1758
225.499	1819
225.565	2901
225.631	2496
225.697	1375
225.763	2805
225.829	2614
225.895	3860
225.961	6099
226.027	4047
226.093	4198
226.159	4170
226.225	6139
226.291	13716
226.357	18356
226.423	10601
226.489	7745
226.554	4517
226.620	4708
226.686	7360
226.752	10652
226.818	13719
226.884	28391
226.950	18897
227.016	8320
227.082	6220
227.148	4955
227.214	7098
227.279	8033
227.345	6219
227.411	4849
227.477	5535
227.543	12985
227.609	12091
227.674	8809
227.740	4424
227.806	3805
227.872	2272
227.938	4388
228.003	8371
228.069	3766
228.135	2167
228.201	2250
228.267	3077
228.332	4120
228.398	4571
228.464	3412
228.530	1729
228.595	2211
228.661	2228
228.727	6052
228.792	4286
228.858	2862
228.924	3158
228.990	3975
229.055	4796
229.121	4227
229.187	2205
229.252	3543
229.318	2359
229.384	3785
229.449	3758
229.515	1475
229.581	679
229.646	3454
229.712	3417
229.777	9102
229.843	7011
229.909	6630
229.974	8393
230.040	5549
230.105	4622
230.171	4930
230.236	6617
230.302	9789
230.368	6486
230.433	3614
230.499	3656
230.564	8580
230.630	4012
230.695	2532
230.761	2388
230.826	1783
230.892	6117
230.957	3219
231.023	2304
231.088	2841
231.154	1412
231.219	2952
231.284	4973
231.350	4274
231.415	2547
231.481	2283
231.546	1830
231.612	1874
231.677	1112
231.742	1874
231.808	3052
231.873	2250
231.939	1385
232.004	6201
232.069	5068
232.135	3099
232.200	2788
232.265	2014
232.331	1917
232.396	1930
232.461	1383
232.527	2109
232.592	1085
232.657	2717
232.723	4576
232.788	2723
232.853	1975
232.918	3209
232.984	1892
233.049	1102
233.114	4273
233.179	3207
233.245	6834
233.310	5019
233.375	2481
233.440	2560
233.506	2156
233.571	1511
233.636	1791
233.701	2001
233.766	5224
233.832	5713
233.897	3447
233.962	4063
234.027	4831
234.092	4197
234.157	3319
234.222	4911
234.288	6706
234.353	13728
234.418	11963
234.483	6930
234.548	5566
234.613	4720
234.678	3844
234.743	5965
234.808	14260
234.873	8263
234.938	3659
235.004	3489
235.069	3831
235.134	3774
235.199	3259
235.264	2697
235.329	2050
235.394	3210
235.459	3598
235.524	3717
235.589	2912
235.654	2345
235.719	1507
235.784	2732
235.849	3806
235.913	8191
235.978	9818
236.043	8432
236.108	4108
236.173	3986
236.238	4190
236.303	3014
236.368	2662
236.433	5868
236.498	8210
236.563	5170
236.627	11428
236.692	35061
236.757	20036
236.822	10830
236.887	9651
236.952	7350
237.017	4892
237.081	6678
237.146	8700
237.211	13035
237.276	37427
237.341	51349
237.405	21822
237.470	10621
237.535	7809
237.600	5547
237.664	4742
237.729	3343
237.794	6774
237.859	8663
237.923	7508
237.988	4305
238.053	8134
238.118	7784
238.182	19464
238.247	13313
238.312	8284
238.376	6955
238.441	6424
238.506	5202
238.570	2504
238.635	3802
238.700	2701
238.764	3314
238.829	10461
238.893	8837
238.958	5674
239.023	5802
239.087	3117
239.152	4557
239.216	3605
239.281	3846
239.346	2615
239.410	3426
239.475	4471
239.539	19629
239.604	9161
239.668	4396
239.733	3676
239.797	8610
239.862	19415
239.926	16565
239.991	5737
240.055	3943
240.120	4079
240.184	4479
240.249	3161
240.313	3835
240.378	3824
240.442	12766
240.507	13928
240.571	6390
240.635	10093
240.700	9140
240.764	4600
240.829	3564
240.893	2777
240.957	3417
241.022	12089
241.086	15650
241.151	9061
241.215	4648
241.279	6485
241.344	9054
241.408	4515
241.472	3669
241.537	5128
241.601	4393
241.665	4356
241.730	4095
241.794	5161
241.858	4942
241.922	3913
241.987	4255
242.051	4253
242.115	5497
242.179	4092
242.244	2454
242.308	4139
242.372	5718
242.436	7425
242.501	4328
242.565	3696
242.629	3180
242.693	3657
242.757	3614
242.822	4377
242.886	4273
242.950	4484
243.014	3705
243.078	5791
243.142	5204
243.206	4432
243.271	5125
243.335	5130
243.399	6707
243.463	24633
243.527	40919
243.591	14313
243.655	7802
243.719	4346
243.783	6833
243.847	9423
243.911	10880
243.975	19364
244.040	11344
244.104	7855
244.168	5265
244.232	11469
244.296	11169
244.360	9776
244.424	6525
244.488	5508
244.552	4115
244.615	3547
244.679	3259
244.743	7500
244.807	5872
244.871	4618
244.935	3436
244.999	3556
245.063	4950
245.127	5725
245.191	7459
245.255	6429
245.319	8931
245.383	6531
245.446	5336
245.510	4023
245.574	6226
245.638	5115
245.702	7259
245.766	13917
245.829	8075
245.893	4795
245.957	5088
246.021	5542
246.085	6442
246.149	8873
246.212	22268
246.276	24607
246.340	12263
246.404	8804
246.467	10713
246.531	13711
246.595	8198
246.659	7421
246.722	7965
246.786	10574
246.850	12040
246.913	12002
246.977	5674
247.041	6691
247.104	6889
247.168	7055
247.232	21987
247.295	34260
247.359	14538
247.423	9849
247.486	16512
247.550	9327
247.614	8421
247.677	11265
247.741	7229
247.804	6062
247.868	7025
247.932	21810
247.995	30483
248.059	11876
248.122	7005
248.186	9234
248.249	20438
248.313	60207
248.376	52879
248.440	32455
248.503	13268
248.567	12591
248.630	20177
248.694	23735
248.757	34772
248.821	56880
248.884	32541
248.948	34601
249.011	46553
249.075	69487
249.138	49809
249.202	20987
249.265	14369
249.328	14751
249.392	13346
249.455	9245
249.519	7716
249.582	12111
249.645	19667
249.709	12260
249.772	9298
249.835	7749
249.899	8504
249.962	7916
250.025	8359
250.089	26691
250.152	27512
250.215	14009
250.279	11215
250.342	9797
250.405	9534
250.468	9034
250.532	12253
250.595	16228
250.658	55563
250.721	58678
250.785	27884
250.848	15966
250.911	9490
250.974	9437
251.038	19275
251.101	29568
251.164	15478
251.227	18224
251.290	13343
251.354	19930
251.417	67565
251.480	47255
251.543	46423
251.606	108092
251.669	64997
251.732	34469
251.795	43330
251.859	40083
251.922	71919
251.985	36146
252.048	22020
252.111	16587
252.174	16415
252.237	39311
252.300	63651
252.363	69155
252.426	89364
252.489	41410
252.552	30606
252.615	19919
252.678	21988
252.741	48482
252.804	57848
252.867	89304
252.930	65492
252.993	42633
253.056	28333
253.119	23462
253.182	15743
253.245	20232
253.308	17471
253.371	21316
253.434	20602
253.497	22028
253.559	37086
253.622	24809
253.685	38643
253.748	31012
253.811	16452
253.874	20419
253.937	16694
254.000	14129
254.062	28161
254.125	33128
254.188	45148
254.251	27414
254.314	15763
254.376	31075
254.439	30016
254.502	25130
254.565	31143
254.628	41797
254.690	27218
254.753	15637
254.816	13871
254.878	14991
254.941	29491
255.004	19695
255.067	13550
255.129	14146
255.192	7396
255.255	8684
255.317	10331
255.380	6609
255.443	4781
255.505	6368
255.568	7080
255.631	7565
255.693	8280
255.756	4997
255.819	6549
255.881	5059
255.944	4775
256.006	4685
256.069	6175
256.132	4598
256.194	8945
256.257	17327
256.319	13113
256.382	10406
256.444	7786
256.507	5393
256.569	4776
256.632	6158
256.694	9196
256.757	24599
256.819	46834
256.882	16959
256.944	9930
257.007	9526
257.069	13025
257.132	8223
257.194	6505
257.257	7553
257.319	5925
257.381	6458
257.444	17099
257.506	68131
257.569	64169
257.631	44898
257.693	22336
257.756	10441
257.818	9782
257.880	5130
257.943	6585
258.005	6082
258.067	8510
258.130	7001
258.192	11867
258.254	19163
258.317	8562
258.379	8622
258.441	24857
258.503	14201
258.566	23796
258.628	19638
258.690	6323
258.753	10011
258.815	18849
258.877	8212
258.939	6152
259.001	6435
259.064	6044
259.126	9002
259.188	8683
259.250	7316
259.312	13383
259.375	34690
259.437	15103
259.499	6802
259.561	7738
259.623	9197
259.685	8492
259.747	6697
259.809	23455
259.872	28777
259.934	58999
259.996	53851
260.058	16901
260.120	7217
260.182	6368
260.244	4813
260.306	4514
260.368	5948
260.430	6811
260.492	28446
260.554	40015
260.616	20154
260.678	37648
260.740	29999
260.802	11444
260.864	9781
260.926	8169
260.988	7874
261.050	8949
261.112	40175
261.174	56925
261.236	24415
261.298	10957
261.359	21008
261.421	18863
261.483	8290
261.545	7224
261.607	4738
261.669	5284
261.731	14222
261.793	27201
261.854	13328
261.916	9550
261.978	16111
262.040	12361
262.102	7142
262.164	12489
262.225	7113
262.287	8481
262.349	21934
262.411	11927
262.472	7078
262.534	15624
262.596	19580
262.658	7309
262.719	5223
262.781	10229
262.843	20621
262.904	8777
262.966	8481
263.028	8549
263.090	48646
263.151	80200
263.213	37918
263.275	27255
263.336	9716
263.398	7516
263.459	5096
263.521	7355
263.583	19784
263.644	10728
263.706	5403
263.767	4233
263.829	4383
263.891	4051
263.952	3615
264.014	4760
264.075	23427
264.137	39198
264.198	13468
264.260	5679
264.321	5946
264.383	30697
264.444	53063
264.506	14496
264.567	9499
264.629	31012
264.690	45368
264.752	15313
264.813	9127
264.875	6858
264.936	9004
264.998	6545
265.059	4980
265.120	4562
265.182	7847
265.243	29389
265.305	18466
265.366	7714
265.427	5246
265.489	6218
265.550	3682
265.611	7501
265.673	8826
265.734	7580
265.795	4838
265.857	3907
265.918	3502
265.979	10400
266.040	48248
266.102	24795
266.163	14501
266.224	15767
266.286	7539
266.347	5407
266.408	6406
266.469	5861
266.530	4422
266.592	5206
266.653	15728
266.714	18190
266.775	6339
266.836	5551
266.898	5300
266.959	17474
267.020	7616
267.081	4985
267.142	4119
267.203	4072
267.264	3090
267.326	5517
267.387	4011
267.448	3254
267.509	4339
267.570	4592
267.631	4602
267.692	2847
267.753	4259
267.814	3699
267.875	15355
267.936	23499
267.997	21989
268.058	13281
268.119	6877
268.180	7046
268.241	5150
268.302	5038
268.363	4003
268.424	5760
268.485	7055
268.546	4787
268.607	3627
268.668	3897
268.729	3199
268.790	6447
268.851	8914
268.912	23944
268.972	18996
269.033	10615
269.094	5179
269.155	4902
269.216	4964
269.277	5065
269.338	3554
269.398	4245
269.459	6786
269.520	9530
269.581	13067
269.642	14712
269.702	9285
269.763	6441
269.824	5009
269.885	10373
269.945	11605
270.006	4933
270.067	3986
270.128	4827
270.188	4303
270.249	5212
270.310	3787
270.370	4996
270.431	3747
270.492	2879
270.553	5355
270.613	15879
270.674	25008
270.734	9224
270.795	6119
270.856	11997
270.916	6950
270.977	5723
271.038	7167
271.098	6831
271.159	15391
271.219	10851
271.280	5726
271.340	4183
271.401	7075
271.462	13795
271.522	8778
271.583	6355
271.643	6968
271.704	5462
271.764	7811
271.825	21901
271.885	65521
271.946	59519
272.006	20695
272.066	41758
272.127	46336
272.187	16024
272.248	10800
272.308	13095
272.369	37406
272.429	16584
272.489	25088
272.550	19815
272.610	22629
272.671	13551
272.731	17550
272.791	21626
272.852	12191
272.912	11229
272.972	5565
273.033	6933
273.093	12642
273.153	14822
273.214	9397
273.274	10653
273.334	52180
273.394	53960
273.455	22759
273.515	33426
273.575	51332
273.635	19118
273.696	33668
273.756	46001
273.816	17653
273.876	11664
273.936	29759
273.997	38206
274.057	11961
274.117	9884
274.177	20000
274.237	87040
274.297	47393
274.358	35941
274.418	45187
274.478	30836
274.538	12408
274.598	12212
274.658	35172
274.718	36280
274.778	14102
274.838	8097
274.898	28114
274.958	52870
275.018	52862
275.078	28404
275.138	14451
275.198	8923
275.258	6854
275.318	10470
275.378	22019
275.438	18768
275.498	12040
275.558	32420
275.618	52357
275.678	30686
275.738	31867
275.798	27346
275.858	15441
275.918	7176
275.978	10596
276.038	8111
276.098	6024
276.157	21774
276.217	40592
276.277	18093
276.337	13347
276.397	8503
276.457	11611
276.517	6602
276.576	4570
276.636	5624
276.696	13120
276.756	28851
276.815	14578
276.875	9022
276.935	12085
276.995	8569
277.055	5697
277.114	6052
277.174	14397
277.234	32650
277.293	12726
277.353	8643
277.413	6068
277.472	7863
277.532	6999
277.592	8190
277.651	30261
277.711	31832
277.771	15314
277.830	61380
277.890	29891
277.950	35458
278.009	64382
278.069	20754
278.128	35238
278.188	33617
278.248	18292
278.307	46120
278.367	18783
278.426	9030
278.486	6758
278.545	5882
278.605	4904
278.664	5543
278.724	6356
278.783	28410
278.843	43378
278.902	12459
278.962	11148
279.021	10782
279.081	9922
279.140	9440
279.199	9737
279.259	8877
279.318	8010
279.378	11316
279.437	24088
279.496	88376
279.556	173294
279.615	91237
279.675	29916
279.734	23149
279.793	46336
279.853	59046
279.912	19284
279.971	14230
280.031	12592
280.090	35637
280.149	40751
280.208	34178
280.268	145688
280.327	85335
280.386	27529
280.445	33193
280.505	24123
280.564	16566
280.623	12888
280.682	23474
280.742	24097
280.801	9295
280.860	8130
280.919	10192
280.978	7728
281.037	8070
281.097	6315
281.156	5403
281.215	5191
281.274	9745
281.333	42216
281.392	19142
281.451	7271
281.510	6277
281.569	6531
281.628	4951
281.688	4737
281.747	8996
281.806	7998
281.865	5874
281.924	5853
281.983	5422
282.042	3843
282.101	5886
282.160	5208
282.219	3534
282.278	8315
282.337	25771
282.396	10839
282.454	7290
282.513	12205
282.572	38345
282.631	15061
282.690	7964
282.749	6514
282.808	10022
282.867	9949
282.926	7465
282.985	4904
283.043	4050
283.102	5207
283.161	6614
283.220	27103
283.279	32701
283.338	9651
283.396	8208
283.455	6822
283.514	8852
283.573	13077
283.631	8612
283.690	6559
283.749	6438
283.808	19650
283.866	14643
283.925	5889
283.984	7080
284.043	11443
284.101	9450
284.160	9517
284.219	16670
284.277	8362
284.336	16568
284.395	49956
284.453	25907
284.512	12527
284.570	19399
284.629	12721
284.688	11602
284.746	12031
284.805	13344
284.863	17205
284.922	21321
284.981	22113
285.039	32648
285.098	62226
285.156	157601
285.215	224537
285.273	215607
285.332	122392
285.390	68962
285.449	42415
285.507	29378
285.566	20418
285.624	16306
285.683	12736
285.741	10134
285.799	11329
285.858	10924
285.916	9964
285.975	7820
286.033	7068
286.091	6174
286.150	6729
286.208	8045
286.267	10063
286.325	9890
286.383	15511
286.442	11057
286.500	6403
286.558	5622
286.616	5369
286.675	10296
286.733	7332
286.791	7067
286.850	9246
286.908	14746
286.966	18054
287.024	7967
287.083	6229
287.141	4273
287.199	6446
287.257	10380
287.315	6130
287.374	9433
287.432	21307
287.490	10410
287.548	8205
287.606	6596
287.664	6008
287.723	14609
287.781	15299
287.839	7866
287.897	7640
287.955	7936
288.013	8788
288.071	21213
288.129	112000
288.187	204149
288.245	71021
288.303	29572
288.361	20427
288.419	22092
288.477	12503
288.535	8108
288.593	7033
288.651	6468
288.709	5077
288.767	7105
288.825	6364
288.883	6752
288.941	6204
288.999	5765
289.057	5803
289.115	7539
289.173	7795
289.231	8532
289.289	8420
289.346	7600
289.404	8030
289.462	14238
289.520	12222
289.578	6015
289.636	4674
289.694	4242
289.751	4527
289.809	4276
289.867	4369
289.925	9306
289.983	7947
290.040	4505
290.098	5032
290.156	7000
290.214	7681
290.271	5550
290.329	4991
290.387	4358
290.444	4680
290.502	4058
290.560	6897
290.617	8660
290.675	5904
290.733	7013
290.790	7020
290.848	6342
290.906	9738
290.963	7783
291.021	7792
291.078	7101
291.136	7137
291.194	42678
291.251	50325
291.309	13155
291.366	7342
291.424	8696
291.481	9004
291.539	7397
291.596	5321
291.654	3408
291.711	3420
291.769	8052
291.826	15131
291.884	7389
291.941	4976
291.999	6085
292.056	8472
292.114	7259
292.171	5265
292.228	6304
292.286	9228
292.343	20272
292.401	23412
292.458	14659
292.515	10460
292.573	11981
292.630	10174
292.687	8120
292.745	6881
292.802	18762
292.859	42487
292.917	47283
292.974	19089
293.031	9892
293.089	8621
293.146	6514
293.203	5164
293.260	5857
293.318	14921
293.375	21668
293.432	9504
293.489	6265
293.546	5401
293.604	9172
293.661	30890
293.718	61940
293.775	32644
293.832	16686
293.889	14253
293.947	16407
294.004	9974
294.061	11301
294.118	27791
294.175	59741
294.232	64143
294.289	21152
294.346	13290
294.403	11180
294.460	11362
294.517	9227
294.574	6779
294.631	6823
294.688	6985
294.745	27537
294.802	93641
294.859	84411
294.916	34809
294.973	22736
295.030	18860
295.087	12999
295.144	9405
295.201	9040
295.258	7302
295.315	9625
295.372	34734
295.429	40644
295.486	18776
295.542	15816
295.599	64785
295.656	74198
295.713	55308
295.770	45498
295.827	18297
295.883	12758
295.940	13448
295.997	25247
296.054	17118
296.111	9553
296.167	8678
296.224	7624
296.281	7535
296.338	6983
296.394	6565
296.451	8851
296.508	33873
296.564	49149
296.621	33500
296.678	70515
296.734	72335
296.791	28379
296.848	17749
296.904	22207
296.961	42796
297.018	62170
297.074	36653
297.131	15685
297.187	11018
297.244	16525
297.301	67648
297.357	70086
297.414	24225
297.470	14465
297.527	11582
297.583	9360
297.640	10465
297.696	8587
297.753	8056
297.809	7093
297.866	5155
297.922	6041
297.979	6328
298.035	7712
298.092	14382
298.148	38805
298.204	24445
298.261	13970
298.317	40956
298.374	68572
298.430	29316
298.486	18171
298.543	14213
298.599	11791
298.656	12496
298.712	27216
298.768	41456
298.824	20790
298.881	9606
298.937	7982
298.993	9196
299.050	13569
299.106	10922
299.162	9528
299.218	7897
299.275	6416
299.331	7275
299.387	19390
299.443	63835
299.500	50183
299.556	21649
299.612	13674
299.668	13480
299.724	21256
299.780	15837
299.837	9012
299.893	18463
299.949	63034
300.005	48619
300.061	63463
300.117	78348
300.173	31607
300.229	19650
300.285	28636
300.341	24282
300.397	13835
300.453	8808
300.510	7781
300.566	9169
300.622	12786
300.678	44295
300.734	57535
300.790	51299
300.845	49236
300.901	41565
300.957	60106
301.013	32465
301.069	15575
301.125	14827
301.181	14476
301.237	9409
301.293	8173
301.349	6532
301.405	7073
301.461	7283
301.516	9109
301.572	12513
301.628	20048
301.684	17078
301.740	32230
301.796	32688
301.851	25843
301.907	40536
301.963	31441
302.019	72129
302.074	157326
302.130	118736
302.186	49750
302.242	25927
302.297	18915
302.353	21385
302.409	37432
302.464	24636
302.520	28579
302.576	67638
302.631	60881
302.687	33330
302.743	17164
302.798	11782
302.854	9826
302.910	9843
302.965	16320
303.021	24906
303.076	21054
303.132	32306
303.187	29102
303.243	14872
303.299	10581
303.354	8723
303.410	8226
303.465	7313
303.521	7928
303.576	7507
303.632	8362
303.687	22253
303.743	52111
303.798	32258
303.853	15472
303.909	11225
303.964	10823
304.020	19517
304.075	22509
304.130	24191
304.186	42789
304.241	38812
304.297	30860
304.352	17486
304.358	17051
304.407	13510
304.449	13872
304.463	14003
304.518	13650
304.539	12476
304.573	10554
304.629	10833
304.630	11020
304.684	19756
304.720	39412
304.739	49461
304.794	49203
304.811	42547
304.850	25469
304.902	15697
304.905	15133
304.960	11238
304.992	11259
305.015	11350
305.071	10276
305.083	9948
305.126	8625
305.173	7693
305.181	7560
305.236	7818
305.264	9135
305.292	10752
305.347	14509
305.354	14616
305.402	14656
305.445	13435
305.457	13151
305.512	15324
305.535	15279
305.567	15354
305.622	19402
305.626	19995
305.678	32560
305.716	55771
305.733	64715
305.788	58811
305.807	54810
305.843	46055
305.897	58704
305.898	58879
305.953	47280
305.988	37280
306.008	31654
306.063	25941
306.078	23623
306.118	17094
306.168	11659
306.173	11330
306.228	9349
306.259	9085
306.283	9109
306.338	8850
306.349	8919
306.393	9029
306.440	9492
306.448	9710
306.503	11572
306.530	15544
306.558	26105
306.613	70221
306.620	73258
306.668	82074
306.711	81875
306.723	79154
306.778	50197
306.801	39750
306.833	28731
306.888	15605
306.892	15071
306.943	13741
306.982	12212
306.997	11794
307.052	11987
307.072	12700
307.107	16143
307.162	25673
307.163	25816
307.217	45204
307.253	56840
307.272	59353
307.327	56220
307.343	51764
307.381	37027
307.434	27166
307.436	27972
307.491	64877
307.524	87205
307.546	91332
307.600	70301
307.614	63764
307.655	38738
307.704	18900
307.710	18722
307.765	23823
307.795	34463
307.819	49393
307.874	80873
307.885	81552
307.929	52931
307.975	27243
307.984	25869
308.038	23709
308.065	25289
308.093	37731
308.148	81234
308.156	91564
308.202	169726
308.246	199961
308.257	188279
308.312	102709
308.336	74681
308.366	66934
308.421	50663
308.426	49120
308.475	31161
308.517	19778
308.530	18706
308.585	16523
308.607	15712
308.639	16830
308.694	21246
308.697	22018
308.748	56985
308.787	87761
308.803	89068
308.857	64963
308.877	57084
308.912	44446
308.967	31169
308.967	30946
309.021	33001
309.058	35839
309.076	42922
309.130	71216
309.148	82494
309.185	133997
309.238	231317
309.239	232934
309.293	282692
309.328	280713
309.348	234847
309.402	108990
309.418	76652
309.457	55957
309.508	35344
309.511	35030
309.566	33023
309.598	33771
309.620	40111
309.674	60163
309.688	64680
309.729	65028
309.778	58765
309.783	57412
309.837	41275
309.868	33742
309.892	41894
309.946	68703
309.959	76022
310.001	115467
310.049	150359
310.055	144972
310.109	85921
310.139	55108
310.163	46473
310.218	32345
310.229	29481
310.272	24901
310.319	20595
310.326	20644
310.381	21489
310.409	21823
310.435	21361
310.489	20599
310.499	20468
310.543	23099
310.589	26216
310.598	26921
310.652	31102
310.679	32138
310.706	27760
310.760	19390
310.769	18057
310.814	14941
310.859	12213
310.868	12527
310.923	14183
310.948	15111
310.977	18095
311.031	24224
311.038	24966
311.085	25131
311.128	24625
311.139	23992
311.193	20725
311.218	19201
311.247	18156
311.301	16141
311.308	15875
311.356	17874
311.398	19659
311.410	19526
311.464	18535
311.488	17972
311.518	16752
311.572	14620
311.578	14376
311.626	20784
311.668	26303
311.680	27806
311.734	34284
311.758	37091
311.788	39291
311.842	42826
311.847	43086
311.896	46377
311.937	49342
311.950	50815
312.004	56464
312.027	58685
312.058	46046
312.112	23353
312.117	21035
312.165	20414
312.207	19816
312.297	41488
312.386	40370
312.476	24044
312.566	44584
312.656	26128
312.745	17652
312.835	22544
312.925	27749
313.015	24235
313.104	33237
313.194	16572
313.284	18531
313.374	21366
313.463	22079
313.553	17379
313.643	16643
313.732	15151
313.822	16056
313.912	20081
314.001	23365
314.091	28578
314.180	55170
314.270	30982
314.360	37177
314.449	31252
314.539	20561
314.628	18756
314.718	26181
314.808	38326
314.897	19510
314.987	16511
315.076	20664
315.166	31233
315.255	37503
315.345	28901
315.434	37234
315.524	28020
315.613	35172
315.703	30436
315.792	36486
315.881	70340
315.971	44255
316.060	51514
316.150	108794
316.239	114945
316.328	50762
316.418	17236
316.507	17682
316.597	22055
316.686	25242
316.775	37007
316.865	112069
316.954	29614
317.043	14607
317.133	17421
317.222	17265
317.311	16523
317.400	14954
317.490	18825
317.579	25680
317.668	16938
317.757	24239
317.847	44774
317.936	120446
318.025	77612
318.114	42555
318.203	37214
318.293	56865
318.382	140866
318.471	98690
318.560	122559
318.649	186475
318.738	58883
318.828	26809
318.917	29880
319.006	37563
319.095	115690
319.184	207964
319.273	144704
319.362	66130
319.451	24034
319.540	21704
319.629	42014
319.718	79691
319.807	39652
319.896	69531
319.985	249427
320.074	130128
320.163	40942
320.252	77412
320.341	66217
320.430	66197
320.519	52244
320.608	41060
320.697	34277
320.786	33685
320.875	30159
320.964	38837
321.053	53335
321.142	69747
321.230	88635
321.319	70067
321.408	161150
321.497	94407
321.586	59536
321.675	97174
321.764	109616
321.852	70224
321.941	92026
322.030	66367
322.119	66955
322.207	155288
322.296	169529
322.385	96260
322.474	69166
322.562	159476
322.651	137376
322.740	66396
322.829	121165
322.917	158685
323.006	88182
323.095	56621
323.183	51602
323.272	65029
323.361	88211
323.449	259711
323.538	120077
323.626	198497
323.715	167977
323.804	54069
323.892	193906
323.981	151734
324.069	39091
324.158	103675
324.246	139236
324.335	39808
324.424	60296
324.512	25662
324.601	26014
324.689	34197
324.778	60613
324.866	111592
324.954	38194
325.043	23101
325.131	54147
325.220	125310
325.308	145042
325.397	94676
325.485	73084
325.574	20891
325.662	19952
325.750	19749
325.839	19615
325.927	16410
326.015	26576
326.104	44244
326.192	85578
326.280	22790
326.369	21257
326.457	25725
326.545	44326
326.634	26168
326.722	16245
326.810	18765
326.898	15619
326.987	18107
327.075	42609
327.163	66459
327.251	38579
327.340	23104
327.428	32664
327.516	17160
327.604	21008
327.692	25064
327.781	28002
327.869	63473
327.957	39017
328.045	25608
328.133	14546
328.221	29427
328.309	23577
328.397	15782
328.485	19594
328.574	25424
328.662	76248
328.750	73806
328.838	40947
328.926	20273
329.014	14970
329.102	23381
329.190	81888
329.278	65216
329.366	14395
329.454	15500
329.542	19780
329.630	15719
329.718	17358
329.806	20354
329.893	23491
329.981	29537
330.069	13267
330.157	29885
330.245	100345
330.333	68117
330.421	19271
330.509	22942
330.597	90580
330.684	94591
330.772	41049
330.860	76408
330.948	109558
331.036	51951
331.123	15197
331.211	17681
331.299	30904
331.387	58389
331.475	155948
331.562	51593
331.650	19914
331.738	25989
331.825	51144
331.913	22082
332.001	14525
332.089	25237
332.176	70494
332.264	123675
332.352	136368
332.439	41618
332.527	29371
332.614	24735
332.702	42893
332.790	20011
332.877	47819
332.965	145207
333.052	36663
333.140	24046
333.228	62131
333.315	23073
333.403	22267
333.490	79260
333.578	85897
333.665	38482
333.753	29301
333.840	18561
333.928	22126
334.015	82222
334.103	97670
334.190	266177
334.278	116831
334.365	47375
334.452	37506
334.540	23850
334.627	30815
334.715	49351
334.802	53026
334.889	296231
334.977	382570
335.064	61528
335.151	27828
335.239	29935
335.326	39797
335.413	98510
335.501	208530
335.588	37592
335.675	25813
335.762	35153
335.850	83268
335.937	37766
336.024	67049
336.111	340612
336.199	225327
336.286	47702
336.373	23425
336.460	18312
336.547	18412
336.635	27594
336.722	24288
336.809	23687
336.896	26595
336.983	71937
337.070	212733
337.157	276582
337.245	213983
337.332	204447
337.419	34157
337.506	21806
337.593	25577
337.680	59428
337.767	260460
337.854	89294
337.941	105390
338.028	125757
338.115	53681
338.202	47900
338.289	70911
338.376	223492
338.463	102812
338.550	120720
338.637	185164
338.724	53912
338.811	121403
338.898	30706
338.984	18964
339.071	34586
339.158	25106
339.245	58721
339.332	50393
339.419	62872
339.506	91866
339.593	15290
339.679	13730
339.766	14718
339.853	22574
339.940	41330
340.027	21785
340.113	15913
340.200	23750
340.287	22032
340.374	21354
340.460	36512
340.547	20016
340.634	21523
340.720	77363
340.807	67465
340.894	12750
340.980	16660
341.067	15138
341.154	17018
341.240	18561
341.327	48213
341.414	19391
341.500	16820
341.587	17244
341.674	15013
341.760	27914
341.847	42963
341.933	18073
342.020	8534
342.106	9126
342.193	12716
342.279	27869
342.366	18631
342.452	34570
342.539	20314
342.625	31757
342.712	92062
342.798	49311
342.885	24032
342.971	10961
343.058	9945
343.144	11025
343.230	11246
343.317	10063
343.403	10704
343.490	8721
343.576	10587
343.662	10688
343.749	13934
343.835	17198
343.921	23015
344.008	85695
344.094	281164
344.180	90925
344.267	28876
344.353	75796
344.439	152264
344.525	63694
344.612	23141
344.698	16341
344.784	17030
344.870	9999
344.957	10431
345.043	19109
345.129	15426
345.215	32100
345.301	21468
345.387	14399
345.474	11615
345.560	13014
345.646	23630
345.732	19665
345.818	16216
345.904	15165
345.990	18759
346.076	20336
346.162	58478
346.249	24296
346.335	12670
346.421	11160
346.507	24338
346.593	113379
346.679	47081
346.765	21618
346.851	15319
346.937	17567
347.023	11850
347.108	13319
347.194	14100
347.280	12771
347.366	13600
347.452	26454
347.538	122298
347.624	113914
347.710	133247
347.796	38607
347.882	17447
347.967	15852
348.053	34102
348.139	25619
348.225	13731
348.311	11806
348.397	10353
348.482	13547
348.568	21306
348.654	11178
348.740	14403
348.825	17878
348.911	17667
348.997	48382
349.083	145680
349.168	49423
349.254	13114
349.340	15624
349.425	11376
349.511	15218
349.597	26454
349.682	27073
349.768	85790
349.854	63565
349.939	23014
350.025	13428
350.110	11748
350.196	9118
350.282	8779
350.367	10020
350.453	28695
350.538	43189
350.624	21099
350.709	27034
350.795	13500
350.880	12271
350.966	13143
351.051	26904
351.137	32415
351.222	13022
351.308	22514
351.393	86440
351.479	32381
351.564	10809
351.649	12107
351.735	12693
351.820	8558
351.906	10708
351.991	17798
352.076	45476
352.162	94854
352.247	24422
352.332	14556
352.418	23238
352.503	28928
352.588	101389
352.673	136268
352.759	30358
352.844	16228
352.929	13956
353.014	25559
353.100	17497
353.185	31169
353.270	43689
353.355	45550
353.441	16375
353.526	19070
353.611	32604
353.696	47454
353.781	24827
353.866	14400
353.952	11136
354.037	27185
354.122	71452
354.207	71161
354.292	36104
354.377	13647
354.462	10737
354.547	16949
354.632	18660
354.717	35778
354.802	48944
354.887	22456
354.972	11215
355.057	9362
355.142	9070
355.227	12266
355.312	19954
355.397	40710
355.482	105534
355.567	75458
355.652	38639
355.737	44331
355.822	79678
355.907	109697
355.991	18330
356.076	12088
356.161	12257
356.246	10254
356.331	10332
356.416	19356
356.501	104131
356.585	184540
356.670	36289
356.755	19351
356.840	23403
356.924	86679
357.009	345414
357.094	208742
357.179	42604
357.263	33691
357.348	28996
357.433	40425
357.517	27779
357.602	22856
357.687	16820
357.771	23305
357.856	41725
357.941	32651
358.025	51998
358.110	280121
358.195	218330
358.279	37352
358.364	21847
358.448	58545
358.533	187943
358.617	172475
358.702	144419
358.787	76835
358.871	34347
358.956	37282
359.040	14743
359.125	9670
359.209	11336
359.294	17074
359.378	32210
359.462	29227
359.547	24515
359.631	24719
359.716	13977
359.800	15134
359.885	35363
359.969	22065
360.053	12101
360.138	12487
360.222	16942
360.306	33230
360.391	33247
360.475	31253
360.559	76078
360.644	77067
360.728	79030
360.812	58460
360.896	207376
360.981	140384
361.065	114946
361.149	24894
361.233	23524
361.318	20808
361.402	23783
361.486	20240
361.570	13136
361.654	16532
361.739	33596
361.823	109527
361.907	232443
361.991	63711
362.075	26815
362.159	64744
362.243	57052
362.327	49168
362.411	64432
362.495	46151
362.580	25855
362.664	17811
362.748	15755
362.832	17583
362.916	26324
363.000	68461
363.084	185334
363.168	287441
363.252	101883
363.336	36999
363.420	41856
363.503	133942
363.587	248754
363.671	55028
363.755	30037
363.839	46636
363.923	23628
364.007	33466
364.091	54683
364.175	62212
364.258	231832
364.342	224902
364.426	187931
364.510	143002
364.594	66498
364.677	58075
364.761	148413
364.845	171545
364.929	56667
365.013	58702
365.096	37502
365.180	55948
365.264	51405
365.347	241478
365.431	182273
365.515	65365
365.598	22507
365.682	17023
365.766	40852
365.849	84092
365.933	30535
366.017	38841
366.100	50042
366.184	18286
366.267	17431
366.351	14017
366.435	12408
366.518	10833
366.602	9291
366.685	12466
366.769	15954
366.852	32920
366.936	75587
367.019	36590
367.103	28785
367.186	82843
367.270	31093
367.353	10931
367.436	12543
367.520	12507
367.603	16067
367.687	22358
367.770	43098
367.853	27148
367.937	44444
368.020	113370
368.104	41400
368.187	28928
368.270	46082
368.353	45367
368.437	55162
368.520	175473
368.603	133659
368.687	70970
368.770	156449
368.853	63867
368.936	47971
369.020	83561
369.103	32021
369.186	19291
369.269	25524
369.352	26537
369.436	54574
369.519	41406
369.602	25457
369.685	19560
369.768	22280
369.851	20643
369.934	14336
370.018	18925
370.101	37824
370.184	38698
370.267	33270
370.350	52768
370.433	79494
370.516	107365
370.599	152926
370.682	62473
370.765	84163
370.848	100283
370.931	162570
371.014	117515
371.097	30141
371.180	15935
371.263	9793
371.346	9711
371.429	10844
371.511	13347
371.594	26052
371.677	46483
371.760	80606
371.843	40844
371.926	79205
372.009	267713
372.091	132139
372.174	63749
372.257	140648
372.340	87912
372.423	73022
372.505	141084
372.588	63548
372.671	42392
372.754	146225
372.836	114497
372.919	65040
373.002	192732
373.085	80590
373.167	30959
373.250	62197
373.332	137721
373.415	154959
373.498	347194
373.580	199429
373.663	135833
373.746	266374
373.828	90620
373.911	43927
373.993	38783
374.076	131145
374.159	213824
374.241	71403
374.324	127645
374.406	126916
374.489	74869
374.571	268321
374.654	180352
374.736	57660
374.819	161396
374.901	234293
374.983	297060
375.066	83077
375.148	29154
375.231	87764
375.313	267666
375.395	162210
375.478	38731
375.560	18866
375.643	21666
375.725	49116
375.807	197452
375.890	262417
375.972	198954
376.054	84474
376.136	156739
376.219	95088
376.301	49693
376.383	181762
376.465	111401
376.548	57245
376.630	62826
376.712	149479
376.794	116815
376.877	19233
376.959	12396
377.041	17084
377.123	45472
377.205	86808
377.287	21606
377.369	9592
377.452	12901
377.534	11569
377.616	12097
377.698	13353
377.780	11087
377.862	12896
377.944	13819
378.026	11150
378.108	10624
378.190	10927
378.272	11302
378.354	7560
378.436	9329
378.518	20734
378.600	102327
378.682	95225
378.764	85936
378.846	104403
378.928	41038
379.010	48056
379.091	30165
379.173	13092
379.255	11884
379.337	17439
379.419	37368
379.501	130960
379.583	92473
379.664	25665
379.746	35841
379.828	91563
379.910	135697
379.991	138038
380.073	37515
380.155	20762
380.237	17791
380.318	13316
380.400	15294
380.482	22898
380.564	48063
380.645	47506
380.727	54272
380.809	30282
380.890	22269
380.972	18568
381.053	15297
381.135	16916
381.217	28421
381.298	102074
381.380	84485
381.461	44161
381.543	124580
381.624	236570
381.706	69587
381.787	39633
381.869	43507
381.951	51167
382.032	223560
382.113	231891
382.195	76235
382.276	45103
382.358	59940
382.439	142818
382.521	154253
382.602	239795
382.684	142066
382.765	190740
382.846	256948
382.928	226667
383.009	163294
383.090	78943
383.172	226274
383.253	482586
383.334	237927
383.416	227879
383.497	165693
383.578	54239
383.659	83942
383.741	201902
383.822	595794
383.903	462480
383.984	154781
384.066	279131
384.147	251954
384.228	63453
384.309	37673
384.390	35009
384.471	25823
384.553	27695
384.634	39874
384.715	46509
384.796	24531
384.877	21835
384.958	65110
385.039	126226
385.120	58681
385.201	24843
385.282	41440
385.363	59056
385.444	41138
385.525	43353
385.606	123502
385.687	138162
385.768	50748
385.849	60325
385.930	101051
386.011	225170
386.092	102693
386.173	30203
386.254	28515
386.335	33036
386.416	28214
386.496	62104
386.577	125109
386.658	87109
386.739	53964
386.820	55143
386.901	55315
386.981	41293
387.062	23399
387.143	25187
387.224	82996
387.304	125129
387.385	62073
387.466	49934
387.547	75780
387.627	49327
387.708	37206
387.789	127580
387.869	217773
387.950	87152
388.031	22402
388.111	28041
388.192	83146
388.273	158993
388.353	105514
388.434	33943
388.514	30491
388.595	100360
388.676	194283
388.756	126265
388.837	95277
388.917	88864
388.998	28108
389.078	21624
389.159	16219
389.239	15530
389.320	25118
389.400	27364
389.480	41111
389.561	114138
389.641	79753
389.722	25714
389.802	42313
389.883	49364
389.963	106271
390.043	126463
390.124	76524
390.204	46517
390.284	111829
390.365	101602
390.445	97855
390.525	188394
390.605	126802
390.686	70559
390.766	28572
390.846	16975
390.927	12568
391.007	18392
391.087	22945
391.167	27371
391.247	21770
391.328	38886
391.408	72412
391.488	65287
391.568	20762
391.648	19573
391.728	27620
391.808	25522
391.888	29223
391.969	45722
392.049	102329
392.129	73818
392.209	57185
392.289	103439
392.369	91451
392.449	104766
392.529	89245
392.609	42687
392.689	43122
392.769	90720
392.849	121733
392.929	79259
393.009	191799
393.089	174499
393.169	109900
393.248	234185
393.328	729819
393.408	1064119
393.488	472622
393.568	141120
393.648	70029
393.728	44224
393.807	33682
393.887	27373
393.967	22946
394.047	24080
394.127	27104
394.206	30635
394.286	53793
394.366	235964
394.446	412411
394.525	126383
394.605	32167
394.685	32801
394.764	104566
394.844	201924
394.924	181612
395.003	48622
395.083	24761
395.163	21263
395.242	18678
395.322	20409
395.402	15229
395.481	19546
395.561	49615
395.640	193138
395.720	176351
395.799	178776
395.879	199736
395.958	55523
396.038	69702
396.117	309710
396.197	541129
396.276	237136
396.356	115174
396.435	104788
396.515	73062
396.594	53259
396.673	88882
396.753	217122
396.832	705130
396.912	806397
396.991	290289
397.070	78540
397.150	43125
397.229	30896
397.308	31631
397.388	61167
397.467	43038
397.546	18593
397.625	16109
397.705	19808
397.784	23545
397.863	17558
397.942	12253
398.022	14266
398.101	42799
398.180	180325
398.259	168417
398.338	50359
398.417	22511
398.497	20048
398.576	21980
398.655	14585
398.734	11560
398.813	12158
398.892	35373
398.971	173605
399.050	153606
399.129	25762
399.208	10305
399.287	13190
399.366	10347
399.445	11996
399.524	13239
399.603	11211
399.682	18608
399.761	46255
399.840	159204
399.919	209566
399.998	46918
400.077	13056
400.156	9707
400.235	16113
400.313	18062
400.392	20782
400.471	42589
400.550	100310
400.629	48147
400.708	19239
400.786	22975
400.865	62745
400.944	100117
401.023	46582
401.102	10578
401.180	8989
401.259	13602
401.338	20570
401.416	23859
401.495	22152
401.574	23336
401.652	18762
401.731	22444
401.810	30478
401.888	17102
401.967	7315
402.046	10137
402.124	17047
402.203	33759
402.281	21204
402.360	18690
402.438	73844
402.517	93576
402.596	30286
402.674	31429
402.753	22299
402.831	13126
402.910	12898
402.988	34741
403.066	144796
403.145	131089
403.223	44832
403.302	114071
403.380	115065
403.459	105857
403.537	67562
403.615	29683
403.694	11851
403.772	6664
403.850	7087
403.929	7187
404.007	8211
404.085	19272
404.164	33999
404.242	14707
404.320	9232
404.398	13744
404.477	28333
404.555	143803
404.633	218981
404.711	48927
404.789	11270
404.868	13146
404.946	12281
405.024	7152
405.102	6474
405.180	7336
405.258	6529
405.336	8605
405.415	9258
405.493	29127
405.571	36886
405.649	12293
405.727	10289
405.805	19472
405.883	20062
405.961	18953
406.039	37514
406.117	21274
406.195	12418
406.273	32532
406.351	153397
406.429	170417
406.507	54277
406.585	25732
406.663	11088
406.740	15113
406.818	17724
406.896	13450
406.974	10077
407.052	15010
407.130	74450
407.208	173737
407.285	56729
407.363	10644
407.441	10830
407.519	9347
407.596	9367
407.674	16085
407.752	23020
407.830	59983
407.907	68845
407.985	24149
408.063	10353
408.141	6196
408.218	21231
408.296	36432
408.373	18939
408.451	13545
408.529	11958
408.606	7767
408.684	5576
408.762	4393
408.839	3952
408.917	4281
408.994	5729
409.072	9031
409.149	8801
409.227	12459
409.304	22723
409.382	15114
409.459	12143
409.537	18337
409.614	20012
409.692	14002
409.769	11230
409.846	18544
409.924	30734
410.001	35268
410.079	19911
410.156	10893
410.233	10830
410.311	7623
410.388	7081
410.465	12066
410.543	22179
410.620	11756
410.697	7974
410.775	12214
410.852	8534
410.929	11795
411.006	24006
411.083	15826
411.161	37244
411.238	59121
411.315	35638
411.392	13336
411.469	15281
411.547	29597
411.624	17154
411.701	15479
411.778	9649
411.855	20494
411.932	18610
412.009	10465
412.086	9430
412.163	11917
412.240	20722
412.317	25352
412.394	33406
412.471	12072
412.548	5916
412.625	7326
412.702	11926
412.779	33205
412.856	30513
412.933	10484
413.010	8200
413.087	9065
413.164	41488
413.241	94346
413.318	35970
413.395	13881
413.471	27982
413.548	17709
413.625	7401
413.702	15309
413.779	18654
413.855	6642
413.932	3929
414.009	5707
414.086	5659
414.162	5427
414.239	10186
414.316	40189
414.393	108668
414.469	67272
414.546	9817
414.623	5995
414.699	5937
414.776	8801
414.853	8080
414.929	8031
415.006	9971
415.082	18014
415.159	17132
415.236	8134
415.312	7376
415.389	11888
415.465	21879
415.542	15150
415.618	6190
415.695	13268
415.771	11727
415.848	10647
415.924	11837
416.000	14097
416.077	8903
416.153	4329
416.230	2656
416.306	3452
416.383	7163
416.459	7409
416.535	3931
416.612	4937
416.688	6402
416.764	3937
416.841	4693
416.917	6630
416.993	8130
417.069	8485
417.146	15001
417.222	13257
417.298	11204
417.374	7396
417.451	8613
417.527	9716
417.603	12525
417.679	9435
417.755	7214
417.831	5057
417.908	3757
417.984	5300
418.060	5112
418.136	12264
418.212	25383
418.288	13203
418.364	7933
418.440	6711
418.516	13264
418.592	26451
418.668	43821
418.744	42191
418.820	36765
418.896	14422
418.972	6187
419.048	5768
419.124	14566
419.200	19541
419.276	6583
419.352	3707
419.428	3690
419.504	5723
419.579	10034
419.655	7963
419.731	6697
419.807	18016
419.883	43485
419.959	41908
420.034	14179
420.110	15167
420.186	51857
420.262	73279
420.337	19674
420.413	14174
420.489	7576
420.565	6716
420.640	5426
420.716	7002
420.792	5406
420.867	6655
420.943	6641
421.019	12036
421.094	14907
421.170	8387
421.245	6697
421.321	6746
421.397	7584
421.472	7395
421.548	10506
421.623	15466
421.699	12359
421.774	12275
421.850	10693
421.925	17363
422.001	20165
422.076	14678
422.152	16637
422.227	25525
422.302	31622
422.378	39177
422.453	69262
422.529	136824
422.604	326897
422.679	527955
422.755	501550
422.830	274949
422.905	105835
422.981	58070
423.056	37337
423.131	27261
423.207	21384
423.282	19979
423.357	28958
423.432	28500
423.508	20675
423.583	38947
423.658	43970
423.733	17910
423.808	22718
423.883	20427
423.959	16966
424.034	13141
424.109	11759
424.184	7899
424.259	6516
424.334	6722
424.409	6030
424.484	5803
424.559	7950
424.634	7341
424.709	9258
424.784	13549
424.859	9028
424.934	13071
425.009	38913
425.084	84859
425.159	53276
425.234	12426
425.309	5068
425.384	6872
425.459	13673
425.534	9760
425.609	12760
425.683	12690
425.758	6746
425.833	8982
425.908	12213
425.983	20422
426.058	80531
426.132	68986
426.207	20996
426.282	25300
426.357	42911
426.431	14410
426.506	7709
426.581	11938
426.655	11662
426.730	8002
426.805	6649
426.879	9984
426.954	9705
427.029	16499
427.103	49559
427.178	151547
427.253	120886
427.327	23888
427.402	19346
427.476	51251
427.551	34041
427.625	15805
427.700	21173
427.774	11442
427.849	17726
427.923	13666
427.998	8797
428.072	12143
428.147	23103
428.221	49612
428.296	155268
428.370	136172
428.444	29301
428.519	34569
428.593	70593
428.667	83389
428.742	75157
428.816	78253
428.890	105065
428.965	221870
429.039	107521
429.113	99130
429.188	60801
429.262	14544
429.336	13032
429.410	41328
429.485	46941
429.559	52890
429.633	74989
429.707	22086
429.781	25489
429.855	128666
429.930	277965
430.004	188242
430.078	249857
430.152	259546
430.226	170277
430.300	230933
430.374	67884
430.448	21567
430.522	44744
430.596	188852
430.670	173442
430.744	119826
430.818	272125
430.892	106740
430.966	17770
431.040	11166
431.114	7245
431.188	9297
431.262	9351
431.336	12088
431.410	20709
431.484	81676
431.557	81329
431.631	14604
431.705	7975
431.779	18630
431.853	101387
431.927	141391
432.000	29292
432.074	8733
432.148	15169
432.222	22433
432.295	9165
432.369	7327
432.443	9957
432.516	46891
432.590	157570
432.664	114756
432.737	22161
432.811	6228
432.885	4035
432.958	3852
433.032	4900
433.106	4768
433.179	3639
433.253	3622
433.326	5387
433.400	3532
433.473	3831
433.547	3623
433.620	3372
433.694	8357
433.767	15110
433.841	11516
433.914	5344
433.988	3597
434.061	5140
434.134	7041
434.208	4223
434.281	2920
434.355	3016
434.428	5099
434.501	4115
434.575	3478
434.648	8694
434.721	5652
434.795	2759
434.868	2713
434.941	1715
435.014	2144
435.088	2697
435.161	4603
435.234	7606
435.307	17449
435.381	10767
435.454	7981
435.527	9015
435.600	10956
435.673	8286
435.746	6154
435.819	4780
435.892	5579
435.966	4051
436.039	5633
436.112	8133
436.185	2999
436.258	3271
436.331	1918
436.404	1989
436.477	1864
436.550	2685
436.623	2496
436.696	2324
436.769	5091
436.842	5496
436.915	6721
436.987	13840
437.060	8724
437.133	4290
437.206	4164
437.279	6563
437.352	4166
437.425	2828
437.498	4150
437.570	10163
437.643	14968
437.716	5990
437.789	3571
437.861	11480
437.934	55076
438.007	47462
438.080	7754
438.152	5641
438.225	7402
438.298	38640
438.370	178771
438.443	153516
438.516	63722
438.588	20263
438.661	5163
438.734	5057
438.806	7795
438.879	10523
438.951	10913
439.024	33400
439.096	19912
439.169	5843
439.241	4085
439.314	4162
439.386	14223
439.459	26742
439.531	44009
439.604	28849
439.676	5451
439.749	3119
439.821	3585
439.893	3534
439.966	5925
440.038	10782
440.110	14427
440.183	7558
440.255	4380
440.327	7605
440.400	25113
440.472	125062
440.544	147851
440.617	30967
440.689	20206
440.761	26900
440.833	48942
440.905	46520
440.978	11127
441.050	4395
441.122	4056
441.194	3952
441.266	4768
441.338	4538
441.411	5885
441.483	31337
441.555	87625
441.627	37079
441.699	22598
441.771	32397
441.843	15855
441.915	4862
441.987	4714
442.059	4546
442.131	7947
442.203	20148
442.275	21911
442.347	21547
442.419	15296
442.491	43396
442.563	164438
442.635	142987
442.706	78489
442.778	87687
442.850	21458
442.922	9004
442.994	11420
443.066	20499
443.137	19040
443.209	11808
443.281	13560
443.353	25246
443.425	70785
443.496	231122
443.568	350660
443.640	183501
443.711	48326
443.783	17408
443.855	14102
443.926	8248
443.998	9047
444.070	18819
444.141	16548
444.213	18349
444.285	19118
444.356	20211
444.428	27262
444.499	15977
444.571	6156
444.642	5195
444.714	6681
444.785	12166
444.857	20366
444.928	63484
445.000	62744
445.071	39842
445.143	70313
445.214	36212
445.285	32455
445.357	103422
445.428	180248
445.500	402928
445.571	413614
445.642	231475
445.714	103821
445.785	125288
445.856	57668
445.928	20319
445.999	24378
446.070	24459
446.141	16234
446.213	19875
446.284	17897
446.355	17606
446.426	16744
446.497	11001
446.569	18311
446.640	35706
446.711	21064
446.782	8772
446.853	14670
446.924	20961
446.995	12629
447.066	10111
447.138	25691
447.209	24519
447.280	5822
447.351	4068
447.422	3294
447.493	10774
447.564	14331
447.635	13673
447.706	9592
447.777	4371
447.847	3457
447.918	4892
447.989	11886
448.060	18044
448.131	42598
448.202	52576
448.273	23890
448.344	14783
448.414	6087
448.485	5057
448.556	5028
448.627	3667
448.698	2695
448.768	2948
448.839	5242
448.910	20453
448.981	30852
449.051	9702
449.122	4306
449.193	3375
449.263	4389
449.334	5390
449.405	5297
449.475	14636
449.546	18602
449.616	23397
449.687	33627
449.758	9702
449.828	5895
449.899	3741
449.969	4294
450.040	3697
450.110	7864
450.181	16944
450.251	7385
450.322	4500
450.392	5250
450.463	6384
450.533	4361
450.604	5438
450.674	6048
450.744	5323
450.815	5044
450.885	5830
450.955	5149
451.026	4671
451.096	5861
451.166	10652
451.237	18556
451.307	75814
451.377	52751
451.447	9718
451.518	5215
451.588	6398
451.658	6426
451.728	8886
451.799	48693
451.869	109006
451.939	37505
452.009	8181
452.079	5130
452.149	6758
452.219	11741
452.289	64890
452.360	94857
452.430	21934
452.500	8475
452.570	10531
452.640	13460
452.710	36227
452.780	97248
452.850	55901
452.920	37582
452.990	19752
453.060	10102
453.129	11911
453.199	17219
453.269	37571
453.339	162006
453.409	286484
453.479	195344
453.549	331378
453.619	424631
453.688	270277
453.758	47517
453.828	13590
453.898	9192
453.968	10487
454.037	8186
454.087	7371
454.107	7034
454.168	6054
454.177	5901
454.247	5754
454.249	5765
454.316	5521
454.330	5991
454.386	7470
454.411	14962
454.456	26777
454.492	53424
454.525	77255
454.574	47625
454.595	34954
454.655	12232
454.665	8582
454.734	8564
454.736	8880
454.804	17171
454.817	24143
454.873	50645
454.898	70406
454.943	106244
454.979	77674
455.013	52379
455.060	29085
455.082	19024
455.141	13637
455.152	12302
455.221	29965
455.222	30923
455.291	95311
455.303	87924
455.360	57000
455.384	42526
455.430	16838
455.465	19107
455.499	20067
455.546	47284
455.569	58660
455.627	63736
455.638	65465
455.707	15723
455.708	15672
455.777	6459
455.789	6652
455.846	7274
455.869	6861
455.916	6199
455.950	5853
455.985	5323
456.031	7855
456.054	9111
456.112	7138
456.124	6780
456.193	5300
456.193	5273
456.262	6864
456.274	7591
456.332	10318
456.355	12398
456.401	15739
456.436	14379
456.470	13237
456.516	7550
456.540	4949
456.597	3827
456.609	3493
456.678	3890
456.678	3881
456.747	3768
456.759	3705
456.817	2822
456.840	2888
456.886	3313
456.920	3576
456.955	3820
457.001	4338
457.024	4973
457.082	7377
457.093	7776
457.162	12625
457.163	12680
457.232	19727
457.243	19138
457.301	15572
457.324	11870
457.370	5994
457.405	5061
457.439	4338
457.485	4717
457.508	4905
457.566	5739
457.577	5946
457.646	7279
457.647	7324
457.715	12034
457.727	12990
457.784	18067
457.808	20596
457.853	23081
457.889	30412
457.922	34576
457.969	28346
457.991	28734
458.050	28519
458.060	28486
458.129	39446
458.130	40027
458.198	48236
458.211	45263
458.267	34789
458.292	25887
458.336	15730
458.372	13834
458.405	14809
458.453	19858
458.474	23912
458.533	38831
458.543	39837
458.611	65434
458.614	66417
458.680	64246
458.694	54548
458.749	31673
458.775	23080
458.818	11800
458.855	9923
458.887	8379
458.936	7575
458.955	7363
459.016	8246
459.024	8272
459.093	8188
459.097	8153
459.162	8075
459.177	8294
459.230	9186
459.257	9832
459.299	10663
459.338	11094
459.368	11493
459.418	13721
459.437	13577
459.499	11850
459.505	11862
459.574	7216
459.579	7183
459.643	7484
459.659	7439
459.711	7075
459.740	6938
459.780	7420
459.820	8530
459.849	8917
459.900	9498
459.917	9355
459.981	10274
459.986	10336
460.054	7204
460.061	7051
460.123	7352
460.141	7524
460.191	7923
460.222	8323
460.260	8856
460.302	10223
460.328	9908
460.382	8976
460.397	9181
460.462	7312
460.465	7248
460.534	8127
460.543	8167
460.602	10518
460.623	11817
460.671	16042
460.703	19228
460.739	17686
460.783	16673
460.808	16127
460.864	9503
460.876	9046
460.944	8811
460.945	8785
461.013	8540
461.024	8310
461.081	7898
461.104	8203
461.150	8018
461.184	7640
461.218	7757
461.264	7663
461.286	7638
461.345	7370
461.355	7381
461.423	8917
461.425	8934
461.491	10899
461.505	11353
461.559	22029
461.585	27000
461.628	42062
461.665	57445
461.696	62560
461.745	84833
461.764	78815
461.825	39830
461.832	39928
461.901	15163
461.905	14888
461.969	10432
461.985	10242
462.037	11025
462.065	10942
462.105	12822
462.145	15359
462.173	21500
462.225	32884
462.241	36354
462.305	54253
462.310	52697
462.378	38678
462.385	34223
462.446	19110
462.465	15122
462.514	9317
462.545	9429
462.582	9763
462.625	9843
462.650	9895
462.705	10314
462.718	10789
462.785	13356
462.786	13483
462.854	20453
462.865	21778
462.922	26286
462.945	29919
462.990	25107
463.025	16655
463.058	14793
463.104	10989
463.126	9660
463.184	9412
463.194	9371
463.262	9634
463.264	9640
463.330	10335
463.344	10465
463.398	11856
463.424	12525
463.466	12939
463.504	13642
463.533	13807
463.583	13699
463.601	14430
463.663	16561
463.669	17066
463.737	22877
463.743	23512
463.805	39771
463.823	44472
463.873	67350
463.903	81514
463.940	84210
463.982	94755
464.008	79793
464.062	37008
464.076	35459
464.142	14823
464.144	14429
464.211	10236
464.221	10140
464.279	10835
464.301	11244
464.347	13105
464.381	14367
464.414	17008
464.461	20667
464.482	20839
464.540	22743
464.550	21905
464.617	14925
464.620	14583
464.685	13311
464.699	13402
464.753	14095
464.779	14509
464.820	15416
464.859	16351
464.888	17897
464.938	20409
464.956	20553
465.018	21581
465.023	21161
465.091	15691
465.098	14892
465.158	12985
465.177	12673
465.226	12858
465.257	13048
465.293	13576
465.336	14329
465.361	16336
465.416	20518
465.428	23108
465.495	37406
465.496	37670
465.563	70452
465.575	76143
465.631	90974
465.654	98959
465.698	61516
465.734	26637
465.765	22658
465.813	13874
465.833	12513
465.893	12478
465.900	12371
465.968	12095
465.972	12066
466.035	11766
466.052	11607
466.102	11231
466.131	11081
466.170	11551
466.210	11917
466.237	11957
466.290	12179
466.304	12516
466.369	13701
466.372	13749
466.439	14673
466.449	14797
466.506	19260
466.528	20882
466.573	33467
466.607	42897
466.641	66890
466.687	100126
466.708	109420
466.766	135447
466.775	124048
466.842	38148
466.845	33941
466.909	21998
466.925	19479
466.977	17846
467.004	17440
467.044	17311
467.083	17177
467.111	18068
467.163	19674
467.178	19843
467.242	20395
467.245	20427
467.312	20427
467.321	20396
467.379	22058
467.400	22597
467.446	25750
467.480	27954
467.559	22836
467.638	18154
467.717	18390
467.796	20942
467.875	22450
467.955	25444
468.034	47114
468.113	116935
468.192	170218
468.271	36688
468.350	20078
468.429	25144
468.508	23844
468.588	20694
468.667	19164
468.746	21393
468.825	20419
468.904	18130
468.983	25952
469.062	45465
469.141	54406
469.220	18699
469.299	17936
469.378	18767
469.456	16517
469.535	17687
469.614	18147
469.693	22929
469.772	32889
469.851	52148
469.930	30421
470.009	16819
470.088	15320
470.166	16483
470.245	21135
470.324	22249
470.403	17627
470.482	16244
470.560	15280
470.639	18177
470.718	19294
470.797	18345
470.875	24513
470.954	38268
471.033	42922
471.111	15032
471.190	13087
471.269	13488
471.347	13671
471.426	17695
471.505	20205
471.583	18882
471.662	14931
471.740	15409
471.819	14881
471.898	14223
471.976	14721
472.055	15336
472.133	19755
472.212	31954
472.290	33294
472.369	18773
472.447	14307
472.526	14244
472.604	14381
472.683	16205
472.761	16608
472.839	16058
472.918	15886
472.996	18449
473.075	23008
473.153	20773
473.231	16690
473.310	22066
473.388	19285
473.466	18197
473.545	17194
473.623	21195
473.701	20923
473.780	15812
473.858	15243
473.936	17862
474.014	14961
474.093	20147
474.171	35748
474.249	56689
474.327	32159
474.405	14025
474.484	12587
474.562	14112
474.640	14952
474.718	16964
474.796	16965
474.874	14098
474.952	11708
475.030	13451
475.108	13461
475.187	15772
475.265	17295
475.343	26893
475.421	29559
475.499	14851
475.577	16941
475.655	29272
475.733	68248
475.811	128521
475.889	111733
475.966	69121
476.044	18385
476.122	25378
476.200	31601
476.278	26408
476.356	18734
476.434	21246
476.512	24940
476.590	32701
476.667	27219
476.745	18963
476.823	18724
476.901	20907
476.979	21763
477.056	20199
477.134	19526
477.212	19573
477.290	19089
477.367	17126
477.445	16836
477.523	17593
477.601	18820
477.678	20124
477.756	24563
477.834	31292
477.911	18213
477.989	18436
478.066	19189
478.144	23734
478.222	25587
478.299	37542
478.377	32330
478.454	16814
478.532	16820
478.609	17979
478.687	17909
478.764	16264
478.842	16176
478.919	18887
478.997	17675
479.074	18459
479.152	24124
479.229	33223
479.307	19925
479.384	14993
479.461	14929
479.539	18727
479.616	24318
479.694	19734
479.771	21626
479.848	25212
479.926	36278
480.003	37334
480.080	16465
480.157	16596
480.235	15249
480.312	17388
480.389	24060
480.467	42683
480.544	54418
480.621	25365
480.698	22936
480.775	28290
480.853	28260
480.930	22025
481.007	22273
481.084	26482
481.161	26129
481.238	26589
481.315	18824
481.392	19310
481.470	18868
481.547	20643
481.624	20103
481.701	19639
481.778	20336
481.855	25797
481.932	41114
482.009	73846
482.086	47763
482.163	23443
482.240	29987
482.317	49848
482.393	37054
482.470	21107
482.547	21778
482.624	19446
482.701	22022
482.778	21017
482.855	15885
482.932	16949
483.009	16745
483.085	20576
483.162	24780
483.239	22910
483.316	18026
483.393	18222
483.469	18656
483.546	23073
483.623	25224
483.699	18949
483.776	19049
483.853	21860
483.930	38442
484.006	102098
484.083	173284
484.160	52707
484.236	40703
484.313	34929
484.389	31142
484.466	27664
484.543	26234
484.619	30854
484.696	32447
484.772	38822
484.849	44160
484.925	28974
485.002	27405
485.078	32753
485.155	33359
485.231	27574
485.308	25973
485.384	31036
485.461	45549
485.537	90613
485.614	114770
485.690	32672
485.766	26463
485.843	28030
485.919	36976
485.995	37092
486.072	23932
486.148	24082
486.224	23324
486.301	28591
486.377	36046
486.453	40225
486.530	28635
486.606	31898
486.682	39156
486.758	66944
486.835	89498
486.911	63432
486.987	113141
487.063	92088
487.139	81398
487.215	56515
487.292	28951
487.368	26126
487.444	33443
487.520	45825
487.596	40617
487.672	59610
487.748	146349
487.824	217131
487.900	71047
487.976	34588
488.052	39493
488.128	52340
488.204	38887
488.280	30569
488.356	43426
488.432	110020
488.508	178537
488.584	47237
488.660	23078
488.736	23251
488.812	24005
488.888	29603
488.964	39858
489.039	84047
489.115	122917
489.191	72553
489.267	28142
489.343	27604
489.418	21233
489.494	20797
489.570	19654
489.646	22108
489.722	22217
489.797	27990
489.873	53478
489.949	133155
490.024	112823
490.100	25932
490.176	21989
490.251	27594
490.327	33021
490.403	22739
490.478	19079
490.554	17412
490.629	17322
490.705	18349
490.781	20081
490.856	22672
490.932	23490
491.007	22800
491.083	21757
491.158	25400
491.234	41153
491.309	102060
491.385	109249
491.460	26787
491.536	25777
491.611	19267
491.686	20954
491.762	28945
491.837	57271
491.913	103416
491.988	142712
492.063	157889
492.139	69372
492.214	45696
492.289	17328
492.365	16235
492.440	21236
492.515	26811
492.590	25366
492.666	22136
492.741	32642
492.816	59297
492.891	28644
492.967	15136
493.042	14622
493.117	14633
493.192	14412
493.267	16561
493.342	19808
493.418	20351
493.493	14195
493.568	14847
493.643	16374
493.718	25685
493.793	44849
493.868	39459
493.943	20128
494.018	16872
494.093	18679
494.168	19454
494.243	13964
494.318	14637
494.393	13448
494.468	14222
494.543	13699
494.618	17239
494.693	16322
494.768	18220
494.842	16765
494.917	13262
494.992	14348
495.067	13500
495.142	13047
495.217	13492
495.292	13696
495.366	18623
495.441	25903
495.516	33076
495.591	46104
495.665	121858
495.740	261187
495.815	111959
495.890	31219
495.964	26907
496.039	25485
496.114	25539
496.188	24643
496.263	26084
496.338	26325
496.412	31608
496.487	36137
496.561	32705
496.636	32399
496.710	27908
496.785	32130
496.860	40319
496.934	28645
497.009	25971
497.083	24706
497.158	26061
497.232	33892
497.307	43348
497.381	32004
497.455	40994
497.530	60104
497.604	36037
497.679	36159
497.753	61127
497.827	77913
497.902	54356
497.976	69703
498.050	185232
498.125	610194
498.199	631487
498.273	87872
498.348	53296
498.422	41554
498.496	40295
498.570	36806
498.645	30764
498.719	33716
498.793	44795
498.867	79890
498.941	121403
499.016	282170
499.090	710627
499.164	259101
499.238	32482
499.312	27048
499.386	31978
499.460	31947
499.534	31196
499.609	38959
499.683	68634
499.757	71417
499.831	145719
499.905	495247
499.979	485197
500.053	93134
500.127	86478
500.201	44631
500.275	31995
500.349	29994
500.422	35762
500.496	51743
500.570	107938
500.644	285192
500.718	549738
500.792	129813
500.866	36931
500.940	51198
501.013	41158
501.087	34734
501.161	57081
501.235	92992
501.309	227220
501.382	548494
501.456	479713
501.530	114492
501.603	204353
501.677	79636
501.751	29690
501.825	38165
501.898	85252
501.972	237985
502.046	157420
502.119	43317
502.193	105229
502.266	259635
502.340	139306
502.413	120262
502.487	245594
502.561	146619
502.634	42854
502.708	26336
502.781	25246
502.855	21415
502.928	20999
503.002	20308
503.075	20808
503.149	22355
503.222	22280
503.295	24194
503.369	33571
503.442	56011
503.516	183839
503.589	460092
503.662	309552
503.736	95842
503.809	212507
503.882	188670
503.956	233420
504.029	222182
504.102	108572
504.175	128836
504.249	50907
504.322	38565
504.395	36096
504.468	23534
504.542	26826
504.615	19401
504.688	17000
504.761	18125
504.834	22937
504.907	24187
504.980	34929
505.053	23642
505.127	26614
505.200	32344
505.273	43654
505.346	25790
505.419	20896
505.492	16785
505.565	15913
505.638	14248
505.711	16833
505.784	16717
505.857	15926
505.930	16288
506.003	16347
506.076	18362
506.149	28192
506.221	38582
506.294	34325
506.367	98678
506.440	300041
506.513	169922
506.586	39397
506.659	23398
506.731	18114
506.804	21172
506.877	29857
506.950	24551
507.022	18119
507.095	27622
507.168	34530
507.241	16833
507.313	13397
507.386	15891
507.459	19985
507.531	13922
507.604	14291
507.677	12813
507.749	12415
507.822	15996
507.894	25894
507.967	25183
508.040	17402
508.112	14470
508.185	16342
508.257	15218
508.330	22531
508.402	17214
508.475	18594
508.547	20354
508.620	22214
508.692	40930
508.765	22952
508.837	14099
508.909	13070
508.982	12424
509.054	15793
509.127	12610
509.199	12893
509.271	12851
509.344	12524
509.416	10986
509.488	13288
509.560	12889
509.633	13979
509.705	15151
509.777	16570
509.849	20071
509.922	15188
509.994	12457
510.066	12899
510.138	13238
510.210	18671
510.283	19005
510.355	16793
510.427	13716
510.499	15185
510.571	12707
510.643	14965
510.715	21765
510.787	20804
510.859	16215
510.931	23179
511.003	23804
511.076	21262
511.148	15864
511.219	17610
511.291	35252
511.363	46832
511.435	14925
511.507	12092
511.579	12112
511.651	12409
511.723	12257
511.795	14053
511.867	14375
511.939	23820
512.010	59320
512.082	47313
512.154	15241
512.226	14850
512.298	16337
512.369	23872
512.441	19269
512.513	19331
512.585	15849
512.656	17528
512.728	19808
512.800	14985
512.871	14325
512.943	14965
513.015	12242
513.086	13551
513.158	14113
513.230	17207
513.301	22690
513.373	24966
513.444	14497
513.516	12356
513.588	11914
513.659	14907
513.731	17378
513.802	18543
513.874	31919
513.945	54754
514.016	20264
514.088	14107
514.159	15088
514.231	19952
514.302	21860
514.374	18161
514.445	24652
514.516	60812
514.588	47684
514.659	26657
514.730	57667
514.802	37400
514.873	16352
514.944	17458
515.016	16201
515.087	21481
515.158	35505
515.229	59079
515.301	19907
515.372	18576
515.443	14183
515.514	13479
515.585	11692
515.656	12675
515.728	12073
515.799	12287
515.870	12814
515.941	13300
516.012	13529
516.083	16051
516.154	17308
516.225	23698
516.296	18698
516.367	16349
516.438	17778
516.509	25142
516.580	39710
516.651	106664
516.722	324094
516.793	164567
516.864	38975
516.935	41396
517.006	43879
517.077	61389
517.148	131409
517.219	335155
517.289	527391
517.360	329268
517.431	130690
517.502	29382
517.573	25479
517.643	26476
517.714	26013
517.785	26454
517.856	27140
517.926	30604
517.997	30719
518.068	35535
518.138	46674
518.209	79645
518.280	230881
518.350	696986
518.421	288906
518.492	43605
518.562	35891
518.633	42547
518.703	42120
518.774	67633
518.845	147565
518.915	150206
518.986	52720
519.056	43646
519.127	66092
519.197	117181
519.268	299750
519.338	224004
519.408	49265
519.479	42334
519.549	31954
519.620	23794
519.690	19519
519.760	22171
519.831	21545
519.901	22469
519.971	18528
520.042	24485
520.112	29664
520.182	27896
520.253	27794
520.323	22241
520.393	23091
520.463	27043
520.534	23750
520.604	41784
520.674	27561
520.744	30800
520.814	45111
520.885	53295
520.955	111833
521.025	363393
521.095	160953
521.165	26436
521.235	25010
521.305	23014
521.375	17658
521.445	20245
521.515	23208
521.585	27069
521.655	26092
521.725	22857
521.795	21364
521.865	20688
521.935	35988
522.005	35132
522.075	19020
522.145	20642
522.215	27033
522.285	43855
522.355	61982
522.424	121431
522.494	104228
522.564	41803
522.634	53793
522.704	125688
522.774	57082
522.843	21440
522.913	18969
522.983	22652
523.053	19715
523.122	21110
523.192	27180
523.262	70154
523.331	70684
523.401	22049
523.471	15400
523.540	17313
523.610	14283
523.680	16127
523.749	17112
523.819	24964
523.888	26781
523.958	16387
524.027	18888
524.097	22862
524.166	19473
524.236	19291
524.305	19266
524.375	18774
524.444	16204
524.514	19517
524.583	21258
524.653	29546
524.722	31473
524.791	22016
524.861	18179
524.930	18306
524.999	18997
525.069	25980
525.138	25965
525.207	35196
525.277	21256
525.346	19256
525.415	18631
525.484	20872
525.554	26427
525.623	25572
525.692	17731
525.761	21144
525.830	19143
525.900	24550
525.969	38474
526.038	59896
526.107	102983
526.176	269987
526.245	229891
526.314	83847
526.383	150056
526.452	211462
526.522	301642
526.591	337170
526.660	93964
526.729	47774
526.797	56777
526.867	124034
526.935	406022
527.004	673223
527.073	389676
527.142	44464
527.211	23634
527.280	23714
527.349	22846
527.418	16436
527.487	16235
527.555	16846
527.624	14336
527.693	14598
527.762	15298
527.831	15297
527.899	15680
527.968	16472
528.037	15592
528.106	19435
528.174	30751
528.243	34047
528.312	44042
528.380	52447
528.449	21623
528.518	15749
528.586	12391
528.655	15007
528.723	13870
528.792	14757
528.861	16339
528.929	15939
528.998	14674
529.066	13915
529.135	12785
529.203	12958
529.272	13489
529.340	14134
529.409	14561
529.477	16663
529.545	22550
529.614	26884
529.682	26672
529.751	36110
529.819	27210
529.887	22587
529.956	15397
530.024	15668
530.092	13185
530.161	16121
530.229	21846
530.297	16307
530.365	13639
530.434	12732
530.502	13032
530.570	12703
530.638	12233
530.707	14693
530.775	17473
530.843	15168
530.911	13582
530.979	13445
531.047	13951
531.115	15696
531.183	14228
531.252	14925
531.320	14889
531.388	15358
531.456	14464
531.524	13893
531.592	13617
531.660	15547
531.728	14641
531.796	14393
531.864	13037
531.932	15483
532.000	13740
532.067	15711
532.135	14534
532.203	16898
532.271	18513
532.339	26266
532.407	56508
532.475	38267
532.542	20250
532.610	24029
532.678	36062
532.746	100181
532.814	240336
532.881	71871
532.949	17508
533.017	16751
533.084	15454
533.152	15542
533.220	16277
533.287	16563
533.355	14489
533.423	14977
533.490	15582
533.558	15215
533.625	14980
533.693	17563
533.761	16085
533.828	17655
533.896	15313
533.963	25113
534.031	30759
534.098	41442
534.166	25466
534.233	15826
534.300	16814
534.368	17936
534.435	15942
534.503	16970
534.570	16438
534.637	17243
534.705	18751
534.772	24864
534.840	39930
534.907	122893
534.974	168600
535.041	31801
535.109	27034
535.176	18830
535.243	15461
535.310	16664
535.378	15063
535.445	15411
535.512	14275
535.579	14744
535.646	14932
535.714	15826
535.781	16459
535.848	17603
535.915	18531
535.982	17757
536.049	16831
536.116	18906
536.183	15360
536.250	17071
536.317	16808
536.384	19879
536.451	25107
536.518	26628
536.585	20386
536.652	26145
536.719	30061
536.786	26531
536.853	21822
536.920	31655
536.987	48518
537.053	48338
537.120	121418
537.187	117864
537.254	21102
537.321	18150
537.388	19146
537.454	17277
537.521	15733
537.588	16496
537.654	17662
537.721	18911
537.788	19007
537.855	17154
537.921	16689
537.988	18037
538.055	17332
538.121	18241
538.188	19110
538.254	24658
538.321	40266
538.388	29541
538.454	18334
538.521	18413
538.587	16036
538.654	16881
538.720	15787
538.787	18677
538.853	19159
538.920	24460
538.986	25030
539.053	22357
539.119	20246
539.185	19313
539.252	20140
539.318	26635
539.385	22875
539.451	21513
539.517	21363
539.583	26869
539.650	48754
539.716	106535
539.782	38692
539.849	18828
539.915	18851
539.981	19098
540.047	21124
540.114	19632
540.180	20191
540.246	20862
540.312	25143
540.378	42080
540.444	46448
540.510	47171
540.576	107923
540.643	46858
540.709	17834
540.775	18974
540.841	19217
540.907	26750
540.973	37989
541.039	27509
541.105	28746
541.171	20589
541.237	18650
541.303	19993
541.369	20679
541.435	25837
541.500	37661
541.566	28294
541.632	17734
541.698	17307
541.764	16894
541.830	17366
541.896	17719
541.961	17583
542.027	18786
542.093	18811
542.159	18790
542.224	20702
542.290	26186
542.356	36269
542.421	42158
542.487	23141
542.553	18975
542.618	24611
542.684	21030
542.750	20702
542.815	25339
542.881	41050
542.947	96763
543.012	78464
543.078	19498
543.143	17659
543.209	19345
543.274	21639
543.340	24003
543.405	39836
543.471	63203
543.536	24871
543.602	19334
543.667	19751
543.732	16808
543.798	18436
543.863	18609
543.928	17606
543.994	17087
544.059	18758
544.124	17016
544.190	17552
544.255	17835
544.320	18227
544.386	18686
544.451	24078
544.516	26613
544.581	31051
544.646	61392
544.712	98450
544.777	30317
544.842	27954
544.907	32005
544.972	27123
545.037	25651
545.102	28145
545.168	28028
545.233	28759
545.298	29757
545.363	34999
545.428	36350
545.493	47368
545.558	86005
545.623	50210
545.688	29666
545.753	28454
545.818	27535
545.883	29656
545.947	29001
546.012	33564
546.077	35489
546.142	30772
546.207	28891
546.272	34641
546.337	35298
546.401	31977
546.466	30578
546.531	30315
546.596	33304
546.661	34137
546.725	32095
546.790	32550
546.855	33562
546.919	33858
546.984	37883
547.049	42099
547.113	50453
547.178	48386
547.243	51444
547.307	58841
547.372	66250
547.436	74670
547.501	59422
547.565	62444
547.630	63174
547.695	62585
547.759	73087
547.823	68191
547.888	57500
547.952	58892
548.017	60408
548.081	67330
548.146	82537
548.210	79405
548.274	64164
548.339	63158
548.403	57750
548.468	55426
548.532	54632
548.596	56576
548.660	57082
548.725	64355
548.789	74723
548.853	78023
548.917	66126
548.982	79491
549.046	81257
549.110	55184
549.174	52578
549.238	58828
549.303	60864
549.367	62682
549.431	60466
549.495	58449
549.559	58700
549.623	65034
549.687	74209
549.751	82014
549.815	84580
549.879	83893
549.943	78389
550.007	85453
550.071	84691
550.135	81954
550.199	74666
550.263	74870
550.327	73996
550.391	90841
550.455	80675
550.519	79725
550.582	83090
550.646	97096
550.710	101687
550.774	93257
550.838	91195
550.901	92662
550.965	99597
551.029	105281
551.093	116443
551.156	138595
551.220	198353
551.284	238971
551.347	149604
551.411	200116
551.475	231491
551.538	108756
551.602	91194
551.666	86828
551.729	80297
551.793	80340
551.856	79668
551.920	76738
551.983	78130
552.047	76868
552.110	76001
552.174	77200
552.237	78766
552.301	75528
552.364	70741
552.428	70131
552.491	72688
552.554	73307
552.618	72675
552.681	77169
552.745	74832
552.808	82188
552.871	91041
552.934	81789
552.998	74897
553.061	77222
553.124	71832
553.187	69509
553.251	72419
553.314	75674
553.377	69685
553.440	75361
553.503	79394
553.567	80753
553.630	74543
553.693	75178
553.756	76214
553.819	74744
553.882	72605
553.945	72707
554.008	69787
554.071	70490
554.134	71880
554.197	70358
554.260	65757
554.323	68798
554.386	70472
554.449	72254
554.512	72334
554.575	69903
554.638	69446
554.701	69275
554.764	65949
554.827	65391
554.889	62853
554.952	59227
555.015	59473
555.078	59629
555.141	60844
555.203	58804
555.266	58756
555.329	60748
555.391	57460
555.454	57492
555.517	57038
555.580	54682
555.642	51452
555.705	52851
555.768	51283
555.830	52148
555.893	47041
555.955	48238
556.018	48497
556.080	49942
556.143	49091
556.206	49196
556.268	51051
556.330	50827
556.393	49305
556.455	50863
556.518	63016
556.580	67866
556.643	44080
556.705	43221
556.767	42283
556.830	45567
556.892	43057
556.955	51609
557.017	46285
557.079	42800
557.142	41812
557.204	44043
557.266	56471
557.328	54066
557.391	37974
557.453	37066
557.515	37234
557.577	41122
557.639	41556
557.701	36935
557.764	34660
557.826	37343
557.888	40400
557.950	40328
558.012	44992
558.074	57156
558.136	91894
558.198	206958
558.260	95749
558.322	41417
558.384	38957
558.446	43528
558.508	46484
558.570	60739
558.632	82974
558.694	129669
558.756	161864
558.818	330962
558.880	815509
558.942	319191
559.003	206263
559.065	120718
559.127	48129
559.189	52238
559.251	67958
559.312	101413
559.374	180246
559.436	527355
559.498	318919
559.559	57563
559.621	53990
559.683	73930
559.744	118746
559.806	269130
559.868	432320
559.929	110841
559.991	68317
560.052	90168
560.114	203102
560.176	163533
560.237	115595
560.299	202506
560.360	64516
560.422	37564
560.483	36493
560.545	35648
560.606	33301
560.667	33209
560.729	32637
560.790	31858
560.852	31777
560.913	31622
560.974	29726
561.036	30696
561.097	30270
561.158	31583
561.220	30751
561.281	31344
561.342	31960
561.403	36213
561.465	40408
561.526	61185
561.587	80094
561.648	38077
561.709	30004
561.771	31028
561.832	29750
561.893	29349
561.954	29404
562.015	28985
562.076	27970
562.137	29406
562.198	30357
562.259	30004
562.320	29875
562.381	32378
562.442	37933
562.503	36768
562.564	28862
562.625	28045
562.686	28824
562.747	34389
562.808	32247
562.869	32138
562.930	39180
562.991	39136
563.051	33262
563.112	32079
563.173	30006
563.234	29600
563.294	28701
563.355	29332
563.416	29654
563.477	29657
563.537	30159
563.598	33067
563.659	30944
563.720	30720
563.780	30396
563.841	32520
563.901	29387
563.962	30181
564.023	29807
564.083	30586
564.144	31745
564.204	32815
564.265	34956
564.325	42306
564.386	70703
564.446	73272
564.507	31519
564.567	29261
564.628	29797
564.688	30107
564.749	29571
564.809	35261
564.869	42768
564.930	32708
564.990	27338
565.050	26270
565.111	27304
565.171	26417
565.231	26032
565.292	26144
565.352	26284
565.412	28144
565.472	27693
565.532	28903
565.593	27147
565.653	27318
565.713	28435
565.773	30053
565.833	30074
565.893	36621
565.953	28794
566.013	29033
566.074	32847
566.134	42497
566.194	64952
566.254	68162
566.314	43872
566.374	30909
566.434	28955
566.494	29332
566.554	28193
566.614	28923
566.673	28350
566.733	30487
566.793	31656
566.853	32878
566.913	30186
566.973	32900
567.033	32643
567.092	36817
567.152	31297
567.212	32385
567.272	32724
567.331	36204
567.391	34837
567.451	37744
567.511	48060
567.570	54556
567.630	31622
567.690	30172
567.749	29672
567.809	30609
567.868	30865
567.928	33871
567.988	39643
568.047	39881
568.107	39068
568.166	47933
568.226	59612
568.285	79345
568.345	64678
568.404	52588
568.464	46876
568.523	46037
568.582	47520
568.642	54582
568.701	64783
568.761	82873
568.820	122511
568.879	119082
568.939	96159
568.998	70693
569.057	50693
569.116	45382
569.176	39210
569.235	36188
569.294	33321
569.353	32851
569.413	32486
569.472	34009
569.531	30082
569.590	29612
569.649	29692
569.708	28851
569.767	29102
569.827	36680
569.886	34485
569.945	27681
570.004	26859
570.063	27728
570.122	29668
570.181	31482
570.240	36205
570.299	39273
570.358	36972
570.417	30648
570.475	25656
570.534	28152
570.593	27128
570.652	30098
570.711	32585
570.770	28733
570.829	30654
570.887	27947
570.946	28000
571.005	26484
571.064	26409
571.122	27055
571.181	32737
571.240	29080
571.299	25754
571.357	29442
571.416	32254
571.475	33760
571.533	37858
571.592	29262
571.650	32037
571.709	26344
571.768	25264
571.826	25389
571.885	24917
571.943	25163
572.002	25544
572.060	28708
572.119	23289
572.177	24245
572.236	22600
572.294	22429
572.352	22721
572.411	23854
572.469	23662
572.528	25298
572.586	24998
572.644	28630
572.703	38913
572.761	31529
572.819	24349
572.877	23219
572.936	22350
572.994	22927
573.052	23377
573.110	25039
573.169	22672
573.227	22394
573.285	21676
573.343	22530
573.401	22073
573.459	23232
573.517	23047
573.576	23343
573.634	22583
573.692	25217
573.750	23210
573.808	24518
573.866	25977
573.924	33713
573.982	34130
574.040	25890
574.098	22540
574.155	22093
574.213	20848
574.271	21895
574.329	22735
574.387	21820
574.445	19566
574.503	20454
574.560	18166
574.618	19443
574.676	19064
574.734	19555
574.792	19380
574.849	20495
574.907	18236
574.965	19213
575.022	17852
575.080	18986
575.138	19035
575.195	21362
575.253	20803
575.311	21022
575.368	18710
575.426	19002
575.483	19189
575.541	19270
575.598	19329
575.656	21587
575.713	21358
575.771	20266
575.828	19455
575.886	20632
575.943	21261
576.001	23618
576.058	22906
576.115	23848
576.173	27858
576.230	32860
576.287	30608
576.345	26697
576.402	23465
576.459	24669
576.517	25432
576.574	27784
576.631	29819
576.688	26542
576.746	22788
576.803	23313
576.860	21150
576.917	22807
576.974	21755
577.031	22832
577.089	22409
577.146	23203
577.203	23164
577.260	25320
577.317	26277
577.374	31294
577.431	29451
577.488	23939
577.545	21379
577.602	21912
577.659	21324
577.716	21160
577.773	19936
577.830	20168
577.886	19535
577.943	21199
578.000	19879
578.057	22329
578.114	21217
578.171	19480
578.227	20649
578.284	22297
578.341	22647
578.398	23247
578.454	24739
578.511	27856
578.568	32419
578.625	28435
578.681	21114
578.738	20669
578.794	20960
578.851	20814
578.908	21132
578.964	22450
579.021	21849
579.077	20671
579.134	20286
579.190	19864
579.247	19342
579.303	19893
579.360	18733
579.416	19176
579.473	18983
579.529	19507
579.586	19170
579.642	20395
579.698	20665
579.755	22326
579.811	19343
579.867	19685
579.924	19061
579.980	18755
580.036	20150
580.093	20971
580.149	19296
580.205	21621
580.261	21222
580.317	24076
580.374	24553
580.430	29974
580.486	28266
580.542	23986
580.598	22834
580.619	22413
580.654	21693
580.692	21485
580.710	21388
580.765	22206
580.767	22240
580.823	20835
580.838	21170
580.879	22053
580.911	21378
580.935	20904
580.984	21296
580.991	21356
581.047	21016
581.057	21269
581.103	22450
581.130	22620
581.159	22783
581.203	23999
581.215	24330
581.270	22923
581.276	22886
581.326	22525
581.349	22997
581.382	23726
581.422	24122
581.438	24284
581.494	25247
581.494	25246
581.550	24981
581.567	24645
581.606	23922
581.640	24765
581.661	25273
581.713	24505
581.717	24438
581.773	24072
581.786	24120
581.829	24384
581.859	24580
581.885	24673
581.932	24347
581.940	24312
581.996	25138
582.004	25089
582.052	24533
582.077	24539
582.107	24709
582.150	25039
582.163	25092
582.219	25252
582.223	25288
582.274	25850
582.296	26453
582.330	27548
582.368	28130
582.386	28171
582.441	25151
582.441	25142
582.497	24476
582.514	24625
582.552	25215
582.587	24825
582.608	24534
582.659	25451
582.663	25527
582.719	25510
582.732	25404
582.774	25106
582.805	25876
582.830	26516
582.877	26717
582.885	26687
582.941	26219
582.950	26123
582.996	25951
583.023	26808
583.052	27751
583.095	27803
583.107	27837
583.162	28441
583.168	28505
583.218	28667
583.240	28636
583.273	28582
583.313	27972
583.328	27796
583.384	27956
583.385	27976
583.439	28718
583.458	28641
583.494	28090
583.531	27424
583.549	27315
583.603	28034
583.605	28048
583.660	29117
583.676	28901
583.715	28692
583.748	29818
583.770	30695
583.820	31071
583.825	31059
583.881	30938
583.893	30928
583.936	30798
583.965	30688
583.991	30667
584.038	30702
584.046	30768
584.101	32168
584.110	31970
584.156	31002
584.183	31614
584.211	31823
584.255	31259
584.266	31185
584.321	30036
584.328	30013
584.376	30814
584.400	31635
584.431	32505
584.472	31959
584.486	31791
584.541	32630
584.545	32597
584.596	32382
584.617	33187
584.651	35287
584.689	35780
584.706	35655
584.761	36509
584.762	36479
584.816	35598
584.834	35767
584.871	36892
584.906	37274
584.926	37237
584.978	38022
584.980	38109
585.035	38739
585.051	39568
585.090	42175
585.123	42408
585.145	42632
585.195	44855
585.200	45091
585.254	46549
585.267	47248
585.309	49974
585.340	51893
585.364	53813
585.412	60365
585.419	61389
585.473	70200
585.484	72871
585.528	86705
585.556	97037
585.583	114732
585.628	148871
585.637	166945
585.692	313433
585.700	344322
585.747	537377
585.772	539223
585.801	388407
585.845	181414
585.856	151938
585.910	77266
585.917	69257
585.965	61349
585.989	57950
586.019	56187
586.061	54637
586.074	54754
586.128	54102
586.133	54110
586.183	56707
586.205	57447
586.237	58757
586.277	61123
586.292	61637
586.346	61366
586.349	61367
586.401	62251
586.421	62534
586.455	65239
586.493	68537
586.509	74827
586.564	96976
586.565	97733
586.618	166802
586.637	182145
586.672	164637
586.709	131521
586.727	110955
586.781	70994
586.781	71095
586.835	66105
586.853	64465
586.889	62979
586.925	61899
586.944	61702
586.996	60789
586.998	60958
587.052	64555
587.068	65098
587.106	65334
587.140	65966
587.161	66858
587.212	67575
587.215	67793
587.269	71380
587.284	71784
587.323	71756
587.356	72288
587.377	73692
587.427	75410
587.431	75601
587.485	76838
587.499	77004
587.539	78916
587.571	80509
587.593	82257
587.643	85463
587.648	85949
587.702	89590
587.715	90260
587.755	94330
587.786	97717
587.810	99450
587.858	100780
587.864	101315
587.917	105797
587.930	106701
587.971	115084
588.001	121217
588.025	125199
588.073	130330
588.079	130859
588.133	134419
588.145	135148
588.187	144916
588.217	151635
588.241	159818
588.288	175791
588.295	178612
588.348	199565
588.360	203953
588.402	226129
588.431	241949
588.456	259266
588.503	293477
588.510	300264
588.564	356075
588.575	368201
588.617	432268
588.646	479132
588.671	539668
588.718	660851
588.725	692019
588.778	940800
588.789	994020
588.832	1362338
588.861	1624231
588.886	1885406
588.932	2346586
588.939	2355308
588.993	2250826
589.004	2241212
589.047	2265032
589.075	2214861
589.100	1942510
589.147	1403424
589.154	1350978
589.207	957931
589.218	879759
589.261	781086
589.290	720260
589.314	730320
589.361	755578
589.368	779412
589.421	979726
589.433	1024766
589.475	1409065
589.504	1688191
589.528	1920373
589.576	2296694
589.582	2285842
589.635	2105836
589.647	2046607
589.689	1552958
589.718	1201266
589.742	997484
589.790	610700
589.795	596333
589.849	459713
589.861	429076
589.902	411504
589.932	394890
589.955	356286
590.004	268478
590.009	264262
590.062	216258
590.075	204045
590.115	190087
590.146	178700
590.168	174470
590.218	163772
590.222	163711
590.275	157711
590.289	155614
590.328	153907
590.360	151652
590.381	147668
590.431	136370
590.435	136458
590.488	132053
590.503	130465
590.541	130163
590.574	129273
590.594	128307
590.645	123964
590.647	124207
590.700	120970
590.716	119732
590.753	118658
590.787	116789
590.806	116069
590.859	112763
590.859	113088
590.912	111898
590.930	111158
590.965	110433
591.001	109090
591.018	109514
591.071	109793
591.072	109455
591.124	108937
591.143	108227
591.177	109243
591.214	109828
591.230	110302
591.283	110609
591.285	110270
591.336	113589
591.356	114421
591.389	114055
591.427	112634
591.442	111764
591.495	106968
591.498	106291
591.547	106289
591.569	105737
591.600	105093
591.640	103472
591.653	104075
591.706	105297
591.711	105080
591.759	112103
591.782	115271
591.811	126326
591.853	141606
591.864	138891
591.917	121904
591.924	119076
591.969	112243
591.995	107750
592.022	109562
592.066	111704
592.075	113935
592.127	125319
592.137	127082
592.180	153175
592.208	169173
592.233	157869
592.279	134380
592.285	132806
592.338	115764
592.350	111503
592.390	109634
592.421	107543
592.443	108047
592.491	108014
592.495	108456
592.548	109448
592.562	109358
592.600	110101
592.633	110017
592.653	110061
592.704	108577
592.705	109204
592.775	109156
592.846	112099
592.916	112934
592.987	115101
593.058	116634
593.128	111795
593.199	109701
593.270	106144
593.341	107167
593.411	107496
593.482	109791
593.553	108356
593.623	107211
593.694	109852
593.764	124310
593.835	119140
593.906	108728
593.976	109964
594.047	116747
594.117	134151
594.188	161019
594.258	117488
594.329	110573
594.399	110213
594.470	112180
594.540	107905
594.611	113150
594.681	112143
594.751	114271
594.822	117014
594.892	121173
594.963	126373
595.033	129924
595.103	131411
595.174	138888
595.244	181223
595.314	279675
595.384	177143
595.455	131275
595.525	135790
595.595	139038
595.665	139667
595.736	138582
595.806	135821
595.876	135801
595.946	134412
596.016	135733
596.087	139008
596.157	142888
596.227	140261
596.297	146115
596.367	153214
596.437	167939
596.507	199554
596.577	278787
596.647	200842
596.717	161402
596.787	161663
596.857	162563
596.927	160981
596.997	162869
597.067	159937
597.137	165934
597.207	166560
597.277	167275
597.347	167057
597.417	161427
597.487	157246
597.557	166665
597.626	169001
597.696	176957
597.766	201156
597.836	260904
597.906	216004
597.975	156349
598.045	153327
598.115	155726
598.185	158955
598.254	171885
598.324	185350
598.394	189404
598.464	189927
598.533	184187
598.603	171756
598.672	168464
598.742	170313
598.812	169193
598.881	172813
598.951	171588
599.020	169017
599.090	172691
599.159	175022
599.229	173342
599.299	164569
599.368	170376
599.437	170755
599.507	163412
599.576	167745
599.646	159089
599.715	155062
599.785	158569
599.854	163210
599.924	180388
599.993	178556
600.062	156788
600.132	157772
600.201	160872
600.270	178122
600.340	188344
600.409	181191
600.478	182322
600.547	179908
600.617	183221
600.686	158770
600.755	145184
600.824	142876
600.894	140153
600.963	135203
601.032	134194
601.101	132133
601.170	128091
601.239	127540
601.308	134929
601.378	135649
601.447	127201
601.516	124827
601.585	129131
601.654	139212
601.723	137607
601.792	129734
601.861	133957
601.930	133789
601.999	143927
602.068	137124
602.137	145251
602.206	152454
602.275	139631
602.343	146671
602.412	155606
602.481	143209
602.550	139273
602.619	140388
602.688	143539
602.756	144394
602.825	143421
602.894	141428
602.963	146884
603.032	148848
603.100	148541
603.169	146255
603.238	148669
603.307	147811
603.375	145720
603.444	147320
603.513	152274
603.581	151825
603.650	154911
603.719	150823
603.787	152050
603.856	156574
603.924	163247
603.993	171212
604.061	166243
604.130	169780
604.198	174669
604.267	176485
604.335	177454
604.404	177925
604.472	180053
604.541	182101
604.609	182174
604.678	184815
604.746	183448
604.815	188602
604.883	194826
604.951	191757
605.020	190110
605.088	195667
605.156	199728
605.225	200767
605.293	200188
605.361	200749
605.429	203829
605.498	202708
605.566	211084
605.634	217163
605.702	224304
605.771	231340
605.839	233243
605.907	227514
605.975	222947
606.043	216533
606.111	215142
606.180	214856
606.248	216560
606.316	212458
606.384	219960
606.452	239445
606.520	239817
606.588	231957
606.656	218414
606.724	218571
606.792	208860
606.860	192869
606.928	174209
606.996	165208
607.064	163866
607.132	165556
607.200	171993
607.267	183132
607.335	180983
607.403	185878
607.471	186492
607.539	176590
607.607	182065
607.674	165169
607.742	163566
607.810	165610
607.878	163057
607.946	160243
608.013	166622
608.081	174037
608.149	183082
608.216	175208
608.284	181308
608.352	182173
608.419	190565
608.487	216830
608.555	217086
608.622	176475
608.690	181054
608.757	197906
608.825	210058
608.893	209017
608.960	217997
609.028	242711
609.095	250168
609.163	224527
609.230	185781
609.298	168107
609.365	159907
609.432	168303
609.500	181785
609.567	203094
609.635	230654
609.702	251744
609.769	250080
609.837	228957
609.904	188874
609.971	172254
610.039	184240
610.106	221050
610.173	365321
610.241	833784
610.308	933350
610.375	296627
610.442	197734
610.509	174675
610.577	170498
610.644	172758
610.711	176261
610.778	181115
610.845	183925
610.912	195322
610.980	203047
611.047	205453
611.114	207316
611.181	203087
611.248	194539
611.315	200097
611.382	208739
611.449	212832
611.516	216948
611.583	217368
611.650	219438
611.717	222622
611.784	225921
611.851	235252
611.918	261925
611.984	291917
612.051	369268
612.118	645110
612.185	1533969
612.252	1917701
612.319	495904
612.386	299131
612.452	271701
612.519	263802
612.586	294709
612.653	299140
612.719	253755
612.786	249853
612.853	231057
612.919	218863
612.986	222024
613.053	212209
613.120	202357
613.186	192966
613.253	193416
613.319	192974
613.386	194656
613.453	199016
613.519	210657
613.586	212407
613.652	239455
613.719	228253
613.785	226263
613.852	205912
613.918	200759
613.985	196782
614.051	201091
614.118	205927
614.184	201392
614.250	193216
614.317	198820
614.383	195194
614.449	199504
614.516	200988
614.582	204403
614.648	205252
614.715	195072
614.781	196261
614.847	193233
614.914	203430
614.980	202580
615.046	193603
615.112	191290
615.179	193902
615.245	198095
615.311	201907
615.377	214577
615.443	235863
615.509	219034
615.575	212978
615.642	213283
615.708	215003
615.774	228088
615.840	246938
615.906	272623
615.972	316194
616.038	449118
616.104	811376
616.170	1743843
616.236	2666540
616.302	801236
616.368	411240
616.434	323506
616.500	272046
616.565	276061
616.631	337056
616.697	322439
616.763	287803
616.829	364076
616.895	629666
616.961	817524
617.026	446297
617.092	254353
617.158	226009
617.224	221185
617.289	208777
617.355	201019
617.421	201216
617.487	204565
617.552	191441
617.618	184658
617.684	184680
617.749	186927
617.815	179481
617.880	173531
617.946	173250
618.012	175154
618.077	180968
618.143	175578
618.208	173332
618.274	182275
618.339	193535
618.405	174852
618.470	163463
618.536	168868
618.601	177087
618.667	178389
618.732	158154
618.798	153101
618.863	149251
618.928	150063
618.994	154712
619.059	160987
619.124	179117
619.190	176555
619.255	154379
619.320	155570
619.386	155175
619.451	150742
619.516	146495
619.581	146829
619.647	152766
619.712	153708
619.777	147921
619.842	149127
619.907	155950
619.972	152674
620.038	154995
620.103	148111
620.168	146264
620.233	143543
620.298	144392
620.363	147118
620.428	147759
620.493	152969
620.558	153396
620.623	152616
620.688	153112
620.753	150026
620.818	153194
620.883	154738
620.948	155437
621.013	154679
621.078	156294
621.143	157874
621.207	166996
621.272	162572
621.337	167770
621.402	175004
621.467	198474
621.532	235540
621.596	195220
621.661	178479
621.726	161547
621.791	161533
621.855	163716
621.920	170574
621.985	178256
622.049	206804
622.114	201333
622.179	187359
622.243	182224
622.308	186505
622.373	184135
622.437	188014
622.502	176554
622.566	172116
622.631	176935
622.695	175701
622.760	176436
622.824	172799
622.889	172490
622.953	179571
623.018	200450
623.082	232212
623.147	186149
623.211	177550
623.276	176203
623.340	174580
623.404	163489
623.469	162615
623.533	162929
623.597	161628
623.662	159930
623.726	158417
623.790	147662
623.854	145957
623.919	152059
623.983	147758
624.047	153049
624.111	149584
624.176	152322
624.240	163941
624.304	186921
624.368	160060
624.432	151039
624.496	154951
624.560	157706
624.625	170977
624.689	160209
624.753	159410
624.817	157911
624.881	153863
624.945	145287
625.009	141756
625.073	142057
625.137	150945
625.201	165374
625.265	171656
625.329	149674
625.393	149299
625.456	152294
625.520	155262
625.584	166556
625.648	193257
625.712	250769
625.776	475673
625.839	704586
625.903	448617
625.967	174578
626.031	206381
626.095	395202
626.158	261091
626.222	135738
626.286	118233
626.349	116113
626.413	111694
626.477	112940
626.540	111201
626.604	112712
626.668	109338
626.731	105737
626.795	112356
626.858	118456
626.922	113079
626.986	106451
627.049	104410
627.113	108297
627.176	104394
627.240	101755
627.303	102913
627.366	104159
627.430	106582
627.493	104495
627.557	108856
627.620	107355
627.684	104900
627.747	109756
627.810	105453
627.874	97573
627.937	95787
628.000	97296
628.064	99797
628.127	92052
628.190	88889
628.253	89360
628.317	89351
628.380	85331
628.443	85523
628.506	90232
628.569	84150
628.632	78803
628.696	79789
628.759	79463
628.822	77220
628.885	76262
628.948	75126
629.011	76685
629.074	76160
629.137	73312
629.200	74959
629.263	83169
629.326	76806
629.389	70543
629.452	71969
629.515	77829
629.578	76774
629.641	78607
629.704	78422
629.767	77536
629.830	70318
629.892	67727
629.955	68836
630.018	70194
630.081	72348
630.144	82087
630.207	76564
630.269	77059
630.332	82220
630.395	85827
630.458	65937
630.520	64872
630.583	66493
630.646	61145
630.708	62419
630.771	64754
630.834	65307
630.896	63013
630.959	63132
631.021	62590
631.084	66924
631.146	70474
631.209	86814
631.272	72067
631.334	64645
631.397	62654
631.459	63744
631.522	63697
631.584	64955
631.646	67879
631.709	68764
631.771	80771
631.834	80425
631.896	65208
631.958	61023
632.021	58638
632.083	61286
632.145	62845
632.208	61937
632.270	60600
632.332	59497
632.395	56465
632.457	61468
632.519	61092
632.581	57885
632.643	56513
632.706	58814
632.768	56876
632.830	57250
632.892	55060
632.954	57946
633.016	59305
633.078	57000
633.141	54962
633.203	56005
633.265	58066
633.327	55909
633.389	54507
633.451	58855
633.513	67674
633.575	72264
633.637	72058
633.698	66233
633.760	59656
633.822	58013
633.884	58475
633.946	59685
634.008	59441
634.070	58423
634.132	58239
634.193	63784
634.255	64846
634.317	65927
634.379	67159
634.441	63631
634.502	61764
634.564	56067
634.626	53168
634.687	52452
634.749	52524
634.811	53716
634.873	49467
634.934	51596
634.996	51565
635.057	52910
635.119	52374
635.181	53016
635.242	53652
635.304	51786
635.365	52362
635.427	53145
635.488	53678
635.550	52054
635.611	53293
635.673	52369
635.734	58769
635.796	56862
635.857	60613
635.918	60185
635.980	62515
636.041	66033
636.102	68399
636.164	70413
636.225	65253
636.286	64779
636.348	60943
636.409	55974
636.470	52310
636.531	52418
636.593	58568
636.654	64459
636.715	50292
636.776	46336
636.838	45312
636.899	46175
636.960	47502
637.021	45072
637.082	43601
637.143	45346
637.204	43190
637.265	43207
637.326	42409
637.387	42217
637.448	42658
637.509	42165
637.570	43632
637.631	43803
637.692	41264
637.753	39512
637.814	40303
637.875	40284
637.936	41512
637.997	41016
638.058	42534
638.119	44871
638.179	43875
638.240	41730
638.301	41684
638.362	41841
638.423	42252
638.483	40809
638.544	39252
638.605	39649
638.666	37937
638.726	40062
638.787	38841
638.848	37911
638.908	38411
638.969	37212
639.030	37465
639.090	38169
639.151	36924
639.211	40271
639.272	42658
639.332	58206
639.393	56070
639.453	39082
639.514	41813
639.574	38083
639.635	34981
639.695	35885
639.756	36896
639.816	37278
639.877	39097
639.937	48582
639.997	71334
640.058	49423
640.118	35534
640.178	34047
640.239	33179
640.299	34242
640.359	34402
640.420	34053
640.480	35984
640.540	39903
640.600	40297
640.661	39233
640.721	37623
640.781	41833
640.841	37539
640.901	35520
640.961	36087
641.021	37379
641.082	40173
641.142	46596
641.202	44276
641.262	33037
641.322	33286
641.382	32949
641.442	33888
641.502	34054
641.562	35000
641.622	33675
641.682	33321
641.742	36239
641.802	38022
641.861	37320
641.921	38298
641.981	38392
642.041	36472
642.101	41281
642.161	39724
642.221	31596
642.280	31124
642.340	31413
642.400	31915
642.460	33070
642.519	31375
642.579	32755
642.639	32750
642.698	31846
642.758	32709
642.818	31337
642.877	33101
642.937	34412
642.997	34487
643.056	44938
643.116	41663
643.175	34224
643.235	32571
643.294	33963
643.354	34070
643.414	36090
643.473	38964
643.532	45305
643.592	53529
643.651	73834
643.711	114667
643.770	202537
643.830	406550
643.889	1176463
643.948	788370
644.008	106648
644.067	55226
644.126	44782
644.186	38775
644.245	36520
644.304	31354
644.363	32800
644.423	30323
644.482	31208
644.541	31985
644.600	32209
644.659	36446
644.719	41270
644.778	55191
644.837	78174
644.896	129145
644.955	315177
645.014	282326
645.073	54983
645.132	39470
645.191	37761
645.250	34163
645.309	34329
645.368	34279
645.427	37813
645.486	46575
645.545	86643
645.604	60616
645.663	31648
645.722	31569
645.781	33047
645.840	32849
645.898	38929
645.957	49656
646.016	66466
646.075	106100
646.134	191241
646.192	398285
646.251	1057179
646.310	418788
646.369	69445
646.427	45993
646.486	40420
646.545	33734
646.603	31630
646.662	29434
646.721	29257
646.779	27836
646.838	28119
646.896	32601
646.955	38150
647.014	51376
647.072	77860
647.131	177255
647.189	230897
647.248	44811
647.306	28470
647.365	27451
647.423	25104
647.481	25523
647.540	24662
647.598	24015
647.657	24611
647.715	22708
647.773	25087
647.832	23535
647.890	24662
647.948	25130
648.007	25254
648.065	23130
648.123	24064
648.181	24194
648.240	23517
648.298	22023
648.356	23864
648.414	25231
648.472	25658
648.531	24899
648.589	25508
648.647	23766
648.705	24594
648.763	24601
648.821	24262
648.879	24551
648.937	25767
648.995	28444
649.053	32211
649.111	40884
649.169	59471
649.227	93333
649.285	162744
649.343	435930
649.401	580229
649.459	109150
649.516	76916
649.574	35817
649.632	33423
649.690	33808
649.748	38040
649.806	43405
649.863	60564
649.921	118230
649.979	197110
650.037	47319
650.094	24773
650.152	24711
650.210	22045
650.268	22490
650.325	21725
650.383	21345
650.440	21056
650.498	20900
650.556	22591
650.613	19497
650.671	20217
650.728	21050
650.786	24117
650.843	24878
650.901	23302
650.958	20062
651.016	19194
651.073	19234
651.131	20027
651.188	18362
651.246	21506
651.303	19303
651.360	20130
651.418	18457
651.475	20283
651.532	18015
651.590	18377
651.647	18290
651.704	19329
651.762	19105
651.819	19867
651.876	18447
651.933	18902
651.990	18061
652.048	18251
652.105	19287
652.162	18473
652.219	17707
652.276	17411
652.333	17986
652.390	17356
652.448	16644
652.505	17957
652.562	17788
652.619	17311
652.676	16899
652.733	17369
652.790	16565
652.847	15725
652.904	16935
652.961	16387
653.017	16970
653.074	18076
653.131	18414
653.188	17220
653.245	16198
653.302	17429
653.359	15659
653.415	16247
653.472	16356
653.529	16757
653.586	15391
653.642	17066
653.699	15751
653.756	15744
653.813	15708
653.869	16608
653.926	16154
653.983	15232
654.039	15588
654.096	16111
654.152	17104
654.209	16655
654.266	18221
654.322	18768
654.379	20505
654.435	22731
654.492	23544
654.548	26568
654.605	47481
654.661	39330
654.717	18119
654.774	19975
654.830	20138
654.887	20347
654.943	17968
655.000	19428
655.056	18132
655.112	19516
655.168	18772
655.225	20599
655.281	23042
655.337	26954
655.394	48870
655.450	54564
655.506	33760
655.562	43643
655.618	63150
655.675	23517
655.731	18064
655.787	18428
655.843	18140
655.899	17611
655.955	16875
656.011	18015
656.067	16120
656.123	17561
656.179	17413
656.235	18343
656.291	16453
656.347	18633
656.403	18836
656.459	20878
656.515	21300
656.571	25557
656.627	21043
656.683	19147
656.739	18592
656.795	17046
656.850	17792
656.906	20668
656.962	19197
657.018	17123
657.074	16453
657.129	19866
657.185	21269
657.241	29232
657.297	33191
657.352	19317
657.408	17252
657.464	18670
657.519	21202
657.575	16519
657.630	16905
657.686	17202
657.742	16067
657.797	17804
657.853	16453
657.908	18692
657.964	15903
658.019	15902
658.075	16817
658.130	17851
658.186	16105
658.241	16188
658.297	15595
658.352	17284
658.407	15874
658.463	15396
658.518	16937
658.573	16537
658.629	16044
658.684	15650
658.739	15219
658.795	14202
658.850	14541
658.905	15405
658.960	16136
659.016	15354
659.071	15727
659.126	16652
659.181	16805
659.236	20680
659.291	27009
659.346	20875
659.401	19523
659.457	17714
659.512	14672
659.567	17250
659.622	16190
659.677	16442
659.732	16545
659.787	18364
659.842	19488
659.897	29480
659.952	22984
660.007	16675
660.061	15409
660.116	16653
660.171	16170
660.226	15864
660.281	15372
660.336	15735
660.391	15533
660.445	15236
660.500	15829
660.555	16285
660.610	16495
660.664	16056
660.719	14815
660.774	16152
660.828	16008
660.883	15701
660.938	15759
660.992	15145
661.047	16884
661.101	15108
661.156	14384
661.211	15740
661.265	15433
661.320	15548
661.374	14445
661.429	15466
661.483	15655
661.538	15464
661.592	15349
661.647	16247
661.701	15052
661.755	15579
661.810	17085
661.864	16952
661.919	14496
661.973	16362
662.027	15186
662.081	15673
662.136	14871
662.190	17038
662.244	18497
662.299	18930
662.353	16013
662.407	15717
662.461	16043
662.515	16787
662.569	16835
662.624	19480
662.678	17029
662.732	16938
662.786	16525
662.840	18691
662.894	17938
662.948	16117
663.002	15582
663.056	15943
663.110	15369
663.164	16346
663.218	16128
663.272	15056
663.326	16537
663.380	17467
663.434	18966
663.488	17000
663.542	17129
663.595	18331
663.649	17435
663.703	17341
663.757	16358
663.811	16570
663.864	16276
663.918	17066
663.972	16085
664.026	16485
664.079	14906
664.133	16605
664.187	16135
664.240	14884
664.294	15502
664.348	16483
664.401	17121
664.455	15466
664.508	14241
664.562	15552
664.615	15728
664.669	16646
664.722	15636
664.776	16066
664.829	16411
664.883	15563
664.936	15833
664.990	18288
665.043	18447
665.097	19907
665.150	22411
665.203	19954
665.257	18626
665.310	18789
665.363	17890
665.417	19743
665.470	20417
665.523	18377
665.576	19127
665.630	19289
665.683	18016
665.736	18774
665.789	18678
665.842	18226
665.895	18354
665.949	18723
666.002	16563
666.055	17376
666.108	18405
666.161	19004
666.214	18270
666.267	19071
666.320	19277
666.373	20998
666.426	18411
666.479	19949
666.532	21472
666.585	24836
666.638	28396
666.691	27192
666.744	24806
666.796	27509
666.849	26233
666.902	21236
666.955	18927
667.008	17959
667.060	17338
667.113	17352
667.166	16691
667.219	16241
667.271	17120
667.324	17198
667.377	16668
667.430	17633
667.482	16571
667.535	18747
667.587	18268
667.640	19901
667.693	21264
667.745	25484
667.798	31721
667.850	24531
667.903	19006
667.955	19096
668.008	18537
668.060	21071
668.113	23272
668.165	22417
668.218	22772
668.270	21090
668.322	19926
668.375	21146
668.427	20226
668.479	19752
668.532	19615
668.584	20896
668.636	19899
668.689	19456
668.741	19451
668.793	20115
668.845	18725
668.898	20769
668.950	19136
669.002	19118
669.054	19160
669.106	20462
669.158	21258
669.211	20304
669.263	18738
669.315	19967
669.367	19643
669.419	19655
669.471	20589
669.523	19781
669.575	19688
669.627	21031
669.679	18975
669.731	19523
669.783	18687
669.835	18808
669.886	17543
669.938	18349
669.990	18547
670.042	18151
670.094	17785
670.146	18382
670.197	18543
670.249	19931
670.301	19696
670.353	21361
670.404	22736
670.456	26938
670.508	33245
670.560	45440
670.611	69246
670.663	109731
670.715	188147
670.766	477873
670.818	330738
670.869	56054
670.921	28678
670.972	24142
671.024	22852
671.075	21753
671.127	20903
671.178	19421
671.230	18756
671.281	20574
671.333	19298
671.384	21903
671.436	24236
671.487	26179
671.538	28871
671.590	34085
671.641	43476
671.692	58811
671.744	99074
671.795	122161
671.846	57475
671.897	32644
671.949	28255
672.000	25124
672.051	21463
672.102	23029
672.153	20542
672.204	21316
672.256	20521
672.307	20650
672.358	20497
672.409	22736
672.460	20167
672.511	19082
672.562	19762
672.613	19364
672.664	18614
672.715	19768
672.766	19445
672.817	19067
672.868	17877
672.919	18892
672.970	17298
673.021	18599
673.071	17930
673.122	18968
673.173	18061
673.224	19459
673.275	18154
673.326	18176
673.376	17842
673.427	16683
673.478	17293
673.528	18042
673.579	16613
673.630	17494
673.680	17812
673.731	18104
673.782	16102
673.832	17477
673.883	18513
673.934	18266
673.984	17263
674.035	18138
674.085	18063
674.136	18253
674.186	20526
674.237	23015
674.287	35738
674.338	33654
674.388	18928
674.438	19412
674.489	18555
674.539	20766
674.589	19791
674.640	20245
674.690	19422
674.740	19376
674.791	21690
674.841	21616
674.891	19538
674.942	18068
674.992	15955
675.042	17773
675.092	15912
675.142	16846
675.193	17387
675.243	17071
675.293	17336
675.343	18607
675.393	17991
675.443	19017
675.493	16681
675.543	15645
675.593	16523
675.643	18917
675.693	15347
675.743	17191
675.793	17112
675.843	15874
675.893	16447
675.943	16299
675.993	15666
676.043	17273
676.093	16539
676.142	16554
676.192	15854
676.242	16136
676.292	15444
676.341	16466
676.391	19246
676.441	16619
676.491	14990
676.540	15392
676.590	14928
676.640	15823
676.689	15722
676.739	15231
676.789	14218
676.838	14269
676.888	15159
676.937	14826
676.987	15090
677.037	14128
677.086	12938
677.136	13835
677.185	14670
677.235	13293
677.284	11873
677.333	14608
677.383	14734
677.432	14017
677.482	12762
677.531	14246
677.580	14442
677.630	14115
677.679	13205
677.728	14512
677.778	13680
677.827	12778
677.876	13003
677.925	13590
677.975	12450
678.024	15231
678.073	13195
678.122	14956
678.171	16154
678.220	16468
678.269	16460
678.319	19132
678.368	16394
678.417	16419
678.466	15931
678.515	17477
678.564	17060
678.613	15749
678.662	14891
678.711	15960
678.760	14379
678.809	14989
678.857	14725
678.906	15736
678.955	15281
679.004	15983
679.053	14082
679.102	14847
679.151	15351
679.199	16249
679.248	14473
679.297	14872
679.346	15322
679.394	14947
679.443	14588
679.492	15178
679.540	13533
679.589	15056
679.638	16257
679.686	13573
679.735	11932
679.784	14667
679.832	16100
679.881	14863
679.929	12711
679.978	12572
680.026	12708
680.075	14071
680.123	13860
680.172	14013
680.220	11474
680.268	13308
680.317	13816
680.365	12670
680.414	12645
680.462	13103
680.510	13348
680.559	12529
680.607	12088
680.655	13037
680.703	12525
680.752	14249
680.800	12000
680.848	12175
680.896	12633
680.945	12074
680.993	13022
681.041	13553
681.089	11575
681.137	11737
681.185	10972
681.233	12714
681.258	12485
681.281	12192
681.329	12651
681.377	11681
681.380	11809
681.425	12588
681.473	13259
681.502	14508
681.521	15245
681.569	14427
681.617	14783
681.624	14724
681.665	13647
681.713	14855
681.745	13832
681.761	13228
681.809	14452
681.857	14906
681.867	14832
681.904	14257
681.952	14744
681.989	15350
682.000	15427
682.048	15508
682.096	14285
682.111	14659
682.143	15175
682.191	15732
682.233	15777
682.239	15700
682.286	15687
682.334	14871
682.354	14825
682.382	14614
682.430	15508
682.476	16164
682.477	16106
682.525	14518
682.572	16012
682.598	15765
682.620	15399
682.667	16055
682.715	16521
682.720	16698
682.763	17790
682.810	16809
682.841	17091
682.857	17074
682.905	16284
682.952	17237
682.963	17091
683.000	16376
683.047	17433
683.085	17391
683.095	17277
683.142	16951
683.190	17190
683.206	17314
683.237	17374
683.284	17378
683.328	18522
683.332	18562
683.379	17839
683.426	17960
683.449	17801
683.473	17510
683.521	18659
683.568	17649
683.571	17729
683.615	17968
683.662	18459
683.693	18623
683.709	18653
683.757	18053
683.804	18687
683.814	18894
683.851	19390
683.898	19590
683.936	19276
683.945	19138
683.992	19780
684.039	19983
684.057	20468
684.086	21206
684.133	19927
684.179	21429
684.180	21417
684.227	21276
684.274	21714
684.300	21366
684.321	21013
684.368	21056
684.415	20890
684.422	21091
684.462	22031
684.509	19888
684.543	21286
684.556	21678
684.603	20268
684.649	20500
684.665	20573
684.696	20916
684.743	21321
684.786	22230
684.790	22265
684.837	23268
684.883	23538
684.908	24540
684.930	25713
684.977	26300
685.023	27541
685.029	27479
685.070	25182
685.117	24451
685.150	24078
685.164	24212
685.210	26549
685.257	27348
685.272	27466
685.303	27417
685.350	26160
685.393	27194
685.396	27242
685.443	26292
685.490	28369
685.514	28325
685.536	28321
685.583	28287
685.629	28247
685.636	28324
685.675	27835
685.722	27189
685.757	26836
685.768	26886
685.815	28251
685.861	28926
685.878	28693
685.908	28102
685.954	29140
686.000	29057
686.000	29060
686.047	32422
686.093	34512
686.121	37375
686.139	39057
686.185	36238
686.232	37043
686.242	37210
686.278	34204
686.324	31001
686.363	27923
686.370	27771
686.416	27882
686.463	27608
686.484	27770
686.509	28328
686.555	27900
686.601	27697
686.606	27770
686.647	27972
686.693	28614
686.727	27850
686.739	27605
686.785	27893
686.831	28145
686.848	28433
686.877	28789
686.923	27908
686.969	27391
686.969	27384
687.015	27467
687.061	28156
687.090	28073
687.107	28196
687.153	28564
687.199	28991
687.211	29014
687.245	28561
687.291	27824
687.332	28621
687.336	28858
687.382	31701
687.428	32600
687.453	32822
687.474	31779
687.520	30223
687.565	28757
687.574	28647
687.611	28894
687.657	27846
687.695	28371
687.702	28603
687.748	29167
687.794	29916
687.816	29786
687.839	29423
687.885	28986
687.931	28485
687.937	28583
687.976	29002
688.022	28923
688.058	28925
688.067	29164
688.113	30112
688.158	30860
688.179	31101
688.204	30752
688.249	30126
688.295	30741
688.300	30724
688.340	31760
688.386	33080
688.421	33039
688.431	32809
688.477	32067
688.522	31884
688.542	31813
688.567	31879
688.613	32299
688.658	31545
688.663	31562
688.703	31798
688.749	31306
688.784	31861
688.794	32140
688.839	31274
688.884	32180
688.905	32036
688.930	31483
688.975	30970
689.020	30578
689.026	30604
689.065	31970
689.110	31741
689.146	32412
689.155	32359
689.201	31521
689.246	30842
689.267	30291
689.291	29974
689.336	30573
689.381	30251
689.388	30330
689.426	31799
689.471	31606
689.509	32646
689.516	32642
689.561	31416
689.606	30687
689.630	30409
689.651	30525
689.696	30892
689.741	30744
689.750	30813
689.785	31531
689.830	31798
689.871	32016
689.875	31984
689.920	31365
689.965	31157
689.992	30648
690.010	30598
690.054	30528
690.099	30984
690.112	30937
690.144	31308
690.189	31275
690.233	32164
690.233	32200
690.278	31588
690.323	31720
690.354	30933
690.367	30761
690.412	30953
690.457	31079
690.474	31028
690.501	31195
690.546	31068
690.590	30904
690.595	30903
690.635	30671
690.680	30320
690.716	29850
690.724	30007
690.769	30645
690.813	31813
690.836	31993
690.857	31801
690.902	30998
690.946	30902
690.957	30860
690.991	31330
691.035	31727
691.077	31855
691.080	31936
691.124	33213
691.168	34103
691.198	34611
691.213	35128
691.257	36358
691.301	38662
691.318	38868
691.346	37893
691.390	36499
691.434	35648
691.439	35483
691.478	34528
691.522	34084
691.559	33156
691.567	33349
691.611	34517
691.655	34884
691.680	35110
691.699	34982
691.743	35376
691.787	35377
691.800	35280
691.831	35295
691.875	35560
691.919	35892
691.921	35845
691.964	37482
692.008	39029
692.041	39801
692.052	39844
692.096	40419
692.139	40338
692.162	40412
692.183	40055
692.227	39269
692.271	38731
692.282	38374
692.315	38186
692.359	38209
692.402	38139
692.403	38201
692.447	38061
692.490	37736
692.523	37651
692.534	37997
692.578	39198
692.622	40059
692.643	40385
692.666	39849
692.709	38378
692.753	37499
692.763	37179
692.797	36777
692.840	35999
692.884	35436
692.884	35502
692.928	35661
692.971	36331
693.004	36418
693.015	36630
693.059	37630
693.102	38152
693.124	38404
693.146	38093
693.189	37298
693.233	36988
693.245	36701
693.276	37864
693.320	39602
693.363	40822
693.365	40808
693.407	40177
693.450	39553
693.485	38784
693.493	38962
693.537	39449
693.580	40197
693.605	40431
693.624	40319
693.667	39891
693.710	39237
693.725	39038
693.753	38745
693.797	38431
693.840	37739
693.845	37583
693.883	38125
693.926	38831
693.966	38936
693.970	38824
694.013	37328
694.056	35534
694.086	34391
694.099	34802
694.142	35994
694.185	37287
694.206	37623
694.229	38142
694.272	39288
694.315	40166
694.326	40445
694.358	41795
694.401	42796
694.444	44062
694.446	44040
694.487	43054
694.530	41865
694.566	40720
694.573	40644
694.616	39727
694.659	38623
694.686	37918
694.702	37461
694.745	35896
694.787	34504
694.806	33795
694.830	34308
694.873	35150
694.916	35891
694.926	35959
694.959	35872
695.002	35868
695.044	35724
695.046	35647
695.087	36060
695.130	36552
695.166	36541
695.172	36680
695.215	37357
695.258	37946
695.286	38236
695.301	38350
695.343	38380
695.386	38601
695.406	38530
695.428	38187
695.471	37363
695.514	36498
695.526	36277
695.556	37073
695.599	37998
695.641	38760
695.646	38732
695.684	38190
695.726	37833
695.766	37133
695.769	37225
695.811	37770
695.854	38225
695.886	38315
695.896	38274
695.938	37533
695.981	37196
696.005	36797
696.023	36639
696.065	36169
696.108	35807
696.125	35590
696.150	36801
696.192	38485
696.235	40195
696.245	40536
696.277	40116
696.319	39382
696.361	38798
696.365	38655
696.404	38197
696.446	37594
696.485	36909
696.488	37005
696.530	37039
696.572	37229
696.604	37301
696.614	37566
696.656	38403
696.698	38919
696.724	39346
696.740	38919
696.783	37338
696.825	36024
696.844	35225
696.867	35503
696.909	35898
696.951	36434
696.964	36460
696.992	36464
697.034	36320
697.076	36319
697.083	36222
697.118	36418
697.160	36610
697.202	36777
697.203	36694
697.244	36952
697.286	37086
697.323	37109
697.327	37165
697.369	36857
697.411	36654
697.442	36326
697.453	36546
697.494	37176
697.536	37737
697.562	38046
697.578	38265
697.620	38444
697.661	38794
697.682	38776
697.703	38734
697.744	38767
697.786	38550
697.801	38398
697.828	39611
697.869	41436
697.911	43153
697.921	43469
697.952	42215
697.994	40504
698.035	38731
698.040	38429
698.077	38653
698.118	38676
698.160	38797
698.160	38701
698.201	38290
698.243	37788
698.279	37313
698.284	37452
698.325	37852
698.367	38231
698.399	38395
698.408	38435
698.449	38196
698.491	38012
698.518	37784
698.532	37718
698.573	37199
698.614	36682
698.638	36296
698.656	36769
698.697	37654
698.738	38557
698.757	38871
698.779	39242
698.820	39784
698.862	40313
698.877	40411
698.903	40947
698.944	41632
698.985	42324
698.996	42408
699.026	42728
699.067	43028
699.116	43277
699.235	39638
699.354	38341
699.474	37302
699.593	42892
699.713	50834
699.832	38206
699.951	40654
700.070	39515
700.190	37162
700.309	36758
700.428	40995
700.547	43303
700.667	37395
700.786	40311
700.905	43417
701.024	37227
701.143	45526
701.262	33597
701.381	32508
701.500	35536
701.619	37437
701.738	35778
701.857	33407
701.976	31236
702.095	31804
702.214	32631
702.333	37304
702.452	33673
702.571	33607
702.690	32706
702.809	33557
702.928	30591
703.047	30337
703.165	31258
703.284	31726
703.403	30541
703.522	34355
703.640	41393
703.759	37648
703.878	61507
703.997	53198
704.115	31807
704.234	31585
704.353	31357
704.471	30426
704.590	28000
704.708	28093
704.827	26859
704.946	28663
705.064	34818
705.183	32337
705.301	33439
705.420	50853
705.538	61047
705.656	47948
705.775	39576
705.893	40142
706.012	46649
706.130	46438
706.249	45792
706.367	46050
706.485	49061
706.604	49926
706.722	46524
706.840	50973
706.958	58976
707.077	45154
707.195	42980
707.313	39843
707.431	40566
707.549	40110
707.668	40892
707.786	42679
707.904	41485
708.022	38448
708.140	38657
708.258	37624
708.376	37702
708.494	38736
708.612	40030
708.730	54141
708.848	71811
708.966	58672
709.084	55178
709.202	50025
709.320	52911
709.438	52685
709.556	54391
709.674	53251
709.791	52324
709.909	50442
710.027	49667
710.145	51259
710.263	49278
710.380	50572
710.498	51538
710.616	50151
710.733	49357
710.851	53316
710.969	55705
711.086	51872
711.204	49477
711.322	48486
711.439	49084
711.557	54263
711.674	49020
711.792	48535
711.909	47824
712.027	43184
712.144	43961
712.262	45995
712.379	48166
712.497	65614
712.614	86239
712.732	69448
712.849	59963
712.966	60706
713.084	74080
713.201	71462
713.318	61914
713.436	62047
713.553	61729
713.670	61614
713.787	66430
713.905	78942
714.022	63585
714.139	58543
714.256	63965
714.373	70678
714.490	87518
714.608	129271
714.725	370151
714.842	1192448
714.959	287971
715.076	73022
715.193	59787
715.310	57919
715.427	52312
715.544	52272
715.661	49995
715.778	50348
715.895	55065
716.011	57476
716.128	55292
716.245	50185
716.362	52080
716.479	58082
716.596	50988
716.713	48356
716.829	47080
716.946	48428
717.063	44350
717.180	47139
717.296	44156
717.413	43711
717.530	43371
717.646	44244
717.763	42596
717.880	42013
717.996	41917
718.113	43916
718.229	41681
718.346	42993
718.462	39932
718.579	44024
718.695	57935
718.812	73119
718.928	63917
719.045	67493
719.161	39564
719.277	38047
719.394	37479
719.510	38767
719.626	39689
719.743	48588
719.859	53875
719.975	63340
720.092	127781
720.208	469401
720.324	316582
720.440	55611
720.557	45938
720.673	55135
720.789	77605
720.905	150235
721.021	190851
721.137	45604
721.253	38887
721.369	41674
721.486	44130
721.602	62227
721.718	57044
721.834	34389
721.950	34325
722.066	34478
722.181	33581
722.297	34496
722.413	34431
722.529	31062
722.645	33444
722.761	31519
722.877	32205
722.993	31167
723.108	34022
723.224	34840
723.340	33657
723.456	32350
723.571	29715
723.687	31360
723.803	29585
723.918	30380
724.034	29597
724.150	31807
724.265	31915
724.381	50848
724.497	128921
724.612	55891
724.728	29337
724.843	28318
724.959	31680
725.074	47064
725.190	117377
725.305	48763
725.421	36024
725.536	26658
725.651	24822
725.767	25660
725.882	23107
725.997	23787
726.113	25734
726.228	24928
726.343	24926
726.459	23230
726.574	23852
726.689	27839
726.804	23522
726.920	25594
727.035	23919
727.150	26099
727.265	23830
727.380	25912
727.495	23658
727.610	22052
727.725	21378
727.841	21584
727.956	21853
728.071	25200
728.186	28404
728.301	20917
728.416	21090
728.531	23492
728.645	19457
728.760	20652
728.875	22882
728.990	20477
729.105	21739
729.220	21478
729.335	22923
729.449	20671
729.564	19185
729.679	18190
729.794	18405
729.908	20864
730.023	25742
730.138	18933
730.253	17387
730.367	19365
730.482	17460
730.596	18629
730.711	19369
730.826	20817
730.940	18539
731.055	19131
731.169	20273
731.284	17611
731.398	17537
731.513	22147
731.627	25314
731.742	23751
731.856	34395
731.970	24767
732.085	22966
732.199	27082
732.313	36967
732.428	65040
732.542	184857
732.656	334383
732.771	79208
732.885	30710
732.999	23656
733.113	25739
733.227	25391
733.342	20930
733.456	18695
733.570	19515
733.684	17725
733.798	20441
733.912	18787
734.026	18465
734.140	17690
734.254	19223
734.368	27499
734.482	67606
734.596	30540
734.710	16768
734.824	17321
734.938	16051
735.052	17556
735.166	18931
735.280	20835
735.393	17694
735.507	15996
735.621	21408
735.735	40168
735.849	49247
735.962	16743
736.076	17657
736.190	20324
736.303	21295
736.417	44159
736.531	25189
736.644	18366
736.758	16451
736.872	14747
736.985	13963
737.099	14000
737.212	14246
737.326	14300
737.439	14872
737.553	14019
737.666	14305
737.780	13317
737.893	13027
738.007	14038
738.120	13264
738.233	13649
738.347	13570
738.460	12702
738.573	14044
738.687	14344
738.800	13549
738.913	15411
739.026	17432
739.140	14092
739.253	12913
739.366	12357
739.479	13338
739.592	12552
739.705	12396
739.818	13690
739.932	12555
740.045	12134
740.158	11880
740.271	13174
740.384	12585
740.497	11242
740.610	12008
740.723	12161
740.836	13257
740.949	11853
741.062	14500
741.174	18273
741.287	13830
741.400	11840
741.513	12197
741.626	13050
741.739	13237
741.851	12364
741.964	11663
742.077	12564
742.189	12334
742.302	11997
742.415	12734
742.527	11695
742.640	11891
742.753	11980
742.865	10514
742.978	11355
743.090	10763
743.203	10715
743.316	11612
743.428	10608
743.541	10396
743.653	10435
743.766	10878
743.878	10897
743.990	14087
744.103	23409
744.215	12612
744.327	9828
744.440	11854
744.552	15382
744.664	17275
744.777	10869
744.889	9549
745.001	9318
745.113	9915
745.226	10441
745.338	9314
745.450	9381
745.562	9308
745.674	8812
745.786	9290
745.898	8966
746.010	9674
746.122	9160
746.234	9807
746.347	8610
746.459	9965
746.570	8910
746.682	9606
746.794	9490
746.906	9632
747.018	9149
747.130	8614
747.242	8778
747.354	9256
747.466	10540
747.577	9479
747.689	9231
747.801	9189
747.913	7731
748.024	8218
748.136	7981
748.248	8930
748.359	8149
748.471	8345
748.583	7683
748.694	8386
748.806	8445
748.918	12880
749.029	16172
749.141	10221
749.252	10040
749.364	10017
749.475	15626
749.587	24511
749.698	13497
749.809	8662
749.921	8101
750.032	8062
750.144	8004
750.255	8110
750.366	8331
750.478	7762
750.589	7119
750.700	8588
750.811	8684
750.923	9423
751.034	13886
751.145	30566
751.256	13425
751.367	8290
751.479	7713
751.590	7501
751.701	7903
751.812	7372
751.923	7228
752.034	7676
752.145	7447
752.256	7523
752.367	7269
752.478	7152
752.589	6825
752.700	7438
752.811	7582
752.922	7595
753.032	7048
753.143	9590
753.254	7821
753.365	7205
753.476	7551
753.586	7335
753.697	6671
753.808	6455
753.919	6242
754.029	6729
754.140	7210
754.251	7446
754.361	7018
754.472	7328
754.582	7322
754.693	7294
754.804	7494
754.914	6502
755.025	6683
755.135	5868
755.246	7125
755.356	5669
755.466	7119
755.577	6497
755.687	6409
755.798	7528
755.908	6562
756.018	6453
756.129	6741
756.239	6469
756.349	7278
756.460	6553
756.570	7826
756.680	7463
756.790	7410
756.900	7769
757.011	6501
757.121	6139
757.231	6519
757.341	7031
757.451	5606
757.561	6741
757.671	5600
757.781	6413
757.891	6760
758.001	7855
758.111	7925
758.221	7004
758.331	8276
758.441	9139
758.551	9010
758.661	14412
758.771	8868
758.880	9171
758.990	9558
759.100	8962
759.210	8424
759.320	8036
759.429	7903
759.539	8904
759.649	8013
759.758	9777
759.868	9858
759.978	9967
760.087	10248
760.197	11106
760.307	10080
760.416	9574
760.526	8969
760.635	9063
760.745	8802
760.854	10351
760.964	10199
761.073	11281
761.182	10182
761.292	10358
761.401	10399
761.511	12605
761.620	8508
761.729	8607
761.839	8716
761.948	9277
762.057	7996
762.166	9471
762.276	7745
762.385	7899
762.494	7860
762.603	7249
762.712	7094
762.822	9483
762.931	8694
763.040	7022
763.149	7973
763.258	7583
763.367	7663
763.476	8104
763.585	7194
763.694	8444
763.803	7911
763.912	9238
764.021	8389
764.130	8235
764.238	7444
764.347	8118
764.456	8570
764.565	9146
764.674	7665
764.783	8144
764.891	7702
765.000	6909
765.109	7828
765.217	8064
765.326	8408
765.435	12335
765.543	12291
765.652	8444
765.761	9306
765.869	9548
765.978	11652
766.086	15712
766.195	24944
766.303	50009
766.412	164638
766.520	407053
766.629	130091
766.737	26622
766.846	16610
766.954	13245
767.062	11344
767.171	11479
767.279	11423
767.387	10071
767.496	10211
767.604	9063
767.712	9340
767.820	9136
767.928	8894
768.037	9193
768.145	9134
768.253	10026
768.361	8961
768.469	9657
768.577	8627
768.685	8930
768.793	8873
768.901	9456
769.009	9117
769.117	8749
769.225	9280
769.333	10563
769.441	11257
769.549	14872
769.657	23519
769.765	56318
769.873	207561
769.981	214903
770.088	29570
770.196	13034
770.304	11424
770.412	10918
770.519	11409
770.627	11069
770.735	10473
770.842	10448
770.950	10520
771.058	9206
771.165	9695
771.273	9906
771.380	10524
771.488	9427
771.595	11505
771.703	10385
771.810	10483
771.918	10433
772.025	10571
772.133	10532
772.240	11250
772.348	12125
772.455	11267
772.562	11550
772.670	10500
772.777	11353
772.884	10718
772.991	10104
773.099	10966
773.206	10204
773.313	11152
773.420	10528
773.528	10038
773.635	9495
773.742	10395
773.849	9685
773.956	9852
774.063	9706
774.170	10191
774.277	10393
774.384	10939
774.491	10084
774.598	10630
774.705	10545
774.812	11404
774.919	12915
775.026	11418
775.133	11167
775.239	9949
775.346	10573
775.453	11082
775.560	10047
775.667	10087
775.773	10361
775.880	9667
775.987	10804
776.093	10174
776.200	10842
776.307	10168
776.413	10214
776.520	9373
776.627	11200
776.733	10360
776.840	10024
776.946	10964
777.053	10559
777.159	8931
777.266	9550
777.372	9884
777.478	10418
777.585	10425
777.691	9624
777.798	9576
777.904	10447
778.010	11559
778.117	13824
778.223	10533
778.329	9616
778.435	10086
778.542	9934
778.648	9495
778.754	8663
778.860	8014
778.966	9897
779.072	10481
779.178	9754
779.284	9743
779.391	8920
779.497	8682
779.603	9695
779.708	8420
779.815	8894
779.920	8866
780.026	11241
780.132	10515
780.238	8779
780.344	7958
780.450	9795
780.556	8639
780.661	7550
780.767	8055
780.873	8472
780.979	7734
781.085	8912
781.190	8425
781.296	8343
781.402	7489
781.507	7957
781.613	7933
781.719	8130
781.824	8099
781.930	7743
782.035	7509
782.141	8605
782.246	8228
782.352	7410
782.457	7774
782.563	8024
782.668	7614
782.773	8181
782.879	8543
782.984	7673
783.090	9415
783.195	10014
783.300	13631
783.405	8954
783.511	9182
783.616	9188
783.721	8344
783.826	8767
783.932	7289
784.037	8308
784.142	8029
784.247	8077
784.352	7324
784.457	7721
784.562	6488
784.667	7900
784.772	7638
784.877	7333
784.982	8217
785.087	7378
785.192	6920
785.297	8098
785.402	7655
785.507	7632
785.611	7591
785.716	7218
785.821	7575
785.926	7364
786.031	6367
786.135	7422
786.240	7144
786.345	6789
786.450	7113
786.554	6913
786.659	6421
786.763	6133
786.868	7014
786.973	7771
787.077	7162
787.182	7010
787.286	6728
787.391	6741
787.495	5306
787.600	7096
787.704	5202
787.809	6143
787.913	6662
788.017	6176
788.122	6500
788.226	6546
788.330	5376
788.435	5900
788.539	6645
788.643	6301
788.747	5138
788.852	5256
788.956	6173
789.060	6765
789.164	6122
789.268	5361
789.372	5252
789.476	5873
789.580	6100
789.684	5686
789.788	5287
789.892	6317
789.996	6204
790.100	6208
790.204	6223
790.308	6455
790.412	6978
790.516	5757
790.620	5953
790.724	7605
790.828	6524
790.931	6640
791.035	6573
791.139	6398
791.242	5293
791.346	5782
791.450	5521
791.554	5953
791.657	5552
791.761	5488
791.864	5732
791.968	5633
792.072	5885
792.175	4990
792.279	5783
792.382	5832
792.486	5419
792.589	6498
792.693	7357
792.796	5759
792.899	5909
793.003	4984
793.106	5012
793.209	5534
793.313	6207
793.416	5579
793.519	4658
793.623	6756
793.726	10772
793.829	9693
793.932	6535
794.035	4288
794.138	5974
794.242	6222
794.345	6804
794.448	9121
794.551	8489
794.654	11854
794.757	8450
794.860	7574
794.963	11072
795.066	6381
795.169	4642
795.272	4690
795.375	4172
795.477	5684
795.580	3662
795.683	4880
795.786	4253
795.889	4152
795.991	5082
796.094	6298
796.197	8512
796.300	6619
796.402	4694
796.505	4754
796.608	4019
796.710	4734
796.813	4020
796.915	4567
797.018	4586
797.120	5218
797.223	4673
797.326	5294
797.428	4613
797.530	4247
797.633	4846
797.735	6739
797.838	9377
797.940	19215
798.042	7754
798.145	4473
798.247	4535
798.349	3726
798.452	4725
798.554	4048
798.656	4127
798.758	5237
798.860	4567
798.962	3897
799.065	3555
799.167	4817
799.269	5011
799.371	5697
799.473	6857
799.575	7799
799.677	10840
799.779	9109
799.881	7439
799.983	9593
800.085	4965
800.187	3668
800.289	3738
800.390	5193
800.492	4055
800.594	4779
800.696	3271
800.798	3384
800.899	3512
801.001	3685
801.103	3646
801.205	3875
801.306	4111
801.408	3915
801.509	3353
801.611	3775
801.713	3937
801.814	3763
801.916	3036
802.017	3493
802.119	3513
802.220	3998
802.322	3655
802.423	6052
802.525	9974
802.626	5713
802.727	4182
802.829	4212
802.930	3029
803.031	4308
803.133	3324
803.234	3029
803.335	2573
803.436	3034
803.538	3361
803.639	3564
803.740	4003
803.841	3425
803.942	3329
804.043	3519
804.144	2840
804.245	4361
804.346	2939
804.447	4091
804.548	4617
804.649	7772
804.750	5231
804.851	3383
804.952	2655
805.053	3551
805.154	2543
805.255	3727
805.355	2227
805.456	3269
805.557	2888
805.658	2227
805.758	2933
805.859	3028
805.960	3006
806.061	3757
806.161	2580
806.262	3569
806.362	3536
806.463	3913
806.564	3547
806.664	4720
806.765	4263
806.865	8404
806.966	4997
807.066	3419
807.166	3358
807.267	4025
807.367	2069
807.468	3639
807.568	2615
807.668	3849
807.769	3436
807.869	3861
807.969	2509
808.069	3463
808.170	2894
808.270	2963
808.370	2671
808.470	4678
808.570	5814
808.670	3438
808.770	3333
808.870	2321
808.970	3341
809.070	2154
809.170	2268
809.271	3201
809.370	2933
809.470	3447
809.570	2665
809.670	2140
809.770	2339
809.870	3583
809.970	2746
810.070	2165
810.169	2657
810.269	1552
810.369	3154
810.469	2143
810.568	1833
810.668	2447
810.768	2724
810.867	2286
810.967	2140
811.066	2990
811.166	2172
811.265	2166
811.365	2772
811.464	2293
811.564	2862
811.663	3280
811.763	3055
811.862	2890
811.962	2867
812.061	2305
812.160	2903
812.260	2709
812.359	2571
812.458	2507
812.557	3514
812.657	4879
812.756	5192
812.855	3196
812.954	2432
813.053	2922
813.153	3408
813.252	3369
813.351	2701
813.450	2847
813.549	2957
813.648	2140
813.747	2157
813.846	3169
813.945	2411
814.044	2947
814.143	2904
814.242	3117
814.341	3104
814.439	2869
814.538	3421
814.637	2523
814.736	2864
814.835	2823
814.933	2922
815.032	2751
815.131	4356
815.229	3987
815.328	5491
815.427	5752
815.525	5128
815.624	5018
815.722	4613
815.821	4778
815.919	4625
816.018	4471
816.116	5232
816.215	4609
816.313	5226
816.412	5071
816.510	6350
816.609	6878
816.707	6391
816.805	6406
816.904	6920
817.002	7679
817.100	7462
817.198	8648
817.296	8442
817.395	8466
817.493	9751
817.591	10475
817.689	13162
817.787	16064
817.885	21706
817.983	32413
818.081	58388
818.179	121701
818.277	270835
818.375	491351
818.473	295252
818.571	102174
818.669	49772
818.767	37901
818.865	33577
818.963	35511
819.061	43399
819.158	63925
819.256	109755
819.354	217787
819.452	460268
819.549	653543
819.647	356080
819.745	137546
819.842	68219
819.940	44512
820.038	31564
820.135	23894
820.233	19213
820.330	16206
820.428	12869
820.525	12714
820.623	10248
820.720	9650
820.818	8726
820.915	7356
821.012	7820
821.110	6728
821.207	6921
821.304	5801
821.402	5801
821.499	6483
821.596	5552
821.693	5879
821.791	6326
821.888	6863
821.985	9649
822.082	14415
822.179	8169
822.276	4994
822.373	4400
822.470	4045
822.567	4086
822.664	4792
822.761	4161
822.858	4194
822.955	3883
823.052	3033
823.149	3619
823.246	5299
823.343	3778
823.440	3232
823.536	3508
823.633	4157
823.730	2270
823.827	3343
823.923	3542
824.020	3564
824.117	2417
824.213	2902
824.310	3995
824.407	3644
824.503	3966
824.600	3219
824.696	2327
824.793	3511
824.889	3013
824.986	3713
825.082	2110
825.179	3019
825.275	2608
825.371	3379
825.468	3560
825.564	3284
825.660	3272
825.757	3352
825.853	2959
825.949	2238
826.045	3008
826.142	1839
826.238	3087
826.334	3867
826.430	3158
826.526	3270
826.622	2479
826.718	2397
826.814	3772
826.910	3696
827.006	2019
827.102	1949
827.198	2702
827.294	2281
827.390	2380
827.486	2816
827.582	1960
827.678	2321
827.774	2950
827.869	2331
827.965	2660
828.061	2273
828.157	2509
828.252	2747
828.348	2348
828.444	2612
828.539	2378
828.635	2394
828.731	2659
828.826	1842
828.922	2837
829.017	2732
829.113	3237
829.208	2702
829.304	2243
829.399	4041
829.495	3610
829.590	2687
829.685	2358
829.781	3200
829.876	2537
829.971	2252
830.066	1282
830.162	2428
830.257	2835
830.352	2154
830.447	2888
830.543	2018
830.638	3092
830.733	4087
830.828	2888
830.923	3251
831.018	3038
831.113	3410
831.208	3394
831.303	3198
831.398	2596
831.493	2963
831.588	2183
831.683	3015
831.778	1468
831.873	2121
831.967	1787
832.062	1723
832.157	1925
832.252	3066
832.346	2018
832.441	3301
832.536	4325
832.631	5922
832.725	10845
832.820	5594
832.914	2465
833.009	2390
833.104	2496
833.198	3853
833.293	4314
833.387	3161
833.482	3567
833.576	2366
833.670	2114
833.765	2492
833.859	3036
833.954	3289
834.048	2823
834.142	2678
834.237	2401
834.331	1436
834.425	1756
834.519	1663
834.613	1942
834.708	1085
834.802	1989
834.896	2184
834.990	2834
835.084	2072
835.178	1973
835.272	1527
835.366	2691
835.460	2770
835.554	2301
835.648	2527
835.742	1638
835.836	1412
835.930	1949
836.024	2652
836.117	2498
836.211	4039
836.305	4449
836.399	7338
836.493	6983
836.586	3077
836.680	1769
836.774	2154
836.867	2481
836.961	1709
837.055	1726
837.148	1750
837.242	1648
837.335	1926
837.429	2146
837.522	2210
837.616	3403
837.709	6495
837.803	11607
837.896	6318
837.989	2891
838.083	5761
838.176	8515
838.269	18679
838.363	9504
838.456	2783
838.549	3481
838.642	5335
838.735	7640
838.829	11386
838.922	3567
839.015	2633
839.108	2279
839.201	2516
839.294	2306
839.387	2747
839.480	2083
839.573	3753
839.666	7426
839.759	7290
839.852	1650
839.945	2388
840.038	1451
840.131	1743
840.223	1866
840.316	1829
840.409	1964
840.502	1457
840.594	2013
840.687	1970
840.780	1828
840.873	1894
840.965	2639
841.058	4618
841.150	7594
841.243	15342
841.336	6720
841.428	2841
841.521	1788
841.613	2822
841.706	3366
841.798	3458
841.890	1396
841.983	1589
842.075	1708
842.167	1854
842.260	2187
842.352	3905
842.444	6622
842.537	10636
842.629	21771
842.721	17985
842.813	3162
842.905	2060
842.997	2240
843.090	3777
843.182	5201
843.274	10528
843.366	22465
843.458	45926
843.550	68893
843.642	27753
843.734	4656
843.826	4081
843.918	6555
844.009	3054
844.101	1693
844.193	2393
844.285	2071
844.377	2648
844.469	1499
844.560	1342
844.652	1941
844.744	1962
844.835	2151
844.927	1876
845.019	3580
845.110	4808
845.202	2224
845.293	2465
845.385	875
845.476	1724
845.568	1658
845.659	2619
845.751	2545
845.842	1367
845.934	975
846.025	1539
846.116	1991
846.208	1641
846.299	1494
846.390	1820
846.482	2025
846.573	2466
846.664	4394
846.755	5912
846.846	8966
846.937	4834
847.029	1777
847.120	1358
847.211	1657
847.302	2088
847.393	982
847.484	1893
847.575	930
847.666	1889
847.757	1808
847.847	1310
847.938	2509
848.029	1911
848.120	729
848.211	1371
848.302	1844
848.392	1682
848.483	2179
848.574	1027
848.664	1431
848.755	1312
848.846	1655
848.936	1173
849.027	1472
849.118	1233
849.208	1270
849.299	2192
849.389	4183
849.480	8159
849.570	16711
849.661	27670
849.751	52220
849.841	62219
849.932	14599
850.022	3186
850.112	2028
850.203	1435
850.293	1886
850.383	1132
850.474	1727
850.564	2228
850.654	1458
850.744	1438
850.834	1927
850.924	1549
851.014	1757
851.104	1851
851.194	1904
851.284	2109
851.374	3047
851.464	2666
851.554	3084
851.644	3822
851.734	4110
851.824	8149
851.914	2660
852.004	2503
852.094	2336
852.183	1299
852.273	1633
852.363	1333
852.452	1087
852.542	1765
852.632	1347
852.721	2560
852.811	1152
852.901	2314
852.990	1756
853.080	2259
853.169	2480
853.259	2753
853.348	2041
853.438	3267
853.527	5010
853.617	5730
853.706	10345
853.795	18578
853.885	35619
853.974	75524
854.063	126266
854.152	239222
854.242	264767
854.331	75306
854.420	18857
854.509	9611
854.598	6895
854.687	6346
854.777	6396
854.866	5646
854.955	3911
855.044	2620
855.133	2063
855.222	2342
855.311	2215
855.400	2166
855.488	2196
855.577	1580
855.666	1893
855.755	1579
855.844	1210
855.933	1236
856.021	2119
856.110	1964
856.199	1526
856.288	1553
856.376	1012
856.465	1855
856.554	1808
856.642	1566
856.731	1334
856.819	1836
856.908	1536
856.996	1715
857.085	1402
857.173	2192
857.262	1084
857.350	1646
857.438	275
857.527	1744
857.615	1264
857.703	2086
857.792	1585
857.880	1162
857.968	847
858.056	369
858.145	1209
858.233	1835
858.321	-123
858.409	1674
858.497	1072
858.585	963
858.673	1230
858.761	1073
858.849	1239
858.937	564
859.025	865
859.113	1969
859.201	928
859.289	1987
859.377	884
859.465	1639
859.552	1765
859.640	1662
859.728	1410
859.816	2403
859.903	2056
859.991	1547
860.079	1422
860.166	1295
860.254	975
860.342	2106
860.429	966
860.517	1167
860.604	933
860.692	1038
860.779	987
860.867	1297
860.954	1411
861.042	1801
861.129	2091
861.216	2575
861.304	840
861.391	846
861.478	875
861.565	1925
861.653	1852
861.740	759
861.827	1347
861.914	1578
862.001	552
862.089	1550
862.176	1207
862.263	637
862.350	1300
862.437	799
862.524	708
862.611	1193
862.698	1563
862.785	1073
862.871	1220
862.958	1055
863.045	853
863.132	1403
863.219	540
863.306	904
863.392	1609
863.479	1186
863.566	1383
863.652	941
863.739	403
863.826	1155
863.912	626
863.999	1330
864.086	940
864.172	1204
864.259	699
864.345	1445
864.432	1926
864.518	2246
864.604	1813
864.691	1138
864.777	1586
864.863	1931
864.950	2291
865.036	2508
865.122	3050
865.209	5312
865.295	3779
865.381	5021
865.467	4424
865.553	5575
865.639	7380
865.726	10775
865.812	18792
865.898	39800
865.984	69238
866.070	95195
866.156	181374
866.242	136826
866.328	31263
866.414	9514
866.499	6645
866.585	5079
866.671	5357
866.757	4463
866.843	4084
866.928	4033
867.014	2812
867.100	4048
867.186	3680
867.271	5110
867.357	5675
867.442	7357
867.528	7166
867.614	3650
867.699	2180
867.785	3245
867.870	2430
867.956	2164
868.041	3495
868.127	3907
868.212	3937
868.297	5511
868.383	3444
868.468	3755
868.553	4578
868.639	7261
868.724	8164
868.809	15827
868.894	10206
868.979	2403
869.065	2064
869.150	3397
869.235	2752
869.320	1578
869.405	1997
869.490	2162
869.575	2148
869.660	1594
869.745	1947
869.830	2371
869.915	1887
870.000	2520
870.085	1000
870.169	1913
870.254	2304
870.339	2071
870.424	514
870.509	1476
870.593	1764
870.678	1942
870.763	1196
870.847	2424
870.932	1474
871.016	2386
871.101	2150
871.186	1087
871.270	1641
871.355	1249
871.439	1535
871.523	1928
871.608	1634
871.692	1364
871.777	2088
871.861	1706
871.945	1744
872.030	2369
872.114	2129
872.198	1802
872.282	1436
872.367	2081
872.451	1118
872.535	1299
872.619	1819
872.703	895
872.787	883
872.871	1781
872.955	1965
873.039	1134
873.123	1458
873.207	2864
873.291	1099
873.375	1706
873.459	2016
873.543	1478
873.627	1141
873.711	1727
873.794	1797
873.878	1496
873.962	478
874.045	1647
874.129	118
874.137	233
874.213	1379
874.245	1266
874.296	1091
874.352	1520
874.380	1727
874.460	862
874.464	828
874.547	1055
874.568	1211
874.631	1692
874.676	1492
874.714	1312
874.784	1468
874.798	1506
874.881	2183
874.892	2063
874.965	1178
874.999	1160
875.048	1149
875.107	1584
875.131	1762
875.215	1941
875.215	1939
875.298	548
875.323	826
875.381	1471
875.430	1235
875.465	1068
875.538	1473
875.548	1528
875.631	1380
875.646	1265
875.714	670
875.753	1056
875.798	1500
875.861	1520
875.881	1533
875.964	1421
875.968	1403
876.047	1110
876.076	1091
876.130	1128
876.183	1215
876.213	1189
876.291	2085
876.296	2146
876.379	1586
876.398	1601
876.462	1684
876.506	1425
876.545	1248
876.613	1820
876.628	1925
876.711	1187
876.721	1172
876.794	1134
876.828	1237
876.877	1391
876.935	1029
876.960	879
877.043	1249
877.043	1249
877.125	1074
877.150	1153
877.208	1663
877.258	1182
877.291	705
877.365	780
877.374	830
877.456	1157
877.472	1272
877.539	1541
877.579	1286
877.622	1100
877.687	1328
877.704	1351
877.787	1229
877.794	1247
877.869	1597
877.901	1492
877.952	1225
878.008	1490
878.034	1607
878.115	852
878.117	838
878.199	678
878.222	665
878.282	607
878.329	1266
878.364	1821
878.437	1333
878.447	1242
878.529	1081
878.544	1040
878.611	806
878.651	833
878.694	918
878.758	1174
878.776	1251
878.858	1148
878.865	1139
878.941	837
878.972	868
879.023	918
879.078	255
879.105	102
879.185	1772
879.187	1797
879.269	1381
879.292	1332
879.351	1178
879.399	880
879.433	723
879.506	550
879.516	548
879.598	1177
879.613	1191
879.680	893
879.720	669
879.762	636
879.827	984
879.844	1021
879.926	546
879.933	584
880.007	961
880.040	995
880.089	1239
880.147	1086
880.171	996
880.253	2253
880.254	2264
880.335	3426
880.360	3699
880.417	4839
880.467	5198
880.499	5656
880.574	10910
880.580	11240
880.662	9172
880.680	7841
880.744	2482
880.787	881
880.825	236
880.893	787
880.907	782
880.989	618
881.000	605
881.070	724
881.106	429
881.152	196
881.213	402
881.233	418
881.315	346
881.319	350
881.396	620
881.426	791
881.478	1000
881.532	754
881.559	607
881.639	185
881.641	176
881.722	941
881.745	798
881.803	416
881.852	549
881.885	862
881.958	1114
881.966	1063
882.047	669
882.064	696
882.129	1237
882.171	1457
882.210	1571
882.277	2123
882.291	2274
882.372	2672
882.383	2581
882.454	1457
882.489	964
882.535	538
882.596	777
882.616	831
882.697	511
882.702	511
882.778	630
882.808	587
882.859	485
882.914	532
882.940	553
883.020	580
883.021	581
883.102	760
883.127	790
883.183	898
883.233	1232
883.264	1156
883.339	-68
883.345	-86
883.426	761
883.445	826
883.507	521
883.551	656
883.587	824
883.657	673
883.668	678
883.749	1085
883.763	1109
883.830	1081
883.869	901
883.910	441
883.975	-83
883.991	29
884.072	991
884.081	1065
884.152	545
884.187	348
884.233	791
884.292	1062
884.314	888
884.394	468
884.398	450
884.475	537
884.504	545
884.555	416
884.610	72
884.636	17
884.716	619
884.716	622
884.797	275
884.821	310
884.877	578
884.927	605
884.958	427
885.033	153
885.038	163
885.118	59
885.139	196
885.199	267
885.244	-107
885.279	-74
885.350	570
885.359	599
885.439	426
885.456	433
885.520	531
885.561	514
885.600	558
885.667	808
885.680	818
885.760	756
885.773	738
885.840	581
885.878	460
885.920	277
885.984	125
886.000	120
886.080	-36
886.089	-5
886.160	674
886.195	798
886.240	846
886.300	1067
886.320	1005
886.400	718
886.406	701
886.480	319
886.511	101
886.560	158
886.616	403
886.640	555
886.720	830
886.722	838
886.800	689
886.827	646
886.879	589
886.932	517
886.959	595
887.038	1077
887.039	1077
887.119	846
887.143	737
887.198	825
887.248	993
887.278	774
887.354	76
887.358	98
887.437	729
887.459	877
887.517	618
887.564	423
887.596	235
887.669	-339
887.676	-330
887.755	15
887.774	55
887.835	342
887.880	664
887.914	550
887.985	234
887.994	284
888.073	713
888.090	812
888.153	640
888.195	496
888.232	597
888.300	707
888.311	711
888.391	892
888.405	910
888.470	477
888.510	216
888.549	172
888.615	63
888.628	89
888.708	333
888.720	362
888.787	800
888.825	1049
888.866	1106
888.930	1193
888.945	1038
889.024	279
889.035	168
889.103	921
889.140	1341
889.182	979
889.245	446
889.261	481
889.340	636
889.349	659
889.419	294
889.454	101
889.498	411
889.559	847
889.577	711
889.656	128
889.664	74
889.735	665
889.768	946
889.814	720
889.873	420
889.978	641
890.083	766
890.187	1099
890.292	666
890.397	54
890.501	693
890.606	1381
890.710	97
890.815	934
890.919	674
891.024	894
891.128	627
891.233	341
891.337	694
891.442	571
891.546	665
891.650	1550
891.755	-364
891.859	1247
891.963	201
892.068	548
892.172	-73
892.276	138
892.380	773
892.484	-15
892.589	537
892.693	884
892.797	-114
892.901	523
893.005	115
893.109	473
893.213	445
893.317	607
893.421	-41
893.525	831
893.629	26
893.733	834
893.837	250
893.941	1348
894.045	-627
894.148	238
894.252	-473
894.356	404
894.460	694
894.564	563
894.667	499
894.771	190
894.875	-225
894.978	173
895.082	337
895.186	52
895.289	1163
895.393	579
895.496	-558
895.600	694
895.703	-340
895.807	-132
895.910	-13
896.014	493
896.117	-309
896.221	64
896.324	385
896.427	146
896.531	203
896.634	219
896.737	1132
896.840	956
896.944	121
897.047	916
897.150	-242
897.253	472
897.356	-285
897.460	-35
897.563	-58
897.666	-1018
897.769	130
897.872	1253
897.975	-549
898.078	-240
898.181	-623
898.284	549
898.387	447
898.490	345
898.593	-180
898.695	427
898.798	-677
898.901	688
899.004	400
899.107	145
899.209	-92
899.312	306
899.415	28
899.518	-483
899.620	-183
899.723	313
899.826	-134
899.928	633
900.031	453
900.133	671
900.236	169
900.338	1394
900.441	1170
900.543	246
900.646	51
900.748	-238
900.851	-285
900.953	58
901.055	-328
901.158	-856
901.260	-577
901.362	54
901.465	-622
901.567	386
901.669	441
901.771	439
901.873	-163
901.976	-527
902.078	179
902.180	400
902.282	-718
902.384	-511
902.486	580
902.588	1213
902.690	-337
902.792	1167
902.894	433
902.996	710
903.098	207
903.200	-77
903.302	-326
903.404	227
903.505	-531
903.607	580
903.709	278
903.811	1313
903.913	-127
904.014	-73
904.116	673
904.218	-318
904.319	-240
904.421	165
904.523	-341
904.624	-106
904.726	-438
904.827	91
904.929	-112
905.030	-281
905.132	-38
905.233	1129
905.335	672
905.436	-132
905.537	-200
905.639	34
905.740	-332
905.841	118
905.943	-555
906.044	-424
906.145	-631
906.247	329
906.348	334
906.449	535
906.550	-757
906.651	486
906.752	437
906.854	224
906.955	-467
907.056	-682
907.157	-530
907.258	657
907.359	-5
907.460	401
907.561	-201
907.662	-174
907.762	-937
907.863	-208
907.964	-412
908.065	-140
908.166	-259
908.267	246
908.367	275
908.468	-178
908.569	616
908.670	382
908.770	326
908.871	112
908.971	100
909.072	317
909.173	297
909.273	-371
909.374	-6
909.474	-488
909.575	-813
909.675	-331
909.776	294
909.876	269
909.977	-108
910.077	-185
910.177	206
910.278	415
910.378	-403
910.478	206
910.579	-37
910.679	-419
910.779	-48
910.879	487
910.980	-898
911.080	-212
911.180	-264
911.280	289
911.380	-483
911.480	-43
911.580	-753
911.680	443
911.780	-346
911.880	507
911.980	-86
912.080	254
912.180	-21
912.280	525
912.380	133
912.480	521
912.580	-536
912.679	664
912.779	228
912.879	-356
912.979	-184
913.078	340
913.178	-359
913.278	188
913.377	-117
913.477	-261
913.577	-543
913.676	657
913.776	-628
913.875	-30
913.975	647
914.074	322
914.174	-555
914.273	-638
914.373	-264
914.472	329
914.572	-331
914.671	0
914.770	333
914.870	-313
914.969	-179
915.068	486
915.167	238
915.267	-108
915.366	-305
915.465	246
915.564	-185
915.663	48
915.763	-119
915.862	850
915.961	525
916.060	517
916.159	54
916.258	292
916.357	-143
916.456	383
916.555	-410
916.654	860
916.752	311
916.851	78
916.950	-388
917.049	-256
917.148	-339
917.247	259
917.345	-711
917.444	-509
917.543	-231
917.642	890
917.740	-667
917.839	395
917.937	89
918.036	113
918.135	-279
918.233	270
918.332	-164
918.430	-729
918.529	-374
918.627	589
918.726	-258
918.824	183
918.923	-562
919.021	382
919.119	-788
919.218	243
919.316	-471
919.414	173
919.512	-123
919.611	372
919.709	-110
919.807	561
919.905	-336
920.003	178
920.102	-403
920.200	134
920.298	-146
920.396	787
920.494	-767
920.592	-44
920.690	482
920.788	139
920.886	-447
920.984	793
921.082	-511
921.180	790
921.277	-453
921.375	669
921.473	325
921.571	427
921.669	324
921.766	25
921.864	249
921.962	36
922.060	58
922.157	488
922.255	90
922.352	-76
922.450	524
922.548	1154
922.645	117
922.743	774
922.840	1187
922.938	2284
923.035	1097
923.133	1629
923.230	1080
923.327	3295
923.425	2580
923.522	1972
923.619	1521
923.717	2838
923.814	1407
923.911	1246
924.008	1720
924.106	622
924.203	815
924.300	2127
924.397	1086
924.494	1678
924.591	1760
924.688	1184
924.786	1631
924.883	1636
924.979	1231
925.077	1325
925.173	887
925.270	1724
925.367	2122
925.464	1608
925.561	1595
925.658	2016
925.755	2014
925.852	2090
925.948	1137
926.045	1561
926.142	866
926.239	2031
926.335	1587
926.432	1361
926.529	1400
926.625	2085
926.722	805
926.818	2204
926.915	1705
927.011	1674
927.108	1733
927.204	1568
927.301	1797
927.397	2137
927.494	909
927.590	1357
927.687	1061
927.783	1914
927.879	916
927.976	1515
928.072	551
928.168	2123
928.264	1786
928.361	1414
928.457	1246
928.553	1429
928.649	1841
928.745	1544
928.841	846
928.937	1066
929.033	1858
929.129	1685
929.225	647
929.321	1281
929.417	229
929.513	1368
929.609	1633
929.705	550
929.801	810
929.897	1645
929.993	609
930.089	1542
930.184	509
930.280	1627
930.376	1401
930.471	1509
930.567	529
930.663	1227
930.758	445
930.854	796
930.950	895
931.045	1685
931.141	1676
931.236	1455
931.332	1727
931.427	975
931.523	1654
931.618	1691
931.714	680
931.809	1471
931.905	1034
932.000	1508
932.095	-513
932.191	954
932.286	1208
932.381	1334
932.476	281
932.572	1986
932.667	304
932.762	412
932.857	384
932.952	1349
933.047	850
933.142	1078
933.237	658
933.332	1920
933.427	1590
933.522	1219
933.617	731
933.712	896
933.807	567
933.902	1359
933.997	1611
934.092	1238
934.187	6
934.282	1202
934.376	378
934.471	1109
934.566	923
934.661	836
934.755	164
934.850	691
934.945	560
935.039	1399
935.134	844
935.228	922
935.323	575
935.417	1188
935.512	0
935.606	509
935.701	663
935.795	1590
935.890	264
935.984	380
936.079	-601
936.173	791
936.267	299
936.362	1403
936.456	720
936.550	899
936.644	663
936.738	582
936.833	71
936.927	902
937.021	-412
937.115	417
937.209	1085
937.303	818
937.397	108
937.491	824
937.585	650
937.679	384
937.773	101
937.867	690
937.961	25
938.055	571
938.149	851
938.243	253
938.337	985
938.430	-180
938.524	-39
938.618	826
938.712	1014
938.805	1020
938.899	-38
938.993	323
939.086	1420
939.180	258
939.274	129
939.367	808
939.461	929
939.554	143
939.648	406
939.741	1260
939.835	713
939.928	1038
940.022	359
940.115	966
940.208	477
940.302	342
940.395	1140
940.488	565
940.582	266
940.675	-85
940.768	140
940.861	505
940.954	416
941.048	425
941.141	-24
941.234	1080
941.327	6
941.420	936
941.513	1113
941.606	262
941.699	-766
941.792	823
941.885	676
941.978	476
942.071	989
942.164	867
942.257	-217
942.349	505
942.442	-164
942.535	364
942.628	-94
942.721	521
942.813	217
942.906	931
942.999	-309
943.091	-191
943.184	-159
943.277	712
943.369	157
943.462	780
943.554	141
943.647	440
943.739	402
943.832	918
943.924	634
944.017	-626
944.109	-402
944.201	979
944.294	-399
944.386	918
944.478	71
944.571	529
944.663	-119
944.755	1033
944.847	-347
944.940	1353
945.032	106
945.124	134
945.216	618
945.308	687
945.400	910
945.492	275
945.584	-79
945.676	623
945.768	88
945.860	1013
945.952	408
946.044	432
946.136	8
946.228	311
946.320	351
946.412	-104
946.503	970
946.595	920
946.687	-597
946.779	394
946.870	-494
946.962	272
947.054	225
947.145	311
947.237	137
947.329	559
947.420	-180
947.512	-27
947.603	372
947.695	-25
947.786	-51
947.878	-126
947.969	103
948.061	272
948.152	-711
948.243	211
948.335	-219
948.426	-710
948.517	489
948.609	677
948.700	235
948.791	266
948.882	224
948.973	265
949.065	-349
949.156	765
949.247	231
949.338	26
949.429	-321
949.520	-78
949.611	-1507
949.702	881
949.793	110
949.884	372
949.975	-166
950.066	-193
950.157	-223
950.247	420
950.338	-513
950.429	-825
950.520	14
950.611	-42
950.701	807
950.792	895
950.883	837
950.973	666
951.064	587
951.155	475
951.245	-24
951.336	639
951.427	-596
951.517	1117
951.608	253
951.698	712
951.788	26
951.879	-821
951.969	-591
952.060	495
952.150	115
952.240	452
952.331	-1130
952.421	434
952.511	-766
952.602	-339
952.692	-514
952.782	353
952.872	117
952.962	-1077
953.052	-498
953.143	-374
953.233	422
953.323	182
953.413	-321
953.503	313
953.593	-178
953.683	452
953.773	-633
953.863	294
953.953	-989
954.042	-415
954.132	168
954.222	105
954.312	-397
954.402	-45
954.492	188
954.581	2019
954.671	1492
954.761	81
954.850	808
954.940	101
955.030	-149
955.119	-481
955.209	-489
955.298	356
955.388	-265
955.477	729
955.567	48
955.656	-301
955.746	-146
955.835	660
955.925	105
956.014	550
956.103	-18
956.193	350
956.282	-290
956.371	995
956.461	-539
956.550	682
956.639	279
956.728	311
956.817	-227
956.906	-101
956.995	22
957.085	511
957.174	-336
957.263	-217
957.352	676
957.441	250
957.530	-580
957.619	300
957.708	-561
957.796	708
957.885	36
957.974	-26
958.063	-200
958.152	43
958.241	-226
958.329	-583
958.418	15
958.507	-852
958.596	358
958.684	-104
958.773	59
958.861	36
958.950	-485
959.039	-570
959.127	249
959.216	25
959.304	-153
959.393	112
959.481	-903
959.570	20
959.658	-387
959.746	-238
959.835	-144
959.923	1273
960.011	612
960.100	559
960.188	-506
960.276	-143
960.365	-1506
960.453	-852
960.541	-837
960.629	-827
960.717	-143
960.805	-336
960.893	-305
960.981	-143
961.069	-11
961.158	636
961.245	365
961.333	-27
961.421	-420
961.509	151
961.597	-111
961.685	31
961.773	-750
961.861	676
961.949	-784
962.036	-537
962.124	-185
962.212	-293
962.299	-497
962.387	-728
962.475	62
962.562	-825
962.650	295
962.738	501
962.825	-532
962.913	-504
963.000	-343
963.088	313
963.175	-252
963.263	238
963.350	-438
963.438	192
963.525	-58
963.612	-97
963.700	957
963.787	6543
963.874	7431
963.962	2335
964.049	-577
964.136	-439
964.223	-806
964.310	225
964.398	-765
964.485	140
964.572	-603
964.659	567
964.746	1525
964.833	487
964.920	-1010
965.007	77
965.094	-380
965.181	-165
965.268	-1115
965.355	-306
965.441	-226
965.528	-49
965.615	-89
965.702	-167
965.789	-608
965.875	-340
965.962	-288
966.049	-20
966.136	-387
966.222	-188
966.309	-124
966.395	-680
966.482	-742
966.569	544
966.655	-527
966.742	-438
966.828	-259
966.915	-304
967.001	-53
967.087	-219
967.174	-642
967.260	44
967.347	-81
967.433	1020
967.519	4241
967.605	4665
967.692	131
967.778	-227
967.864	-261
967.950	-668
968.036	-801
968.123	382
968.209	-616
968.295	-631
968.381	-1028
968.467	-208
968.553	-387
968.639	-332
968.725	-371
968.811	421
968.897	277
968.983	-356
969.069	-1656
969.154	65
969.240	-430
969.326	-1230
969.412	-43
969.497	-684
969.583	-779
969.669	456
969.755	-220
969.840	-469
969.926	212
970.012	-489
970.097	-154
970.183	34
970.268	542
970.354	-370
970.439	-430
970.525	2604
970.610	2153
970.696	856
970.781	-329
970.866	-1109
970.952	-597
971.037	-596
971.122	-1150
971.208	-88
971.293	-838
971.378	-832
971.463	-479
971.549	37
971.634	-946
971.719	-120
971.804	-918
971.889	371
971.974	-969
972.059	-746
972.144	-1099
972.229	-248
972.314	-1196
972.399	-944
972.484	-611
972.569	164
972.654	-645
972.739	1016
972.824	1201
972.908	1329
972.993	-291
973.078	181
973.163	-754
973.247	-296
973.332	-1195
973.417	253
973.501	-1632
973.586	11
973.671	-1271
973.755	-191
973.840	-1001
973.924	-286
974.009	96
974.093	-557
974.178	470
974.262	213
974.346	957
974.431	554
974.515	-1539
974.600	375
974.684	-719
974.768	-1200
974.852	373
974.937	-1450
975.021	-1275
975.105	-605
975.189	-986
975.273	-209
975.358	-2334
975.442	-180
975.526	-280
975.610	-1185
975.694	-1068
975.778	-99
975.862	-927
975.946	-1112
976.030	-78
976.114	-355
976.198	-508
976.281	-876
976.365	-688
976.449	-562
976.533	-847
976.617	-1431
976.700	-1022
976.784	-897
976.868	-737
976.951	2
977.035	-114
977.119	-404
977.202	-1003
977.286	184
977.369	-219
977.453	-91
977.536	-624
977.620	91
977.703	-1138
977.787	-1096
977.870	-447
977.953	-112
978.037	-1574
978.120	878
978.203	15
978.287	950
978.370	935
978.453	-363
978.536	-586
978.620	-304
978.703	-250
978.786	420
978.869	-189
978.952	-843
979.035	-1021
979.118	-802
979.201	-1299
979.284	-564
979.367	-1178
979.450	-402
979.533	-947
979.616	-918
979.699	-1190
979.782	-1030
979.865	-1366
979.948	-437
980.030	-1531
980.113	-1046
980.196	-1593
980.279	-148
980.361	-1548
980.444	-487
980.526	-1217
980.609	120
980.692	-725
980.774	125
980.857	-1029
980.939	-631
981.022	-876
981.104	-819
981.187	-1616
981.269	-453
981.352	-1217
981.434	-1148
981.516	-894
981.599	-903
981.681	-1220
981.763	-503
981.846	-1057
981.928	-574
982.010	-192
982.092	-227
982.174	-540
982.256	-520
982.339	-1731
982.421	-490
982.503	-804
982.585	-1008
982.667	-889
982.749	-608
982.831	-831
982.913	-742
982.995	-993
983.077	-1481
983.158	-416
983.240	-388
983.322	-103
983.404	162
983.486	-510
983.568	-379
983.649	-466
983.731	74
983.813	-1305
983.894	-214
983.976	-1034
984.058	-280
984.139	-1208
984.221	-612
984.302	-1088
984.384	-721
984.465	-1361
984.547	-382
984.628	-1323
984.710	47
984.791	-1225
984.872	-82
984.954	-466
985.035	47
985.116	-736
985.198	-666
985.279	236
985.360	-1574
985.441	-1200
985.522	352
985.604	-1254
985.685	-1516
985.766	-34
985.847	-577
985.928	-2124
986.009	-404
986.090	-1142
986.171	-309
986.252	-827
986.333	-766
986.414	-1276
986.495	-688
986.576	-767
986.656	67
986.737	-1341
986.818	-1252
986.899	-866
986.980	-30
987.060	-615
987.141	-882
987.222	-820
987.302	-388
987.383	-1044
987.464	110
987.544	-142
987.625	-531
987.705	-576
987.786	-736
987.866	-659
987.947	-1357
988.027	-1285
988.108	-1020
988.188	-257
988.268	-655
988.349	-669
988.429	-331
988.509	-1433
988.589	-965
988.670	-1631
988.750	43
988.830	-373
988.910	-858
988.990	-1242
989.070	-513
989.151	-374
989.231	-438
989.311	-1156
989.391	-745
989.471	-1772
989.551	-730
989.631	-756
989.711	-1239
989.791	-1583
989.870	75
989.950	-448
990.030	-746
990.110	-383
990.190	-992
990.269	-1448
990.349	-356
990.429	80
990.509	-90
990.588	-1336
990.668	-561
990.747	-525
990.827	-854
990.907	-870
990.986	-1068
991.066	-1241
991.145	-527
991.225	-502
991.304	-64
991.383	-471
991.463	-489
991.542	-469
991.622	-781
991.701	-1907
991.780	-775
991.859	-896
991.939	-770
992.018	-750
992.097	289
992.176	-1380
992.256	-810
992.335	-672
992.414	-545
992.493	-1203
992.572	-1470
992.651	-139
992.730	-815
992.809	-1507
992.888	-469
992.967	-1508
993.046	77
993.125	-1312
993.203	-1021
993.282	-1097
993.361	-880
993.440	-1650
993.519	-884
993.597	-1107
993.676	-247
993.755	-937
993.834	-1143
993.912	-1140
993.991	-670
994.069	-763
994.148	-939
994.226	-1027
994.305	-794
994.384	-1336
994.462	-258
994.540	-1203
994.619	-840
994.697	-473
994.776	-1578
994.854	-755
994.932	-1013
995.011	-1044
995.089	-1208
995.167	-895
995.245	-587
995.324	-2047
995.402	211
995.480	-1421
995.558	350
995.636	-1539
995.714	-1699
995.792	-656
995.870	-977
995.948	-881
996.026	-1487
996.104	-1921
996.182	-167
996.260	-629
996.338	-640
996.416	-1595
996.494	-1075
996.572	-565
996.649	-1352
996.727	-1006
996.805	-1069
996.883	-844
996.960	-379
997.038	-1155
997.116	-468
997.193	-1444
997.271	-797
997.348	-1168
997.426	-610
997.504	-1460
997.581	-282
997.658	-762
997.736	-1617
997.813	-1666
997.891	-620
997.968	-794
998.046	-777
998.123	-960
998.200	-346
998.277	-2303
998.355	-141
998.432	-1121
998.509	-640
998.586	-984
998.663	-659
998.741	-1288
998.818	-960
998.895	-1649
998.972	-1128
999.049	-1140
999.126	-1290
999.203	-845
999.280	-824
999.357	-1956
999.434	-173
999.511	-456
999.587	-1326
999.664	-919
999.741	-1143
999.818	-100
999.895	-234
999.971	-834
1000.048	-1085
1000.125	-695
1000.202	-1383
1000.278	-1247
1000.355	-982
1000.431	-1054
1000.508	-1472
1000.584	-1718
1000.661	-978
1000.738	-1332
1000.814	-731
1000.890	-1043
1000.967	-544
1001.043	-1154
1001.120	-1680
1001.196	-1410
1001.272	-1192
1001.349	-904
1001.425	-649
1001.501	-830
1001.577	-553
1001.654	-1063
1001.730	-1191
1001.806	-953
1001.882	-2041
1001.958	-874
1002.034	-1023
1002.110	-1193
1002.186	-703
1002.262	-1328
1002.338	-1062
1002.414	-988
1002.490	-907
1002.566	-1207
1002.642	-1112
1002.718	-927
1002.794	-903
1002.870	-1666
1002.945	-946
1003.021	-1702
1003.097	35
1003.173	-1460
1003.248	-673
1003.324	-1638
1003.400	-1577
1003.475	-1082
1003.551	-680
1003.626	-1723
1003.702	-1574
1003.777	-1576
1003.853	-821
1003.928	-1661
1004.004	-1297
1004.079	-1233
1004.155	-1813
1004.230	-2205
1004.305	-1100
1004.381	-1638
1004.456	-534
1004.531	-1160
1004.607	23
1004.682	-1247
1004.757	-1337
1004.832	-1714
1004.907	-673
1004.982	-1367
1005.057	-1131
1005.133	-1549
1005.208	-1100
1005.283	-964
1005.358	-334
1005.433	-1804
1005.508	-560
1005.583	-1575
1005.657	-1553
1005.732	-1104
1005.807	-1092
1005.882	-1026
1005.957	-1295
1006.032	-607
1006.106	-1377
1006.181	-1416
1006.256	-889
1006.331	-2091
1006.405	-1655
1006.480	-983
1006.554	-1330
1006.629	-1560
1006.704	-273
1006.778	-976
1006.853	-1007
1006.927	-2023
1007.002	-1159
1007.076	-1538
1007.150	-1200
1007.225	-925
1007.299	-819
1007.373	-1560
1007.448	-1053
1007.522	-1453
1007.596	-1631
1007.671	-2131
1007.745	-323
1007.819	-1915
1007.893	-1134
1007.967	-186
1008.041	-1127
1008.115	-1036
1008.190	-1451
1008.264	-1203
1008.338	-1476
1008.412	-1730
1008.486	-855
1008.560	-1304
1008.633	-1063
1008.707	-2361
1008.781	-403
1008.855	-1394
1008.929	-801
1009.003	-1084
1009.076	-1190
1009.150	-1420
1009.224	-1073
1009.298	-1650
1009.371	-1998
1009.445	-1422
1009.519	-735
1009.592	-1027
1009.666	-1194
1009.739	-1664
1009.813	-1731
1009.886	-1392
1009.960	-1476
1010.033	-931
1010.107	-1200
1010.180	-1650
1010.253	-1155
1010.327	-1628
1010.400	-1783
1010.473	-1537
1010.547	-464
1010.620	-1455
1010.693	-1484
1010.766	-2205
1010.840	-1119
1010.913	-1602
1010.986	-1654
1011.059	-1687
1011.132	-1155
1011.205	-1381
1011.278	-1492
1011.351	-1853
1011.424	-948
1011.497	-1816
1011.570	-1710
1011.643	-1242
1011.716	-1356
1011.789	-1450
1011.862	-598
1011.934	-1482
1012.007	-1561
1012.080	-1802
1012.153	-1730
1012.225	-968
1012.298	-1639
1012.371	-1975
1012.443	-818
1012.516	-2292
1012.588	-1729
1012.661	-1048
1012.733	-1933
1012.806	-1657
1012.879	-1565
1012.951	-1650
1013.023	-883
1013.096	-1700
1013.168	-1841
1013.241	-1430
1013.313	-1866
1013.385	-1960
1013.458	-1666
1013.530	-1644
1013.602	-2217
1013.674	-1694
1013.746	-2170
1013.819	-1619
1013.891	-1257
1013.963	-2167
1014.035	-1488
1014.107	-1631
1014.179	-1204
1014.251	-2368
1014.323	-1509
1014.395	-1954
1014.467	-1629
1014.539	-2123
1014.611	-1516
1014.683	-1681
1014.754	-1279
1014.826	-1901
1014.898	-1356
1014.970	-2327
1015.042	-842
1015.113	-1612
1015.185	-1323
1015.257	-2208
1015.328	-1734
1015.400	-1402
1015.471	-1157
1015.543	-2085
1015.615	-1699
1015.686	-2068
1015.757	-1371
1015.829	-1444
1015.901	-1678
1015.972	-1740
1016.043	-1449
1016.115	-1276
1016.186	-1544
1016.257	-1948
1016.328	-1300
1016.400	-1129
1016.471	-2505
1016.542	-1776
1016.613	-2165
1016.685	-2176
1016.756	-540
1016.827	-1818
1016.898	-1664
1016.969	-1507
1017.040	-1367
1017.111	-1833
1017.182	-1735
1017.253	-1735
1017.324	-1994
1017.395	-1843
1017.466	-1774
1017.537	-2121
1017.608	-1671
1017.678	-1524
1017.749	-1988
1017.820	-1937
1017.891	-1736
1017.961	-2855
1018.032	-1783
1018.103	-1794
1018.173	-928
1018.244	-2309
1018.315	-1468
1018.385	-1275
1018.456	-1480
1018.526	-2209
1018.597	-2063
1018.667	-1667
1018.738	-1830
1018.808	-2296
1018.878	-1337
1018.949	-2066
1019.019	-2215
1019.089	-2685
1019.160	-1520
1019.230	-2826
1019.300	-1891
1019.371	-2350
1019.441	-1530
1019.511	-1989
1019.581	-2086
1019.651	-2048
1019.721	-1207
1019.791	-1790
1019.861	-1532
1019.931	-2205
1020.001	-2439
1020.071	-2255
1020.141	-2712
1020.211	-1509
1020.281	-2013
1020.351	-1699
1020.421	-1280
1020.491	-2010
1020.560	-1083
1020.630	-2016
1020.700	-1514
1020.770	-1971
1020.839	-2036
1020.909	-1738
1020.979	-1730
1021.048	-1822
1021.118	-1782
1021.187	-1906
1021.257	-2118
1021.326	-1320
1021.396	-2006
1021.465	-2460
1021.535	-1297
1021.604	-2509
1021.674	-2123
1021.743	-2224
1021.812	-1540
1021.882	-1679
1021.951	-1561
1022.020	-2279
1022.089	-1556
1022.159	-2130
1022.228	-922
1022.297	-1944
1022.366	-1672
1022.435	-2420
1022.504	-1901
1022.573	-3124
1022.642	-1530
1022.711	-1486
1022.781	-1518
1022.849	-1830
1022.918	-2234
1022.987	-1930
1023.056	-1927
1023.125	-2189
1023.194	-1327
1023.263	-2195
1023.331	-2267
1023.400	-2208
1023.469	-2131
1023.538	-1877
1023.606	-2031
1023.675	-2113
1023.744	-2331
1023.812	-2202
1023.881	-1384
1023.949	-1898
1024.018	-1617
1024.086	-2668
1024.155	-1446
1024.223	-2025
1024.292	-1626
1024.360	-1790
1024.429	-1532
1024.497	-3228
1024.565	-1767
1024.634	-2483
1024.702	-1573
1024.770	-2520
1024.838	-1810
1024.907	-2171
1024.975	-1816
1025.043	-2104
1025.111	-1663
1025.179	-1300
1025.247	-1646
1025.315	-2309
1025.383	-1441
1025.451	-2575
1025.519	-2125
1025.587	-2546
1025.655	-1568
1025.723	-2898
1025.791	-1986
1025.859	-2860
1025.927	-1887
1025.995	-1912
1026.062	-1461
1026.130	-1879
1026.198	-1075
1026.266	-1969
1026.333	-1993
1026.401	-1948
1026.469	-1682
1026.536	-1786
1026.604	-2584
1026.671	-2962
1026.739	-1834
1026.806	-2242
1026.874	-1887
1026.941	-1837
1027.009	-1570
1027.076	-2187
1027.144	-1999
1027.211	-2563
1027.278	-2002
1027.345	-1982
1027.413	-2027
1027.480	-3050
1027.547	-2299
1027.614	-2424
1027.682	-1695
1027.749	-1780
1027.816	-1698
1027.883	-2143
1027.950	-1781
1028.017	-2261
1028.084	-1664
1028.151	-2994
1028.218	-2454
1028.285	-2114
1028.352	-2317
1028.419	-3095
1028.486	-2112
1028.553	-1938
1028.619	-2320
1028.686	-1961
1028.753	-1629
1028.820	-2579
1028.886	-1990
1028.953	-2004
1029.020	-1917
1029.086	-2449
1029.153	-1979
1029.220	-2421
1029.286	-1620
1029.353	-2452
1029.419	-1619
1029.486	-2257
1029.552	-2375
1029.619	-1891
1029.685	-1619
1029.751	-2788
1029.818	-1233
1029.884	-2199
1029.951	-2164
1030.017	-1873
1030.083	-2207
1030.149	-2221
1030.216	-2031
1030.282	-2123
1030.348	-1655
1030.414	-2947
1030.480	-1538
1030.546	-2431
1030.612	-2145
1030.678	-2358
1030.744	-2091
1030.810	-2423
1030.876	-2158
1030.942	-2551
1031.008	-1735
1031.074	-2534
1031.140	-2190
1031.206	-1683
1031.272	-1896
1031.337	-2240
1031.403	-1646
1031.469	-1948
1031.534	-2590
1031.600	-2087
1031.666	-2338
1031.731	-2072
1031.797	-1856
1031.863	-1950
1031.928	-1905
1031.994	-2010
1032.059	-1944
1032.125	-1376
1032.190	-2000
1032.256	-2086
1032.321	-2772
1032.386	-2426
1032.452	-2000
1032.517	-2768
1032.582	-2233
1032.647	-1922
1032.713	-2090
1032.778	-2670
1032.843	-2071
1032.908	-2880
1032.974	-2310
1033.039	-2011
1033.104	-2022
1033.169	-2442
1033.234	-1619
1033.299	-1792
1033.364	-1791
1033.429	-2696
1033.494	-854
1033.559	-3373
1033.624	-902
1033.688	-2034
1033.753	-2072
1033.818	-1768
1033.883	-1492
1033.948	-1984
1034.013	-2705
1034.077	-1576
1034.142	-1084
1034.207	-1989
1034.271	-1759
1034.336	-904
1034.400	-296
1034.465	-1944
1034.530	-1138
1034.594	-1926
1034.658	-1640
1034.723	-1260
1034.787	-2211
1034.852	-2563
1034.916	-1916
1034.981	-2044
1035.045	-2422
1035.109	-2652
1035.173	-1827
1035.238	-2478
1035.302	-1946
1035.366	-2126
1035.430	-2521
1035.495	-2938
1035.559	-2196
1035.623	-2122
1035.687	-1593
1035.751	-2576
1035.815	-2207
1035.879	-2239
1035.943	-2224
1036.007	-1716
1036.071	-1914
1036.135	-1460
1036.198	-1643
1036.262	-2497
1036.326	-2748
1036.390	-1843
1036.454	-2745
1036.517	-2528
1036.581	-1713
1036.645	-2230
1036.709	-2104
1036.772	-2113
1036.836	-1701
1036.900	-2426
1036.963	-2208
1037.026	-2551
1037.090	-2147
1037.154	-2210
1037.217	-2569
1037.280	-1888
1037.344	-2816
1037.407	-2037
1037.471	-2239
1037.534	-3170
1037.597	-2049
1037.661	-2357
1037.724	-1614
1037.787	-2202
1037.850	-2604
1037.913	-2358
1037.977	-1900
1038.040	-2805
1038.103	-2008
1038.166	-2932
1038.229	-1685
1038.292	-3216
1038.355	-2359
1038.418	-2448
1038.481	-1797
1038.544	-2732
1038.607	-2564
1038.670	-2523
1038.732	-1788
1038.795	-3324
1038.858	-1279
1038.921	-2480
1038.984	-1848
1039.046	-2234
1039.109	-2212
1039.172	-3331
1039.234	-2281
1039.297	-2748
1039.360	-1846
1039.422	-2005
1039.485	-1914
1039.547	-2384
1039.610	-2862
1039.672	-2424
1039.734	-2071
1039.797	-2897
1039.859	-2315
1039.922	-2185
1039.984	-1944
1040.046	-3030
1040.109	-2824
1040.171	-2800
1040.233	-1590
1040.295	-2576
1040.358	-2740
1040.420	-1991
1040.482	-2398
1040.544	-2043
1040.606	-2677
1040.668	-3160
1040.730	-1939
1040.792	-2444
1040.854	-2540
1040.916	-2892
1040.978	-2001
1041.040	-2010
1041.102	-3221
1041.164	-3701
1041.225	-2347
1041.287	-2536
1041.349	-2369
1041.411	-2027
1041.472	-2341
1041.534	-2798
1041.596	-2502
1041.657	-3010
1041.719	-2230
1041.781	-2173
1041.842	-2042
1041.904	-2405
1041.965	-2002
1042.027	-1912
1042.088	-2456
1042.150	-1773
1042.211	-2020
1042.272	-3055
1042.334	-1841
1042.395	-2698
1042.456	-1751
1042.518	-2476
1042.579	-2529
1042.640	-2545
1042.701	-2022
1042.763	-3010
1042.824	-2431
1042.885	-2205
1042.946	-2093
1043.007	-2213
1043.068	-2324
1043.129	-3087
1043.190	-2336
1043.251	-2039
1043.312	-1879
1043.373	-1908
1043.434	-1747
1043.495	-2141
1043.556	-1324
1043.616	-2827
1043.677	-1800
1043.738	-2404
1043.799	-1512
1043.859	-2561
1043.920	-2239
1043.981	-2904
1044.041	-2032
1044.102	-2311
1044.162	-2576
1044.223	-2619
1044.284	-2867
1044.344	-2614
1044.405	-1833
1044.465	-2658
1044.525	-2701
1044.586	-3207
1044.646	-1792
1044.707	-2706
1044.767	-1920
1044.827	-2942
1044.887	-2248
1044.948	-2372
1045.008	-1985
1045.068	-2754
1045.128	-2015
1045.188	-3199
1045.249	-1595
1045.309	-2416
1045.369	-2197
1045.429	-2688
1045.489	-2210
1045.549	-1951
1045.609	-1666
1045.669	-2880
1045.729	-1638
1045.789	-2975
1045.848	-2553
1045.908	-2400
1045.968	-1792
1046.028	-2515
1046.088	-1953
1046.147	-1954
1046.207	-2056
1046.267	-1656
1046.326	-1929
1046.386	-2402
1046.446	-1707
1046.505	-1568
1046.565	-1457
1046.624	-1853
1046.684	-1334
1046.743	-1467
1046.803	-1404
1046.862	-1450
1046.922	0
