'Start Wavelength	183.907
'End Wavelength	1046.922
'Gate Delay	5.000
'Gate Width (ms)	1.050
'Laser Output Level	0.000
'X Position	0.000
'Y Position	0.000
'Z Position	0.000
'Grid Point Number	1.000
'Shot Number	100.000
183.907	107.000
183.977	-222.000
184.047	272
184.116	575
184.186	298
184.256	459
184.325	338
184.395	430
184.465	375
184.534	338
184.604	-998
184.674	31
184.743	-37
184.813	53
184.883	-159
184.952	-166
185.022	-59
185.092	178
185.161	386
185.231	-490
185.301	-130
185.370	-64
185.440	-369
185.509	109
185.579	88
185.649	398
185.718	-152
185.788	99
185.857	487
185.927	630
185.996	132
186.066	200
186.136	472
186.205	232
186.275	185
186.344	789
186.414	-198
186.483	859
186.553	1110
186.622	1603
186.692	948
186.761	859
186.831	48
186.900	454
186.970	443
187.039	633
187.109	1138
187.178	141
187.248	157
187.317	189
187.387	551
187.456	760
187.526	1245
187.595	685
187.664	174
187.734	696
187.803	797
187.873	1017
187.942	588
188.012	1462
188.081	443
188.150	1221
188.220	1303
188.289	1025
188.358	1013
188.428	-100
188.497	270
188.567	1393
188.636	724
188.705	1262
188.775	262
188.844	937
188.913	712
188.983	97
189.052	136
189.121	630
189.191	668
189.260	945
189.329	800
189.399	697
189.468	-88
189.537	1111
189.606	1266
189.676	541
189.745	793
189.814	1280
189.883	622
189.953	1425
190.022	1879
190.091	5724
190.161	4532
190.230	1196
190.299	463
190.368	811
190.437	194
190.507	541
190.576	725
190.645	364
190.714	-133
190.783	885
190.853	1076
190.922	1543
190.991	791
191.060	779
191.129	1627
191.198	597
191.268	866
191.337	658
191.406	997
191.475	820
191.544	147
191.613	1108
191.682	103
191.752	177
191.821	1175
191.890	431
191.959	630
192.028	620
192.097	534
192.166	870
192.235	646
192.304	752
192.373	1070
192.442	592
192.511	290
192.580	843
192.650	1488
192.719	596
192.788	641
192.857	955
192.926	1194
192.995	1674
193.064	4217
193.133	3005
193.202	3479
193.271	2648
193.340	1931
193.409	2682
193.478	2817
193.547	3983
193.615	3959
193.684	3680
193.753	2256
193.822	1930
193.891	676
193.960	1160
194.029	1598
194.098	1513
194.167	1042
194.236	1314
194.305	1146
194.374	619
194.443	714
194.512	1163
194.580	1234
194.649	1977
194.718	1427
194.787	897
194.856	1190
194.925	1741
194.994	1917
195.062	1882
195.131	2483
195.200	2997
195.269	2367
195.338	943
195.407	1082
195.475	1648
195.544	2136
195.613	1423
195.682	1582
195.751	2340
195.819	2413
195.888	1743
195.957	3024
196.026	1801
196.094	2787
196.163	3369
196.232	2354
196.301	1871
196.369	2343
196.438	1632
196.507	1200
196.576	1074
196.644	1808
196.713	1310
196.782	1029
196.850	1274
196.919	723
196.988	1775
197.056	1421
197.125	1237
197.194	1692
197.262	1336
197.331	1030
197.400	1469
197.468	1420
197.537	1884
197.606	1552
197.674	4315
197.743	4391
197.812	2344
197.880	6316
197.949	3766
198.017	5235
198.086	2489
198.155	1436
198.223	3726
198.292	5853
198.360	2484
198.429	1485
198.497	1728
198.566	5757
198.635	3898
198.703	1563
198.772	3099
198.840	9437
198.909	4097
198.977	1438
199.046	1982
199.114	1267
199.183	2151
199.251	1593
199.320	1600
199.388	1369
199.457	1275
199.525	1035
199.594	1411
199.662	1470
199.731	2115
199.799	1956
199.867	1640
199.936	1597
200.004	1967
200.073	1871
200.141	1343
200.210	1209
200.278	1628
200.346	1831
200.415	2660
200.483	2811
200.552	1749
200.620	1924
200.688	2133
200.757	1715
200.825	2019
200.893	1574
200.962	1384
201.030	2107
201.098	2332
201.167	2557
201.235	2040
201.303	1495
201.372	2516
201.440	2412
201.508	2937
201.577	2623
201.645	2148
201.713	1796
201.781	2521
201.850	2336
201.918	2067
201.986	1725
202.055	1864
202.123	1760
202.191	2532
202.259	1260
202.327	2493
202.396	1545
202.464	3311
202.532	4630
202.600	9148
202.669	4085
202.737	2205
202.805	2429
202.873	1553
202.941	2022
203.009	1320
203.078	1991
203.146	1642
203.214	1949
203.282	1734
203.350	2126
203.418	2121
203.487	2048
203.555	1790
203.623	1975
203.691	2047
203.759	1424
203.827	1507
203.895	2459
203.963	2459
204.031	2213
204.099	2797
204.168	1942
204.236	2127
204.304	2395
204.372	2624
204.440	1979
204.508	1761
204.576	1542
204.644	2052
204.712	2251
204.780	1645
204.848	2202
204.916	2214
204.984	1734
205.052	2544
205.120	2754
205.188	2461
205.256	1566
205.324	2824
205.392	1570
205.460	2417
205.528	2270
205.596	1914
205.664	2173
205.732	2784
205.799	12712
205.867	9286
205.935	3462
206.003	2638
206.071	2642
206.139	2765
206.207	2900
206.275	2759
206.343	1752
206.411	1759
206.478	1623
206.546	2084
206.614	1860
206.682	2237
206.750	2482
206.818	3950
206.885	3355
206.953	2185
207.021	1914
207.089	1986
207.157	1988
207.225	2742
207.292	2018
207.360	2595
207.428	2412
207.496	2460
207.563	2194
207.631	2165
207.699	2020
207.767	2263
207.834	1985
207.902	2219
207.970	2636
208.038	2308
208.105	2287
208.173	3126
208.241	3720
208.309	3700
208.376	4416
208.444	6273
208.512	3452
208.579	2989
208.647	3869
208.715	3828
208.782	2888
208.850	2727
208.918	2476
208.985	3186
209.053	3311
209.120	2649
209.188	2638
209.256	2289
209.323	3428
209.391	4715
209.459	3383
209.526	2399
209.594	2270
209.661	2468
209.729	3052
209.796	3547
209.864	3494
209.932	2227
209.999	3494
210.067	4469
210.134	3490
210.202	4232
210.269	5673
210.337	5254
210.404	3170
210.472	3288
210.539	3136
210.607	3725
210.674	4082
210.742	3340
210.809	3563
210.877	4545
210.944	3762
211.012	3983
211.079	3463
211.146	3203
211.214	4043
211.281	6189
211.349	4516
211.416	4309
211.484	4251
211.551	3781
211.618	2921
211.686	3698
211.753	2794
211.821	2952
211.888	3446
211.955	3009
212.023	2772
212.090	3885
212.157	3104
212.225	4058
212.292	9002
212.359	20545
212.427	30936
212.494	10504
212.561	5514
212.629	4477
212.696	4610
212.763	4128
212.831	3715
212.898	3714
212.965	3820
213.032	3981
213.100	4640
213.167	4715
213.234	4199
213.301	3359
213.369	3384
213.436	3731
213.503	3358
213.570	4935
213.638	4461
213.705	3680
213.772	2847
213.839	6357
213.906	4802
213.973	4816
214.041	4539
214.108	4235
214.175	4282
214.242	3208
214.309	3802
214.376	4510
214.444	3956
214.511	5402
214.578	4456
214.645	4655
214.712	4284
214.779	4825
214.846	4617
214.913	6304
214.980	6039
215.048	6685
215.115	7146
215.182	5632
215.249	4774
215.316	3620
215.383	4080
215.450	4277
215.517	3870
215.584	3605
215.651	2956
215.718	4377
215.785	5119
215.852	5544
215.919	5308
215.986	5548
216.053	3052
216.120	4087
216.187	5720
216.254	4389
216.321	4106
216.388	4480
216.455	5022
216.522	4940
216.589	7314
216.656	11007
216.722	8493
216.789	6522
216.856	6584
216.923	5697
216.990	5094
217.057	5703
217.124	7301
217.191	6691
217.258	8876
217.324	10312
217.391	9839
217.458	6889
217.525	5182
217.592	5315
217.659	4812
217.725	4937
217.792	8781
217.859	5320
217.926	3519
217.993	3950
218.059	2582
218.126	3493
218.193	2651
218.260	2826
218.327	2691
218.393	2610
218.460	2626
218.527	2877
218.594	4934
218.660	8283
218.727	7141
218.794	3281
218.860	3530
218.927	2989
218.994	2520
219.061	3804
219.127	5061
219.194	6511
219.261	3006
219.327	2744
219.394	2056
219.461	2663
219.527	2508
219.594	6006
219.661	2911
219.727	2736
219.794	4036
219.860	2785
219.927	3518
219.994	8366
220.060	10946
220.127	6045
220.193	4732
220.260	5239
220.326	7857
220.393	14280
220.460	14723
220.526	8192
220.593	6210
220.659	6117
220.726	8830
220.792	18601
220.859	14867
220.925	23203
220.992	25142
221.058	26464
221.125	20510
221.191	14422
221.258	6776
221.324	5214
221.391	4570
221.457	4006
221.524	3379
221.590	7825
221.657	22956
221.723	10981
221.789	14450
221.856	9538
221.922	5890
221.989	4797
222.055	3710
222.121	3816
222.188	4260
222.254	4589
222.321	3304
222.387	2817
222.453	2367
222.520	2995
222.586	2599
222.652	3158
222.719	3024
222.785	3088
222.851	2846
222.918	2646
222.984	3021
223.050	3801
223.116	2314
223.183	2826
223.249	2043
223.315	2074
223.382	2393
223.448	2443
223.514	2048
223.580	2070
223.647	1601
223.713	2137
223.779	1960
223.845	2877
223.911	1934
223.978	2307
224.044	2614
224.110	2117
224.176	2213
224.242	1841
224.309	2198
224.375	2210
224.441	2487
224.507	2473
224.573	2222
224.639	2221
224.705	2044
224.772	2686
224.838	3065
224.904	4192
224.970	2952
225.036	2743
225.102	3744
225.168	3089
225.234	3460
225.300	3604
225.366	2407
225.432	2815
225.499	2759
225.565	3967
225.631	2550
225.697	3711
225.763	3835
225.829	3893
225.895	5932
225.961	9415
226.027	6940
226.093	6532
226.159	7831
226.225	13414
226.291	32552
226.357	34678
226.423	16708
226.489	10242
226.554	6798
226.620	7503
226.686	11549
226.752	16994
226.818	30502
226.884	54509
226.950	32903
227.016	14432
227.082	9425
227.148	8356
227.214	7952
227.279	7551
227.345	5401
227.411	5436
227.477	7275
227.543	15310
227.609	12210
227.674	6902
227.740	5564
227.806	4349
227.872	3826
227.938	6562
228.003	8106
228.069	3751
228.135	2459
228.201	3144
228.267	3683
228.332	6274
228.398	7425
228.464	3538
228.530	2522
228.595	2397
228.661	4120
228.727	7758
228.792	3915
228.858	3786
228.924	4800
228.990	5655
229.055	5840
229.121	4789
229.187	3810
229.252	4275
229.318	2414
229.384	4840
229.449	4735
229.515	2225
229.581	1519
229.646	3116
229.712	4646
229.777	11857
229.843	8191
229.909	8037
229.974	7680
230.040	5914
230.105	4944
230.171	6104
230.236	9082
230.302	13062
230.368	8082
230.433	4852
230.499	4644
230.564	5797
230.630	4543
230.695	3499
230.761	3501
230.826	3480
230.892	7032
230.957	3943
231.023	2449
231.088	3849
231.154	3207
231.219	3910
231.284	7811
231.350	5237
231.415	3219
231.481	2625
231.546	3437
231.612	2974
231.677	2254
231.742	2882
231.808	2536
231.873	2406
231.939	3222
232.004	8151
232.069	4949
232.135	4357
232.200	2982
232.265	2853
232.331	1815
232.396	1520
232.461	2605
232.527	2299
232.592	3248
232.657	5767
232.723	13280
232.788	5774
232.853	3169
232.918	2548
232.984	2674
233.049	4301
233.114	12141
233.179	6747
233.245	19360
233.310	11658
233.375	4050
233.440	4343
233.506	3413
233.571	3163
233.636	1975
233.701	4432
233.766	17212
233.832	10302
233.897	6264
233.962	6018
234.027	6626
234.092	5580
234.157	4665
234.222	5918
234.288	16830
234.353	36618
234.418	28402
234.483	12664
234.548	8867
234.613	7093
234.678	6777
234.743	14711
234.808	40639
234.873	15521
234.938	6851
235.004	5801
235.069	5776
235.134	5447
235.199	4291
235.264	4649
235.329	4470
235.394	5116
235.459	9528
235.524	7102
235.589	4527
235.654	3860
235.719	3886
235.784	4271
235.849	11222
235.913	20542
235.978	29725
236.043	19161
236.108	7593
236.173	10938
236.238	7932
236.303	5316
236.368	5174
236.433	17476
236.498	19107
236.563	10960
236.627	30720
236.692	69553
236.757	37081
236.822	24949
236.887	17511
236.952	11860
237.017	13477
237.081	12212
237.146	17314
237.211	33266
237.276	81000
237.341	93290
237.405	38536
237.470	22353
237.535	15771
237.600	8785
237.664	7267
237.729	6695
237.794	12650
237.859	18818
237.923	17491
237.988	9896
238.053	20786
238.118	18844
238.182	51679
238.247	27511
238.312	23086
238.376	13423
238.441	12200
238.506	7619
238.570	4240
238.635	4563
238.700	4662
238.764	7170
238.829	28748
238.893	16931
238.958	10735
239.023	7727
239.087	6098
239.152	6716
239.216	4385
239.281	3991
239.346	4668
239.410	4922
239.475	13538
239.539	52989
239.604	20659
239.668	8285
239.733	6188
239.797	13114
239.862	29515
239.926	31319
239.991	10407
240.055	6403
240.120	6167
240.184	5724
240.249	5715
240.313	4727
240.378	9559
240.442	39129
240.507	29713
240.571	10831
240.635	29478
240.700	17465
240.764	7812
240.829	5369
240.893	4587
240.957	7209
241.022	35269
241.086	40495
241.151	14773
241.215	5925
241.279	18502
241.344	21661
241.408	8223
241.472	6262
241.537	6328
241.601	5063
241.665	5040
241.730	6094
241.794	6467
241.858	5478
241.922	6008
241.987	4524
242.051	5185
242.115	5210
242.179	4619
242.244	4729
242.308	5736
242.372	8571
242.436	9014
242.501	5914
242.565	5560
242.629	4146
242.693	4151
242.757	4820
242.822	5820
242.886	6074
242.950	6483
243.014	8788
243.078	8244
243.142	7106
243.206	7278
243.271	8454
243.335	7952
243.399	12825
243.463	70279
243.527	78450
243.591	23277
243.655	12538
243.719	8144
243.783	9182
243.847	17617
243.911	20576
243.975	27003
244.040	13560
244.104	7759
244.168	6992
244.232	17300
244.296	15967
244.360	15713
244.424	13328
244.488	10066
244.552	9063
244.615	7034
244.679	6482
244.743	11544
244.807	7561
244.871	5491
244.935	5694
244.999	6616
245.063	6247
245.127	8102
245.191	15227
245.255	8971
245.319	12428
245.383	7981
245.446	7485
245.510	5929
245.574	7267
245.638	7104
245.702	11572
245.766	16611
245.829	12194
245.893	9885
245.957	7860
246.021	8424
246.085	10238
246.149	14757
246.212	31779
246.276	28659
246.340	15472
246.404	10591
246.467	16766
246.531	17874
246.595	10999
246.659	12952
246.722	11454
246.786	12340
246.850	17806
246.913	14467
246.977	7862
247.041	10657
247.104	9919
247.168	10982
247.232	33178
247.295	43611
247.359	15913
247.423	15112
247.486	20023
247.550	11959
247.614	12335
247.677	13719
247.741	8779
247.804	10060
247.868	13357
247.932	33812
247.995	36778
248.059	13488
248.122	8930
248.186	13841
248.249	31246
248.313	83405
248.376	61750
248.440	36523
248.503	15488
248.567	16540
248.630	27517
248.694	30008
248.757	47645
248.821	67930
248.884	36138
248.948	51304
249.011	63209
249.075	93186
249.138	55888
249.202	25079
249.265	24460
249.328	32781
249.392	18674
249.455	13121
249.519	11690
249.582	17521
249.645	24958
249.709	15165
249.772	14313
249.835	14739
249.899	16437
249.962	11184
250.025	13418
250.089	39244
250.152	31065
250.215	18459
250.279	14850
250.342	16819
250.405	13411
250.468	13398
250.532	18726
250.595	31276
250.658	133044
250.721	101525
250.785	41715
250.848	23729
250.911	15825
250.974	14291
251.038	31511
251.101	37785
251.164	25934
251.227	26111
251.290	20556
251.354	47489
251.417	149253
251.480	83903
251.543	114719
251.606	229089
251.669	109910
251.732	57474
251.795	63168
251.859	80434
251.922	139159
251.985	52265
252.048	28772
252.111	23411
252.174	24961
252.237	59935
252.300	82418
252.363	133364
252.426	151494
252.489	65804
252.552	46445
252.615	32552
252.678	37517
252.741	69787
252.804	122450
252.867	165151
252.930	95960
252.993	52126
253.056	36741
253.119	28519
253.182	26565
253.245	38666
253.308	28565
253.371	35797
253.434	30578
253.497	31166
253.559	46940
253.622	34461
253.685	58339
253.748	36771
253.811	23505
253.874	40824
253.937	26713
254.000	20304
254.062	44271
254.125	39668
254.188	54472
254.251	29090
254.314	24299
254.376	46654
254.439	37120
254.502	31357
254.565	45085
254.628	51315
254.690	33382
254.753	20908
254.816	19128
254.878	23257
254.941	45929
255.004	26495
255.067	20561
255.129	16721
255.192	9822
255.255	10849
255.317	13412
255.380	8433
255.443	8233
255.505	9389
255.568	9146
255.631	9527
255.693	9657
255.756	8164
255.819	8328
255.881	6680
255.944	7621
256.006	8873
256.069	8111
256.132	7625
256.194	20821
256.257	43825
256.319	35155
256.382	21821
256.444	11326
256.507	8806
256.569	7571
256.632	11334
256.694	22141
256.757	59521
256.819	80422
256.882	28521
256.944	14993
257.007	15802
257.069	17530
257.132	10836
257.194	8281
257.257	9917
257.319	8851
257.381	12973
257.444	42273
257.506	137190
257.569	107718
257.631	68932
257.693	31160
257.756	22124
257.818	18117
257.880	10589
257.943	9984
258.005	8568
258.067	8639
258.130	8246
258.192	17568
258.254	31658
258.317	12984
258.379	12630
258.441	33667
258.503	19441
258.566	67219
258.628	34653
258.690	12381
258.753	16582
258.815	22274
258.877	10561
258.939	8271
259.001	7037
259.064	8028
259.126	21170
259.188	16603
259.250	13315
259.312	24952
259.375	55471
259.437	18676
259.499	10484
259.561	10160
259.623	10297
259.685	8802
259.747	11614
259.809	68651
259.872	68201
259.934	132977
259.996	58690
260.058	18614
260.120	11803
260.182	9041
260.244	7374
260.306	7595
260.368	7667
260.430	9863
260.492	25195
260.554	51204
260.616	29027
260.678	84840
260.740	52844
260.802	17649
260.864	14854
260.926	12291
260.988	10467
261.050	12314
261.112	39314
261.174	93616
261.236	38067
261.298	17581
261.359	58025
261.421	35979
261.483	12282
261.545	10499
261.607	8204
261.669	8624
261.731	43428
261.793	49005
261.854	17348
261.916	13673
261.978	13438
262.040	13821
262.102	12992
262.164	30992
262.225	13032
262.287	12483
262.349	29484
262.411	12874
262.472	9707
262.534	48247
262.596	43435
262.658	14095
262.719	9951
262.781	30022
262.843	50723
262.904	16186
262.966	14141
263.028	21242
263.090	157597
263.151	150641
263.213	48320
263.275	26841
263.336	13441
263.398	9435
263.459	7561
263.521	11750
263.583	24213
263.644	11677
263.706	7490
263.767	6282
263.829	5458
263.891	5025
263.952	4771
264.014	4910
264.075	19368
264.137	22611
264.198	9000
264.260	4905
264.321	6827
264.383	31983
264.444	32187
264.506	9966
264.567	8974
264.629	26036
264.690	25986
264.752	11607
264.813	7598
264.875	7095
264.936	6960
264.998	5822
265.059	5894
265.120	6259
265.182	15475
265.243	64577
265.305	27345
265.366	10550
265.427	7247
265.489	6414
265.550	5634
265.611	9757
265.673	7176
265.734	5623
265.795	4740
265.857	5097
265.918	6363
265.979	24359
266.040	95394
266.102	37387
266.163	18934
266.224	14881
266.286	9415
266.347	7156
266.408	8661
266.469	10889
266.530	5391
266.592	7007
266.653	24394
266.714	20331
266.775	7952
266.836	6383
266.898	7228
266.959	12590
267.020	6260
267.081	5939
267.142	4135
267.203	5315
267.264	5576
267.326	6579
267.387	6009
267.448	5048
267.509	5533
267.570	5225
267.631	4844
267.692	4580
267.753	4988
267.814	6248
267.875	23773
267.936	23898
267.997	14507
268.058	10680
268.119	7189
268.180	8129
268.241	5485
268.302	5332
268.363	6369
268.424	7539
268.485	7975
268.546	4615
268.607	3955
268.668	4038
268.729	4312
268.790	5602
268.851	7676
268.912	27052
268.972	18462
269.033	10043
269.094	5549
269.155	4802
269.216	6117
269.277	8216
269.338	5005
269.398	5775
269.459	7369
269.520	11468
269.581	16477
269.642	16131
269.702	10014
269.763	7282
269.824	6591
269.885	13368
269.945	11670
270.006	5639
270.067	5227
270.128	5345
270.188	5984
270.249	5830
270.310	4360
270.370	7131
270.431	6823
270.492	4850
270.553	7800
270.613	22859
270.674	27293
270.734	10372
270.795	8239
270.856	14273
270.916	7822
270.977	7172
271.038	10582
271.098	8347
271.159	20402
271.219	11280
271.280	6542
271.340	7064
271.401	20083
271.462	32573
271.522	11771
271.583	9087
271.643	8597
271.704	6877
271.764	10297
271.825	31862
271.885	89051
271.946	60098
272.006	25287
272.066	58692
272.127	46846
272.187	17438
272.248	11870
272.308	20663
272.369	46535
272.429	18145
272.489	29410
272.550	19618
272.610	26093
272.671	14764
272.731	37205
272.791	33967
272.852	16829
272.912	13842
272.972	8628
273.033	13072
273.093	21686
273.153	12927
273.214	9184
273.274	13653
273.334	60171
273.394	55103
273.455	26172
273.515	45243
273.575	53650
273.635	24207
273.696	62775
273.756	56435
273.816	21315
273.876	18741
273.936	87420
273.997	61280
274.057	17815
274.117	16570
274.177	33039
274.237	102429
274.297	76225
274.358	64771
274.418	60530
274.478	32701
274.538	15630
274.598	31627
274.658	108984
274.718	83063
274.778	25553
274.838	17776
274.898	95203
274.958	127369
275.018	78048
275.078	35937
275.138	18802
275.198	12422
275.258	10945
275.318	22599
275.378	28716
275.438	21164
275.498	19667
275.558	98470
275.618	93917
275.678	39452
275.738	36377
275.798	23556
275.858	11781
275.918	9295
275.978	13205
276.038	8927
276.098	8744
276.157	36824
276.217	47340
276.277	21696
276.337	15694
276.397	12646
276.457	13697
276.517	8548
276.576	7236
276.636	9527
276.696	19610
276.756	43151
276.815	18406
276.875	14732
276.935	17849
276.995	10973
277.055	8677
277.114	8259
277.174	23847
277.234	37698
277.293	15283
277.353	11426
277.413	8465
277.472	12093
277.532	9737
277.592	12628
277.651	67740
277.711	48272
277.771	34131
277.830	103664
277.890	42580
277.950	81938
278.009	105798
278.069	33491
278.128	73147
278.188	51472
278.248	40076
278.307	89073
278.367	32679
278.426	17074
278.486	11702
278.545	9949
278.605	9338
278.664	9019
278.724	11417
278.783	49284
278.843	52743
278.902	17239
278.962	17233
279.021	19307
279.081	42097
279.140	23978
279.199	18544
279.259	18455
279.318	18534
279.378	24733
279.437	60551
279.496	224256
279.556	498931
279.615	225578
279.675	82143
279.734	59228
279.793	121715
279.853	90456
279.912	33160
279.971	25101
280.031	23112
280.090	55086
280.149	55002
280.208	108528
280.268	392325
280.327	189088
280.386	64418
280.445	60693
280.505	35493
280.564	22228
280.623	19362
280.682	37865
280.742	28708
280.801	13048
280.860	12006
280.919	11191
280.978	10761
281.037	11883
281.097	9289
281.156	10399
281.215	9126
281.274	19070
281.333	57498
281.392	22700
281.451	10547
281.510	10042
281.569	9129
281.628	8330
281.688	8286
281.747	11128
281.806	9621
281.865	7976
281.924	9349
281.983	7796
282.042	7166
282.101	6422
282.160	6655
282.219	7097
282.278	12993
282.337	34163
282.396	13638
282.454	8606
282.513	20679
282.572	46421
282.631	14969
282.690	10046
282.749	9511
282.808	12576
282.867	12343
282.926	9855
282.985	6972
283.043	6177
283.102	8081
283.161	11638
283.220	41185
283.279	37333
283.338	12874
283.396	10403
283.455	9589
283.514	12431
283.573	16653
283.631	11052
283.690	9383
283.749	11027
283.808	28226
283.866	16501
283.925	9263
283.984	10451
284.043	16344
284.101	13097
284.160	13361
284.219	16588
284.277	12280
284.336	28596
284.395	70936
284.453	31288
284.512	20252
284.570	27988
284.629	20246
284.688	21572
284.746	22260
284.805	27429
284.863	35788
284.922	38751
284.981	46088
285.039	68656
285.098	133446
285.156	305294
285.215	364742
285.273	336993
285.332	203115
285.390	120806
285.449	76698
285.507	51978
285.566	39435
285.624	29661
285.683	23512
285.741	20136
285.799	19546
285.858	19310
285.916	15678
285.975	13412
286.033	12008
286.091	11065
286.150	11012
286.208	13157
286.267	13059
286.325	15020
286.383	22119
286.442	13246
286.500	8910
286.558	8909
286.616	9047
286.675	13628
286.733	11013
286.791	9897
286.850	13687
286.908	22187
286.966	21594
287.024	10989
287.083	9001
287.141	7628
287.199	10754
287.257	14040
287.315	10076
287.374	16085
287.432	27058
287.490	14471
287.548	12670
287.606	9468
287.664	9672
287.723	20533
287.781	16580
287.839	10890
287.897	12115
287.955	13226
288.013	19670
288.071	58264
288.129	311821
288.187	404118
288.245	135459
288.303	58366
288.361	39386
288.419	32438
288.477	19181
288.535	13465
288.593	11518
288.651	10307
288.709	8600
288.767	10245
288.825	7875
288.883	8684
288.941	8527
288.999	7997
289.057	6872
289.115	9180
289.173	8460
289.231	9764
289.289	9506
289.346	8821
289.404	11631
289.462	20056
289.520	15401
289.578	8037
289.636	6088
289.694	5139
289.751	5897
289.809	6495
289.867	6890
289.925	11354
289.983	9849
290.040	6619
290.098	7118
290.156	9932
290.214	10372
290.271	5920
290.329	6506
290.387	6091
290.444	5355
290.502	5182
290.560	5604
290.617	6789
290.675	6545
290.733	8494
290.790	7650
290.848	6938
290.906	9478
290.963	8086
291.021	7922
291.078	6087
291.136	9349
291.194	45015
291.251	40868
291.309	12531
291.366	7626
291.424	8353
291.481	8375
291.539	9940
291.596	6822
291.654	5593
291.711	6087
291.769	12424
291.826	18957
291.884	9702
291.941	7069
291.999	8476
292.056	11375
292.114	8553
292.171	7566
292.228	8678
292.286	13140
292.343	24907
292.401	23237
292.458	13533
292.515	12063
292.573	14872
292.630	14753
292.687	12387
292.745	9444
292.802	19410
292.859	44679
292.917	56994
292.974	23665
293.031	11914
293.089	10124
293.146	8541
293.203	7273
293.260	10079
293.318	16869
293.375	14632
293.432	8452
293.489	7741
293.546	6703
293.604	16439
293.661	62285
293.718	74301
293.775	34358
293.832	22925
293.889	23220
293.947	25000
294.004	13906
294.061	15967
294.118	38708
294.175	63216
294.232	51609
294.289	21145
294.346	14208
294.403	13684
294.460	14965
294.517	11833
294.574	9252
294.631	8091
294.688	10675
294.745	47556
294.802	111265
294.859	75841
294.916	44278
294.973	28356
295.030	23375
295.087	15958
295.144	11585
295.201	10906
295.258	8437
295.315	15315
295.372	58954
295.429	54604
295.486	23740
295.542	20257
295.599	62872
295.656	56113
295.713	61150
295.770	50897
295.827	19738
295.883	14554
295.940	16718
295.997	30006
296.054	19530
296.111	11676
296.167	8762
296.224	7867
296.281	7992
296.338	7864
296.394	7797
296.451	14347
296.508	46617
296.564	46648
296.621	39030
296.678	103629
296.734	77107
296.791	30041
296.848	20174
296.904	30233
296.961	60269
297.018	79047
297.074	38551
297.131	18744
297.187	15095
297.244	28014
297.301	109910
297.357	90356
297.414	32712
297.470	18087
297.527	13730
297.583	13316
297.640	13250
297.696	9925
297.753	8681
297.809	8437
297.866	7443
297.922	8174
297.979	8235
298.035	10953
298.092	22899
298.148	52362
298.204	30874
298.261	19003
298.317	57938
298.374	84761
298.430	41258
298.486	32565
298.543	22468
298.599	18649
298.656	19978
298.712	49939
298.768	79046
298.824	37458
298.881	17809
298.937	13101
298.993	13643
299.050	17689
299.106	13684
299.162	13491
299.218	11282
299.275	9302
299.331	11263
299.387	36919
299.443	100003
299.500	71948
299.556	34354
299.612	20091
299.668	21137
299.724	36687
299.780	26773
299.837	16215
299.893	34985
299.949	98305
300.005	72721
300.061	100020
300.117	100530
300.173	44235
300.229	29747
300.285	42018
300.341	32509
300.397	18494
300.453	13619
300.510	12226
300.566	12934
300.622	24033
300.678	79021
300.734	87143
300.790	84327
300.845	68706
300.901	71045
300.957	92341
301.013	47874
301.069	23466
301.125	20972
301.181	19630
301.237	14558
301.293	11343
301.349	10111
301.405	10316
301.461	11101
301.516	11534
301.572	18262
301.628	26511
301.684	24539
301.740	45561
301.796	41222
301.851	40152
301.907	56761
301.963	47157
302.019	131360
302.074	236339
302.130	162128
302.186	72928
302.242	36802
302.297	25053
302.353	33783
302.409	52394
302.464	33196
302.520	49553
302.576	103041
302.631	84786
302.687	45652
302.743	21553
302.798	14664
302.854	13150
302.910	14339
302.965	24467
303.021	33661
303.076	32319
303.132	48330
303.187	39449
303.243	20564
303.299	13620
303.354	12297
303.410	10980
303.465	11029
303.521	9971
303.576	10027
303.632	13114
303.687	41283
303.743	76932
303.798	44413
303.853	22918
303.909	14467
303.964	15828
304.020	30652
304.075	30040
304.130	38954
304.186	61383
304.241	54535
304.297	39706
304.352	22229
304.358	21633
304.407	16805
304.449	17141
304.463	17268
304.518	16960
304.539	15810
304.573	14000
304.629	14390
304.630	14722
304.684	29798
304.720	60739
304.739	76648
304.794	65205
304.811	56324
304.850	34593
304.902	19015
304.905	18038
304.960	15849
304.992	15518
305.015	15329
305.071	13926
305.083	13355
305.126	11178
305.173	9308
305.181	9014
305.236	8847
305.264	9985
305.292	11197
305.347	14645
305.354	14653
305.402	14554
305.445	16125
305.457	16637
305.512	20148
305.535	18774
305.567	16645
305.622	17991
305.626	19386
305.678	43684
305.716	77653
305.733	91641
305.788	69667
305.807	65941
305.843	57217
305.897	76801
305.898	77084
305.953	55303
305.988	41753
306.008	33393
306.063	22086
306.078	19948
306.118	15538
306.168	11803
306.173	11468
306.228	10206
306.259	9475
306.283	9057
306.338	9330
306.349	9704
306.393	11225
306.440	11995
306.448	12085
306.503	10445
306.530	15189
306.558	22286
306.613	53281
306.620	55456
306.668	67720
306.711	78345
306.723	79668
306.778	51721
306.801	42230
306.833	29761
306.888	16282
306.892	15816
306.943	12970
306.982	11452
306.997	10976
307.052	10204
307.072	10685
307.107	12361
307.162	19732
307.163	19858
307.217	31842
307.253	40608
307.272	43977
307.327	38557
307.343	35550
307.381	25560
307.434	22504
307.436	22963
307.491	56859
307.524	74118
307.546	81042
307.600	62927
307.614	57383
307.655	34386
307.704	18230
307.710	17615
307.765	21429
307.795	33809
307.819	47836
307.874	67280
307.885	66018
307.929	42746
307.975	26590
307.984	25498
308.038	25817
308.065	32837
308.093	47476
308.148	124081
308.156	139706
308.202	244614
308.246	252479
308.257	237745
308.312	134316
308.336	102145
308.366	83970
308.421	54117
308.426	52214
308.475	34397
308.517	23602
308.530	21575
308.585	18142
308.607	17327
308.639	17124
308.694	20131
308.697	21204
308.748	50913
308.787	71823
308.803	74404
308.857	53868
308.877	49403
308.912	38420
308.967	27002
308.967	26924
309.021	30714
309.058	37815
309.076	45049
309.130	78885
309.148	96858
309.185	156375
309.238	278213
309.239	279812
309.293	332442
309.328	317333
309.348	266467
309.402	133406
309.418	100891
309.457	70535
309.508	45459
309.511	44539
309.566	39967
309.598	42313
309.620	48712
309.674	74155
309.688	78527
309.729	78654
309.778	66970
309.783	64785
309.837	43650
309.868	34266
309.892	35207
309.946	52307
309.959	57532
310.001	83259
310.049	97263
310.055	93913
310.109	56503
310.139	38508
310.163	30260
310.218	18162
310.229	16146
310.272	13411
310.319	12016
310.326	11864
310.381	11572
310.409	11305
310.435	10681
310.489	9915
310.499	9846
310.543	10590
310.589	11976
310.598	12020
310.652	11818
310.679	11505
310.706	9891
310.760	7027
310.769	6613
310.814	5715
310.859	5098
310.868	5106
310.923	5527
310.948	5877
310.977	6574
311.031	7992
311.038	8182
311.085	7955
311.128	7547
311.139	7316
311.193	6635
311.218	6229
311.247	5864
311.301	5324
311.308	5306
311.356	5588
311.398	5917
311.410	5769
311.464	4951
311.488	4684
311.518	4756
311.572	5083
311.578	5172
311.626	7180
311.668	8842
311.680	8918
311.734	9402
311.758	9621
311.788	9731
311.842	9955
311.847	10032
311.896	10372
311.937	10823
311.950	11277
312.004	13348
312.027	14282
312.058	11345
312.112	6212
312.117	5734
312.165	5286
312.207	4978
312.297	6892
312.386	7157
312.476	5843
312.566	13336
312.656	9417
312.745	3875
312.835	5228
312.925	5229
313.015	6660
313.104	8997
313.194	4429
313.284	5090
313.374	6488
313.463	7375
313.553	4918
313.643	4384
313.732	3849
313.822	4099
313.912	4976
314.001	5600
314.091	6260
314.180	9333
314.270	7879
314.360	10682
314.449	10276
314.539	5313
314.628	4439
314.718	5703
314.808	9675
314.897	6635
314.987	5146
315.076	6982
315.166	10479
315.255	11385
315.345	8808
315.434	11795
315.524	9375
315.613	12341
315.703	13117
315.792	23554
315.881	74663
315.971	44514
316.060	19664
316.150	36708
316.239	42898
316.328	21585
316.418	5124
316.507	5505
316.597	7684
316.686	9366
316.775	14329
316.865	45609
316.954	13504
317.043	3916
317.133	5277
317.222	5334
317.311	4701
317.400	4463
317.490	6767
317.579	10232
317.668	7689
317.757	14144
317.847	37717
317.936	135586
318.025	72583
318.114	28948
318.203	19579
318.293	12298
318.382	21727
318.471	20114
318.560	26522
318.649	52183
318.738	19741
318.828	8974
318.917	10011
319.006	12482
319.095	42889
319.184	66675
319.273	50082
319.362	26825
319.451	8500
319.540	7634
319.629	15937
319.718	31886
319.807	11544
319.896	22146
319.985	78528
320.074	47430
320.163	11718
320.252	24312
320.341	16864
320.430	12880
320.519	14079
320.608	11985
320.697	6318
320.786	7225
320.875	10649
320.964	13390
321.053	19290
321.142	28109
321.230	35265
321.319	21883
321.408	51140
321.497	31173
321.586	21827
321.675	33339
321.764	40455
321.852	21214
321.941	26157
322.030	25225
322.119	17873
322.207	56525
322.296	62079
322.385	26477
322.474	24838
322.562	58052
322.651	47053
322.740	24657
322.829	44239
322.917	58207
323.006	34420
323.095	19013
323.183	16978
323.272	23624
323.361	38926
323.449	148287
323.538	73717
323.626	94138
323.715	98367
323.804	22870
323.892	91157
323.981	78413
324.069	15680
324.158	45545
324.246	74165
324.335	13513
324.424	20532
324.512	9766
324.601	8875
324.689	18368
324.778	44384
324.866	46103
324.954	16660
325.043	8339
325.131	18566
325.220	46125
325.308	57466
325.397	34822
325.485	28994
325.574	6695
325.662	5623
325.750	6498
325.839	5824
325.927	5207
326.015	7611
326.104	15115
326.192	36895
326.280	7942
326.369	5702
326.457	7890
326.545	14859
326.634	9903
326.722	3811
326.810	5319
326.898	4431
326.987	5054
327.075	13298
327.163	23428
327.251	14576
327.340	11437
327.428	22714
327.516	7078
327.604	5834
327.692	7959
327.781	9188
327.869	20775
327.957	14560
328.045	9542
328.133	4819
328.221	9014
328.309	8490
328.397	5246
328.485	6176
328.574	8888
328.662	29812
328.750	32557
328.838	15855
328.926	6420
329.014	4094
329.102	6008
329.190	16267
329.278	16096
329.366	4427
329.454	3717
329.542	4032
329.630	2932
329.718	3697
329.806	5606
329.893	5296
329.981	5513
330.069	4595
330.157	12713
330.245	44401
330.333	31768
330.421	7149
330.509	7833
330.597	34481
330.684	34528
330.772	9742
330.860	13769
330.948	16644
331.036	10436
331.123	3998
331.211	3319
331.299	4776
331.387	9157
331.475	25523
331.562	11760
331.650	4119
331.738	6343
331.825	12825
331.913	5217
332.001	3900
332.089	5690
332.176	17547
332.264	47272
332.352	58871
332.439	10881
332.527	7054
332.614	6072
332.702	11896
332.790	6085
332.877	16645
332.965	58341
333.052	16510
333.140	9446
333.228	28547
333.315	9954
333.403	6173
333.490	26323
333.578	34351
333.665	22853
333.753	15584
333.840	6275
333.928	7514
334.015	25910
334.103	38159
334.190	109339
334.278	48752
334.365	13469
334.452	11275
334.540	6210
334.627	8834
334.715	15714
334.802	20318
334.889	147124
334.977	245408
335.064	30286
335.151	8965
335.239	7739
335.326	8606
335.413	31541
335.501	73076
335.588	12455
335.675	6668
335.762	7185
335.850	14098
335.937	10457
336.024	26045
336.111	157180
336.199	110985
336.286	15633
336.373	6639
336.460	5591
336.547	5718
336.635	7234
336.722	7705
336.809	5279
336.896	7615
336.983	21549
337.070	58704
337.157	97440
337.245	101229
337.332	127475
337.419	12916
337.506	6168
337.593	6276
337.680	13776
337.767	61272
337.854	24506
337.941	22399
338.028	41731
338.115	21423
338.202	9709
338.289	21722
338.376	116761
338.463	58060
338.550	28350
338.637	48533
338.724	17234
338.811	47370
338.898	12191
338.984	5186
339.071	6508
339.158	7163
339.245	18756
339.332	16181
339.419	19386
339.506	34562
339.593	5303
339.679	4255
339.766	4285
339.853	5302
339.940	14916
340.027	6982
340.113	4775
340.200	7800
340.287	8305
340.374	5992
340.460	12901
340.547	6369
340.634	7305
340.720	32363
340.807	34579
340.894	4895
340.980	5501
341.067	5315
341.154	4827
341.240	6374
341.327	19362
341.414	7745
341.500	6009
341.587	4600
341.674	3846
341.760	10556
341.847	17036
341.933	7614
342.020	3602
342.106	2671
342.193	3822
342.279	10058
342.366	6898
342.452	13693
342.539	8348
342.625	12213
342.712	41845
342.798	22827
342.885	9445
342.971	3609
343.058	2995
343.144	4248
343.230	3964
343.317	2983
343.403	3686
343.490	3063
343.576	3462
343.662	3628
343.749	4955
343.835	6873
343.921	8131
344.008	43658
344.094	160647
344.180	57117
344.267	12964
344.353	33450
344.439	67071
344.525	25186
344.612	9547
344.698	5806
344.784	6307
344.870	3579
344.957	3881
345.043	7322
345.129	6052
345.215	11207
345.301	8883
345.387	4004
345.474	2646
345.560	3447
345.646	5985
345.732	5456
345.818	4626
345.904	5208
345.990	6053
346.076	7089
346.162	18067
346.249	8314
346.335	3741
346.421	4591
346.507	11288
346.593	61696
346.679	27048
346.765	5243
346.851	4690
346.937	5404
347.023	4184
347.108	4441
347.194	4876
347.280	3823
347.366	5180
347.452	12765
347.538	64860
347.624	61111
347.710	58124
347.796	15402
347.882	4436
347.967	3782
348.053	6560
348.139	5756
348.225	4001
348.311	5109
348.397	4011
348.482	4138
348.568	6430
348.654	3694
348.740	5701
348.825	5817
348.911	7122
348.997	24096
349.083	79093
349.168	23664
349.254	5104
349.340	5440
349.425	3792
349.511	5684
349.597	7796
349.682	10577
349.768	37838
349.854	31297
349.939	5233
350.025	3683
350.110	4478
350.196	2800
350.282	2918
350.367	2790
350.453	8960
350.538	17428
350.624	6740
350.709	6222
350.795	4187
350.880	4260
350.966	5193
351.051	9359
351.137	12631
351.222	4784
351.308	8755
351.393	38587
351.479	16859
351.564	4002
351.649	3977
351.735	3772
351.820	2513
351.906	3228
351.991	5706
352.076	18906
352.162	44504
352.247	10729
352.332	5265
352.418	8603
352.503	10457
352.588	39733
352.673	59894
352.759	13103
352.844	7380
352.929	4839
353.014	9998
353.100	6244
353.185	8503
353.270	13525
353.355	19038
353.441	5820
353.526	6641
353.611	12214
353.696	20396
353.781	9196
353.866	6107
353.952	3624
354.037	9685
354.122	29568
354.207	30712
354.292	15200
354.377	5187
354.462	4329
354.547	6320
354.632	6275
354.717	7104
354.802	11802
354.887	6834
354.972	3149
355.057	2891
355.142	3314
355.227	4713
355.312	8160
355.397	17157
355.482	43457
355.567	35175
355.652	14092
355.737	19472
355.822	39011
355.907	61176
355.991	9100
356.076	4861
356.161	4988
356.246	4368
356.331	4380
356.416	8979
356.501	57099
356.585	116178
356.670	20053
356.755	8228
356.840	9760
356.924	35034
357.009	183163
357.094	127021
357.179	18812
357.263	14460
357.348	10919
357.433	14350
357.517	10200
357.602	9546
357.687	7367
357.771	7775
357.856	12583
357.941	11253
358.025	24289
358.110	155095
358.195	129082
358.279	17494
358.364	9876
358.448	25393
358.533	88801
358.617	85470
358.702	68965
358.787	39478
358.871	13826
358.956	15252
359.040	5581
359.125	3978
359.209	4999
359.294	5811
359.378	9653
359.462	11394
359.547	9128
359.631	8268
359.716	5228
359.800	4637
359.885	6883
359.969	6897
360.053	4466
360.138	4930
360.222	7200
360.306	13538
360.391	13406
360.475	10215
360.559	30563
360.644	35326
360.728	38493
360.812	27408
360.896	125012
360.981	70451
361.065	36926
361.149	10001
361.233	8076
361.318	6810
361.402	8078
361.486	8008
361.570	6217
361.654	7162
361.739	14048
361.823	56644
361.907	144566
361.991	38930
362.075	10966
362.159	28067
362.243	26737
362.327	17022
362.411	23098
362.495	16259
362.580	9723
362.664	5602
362.748	5081
362.832	5873
362.916	8943
363.000	23928
363.084	76026
363.168	162535
363.252	57080
363.336	14525
363.420	15664
363.503	44667
363.587	87409
363.671	20068
363.755	9693
363.839	14981
363.923	8679
364.007	11568
364.091	20550
364.175	19955
364.258	77738
364.342	81419
364.426	62552
364.510	47537
364.594	18915
364.677	17779
364.761	81470
364.845	108960
364.929	25968
365.013	25485
365.096	15325
365.180	24914
365.264	18310
365.347	82892
365.431	62649
365.515	13567
365.598	7775
365.682	6293
365.766	7570
365.849	15072
365.933	8334
366.017	10825
366.100	9073
366.184	5018
366.267	6186
366.351	4358
366.435	4067
366.518	3658
366.602	2450
366.685	3754
366.769	5080
366.852	7744
366.936	16874
367.019	12485
367.103	6340
367.186	13588
367.270	7032
367.353	3338
367.436	3668
367.520	4991
367.603	5382
367.687	8496
367.770	17262
367.853	12000
367.937	19304
368.020	57121
368.104	21072
368.187	10392
368.270	17870
368.353	16015
368.437	22045
368.520	80020
368.603	64673
368.687	28441
368.770	74977
368.853	29152
368.936	14077
369.020	18439
369.103	9190
369.186	4109
369.269	4701
369.352	8578
369.436	19775
369.519	12479
369.602	6592
369.685	4739
369.768	7467
369.851	5616
369.934	4721
370.018	5297
370.101	13944
370.184	14286
370.267	7644
370.350	10177
370.433	18211
370.516	41043
370.599	92230
370.682	39980
370.765	33061
370.848	42799
370.931	82455
371.014	52151
371.097	9659
371.180	6201
371.263	4153
371.346	4049
371.429	3861
371.511	4177
371.594	7603
371.677	13917
371.760	16179
371.843	11819
371.926	35251
372.009	138186
372.091	67872
372.174	27476
372.257	71654
372.340	48164
372.423	18482
372.505	28142
372.588	14261
372.671	17250
372.754	73572
372.836	65959
372.919	21353
373.002	56429
373.085	28783
373.167	12979
373.250	27689
373.332	71039
373.415	80991
373.498	197343
373.580	115289
373.663	79331
373.746	172991
373.828	51054
373.911	16730
373.993	13468
374.076	40347
374.159	69465
374.241	26853
374.324	58467
374.406	66596
374.489	37275
374.571	150267
374.654	108379
374.736	27640
374.819	82612
374.901	130705
374.983	182737
375.066	50537
375.148	11373
375.231	27141
375.313	88075
375.395	47261
375.478	12071
375.560	6873
375.643	7930
375.725	21338
375.807	109636
375.890	151724
375.972	97976
376.054	37722
376.136	67309
376.219	47540
376.301	23369
376.383	109279
376.465	74404
376.548	28556
376.630	31756
376.712	83767
376.794	76050
376.877	10428
376.959	3871
377.041	6265
377.123	8557
377.205	15649
377.287	5725
377.369	3695
377.452	4762
377.534	4806
377.616	4570
377.698	5061
377.780	3775
377.862	4731
377.944	4512
378.026	3745
378.108	3984
378.190	3281
378.272	3685
378.354	2626
378.436	2592
378.518	5026
378.600	20945
378.682	22743
378.764	37135
378.846	52900
378.928	13340
379.010	15109
379.091	12441
379.173	4503
379.255	4662
379.337	6134
379.419	15080
379.501	61824
379.583	46310
379.664	8632
379.746	14680
379.828	37577
379.910	61080
379.991	69688
380.073	19463
380.155	7219
380.237	6762
380.318	4924
380.400	5272
380.482	8986
380.564	19448
380.645	16486
380.727	19466
380.809	10467
380.890	8086
380.972	6690
381.053	5744
381.135	6174
381.217	12372
381.298	43517
381.380	38881
381.461	18155
381.543	64797
381.624	151488
381.706	41485
381.787	12019
381.869	13329
381.951	24268
382.032	127975
382.113	141022
382.195	32624
382.276	14909
382.358	22129
382.439	74229
382.521	90185
382.602	151224
382.684	90669
382.765	97743
382.846	141570
382.928	158523
383.009	136147
383.090	53342
383.172	151784
383.253	399098
383.334	188091
383.416	126780
383.497	104807
383.578	31747
383.659	43900
383.741	121762
383.822	467169
383.903	411100
383.984	101859
384.066	148875
384.147	145326
384.228	36564
384.309	17237
384.390	16792
384.471	11113
384.553	11473
384.634	13591
384.715	17745
384.796	10471
384.877	9879
384.958	29144
385.039	63600
385.120	29234
385.201	9997
385.282	11414
385.363	11895
385.444	12465
385.525	13172
385.606	47049
385.687	75989
385.768	20792
385.849	14945
385.930	41975
386.011	122354
386.092	56757
386.173	11087
386.254	7110
386.335	7785
386.416	8186
386.496	18037
386.577	50941
386.658	27695
386.739	12722
386.820	10778
386.901	9814
386.981	9750
387.062	7123
387.143	9006
387.224	34797
387.304	56507
387.385	20833
387.466	11481
387.547	12853
387.627	10209
387.708	12213
387.789	55365
387.869	115219
387.950	48809
388.031	7903
388.111	5753
388.192	12866
388.273	22750
388.353	19429
388.434	9726
388.514	11118
388.595	49946
388.676	107638
388.756	62877
388.837	40044
388.917	41005
388.998	10864
389.078	6861
389.159	6204
389.239	6447
389.320	8689
389.400	9445
389.480	12067
389.561	42669
389.641	39089
389.722	8967
389.802	14177
389.883	16871
389.963	48280
390.043	55998
390.124	22865
390.204	13229
390.284	44023
390.365	50754
390.445	28807
390.525	76924
390.605	100827
390.686	40000
390.766	13054
390.846	6320
390.927	5278
391.007	5582
391.087	6729
391.167	6836
391.247	5145
391.328	12385
391.408	18555
391.488	14113
391.568	6087
391.648	7149
391.728	11894
391.808	9558
391.888	12483
391.969	18074
392.049	46548
392.129	27514
392.209	17127
392.289	47796
392.369	44864
392.449	24670
392.529	21817
392.609	15062
392.689	15977
392.769	42311
392.849	64474
392.929	31229
393.009	66892
393.089	85285
393.169	57514
393.248	128863
393.328	522853
393.408	906783
393.488	353666
393.568	81888
393.648	38493
393.728	23417
393.807	17335
393.887	14902
393.967	12470
394.047	12903
394.127	13981
394.206	17172
394.286	36714
394.366	181777
394.446	348920
394.525	112715
394.605	21641
394.685	15665
394.764	26854
394.844	53074
394.924	56794
395.003	19626
395.083	11603
395.163	10850
395.242	9064
395.322	10258
395.402	8375
395.481	9268
395.561	15090
395.640	57126
395.720	62356
395.799	58413
395.879	73472
395.958	28075
396.038	48676
396.117	241263
396.197	457325
396.276	167718
396.356	45417
396.435	30410
396.515	25442
396.594	25766
396.673	46724
396.753	127419
396.832	523880
396.912	641383
396.991	198167
397.070	45930
397.150	22946
397.229	16811
397.308	15077
397.388	25522
397.467	18409
397.546	8948
397.625	6199
397.705	8542
397.784	9430
397.863	8172
397.942	5315
398.022	6077
398.101	12251
398.180	51762
398.259	47813
398.338	12994
398.417	7521
398.497	5922
398.576	5317
398.655	4154
398.734	3835
398.813	3895
398.892	10156
398.971	52371
399.050	53950
399.129	9155
399.208	3575
399.287	3872
399.366	2078
399.445	3186
399.524	3687
399.603	2658
399.682	5174
399.761	15708
399.840	51162
399.919	75250
399.998	16111
400.077	3868
400.156	2306
400.235	3852
400.313	4014
400.392	4048
400.471	13962
400.550	43907
400.629	21325
400.708	6193
400.786	5052
400.865	10236
400.944	17825
401.023	10575
401.102	2540
401.180	2136
401.259	3124
401.338	3993
401.416	4679
401.495	5570
401.574	4949
401.652	2977
401.731	4520
401.810	6177
401.888	3639
401.967	2194
402.046	1263
402.124	3477
402.203	6875
402.281	5434
402.360	3482
402.438	12776
402.517	17730
402.596	5720
402.674	4527
402.753	4164
402.831	3575
402.910	3512
402.988	9122
403.066	44660
403.145	49318
403.223	13793
403.302	35763
403.380	39079
403.459	30673
403.537	19941
403.615	7325
403.694	2771
403.772	2147
403.850	1913
403.929	1658
404.007	1904
404.085	4780
404.164	9338
404.242	4017
404.320	2979
404.398	4840
404.477	12245
404.555	77812
404.633	147128
404.711	35493
404.789	4434
404.868	3805
404.946	3840
405.024	1840
405.102	1308
405.180	1629
405.258	1755
405.336	2281
405.415	2499
405.493	5183
405.571	7729
405.649	3032
405.727	1922
405.805	4142
405.883	4359
405.961	4448
406.039	5208
406.117	4013
406.195	4723
406.273	13136
406.351	80241
406.429	101427
406.507	19145
406.585	5668
406.663	3602
406.740	5837
406.818	5664
406.896	3738
406.974	2612
407.052	4872
407.130	32449
407.208	100313
407.285	38671
407.363	4614
407.441	3060
407.519	3756
407.596	2824
407.674	6133
407.752	17255
407.830	28089
407.907	15602
407.985	5665
408.063	3455
408.141	2145
408.218	3318
408.296	4980
408.373	4218
408.451	3875
408.529	4737
408.606	2525
408.684	1142
408.762	1303
408.839	1064
408.917	1212
408.994	1500
409.072	1492
409.149	1632
409.227	2730
409.304	5471
409.382	3824
409.459	3992
409.537	6472
409.614	6650
409.692	3555
409.769	3113
409.846	6002
409.924	8846
410.001	6912
410.079	3854
410.156	2732
410.233	2700
410.311	3186
410.388	2628
410.465	3179
410.543	3134
410.620	2183
410.697	2032
410.775	4361
410.852	2931
410.929	3117
411.006	5448
411.083	3411
411.161	4433
411.238	8532
411.315	5539
411.392	3240
411.469	2896
411.547	4039
411.624	2248
411.701	2456
411.778	2059
411.855	6467
411.932	7875
412.009	2877
412.086	1369
412.163	2394
412.240	2951
412.317	3780
412.394	4144
412.471	2706
412.548	1689
412.625	1166
412.702	3208
412.779	5915
412.856	6137
412.933	2243
413.010	1781
413.087	2102
413.164	11503
413.241	36797
413.318	16973
413.395	3965
413.471	6869
413.548	5658
413.625	1660
413.702	2919
413.779	4017
413.855	1262
413.932	265
414.009	352
414.086	1359
414.162	1636
414.239	2648
414.316	10935
414.393	46391
414.469	37277
414.546	5056
414.623	1502
414.699	1067
414.776	3032
414.853	2073
414.929	2313
415.006	2444
415.082	2569
415.159	2465
415.236	2186
415.312	1558
415.389	3179
415.465	7816
415.542	6403
415.618	2059
415.695	5030
415.771	4170
415.848	2644
415.924	2241
416.000	2573
416.077	1820
416.153	644
416.230	714
416.306	314
416.383	1707
416.459	2169
416.535	452
416.612	583
416.688	1289
416.764	1133
416.841	805
416.917	1843
416.993	1020
417.069	2525
417.146	3023
417.222	4200
417.298	3827
417.374	1671
417.451	2142
417.527	2278
417.603	3946
417.679	3858
417.755	2795
417.831	1542
417.908	1508
417.984	845
418.060	1218
418.136	3530
418.212	10019
418.288	5465
418.364	2289
418.440	730
418.516	3813
418.592	4625
418.668	8544
418.744	16279
418.820	17203
418.896	6363
418.972	1567
419.048	2043
419.124	4675
419.200	8750
419.276	2764
419.352	123
419.428	656
419.504	929
419.579	3395
419.655	3525
419.731	2197
419.807	6481
419.883	17171
419.959	21430
420.034	7480
420.110	4442
420.186	18957
420.262	37975
420.337	10081
420.413	3747
420.489	2753
420.565	1622
420.640	1353
420.716	2627
420.792	1709
420.867	2002
420.943	1810
421.019	4075
421.094	4735
421.170	2460
421.245	1327
421.321	2186
421.397	2655
421.472	3549
421.548	9509
421.623	13564
421.699	6548
421.774	4894
421.850	4594
421.925	6070
422.001	8720
422.076	6273
422.152	5957
422.227	10430
422.302	13743
422.378	15557
422.453	26470
422.529	54190
422.604	141750
422.679	307155
422.755	290686
422.830	132585
422.905	48723
422.981	25132
423.056	15874
423.131	11881
423.207	7998
423.282	7880
423.357	11110
423.432	12730
423.508	7957
423.583	13269
423.658	21459
423.733	7430
423.808	5002
423.883	7283
423.959	6681
424.034	5751
424.109	4765
424.184	2684
424.259	1872
424.334	2316
424.409	2127
424.484	1852
424.559	2195
424.634	1849
424.709	3270
424.784	5729
424.859	4289
424.934	3679
425.009	13374
425.084	37449
425.159	30010
425.234	5544
425.309	1142
425.384	2034
425.459	4516
425.534	3403
425.609	2212
425.683	2878
425.758	1157
425.833	2256
425.908	2506
425.983	6296
426.058	32758
426.132	36681
426.207	6934
426.282	4943
426.357	6371
426.431	3821
426.506	2271
426.581	2038
426.655	2570
426.730	1913
426.805	2026
426.879	2337
426.954	2412
427.029	4025
427.103	17571
427.178	77264
427.253	82573
427.327	15569
427.402	3827
427.476	8923
427.551	8071
427.625	3468
427.700	3617
427.774	2370
427.849	3467
427.923	2760
427.998	1575
428.072	2254
428.147	5045
428.221	14508
428.296	60890
428.370	73701
428.444	15753
428.519	6518
428.593	11202
428.667	16726
428.742	13577
428.816	17395
428.890	27327
428.965	82433
429.039	49862
429.113	19353
429.188	14295
429.262	4350
429.336	3647
429.410	14230
429.485	21024
429.559	11222
429.633	14454
429.707	7250
429.781	5822
429.855	30138
429.930	92339
430.004	69423
430.078	60464
430.152	76091
430.226	76004
430.300	134314
430.374	51636
430.448	9120
430.522	11032
430.596	48715
430.670	64860
430.744	51825
430.818	152619
430.892	86629
430.966	12339
431.040	4382
431.114	1815
431.188	2132
431.262	2639
431.336	3507
431.410	3555
431.484	14347
431.557	22320
431.631	7794
431.705	2971
431.779	6045
431.853	42732
431.927	77579
432.000	22866
432.074	3169
432.148	3021
432.222	3988
432.295	2747
432.369	1904
432.443	3035
432.516	14476
432.590	77935
432.664	84132
432.737	14167
432.811	2972
432.885	1462
432.958	1165
433.032	612
433.106	1117
433.179	202
433.253	366
433.326	1095
433.400	1202
433.473	335
433.547	417
433.620	998
433.694	2752
433.767	6477
433.841	4733
433.914	2151
433.988	1248
434.061	700
434.134	392
434.208	1504
434.281	1048
434.355	200
434.428	1608
434.501	935
434.575	311
434.648	727
434.721	1104
434.795	1006
434.868	569
434.941	-413
435.014	571
435.088	696
435.161	1487
435.234	3393
435.307	6556
435.381	5565
435.454	2182
435.527	3848
435.600	5452
435.673	4080
435.746	2742
435.819	1143
435.892	1397
435.966	1919
436.039	1263
436.112	1580
436.185	1184
436.258	694
436.331	638
436.404	934
436.477	223
436.550	986
436.623	566
436.696	274
436.769	1447
436.842	2351
436.915	1567
436.987	3285
437.060	3622
437.133	1113
437.206	286
437.279	1749
437.352	1319
437.425	1072
437.498	2118
437.570	2766
437.643	7369
437.716	4118
437.789	984
437.861	2174
437.934	8865
438.007	12607
438.080	5104
438.152	2643
438.225	3987
438.298	16854
438.370	109108
438.443	132946
438.516	33260
438.588	10027
438.661	2280
438.734	1919
438.806	1840
438.879	3360
438.951	2893
439.024	5897
439.096	6404
439.169	2140
439.241	1356
439.314	643
439.386	2525
439.459	5040
439.531	10310
439.604	10476
439.676	2151
439.749	1115
439.821	1535
439.893	1307
439.966	1396
440.038	2814
440.110	3241
440.183	3436
440.255	1269
440.327	2706
440.400	7792
440.472	51663
440.544	109703
440.617	36004
440.689	7121
440.761	6398
440.833	9838
440.905	14106
440.978	6372
441.050	2325
441.122	1904
441.194	1254
441.266	2624
441.338	1894
441.411	2556
441.483	10663
441.555	49332
441.627	36954
441.699	7367
441.771	7467
441.843	6142
441.915	2480
441.987	2093
442.059	2353
442.131	2852
442.203	4391
442.275	6649
442.347	8514
442.419	7877
442.491	17484
442.563	79387
442.635	103054
442.706	42567
442.778	32127
442.850	16540
442.922	4479
442.994	4297
443.066	6454
443.137	8935
443.209	6689
443.281	6903
443.353	11848
443.425	28401
443.496	111998
443.568	227003
443.640	164236
443.711	55945
443.783	13497
443.855	7245
443.926	5405
443.998	4421
444.070	5324
444.141	5990
444.213	6390
444.285	9808
444.356	9983
444.428	10731
444.499	6299
444.571	3845
444.642	2931
444.714	3571
444.785	5511
444.857	9508
444.928	13704
445.000	20803
445.071	13408
445.143	19420
445.214	18324
445.285	14834
445.357	29217
445.428	75358
445.500	223107
445.571	287365
445.642	184018
445.714	93932
445.785	48232
445.856	34783
445.928	13344
445.999	12112
446.070	9776
446.141	8107
446.213	9345
446.284	9709
446.355	6239
446.426	5852
446.497	4476
446.569	4981
446.640	9975
446.711	13537
446.782	8096
446.853	4693
446.924	8254
446.995	5881
447.066	4556
447.138	6571
447.209	8335
447.280	3722
447.351	1976
447.422	1192
447.493	2631
447.564	4007
447.635	6944
447.706	8316
447.777	2856
447.847	1916
447.918	1379
447.989	2490
448.060	5376
448.131	9613
448.202	16416
448.273	14348
448.344	8950
448.414	3835
448.485	2680
448.556	2490
448.627	1824
448.698	1780
448.768	1305
448.839	1599
448.910	4308
448.981	8362
449.051	7280
449.122	3284
449.193	1447
449.263	1590
449.334	1932
449.405	2539
449.475	6620
449.546	12259
449.616	8921
449.687	9427
449.758	6555
449.828	2965
449.899	2432
449.969	2150
450.040	2135
450.110	2793
450.181	5542
450.251	4571
450.322	2506
450.392	2500
450.463	2651
450.533	2270
450.604	1888
450.674	1889
450.744	2514
450.815	1609
450.885	2399
450.955	2743
451.026	2405
451.096	1586
451.166	3293
451.237	4714
451.307	16043
451.377	23675
451.447	8272
451.518	3094
451.588	2225
451.658	3354
451.728	4319
451.799	9893
451.869	31634
451.939	26767
452.009	5909
452.079	2969
452.149	2051
452.219	3729
452.289	13495
452.360	33242
452.430	20223
452.500	5720
452.570	5715
452.640	8064
452.710	13363
452.780	33614
452.850	37538
452.920	29849
452.990	25367
453.060	8910
453.129	6661
453.199	9441
453.269	13158
453.339	75836
453.409	138561
453.479	104143
453.549	123621
453.619	170690
453.688	152927
453.758	50761
453.828	8137
453.898	5286
453.968	4593
454.037	4128
454.087	4005
454.107	3924
454.168	3548
454.177	3451
454.247	2468
454.249	2519
454.316	2741
454.330	3035
454.386	3922
454.411	5358
454.456	6794
454.492	14382
454.525	20975
454.574	21785
454.595	22373
454.655	9564
454.665	7486
454.734	5267
454.736	5464
454.804	8637
454.817	10558
454.873	15470
454.898	22914
454.943	35430
454.979	34676
455.013	34768
455.060	20215
455.082	14111
455.141	9866
455.152	8868
455.221	12438
455.222	12896
455.291	26854
455.303	27906
455.360	34894
455.384	28061
455.430	16406
455.465	14953
455.499	12829
455.546	17560
455.569	18040
455.627	26120
455.638	28176
455.707	16977
455.708	16937
455.777	5239
455.789	5211
455.846	4664
455.869	4644
455.916	4740
455.950	4724
455.985	4378
456.031	4670
456.054	4864
456.112	5699
456.124	5856
456.193	5116
456.193	5071
456.262	5113
456.274	5578
456.332	7097
456.355	8081
456.401	8796
456.436	8628
456.470	8694
456.516	6458
456.540	5529
456.597	4766
456.609	4539
456.678	4853
456.678	4815
456.747	4789
456.759	4753
456.817	4674
456.840	4664
456.886	4489
456.920	4814
456.955	5353
457.001	5923
457.024	6480
457.082	7943
457.093	8203
457.162	11183
457.163	11278
457.232	13801
457.243	13803
457.301	12698
457.324	10573
457.370	8302
457.405	7895
457.439	7434
457.485	7858
457.508	8301
457.566	9576
457.577	10088
457.646	14453
457.647	14567
457.715	28353
457.727	31494
457.784	57088
457.808	68794
457.853	74478
457.889	82835
457.922	72608
457.969	55763
457.991	66569
458.050	87447
458.060	93504
458.129	142368
458.130	144306
458.198	99064
458.211	89742
458.267	65371
458.292	47642
458.336	42406
458.372	38899
458.405	48360
458.453	68599
458.474	90099
458.533	157434
458.543	160531
458.611	197595
458.614	200031
458.680	106335
458.694	81302
458.749	59803
458.775	43525
458.818	28559
458.855	21636
458.887	16711
458.936	13896
458.955	13105
459.016	12451
459.024	12288
459.093	11775
459.097	11732
459.162	11702
459.177	12096
459.230	13644
459.257	14169
459.299	13650
459.338	13605
459.368	14172
459.418	14135
459.437	13307
459.499	12637
459.505	12704
459.574	11803
459.579	11682
459.643	10353
459.659	10421
459.711	11016
459.740	11172
459.780	11668
459.820	12776
459.849	13055
459.900	13155
459.917	13053
459.981	12603
459.986	12571
460.054	13037
460.061	13060
460.123	13907
460.141	13988
460.191	15756
460.222	17352
460.260	19142
460.302	21338
460.328	19423
460.382	16608
460.397	17173
460.462	16481
460.465	16686
460.534	22158
460.543	22943
460.602	45726
460.623	54016
460.671	89242
460.703	114930
460.739	89544
460.783	62906
460.808	54356
460.864	24864
460.876	24613
460.944	14211
460.945	14082
461.013	12573
461.024	12509
461.081	13349
461.104	14152
461.150	13221
461.184	12309
461.218	12757
461.264	13203
461.286	13318
461.345	12854
461.355	12683
461.423	12554
461.425	12540
461.491	13465
461.505	13785
461.559	22078
461.585	25976
461.628	41051
461.665	54644
461.696	57115
461.745	64932
461.764	55841
461.825	27984
461.832	28837
461.901	21906
461.905	21504
461.969	13794
461.985	13387
462.037	13694
462.065	13755
462.105	15489
462.145	17125
462.173	21881
462.225	30948
462.241	34188
462.305	48006
462.310	46462
462.378	26243
462.385	23587
462.446	22422
462.465	19995
462.514	15813
462.545	15552
462.582	14577
462.625	13597
462.650	13473
462.705	13598
462.718	13933
462.785	15265
462.786	15368
462.854	21428
462.865	22420
462.922	25669
462.945	27443
462.990	21313
463.025	16317
463.058	16246
463.104	13867
463.126	13395
463.184	13194
463.194	13190
463.262	13995
463.264	14010
463.330	13784
463.344	13834
463.398	15062
463.424	15406
463.466	15631
463.504	16000
463.533	16139
463.583	16352
463.601	16939
463.663	18747
463.669	19304
463.737	25609
463.743	26192
463.805	35957
463.823	38890
463.873	58053
463.903	69521
463.940	70230
463.982	72457
464.008	57924
464.062	27847
464.076	27727
464.142	19609
464.144	19504
464.211	15683
464.221	15664
464.279	16434
464.301	16784
464.347	17701
464.381	18348
464.414	20114
464.461	22565
464.482	23074
464.540	24533
464.550	24093
464.617	21150
464.620	20996
464.685	22417
464.699	22655
464.753	24367
464.779	25441
464.820	25906
464.859	26291
464.888	26662
464.938	26930
464.956	26922
465.018	26751
465.023	26391
465.091	21722
465.098	21168
465.158	20950
465.177	20785
465.226	21163
465.257	21501
465.293	22554
465.336	23650
465.361	26057
465.416	31591
465.428	33087
465.495	40904
465.496	41125
465.563	65925
465.575	70049
465.631	79814
465.654	84447
465.698	53746
465.734	28179
465.765	27021
465.813	22848
465.833	22441
465.893	21748
465.900	21572
465.968	21023
465.972	20956
466.035	21373
466.052	21449
466.102	21971
466.131	22174
466.170	22849
466.210	23513
466.237	23467
466.290	23291
466.304	23796
466.369	25798
466.372	25883
466.439	27132
466.449	27262
466.506	30575
466.528	31762
466.573	41703
466.607	49088
466.641	72019
466.687	103702
466.708	111669
466.766	133157
466.775	123515
466.842	50027
466.845	46460
466.909	37521
466.925	35106
466.977	32505
467.004	31474
467.044	31642
467.083	31780
467.111	34104
467.163	38341
467.178	38932
467.242	41022
467.245	40988
467.312	38678
467.321	38298
467.379	37351
467.400	36896
467.446	39275
467.480	40865
467.559	35578
467.638	31985
467.717	32393
467.796	37264
467.875	41495
467.955	39115
468.034	54769
468.113	116618
468.192	166102
468.271	52116
468.350	53390
468.429	68980
468.508	70391
468.588	49224
468.667	38194
468.746	37316
468.825	33917
468.904	29336
468.983	34351
469.062	52016
469.141	58432
469.220	27806
469.299	27754
469.378	30038
469.456	32579
469.535	30578
469.614	30283
469.693	32948
469.772	40004
469.851	57609
469.930	36912
470.009	30839
470.088	32427
470.166	40540
470.245	57828
470.324	71484
470.403	48605
470.482	36187
470.560	31552
470.639	33136
470.718	39470
470.797	30071
470.875	35553
470.954	50821
471.033	48665
471.111	25078
471.190	23262
471.269	24060
471.347	24068
471.426	26167
471.505	28535
471.583	29666
471.662	27763
471.740	26379
471.819	25441
471.898	25962
471.976	24226
472.055	25579
472.133	28168
472.212	37073
472.290	38385
472.369	25875
472.447	23054
472.526	23925
472.604	25100
472.683	29479
472.761	30581
472.839	27753
472.918	25608
472.996	26879
473.075	30031
473.153	28677
473.231	25556
473.310	31370
473.388	30315
473.466	29262
473.545	31394
473.623	43895
473.701	40370
473.780	26490
473.858	27881
473.936	28845
474.014	25491
474.093	30375
474.171	42872
474.249	57892
474.327	34756
474.405	23979
474.484	24329
474.562	26437
474.640	25886
474.718	27276
474.796	28001
474.874	25595
474.952	23212
475.030	24915
475.108	25483
475.187	29678
475.265	33317
475.343	51734
475.421	56199
475.499	25154
475.577	25523
475.655	33353
475.733	64860
475.811	112376
475.889	104072
475.966	61807
476.044	28726
476.122	39995
476.200	54002
476.278	36559
476.356	24556
476.434	27879
476.512	35909
476.590	52501
476.667	38365
476.745	23904
476.823	25577
476.901	24476
476.979	25067
477.056	24023
477.134	26368
477.212	27479
477.290	24356
477.367	22704
477.445	21977
477.523	22605
477.601	23224
477.678	23093
477.756	28459
477.834	30679
477.911	22406
477.989	23027
478.066	23140
478.144	29347
478.222	35789
478.299	68011
478.377	52265
478.454	23553
478.532	21579
478.609	24053
478.687	26018
478.764	22644
478.842	24211
478.919	28792
478.997	25158
479.074	21866
479.152	25797
479.229	33679
479.307	22519
479.384	19052
479.461	19083
479.539	21895
479.616	27270
479.694	23130
479.771	25302
479.848	26503
479.926	36599
480.003	36503
480.080	20981
480.157	20094
480.235	20889
480.312	22020
480.389	25078
480.467	41203
480.544	50485
480.621	28760
480.698	26981
480.775	30155
480.853	29318
480.930	24221
481.007	24898
481.084	30231
481.161	33745
481.238	28708
481.315	21921
481.392	21947
481.470	23262
481.547	24079
481.624	22898
481.701	22613
481.778	23825
481.855	29861
481.932	38243
482.009	68257
482.086	45397
482.163	33250
482.240	50600
482.317	92694
482.393	57347
482.470	30138
482.547	28621
482.624	26400
482.701	27416
482.778	25711
482.855	22977
482.932	23776
483.009	24841
483.085	29950
483.162	36031
483.239	35740
483.316	31966
483.393	32185
483.469	28703
483.546	29545
483.623	30761
483.699	23732
483.776	24949
483.853	28677
483.930	39480
484.006	89141
484.083	154698
484.160	64492
484.236	85402
484.313	67807
484.389	55015
484.466	50532
484.543	52848
484.619	60324
484.696	63737
484.772	59385
484.849	58356
484.925	47575
485.002	45703
485.078	46448
485.155	47254
485.231	42019
485.308	41549
485.384	44529
485.461	55777
485.537	93318
485.614	108607
485.690	43770
485.766	40818
485.843	46168
485.919	69428
485.995	70351
486.072	38908
486.148	37996
486.224	38346
486.301	41119
486.377	47936
486.453	49663
486.530	42937
486.606	53158
486.682	60325
486.758	78214
486.835	91786
486.911	73422
486.987	126570
487.063	136893
487.139	180197
487.215	123063
487.292	54595
487.368	49387
487.444	58347
487.520	82011
487.596	103359
487.672	214267
487.748	632701
487.824	969032
487.900	268472
487.976	91285
488.052	69489
488.128	72725
488.204	57895
488.280	46970
488.356	57633
488.432	107775
488.508	168553
488.584	56983
488.660	41819
488.736	40779
488.812	43890
488.888	55383
488.964	77997
489.039	177210
489.115	271639
489.191	138558
489.267	42709
489.343	39120
489.418	34027
489.494	33579
489.570	31294
489.646	32902
489.722	33338
489.797	37949
489.873	57697
489.949	126473
490.024	98039
490.100	34878
490.176	35658
490.251	45986
490.327	62249
490.403	34974
490.478	31898
490.554	28472
490.629	29615
490.705	28956
490.781	33019
490.856	32165
490.932	37858
491.007	39615
491.083	37182
491.158	34408
491.234	44327
491.309	93513
491.385	92150
491.460	31697
491.536	33908
491.611	30429
491.686	35025
491.762	51347
491.837	112198
491.913	189793
491.988	259982
492.063	323168
492.139	77667
492.214	47075
492.289	26900
492.365	28820
492.440	33266
492.515	33478
492.590	31227
492.666	26872
492.741	38154
492.816	58734
492.891	30917
492.967	25465
493.042	21885
493.117	23370
493.192	23192
493.267	27335
493.342	35153
493.418	34055
493.493	24100
493.568	21756
493.643	24044
493.718	33264
493.793	50507
493.868	58057
493.943	36095
494.018	26095
494.093	25292
494.168	25364
494.243	23044
494.318	21760
494.393	20937
494.468	21729
494.543	22376
494.618	29403
494.693	24746
494.768	23541
494.842	23936
494.917	22216
494.992	23956
495.067	21447
495.142	19844
495.217	24161
495.292	22022
495.366	25412
495.441	32672
495.516	42395
495.591	73686
495.665	238164
495.740	588342
495.815	193629
495.890	37540
495.964	30244
496.039	30752
496.114	30607
496.188	34307
496.263	32290
496.338	28264
496.412	33745
496.487	38262
496.561	41866
496.636	42894
496.710	33519
496.785	37581
496.860	42409
496.934	33222
497.009	33830
497.083	33412
497.158	36015
497.232	40353
497.307	50584
497.381	40608
497.455	48377
497.530	61187
497.604	41740
497.679	45124
497.753	68775
497.827	90618
497.902	80274
497.976	96928
498.050	220212
498.125	775649
498.199	756850
498.273	138444
498.348	105305
498.422	82182
498.496	78811
498.570	68162
498.645	48065
498.719	46928
498.793	54267
498.867	82324
498.941	121224
499.016	306594
499.090	860874
499.164	250696
499.238	38530
499.312	33894
499.386	45410
499.460	38635
499.534	34798
499.609	43406
499.683	62026
499.757	63104
499.831	146902
499.905	554665
499.979	489148
500.053	78193
500.127	81483
500.201	63998
500.275	37385
500.349	34444
500.422	41673
500.496	65096
500.570	151354
500.644	306218
500.718	583736
500.792	106631
500.866	34630
500.940	42771
501.013	35554
501.087	36866
501.161	67102
501.235	91563
501.309	182963
501.382	497533
501.456	411722
501.530	93656
501.603	164266
501.677	57312
501.751	30058
501.825	37185
501.898	69202
501.972	201186
502.046	115423
502.119	41138
502.193	89238
502.266	220088
502.340	97850
502.413	91916
502.487	187738
502.561	107252
502.634	35875
502.708	33469
502.781	30985
502.855	24358
502.928	21467
503.002	20360
503.075	21877
503.149	22502
503.222	21207
503.295	23327
503.369	30580
503.442	48444
503.516	145870
503.589	380787
503.662	232964
503.736	74879
503.809	178458
503.882	150326
503.956	224272
504.029	254893
504.102	350652
504.175	482447
504.249	158353
504.322	70172
504.395	47823
504.468	33102
504.542	31216
504.615	22932
504.688	22107
504.761	22684
504.834	28735
504.907	34299
504.980	55530
505.053	27456
505.127	37219
505.200	36190
505.273	36486
505.346	22934
505.419	20177
505.492	17995
505.565	16775
505.638	15654
505.711	16992
505.784	15774
505.857	15906
505.930	16107
506.003	17450
506.076	17896
506.149	25022
506.221	32264
506.294	30589
506.367	79621
506.440	261121
506.513	129259
506.586	32580
506.659	20696
506.731	19820
506.804	25959
506.877	38664
506.950	23848
507.022	17141
507.095	25446
507.168	30385
507.241	20314
507.313	17937
507.386	21500
507.459	30634
507.531	19218
507.604	16932
507.677	16147
507.749	15731
507.822	22019
507.894	42569
507.967	43484
508.040	25101
508.112	21121
508.185	21361
508.257	22544
508.330	33507
508.402	21954
508.475	20354
508.547	21915
508.620	23110
508.692	36333
508.765	21945
508.837	17556
508.909	17115
508.982	18330
509.054	22424
509.127	19580
509.199	17966
509.271	16550
509.344	15549
509.416	16256
509.488	16884
509.560	17806
509.633	20190
509.705	23591
509.777	22089
509.849	33688
509.922	22158
509.994	16796
510.066	17470
510.138	19379
510.210	31360
510.283	30542
510.355	25072
510.427	22727
510.499	21528
510.571	22208
510.643	23326
510.715	36402
510.787	34584
510.859	22009
510.931	29725
511.003	39113
511.076	32602
511.148	19560
511.219	21936
511.291	32874
511.363	39277
511.435	19245
511.507	18129
511.579	18164
511.651	18760
511.723	18396
511.795	18086
511.867	19949
511.939	25009
512.010	51038
512.082	39774
512.154	22041
512.226	21505
512.298	28471
512.369	43500
512.441	32884
512.513	36061
512.585	28008
512.656	26323
512.728	30820
512.800	22573
512.871	22021
512.943	22663
513.015	20826
513.086	22093
513.158	25410
513.230	27849
513.301	41030
513.373	47332
513.444	26198
513.516	21291
513.588	22485
513.659	24143
513.731	33303
513.802	31637
513.874	60704
513.945	112979
514.016	35324
514.088	21558
514.159	27121
514.231	34007
514.302	39834
514.374	27707
514.445	30541
514.516	55389
514.588	42916
514.659	29878
514.730	52058
514.802	42419
514.873	34716
514.944	31716
515.016	29216
515.087	35319
515.158	39860
515.229	53975
515.301	34789
515.372	42650
515.443	30512
515.514	24192
515.585	21036
515.656	22772
515.728	20283
515.799	21345
515.870	23257
515.941	24498
516.012	25145
516.083	30125
516.154	34858
516.225	47205
516.296	39604
516.367	33153
516.438	39627
516.509	58956
516.580	105942
516.651	306475
516.722	1016199
516.793	404109
516.864	69117
516.935	63234
517.006	77762
517.077	133929
517.148	350129
517.219	1105698
517.289	1684564
517.360	391335
517.431	115628
517.502	44587
517.573	38559
517.643	37194
517.714	37989
517.785	38368
517.856	38560
517.926	43799
517.997	51915
518.068	71354
518.138	114104
518.209	238348
518.280	758386
518.350	2421569
518.421	921469
518.492	111467
518.562	76462
518.633	88712
518.703	119340
518.774	239426
518.845	570078
518.915	522188
518.986	145747
519.056	86065
519.127	114559
519.197	160124
519.268	289015
519.338	178567
519.408	51825
519.479	63354
519.549	48902
519.620	32104
519.690	26414
519.760	26363
519.831	28341
519.901	28663
519.971	22204
520.042	26219
520.112	30182
520.182	34003
520.253	37730
520.323	25414
520.393	31025
520.463	42252
520.534	33010
520.604	57279
520.674	31184
520.744	34951
520.814	69171
520.885	69794
520.955	94408
521.025	307437
521.095	121358
521.165	25525
521.235	24035
521.305	23193
521.375	21532
521.445	25089
521.515	35130
521.585	38298
521.655	39496
521.725	30725
521.795	26132
521.865	21266
521.935	29959
522.005	29568
522.075	20523
522.145	22770
522.215	26051
522.285	35927
522.355	48367
522.424	87696
522.494	78032
522.564	47590
522.634	89111
522.704	239677
522.774	89433
522.843	25733
522.913	25340
522.983	33450
523.053	26250
523.122	27396
523.192	45440
523.262	134169
523.331	131717
523.401	26586
523.471	19877
523.540	21876
523.610	17962
523.680	18507
523.749	19450
523.819	24916
523.888	25322
523.958	19553
524.027	20530
524.097	22185
524.166	21136
524.236	25763
524.305	22542
524.375	20524
524.444	18640
524.514	21413
524.583	23052
524.653	27842
524.722	29661
524.791	23029
524.861	20776
524.930	21270
524.999	23727
525.069	31055
525.138	25879
525.207	30144
525.277	23253
525.346	24248
525.415	22678
525.484	26019
525.554	30589
525.623	29093
525.692	28758
525.761	31565
525.830	35834
525.900	51530
525.969	91370
526.038	193419
526.107	392893
526.176	1060148
526.245	826559
526.314	257679
526.383	545285
526.452	772803
526.522	1050595
526.591	1020305
526.660	204014
526.729	106555
526.797	138051
526.867	302911
526.935	970505
527.004	1941986
527.073	1121256
527.142	116465
527.211	52518
527.280	47100
527.349	43296
527.418	28610
527.487	24768
527.555	24373
527.624	22252
527.693	20700
527.762	20389
527.831	23048
527.899	19964
527.968	19908
528.037	21207
528.106	26096
528.174	44886
528.243	37692
528.312	48501
528.380	68339
528.449	24245
528.518	18035
528.586	15012
528.655	15862
528.723	16043
528.792	16246
528.861	18626
528.929	17622
528.998	15745
529.066	15227
529.135	16235
529.203	16794
529.272	18141
529.340	19562
529.409	19255
529.477	19523
529.545	23696
529.614	27058
529.682	28267
529.751	33109
529.819	29442
529.887	27723
529.956	20736
530.024	21850
530.092	20540
530.161	23989
530.229	36861
530.297	25640
530.365	20069
530.434	19695
530.502	20280
530.570	19359
530.638	17410
530.707	20753
530.775	20973
530.843	18973
530.911	19506
530.979	18586
531.047	20039
531.115	20559
531.183	18781
531.252	19673
531.320	19375
531.388	19562
531.456	19422
531.524	19730
531.592	20306
531.660	23375
531.728	22046
531.796	20392
531.864	20049
531.932	20488
532.000	20983
532.067	22308
532.135	23386
532.203	27657
532.271	31833
532.339	46653
532.407	107584
532.475	66167
532.542	32669
532.610	39409
532.678	64576
532.746	175480
532.814	427193
532.881	113953
532.949	28906
533.017	25477
533.084	22679
533.152	23227
533.220	22921
533.287	27088
533.355	22433
533.423	22122
533.490	22522
533.558	22479
533.625	23459
533.693	24710
533.761	23122
533.828	24723
533.896	27354
533.963	43258
534.031	51485
534.098	69687
534.166	39906
534.233	25905
534.300	26905
534.368	27353
534.435	26465
534.503	27410
534.570	30313
534.637	33453
534.705	43853
534.772	65603
534.840	136857
534.907	447789
534.974	583795
535.041	68056
535.109	37564
535.176	28846
535.243	25750
535.310	27396
535.378	27115
535.445	24282
535.512	23581
535.579	24277
535.646	24783
535.714	25766
535.781	29563
535.848	27913
535.915	27587
535.982	25973
536.049	25885
536.116	26628
536.183	25796
536.250	25936
536.317	28225
536.384	31752
536.451	41143
536.518	46053
536.585	34550
536.652	38811
536.719	51683
536.786	45670
536.853	35944
536.920	49094
536.987	78926
537.053	85438
537.120	205980
537.187	196361
537.254	33279
537.321	27956
537.388	29496
537.454	27052
537.521	26025
537.588	26525
537.654	28444
537.721	32803
537.788	30770
537.855	26344
537.921	27572
537.988	28476
538.055	26881
538.121	28650
538.188	29909
538.254	42828
538.321	74186
538.388	51365
538.454	30783
538.521	29330
538.587	28623
538.654	26681
538.720	26702
538.787	27592
538.853	27670
538.920	33707
538.986	32080
539.053	28545
539.119	29049
539.185	31174
539.252	32638
539.318	47568
539.385	37852
539.451	35576
539.517	34780
539.583	43166
539.650	72194
539.716	166495
539.782	58195
539.849	30990
539.915	29424
539.981	31586
540.047	35777
540.114	32122
540.180	31453
540.246	36117
540.312	44564
540.378	75657
540.444	82027
540.510	77121
540.576	184813
540.643	70512
540.709	28440
540.775	29081
540.841	29189
540.907	34362
540.973	46907
541.039	43944
541.105	49241
541.171	33187
541.237	31018
541.303	32740
541.369	35274
541.435	43885
541.500	65932
541.566	48696
541.632	28124
541.698	26550
541.764	27299
541.830	27262
541.896	26465
541.961	27175
542.027	29147
542.093	30243
542.159	31296
542.224	33928
542.290	43550
542.356	63800
542.421	73807
542.487	37371
542.553	28712
542.618	31376
542.684	30051
542.750	31559
542.815	39248
542.881	62209
542.947	150595
543.012	126356
543.078	29298
543.143	26488
543.209	29418
543.274	32300
543.340	38814
543.405	64194
543.471	103472
543.536	35120
543.602	27224
543.667	28955
543.732	26490
543.798	27320
543.863	28556
543.928	26261
543.994	25173
544.059	27419
544.124	26303
544.190	27917
544.255	29647
544.320	29346
544.386	32425
544.451	39836
544.516	47928
544.581	52439
544.646	100141
544.712	158228
544.777	43095
544.842	34070
544.907	33909
544.972	32688
545.037	31359
545.102	33407
545.168	35189
545.233	35642
545.298	37028
545.363	44459
545.428	50440
545.493	70851
545.558	134397
545.623	69262
545.688	37455
545.753	36029
545.818	35937
545.883	38077
545.947	38637
546.012	42360
546.077	42700
546.142	43138
546.207	45183
546.272	53085
546.337	56664
546.401	48669
546.466	48410
546.531	48088
546.596	51756
546.661	53747
546.725	51586
546.790	54226
546.855	56487
546.919	61413
546.984	68429
547.049	74546
547.113	85909
547.178	91850
547.243	101572
547.307	117026
547.372	132169
547.436	136425
547.501	133250
547.565	139423
547.630	136148
547.695	134693
547.759	133297
547.823	131758
547.888	128442
547.952	131882
548.017	136278
548.081	145875
548.146	153647
548.210	151624
548.274	152147
548.339	148729
548.403	133788
548.468	126541
548.532	124853
548.596	129447
548.660	130733
548.725	144019
548.789	159282
548.853	155949
548.917	142333
548.982	146410
549.046	136022
549.110	115041
549.174	118327
549.238	135162
549.303	145038
549.367	149679
549.431	143291
549.495	134829
549.559	136348
549.623	156938
549.687	176225
549.751	182428
549.815	200025
549.879	203060
549.943	192423
550.007	200399
550.071	199705
550.135	188970
550.199	174056
550.263	166988
550.327	161611
550.391	173618
550.455	181784
550.519	190050
550.582	201948
550.646	235358
550.710	240416
550.774	224314
550.838	226132
550.901	234199
550.965	250516
551.029	265067
551.093	290615
551.156	330830
551.220	393948
551.284	453425
551.347	326208
551.411	302764
551.475	311072
551.538	247183
551.602	227818
551.666	213903
551.729	202712
551.793	196056
551.856	193965
551.920	189749
551.983	190099
552.047	188164
552.110	188609
552.174	188622
552.237	194153
552.301	182151
552.364	172399
552.428	170411
552.491	175761
552.554	179486
552.618	177930
552.681	188084
552.745	186651
552.808	209182
552.871	244800
552.934	205545
552.998	181233
553.061	178321
553.124	169596
553.187	168284
553.251	173865
553.314	173167
553.377	172444
553.440	185147
553.503	190277
553.567	193073
553.630	184526
553.693	184874
553.756	186890
553.819	181822
553.882	175321
553.945	176237
554.008	175898
554.071	177957
554.134	178962
554.197	170938
554.260	165285
554.323	170382
554.386	172842
554.449	179895
554.512	178004
554.575	169861
554.638	169693
554.701	167801
554.764	164465
554.827	159520
554.889	153867
554.952	145939
555.015	141864
555.078	144605
555.141	147184
555.203	143174
555.266	141178
555.329	143457
555.391	137991
555.454	137204
555.517	132038
555.580	128102
555.642	121831
555.705	120992
555.768	120239
555.830	117156
555.893	111463
555.955	109893
556.018	106861
556.080	108959
556.143	112243
556.206	109069
556.268	108365
556.330	106672
556.393	104451
556.455	103676
556.518	107746
556.580	110238
556.643	91960
556.705	90319
556.767	90092
556.830	91292
556.892	90654
556.955	104825
557.017	93936
557.079	86556
557.142	83690
557.204	88195
557.266	109236
557.328	103628
557.391	73534
557.453	69550
557.515	71581
557.577	76110
557.639	78269
557.701	69293
557.764	66915
557.826	69521
557.888	76073
557.950	84767
558.012	102445
558.074	146015
558.136	247299
558.198	594190
558.260	237088
558.322	78239
558.384	72609
558.446	79218
558.508	87902
558.570	117155
558.632	173243
558.694	288226
558.756	409228
558.818	813002
558.880	1888240
558.942	801302
559.003	595810
559.065	324996
559.127	106758
559.189	115154
559.251	159943
559.312	258640
559.374	452163
559.436	1269428
559.498	768865
559.559	132925
559.621	122138
559.683	171780
559.744	280686
559.806	631462
559.868	1067466
559.929	248912
559.991	155096
560.052	222130
560.114	562302
560.176	437989
560.237	303669
560.299	547562
560.360	136611
560.422	50634
560.483	46049
560.545	44244
560.606	41900
560.667	41136
560.729	39472
560.790	37893
560.852	38084
560.913	38926
560.974	36643
561.036	36665
561.097	36524
561.158	37038
561.220	35895
561.281	37116
561.342	38165
561.403	45398
561.465	53577
561.526	84005
561.587	119728
561.648	48680
561.709	34509
561.771	33677
561.832	33372
561.893	32991
561.954	30761
562.015	33005
562.076	31115
562.137	32779
562.198	31987
562.259	34242
562.320	33485
562.381	36395
562.442	43247
562.503	40269
562.564	30973
562.625	30924
562.686	30414
562.747	32579
562.808	32080
562.869	31570
562.930	34095
562.991	33415
563.051	32389
563.112	29923
563.173	29267
563.234	30066
563.294	29201
563.355	30235
563.416	29769
563.477	29700
563.537	29737
563.598	31507
563.659	30027
563.720	30268
563.780	30676
563.841	32130
563.901	29299
563.962	29469
564.023	28634
564.083	30118
564.144	28525
564.204	30038
564.265	31153
564.325	34663
564.386	48204
564.446	51684
564.507	29651
564.567	28055
564.628	27531
564.688	28704
564.749	28380
564.809	31215
564.869	34097
564.930	29272
564.990	26944
565.050	26911
565.111	27390
565.171	28017
565.231	27422
565.292	27461
565.352	26821
565.412	28181
565.472	29007
565.532	31164
565.593	28818
565.653	27118
565.713	29173
565.773	31127
565.833	33465
565.893	40991
565.953	31282
566.013	29467
566.074	30958
566.134	36098
566.194	46040
566.254	51384
566.314	36784
566.374	29310
566.434	29425
566.494	28991
566.554	29458
566.614	30853
566.673	29959
566.733	31455
566.793	33281
566.853	34869
566.913	32820
566.973	33977
567.033	34702
567.092	35045
567.152	34266
567.212	34856
567.272	34950
567.331	37636
567.391	36388
567.451	39476
567.511	44768
567.570	48034
567.630	35023
567.690	32358
567.749	33078
567.809	33969
567.868	37603
567.928	41352
567.988	46345
568.047	53307
568.107	62523
568.166	80664
568.226	112626
568.285	154966
568.345	130898
568.404	101329
568.464	83924
568.523	79956
568.582	85198
568.642	100746
568.701	122279
568.761	165116
568.820	249245
568.879	250402
568.939	181514
568.998	130652
569.057	96083
569.116	79564
569.176	65866
569.235	56098
569.294	51289
569.353	45884
569.413	43170
569.472	40551
569.531	37520
569.590	35903
569.649	33733
569.708	33381
569.767	32883
569.827	36146
569.886	34290
569.945	30262
570.004	30284
570.063	30996
570.122	31800
570.181	33257
570.240	33789
570.299	34997
570.358	34450
570.417	29882
570.475	28215
570.534	29405
570.593	29796
570.652	30114
570.711	31631
570.770	30070
570.829	30807
570.887	30699
570.946	33433
571.005	29557
571.064	29183
571.122	30521
571.181	31858
571.240	29187
571.299	26343
571.357	28322
571.416	29107
571.475	29405
571.533	32506
571.592	28361
571.650	30250
571.709	27503
571.768	28645
571.826	29795
571.885	27031
571.943	25341
572.002	25791
572.060	27114
572.119	24454
572.177	24394
572.236	23710
572.294	24012
572.352	24587
572.411	26150
572.469	24854
572.528	24894
572.586	24661
572.644	26660
572.703	30905
572.761	26372
572.819	23585
572.877	22520
572.936	22538
572.994	23177
573.052	22139
573.110	24519
573.169	24233
573.227	23758
573.285	22733
573.343	22979
573.401	23356
573.459	23699
573.517	22687
573.576	24360
573.634	23558
573.692	24764
573.750	23837
573.808	23881
573.866	24956
573.924	27540
573.982	28090
574.040	24319
574.098	21306
574.155	22119
574.213	21589
574.271	21924
574.329	23460
574.387	23213
574.445	21437
574.503	21271
574.560	20079
574.618	20894
574.676	20291
574.734	21112
574.792	20993
574.849	20066
574.907	18550
574.965	18715
575.022	18248
575.080	19083
575.138	19409
575.195	20415
575.253	19158
575.311	21651
575.368	19513
575.426	19137
575.483	19087
575.541	18746
575.598	18806
575.656	20266
575.713	20362
575.771	20565
575.828	19639
575.886	19823
575.943	20163
576.001	19521
576.058	20232
576.115	21779
576.173	23561
576.230	27220
576.287	29397
576.345	26235
576.402	21789
576.459	22099
576.517	21356
576.574	22018
576.631	22667
576.688	21387
576.746	19273
576.803	19707
576.860	18984
576.917	20569
576.974	19385
577.031	19329
577.089	19630
577.146	19837
577.203	20517
577.260	20824
577.317	20966
577.374	22784
577.431	22501
577.488	20634
577.545	18979
577.602	18070
577.659	19170
577.716	18502
577.773	17642
577.830	18601
577.886	17531
577.943	18113
578.000	18454
578.057	19752
578.114	18668
578.171	18300
578.227	17797
578.284	18563
578.341	19508
578.398	20240
578.454	20389
578.511	21882
578.568	23966
578.625	22221
578.681	19808
578.738	18856
578.794	18192
578.851	19421
578.908	19263
578.964	21331
579.021	20583
579.077	20327
579.134	19684
579.190	19427
579.247	19102
579.303	18915
579.360	19462
579.416	18530
579.473	18196
579.529	18587
579.586	18391
579.642	18695
579.698	18323
579.755	20694
579.811	19067
579.867	19456
579.924	18097
579.980	18574
580.036	18396
580.093	19661
580.149	19278
580.205	19475
580.261	20427
580.317	21380
580.374	22504
580.430	24896
580.486	22772
580.542	23115
580.598	22130
580.619	21841
580.654	21372
580.692	21424
580.710	21497
580.765	21033
580.767	21046
580.823	21027
580.838	21067
580.879	21289
580.911	21160
580.935	21106
580.984	20882
580.991	20884
581.047	19897
581.057	20079
581.103	21009
581.130	20620
581.159	20286
581.203	20740
581.215	20883
581.270	20616
581.276	20623
581.326	20919
581.349	20602
581.382	20188
581.422	21131
581.438	21570
581.494	21708
581.494	21684
581.550	21191
581.567	20845
581.606	20186
581.640	21979
581.661	23110
581.713	20652
581.717	20473
581.773	20184
581.786	20352
581.829	21054
581.859	21208
581.885	21343
581.932	20966
581.940	20922
581.996	21880
582.004	21641
582.052	20337
582.077	20545
582.107	20896
582.150	20970
582.163	20996
582.219	21300
582.223	21276
582.274	21045
582.296	21018
582.330	21154
582.368	21556
582.386	21672
582.441	20052
582.441	20061
582.497	19625
582.514	19724
582.552	19886
582.587	20582
582.608	21041
582.659	20715
582.663	20689
582.719	19919
582.732	19948
582.774	20206
582.805	20231
582.830	20202
582.877	20978
582.885	21110
582.941	20718
582.950	20564
582.996	19863
583.023	20301
583.052	20887
583.095	21482
583.107	21581
583.162	21307
583.168	21288
583.218	21247
583.240	20803
583.273	20184
583.313	20263
583.328	20261
583.384	19725
583.385	19764
583.439	21010
583.458	20505
583.494	19620
583.531	19998
583.549	20135
583.603	20270
583.605	20275
583.660	20259
583.676	20342
583.715	20389
583.748	19842
583.770	19656
583.820	21208
583.825	21289
583.881	21197
583.893	20815
583.936	19983
583.965	19902
583.991	19656
584.038	19064
584.046	18984
584.101	20465
584.110	20434
584.156	20154
584.183	20399
584.211	20661
584.255	19923
584.266	19711
584.321	19746
584.328	19829
584.376	20146
584.400	19887
584.431	19761
584.472	19596
584.486	19525
584.541	19964
584.545	19990
584.596	19894
584.617	20067
584.651	20709
584.689	21395
584.706	21593
584.761	22163
584.762	22178
584.816	21839
584.834	21829
584.871	22005
584.906	22615
584.926	22851
584.978	23048
584.980	23051
585.035	23016
585.051	23512
585.090	24391
585.123	25080
585.145	25589
585.195	26476
585.200	26572
585.254	28362
585.267	29369
585.309	31926
585.340	35002
585.364	37772
585.412	46851
585.419	48019
585.473	63672
585.484	68650
585.528	89070
585.556	106097
585.583	122998
585.628	158118
585.637	166716
585.692	286095
585.700	324912
585.747	547012
585.772	464083
585.801	337198
585.845	151373
585.856	105268
585.910	51197
585.917	47334
585.965	38474
585.989	35652
586.019	32524
586.061	30606
586.074	30202
586.128	30114
586.133	30177
586.183	30508
586.205	30485
586.237	30565
586.277	30758
586.292	30534
586.346	30300
586.349	30363
586.401	30832
586.421	31141
586.455	31509
586.493	32366
586.509	33126
586.564	36300
586.565	36615
586.618	50061
586.637	52222
586.672	54442
586.709	48562
586.727	43202
586.781	38093
586.781	38020
586.835	35212
586.853	34385
586.889	32440
586.925	31743
586.944	31437
586.996	31197
586.998	31136
587.052	31782
587.068	32196
587.106	32947
587.140	33643
587.161	33879
587.212	33549
587.215	33462
587.269	34969
587.284	35136
587.323	35407
587.356	36057
587.377	36348
587.427	37756
587.431	37777
587.485	38772
587.499	39295
587.539	40459
587.571	41599
587.593	42307
587.643	43898
587.648	43932
587.702	45719
587.715	46238
587.755	47427
587.786	49070
587.810	50155
587.858	52289
587.864	52420
587.917	55723
587.930	56707
587.971	59858
588.001	62857
588.025	65053
588.073	69241
588.079	69536
588.133	74739
588.145	76430
588.187	82521
588.217	87492
588.241	91761
588.288	102482
588.295	103659
588.348	117581
588.360	121518
588.402	136419
588.431	149620
588.456	160244
588.503	186743
588.510	190292
588.564	230627
588.575	242160
588.617	285373
588.646	322370
588.671	356986
588.718	437307
588.725	449987
588.778	577114
588.789	610394
588.832	778138
588.861	904795
588.886	1038230
588.932	1223429
588.939	1231301
588.993	1162953
589.004	1192492
589.047	1230906
589.075	1217893
589.100	1134614
589.147	869590
589.154	831175
589.207	590663
589.218	552487
589.261	479190
589.290	448663
589.314	442336
589.361	454217
589.368	459367
589.421	543722
589.433	570298
589.475	727910
589.504	846587
589.528	968030
589.576	1103485
589.582	1094613
589.635	1077946
589.647	1065098
589.689	873540
589.718	702316
589.742	568614
589.790	348297
589.795	333720
589.849	235943
589.861	217334
589.902	182735
589.932	161797
589.955	148898
590.004	123587
590.009	120731
590.062	100229
590.075	95925
590.115	86582
590.146	80619
590.168	76819
590.218	69961
590.222	69163
590.275	63815
590.289	62675
590.328	59287
590.360	57248
590.381	55267
590.431	51086
590.435	50597
590.488	47392
590.503	46777
590.541	45863
590.574	45390
590.594	44214
590.645	41759
590.647	41469
590.700	39450
590.716	39115
590.753	37607
590.787	36687
590.806	36238
590.859	35611
590.859	35405
590.912	34423
590.930	34266
590.965	33394
591.001	33075
591.018	32694
591.071	31714
591.072	31883
591.124	30826
591.143	30678
591.177	29833
591.214	29358
591.230	29331
591.283	29727
591.285	29919
591.336	30037
591.356	30395
591.389	30808
591.427	31429
591.442	30537
591.495	27697
591.498	27666
591.547	26536
591.569	26306
591.600	26045
591.640	26060
591.653	25740
591.706	25052
591.711	25138
591.759	25017
591.782	25355
591.811	26420
591.853	28419
591.864	28080
591.917	26744
591.924	26735
591.969	25162
591.995	24596
592.022	23963
592.066	23359
592.075	23311
592.127	24086
592.137	24447
592.180	26275
592.208	27708
592.233	27383
592.279	27053
592.285	26468
592.338	23091
592.350	22501
592.390	21827
592.421	21629
592.443	21292
592.491	21164
592.495	21043
592.548	21856
592.562	22261
592.600	21714
592.633	21579
592.653	21294
592.704	20917
592.705	21019
592.775	20424
592.846	21687
592.916	21054
592.987	22993
593.058	23989
593.128	21653
593.199	21167
593.270	20556
593.341	19167
593.411	20672
593.482	20427
593.553	21815
593.623	19999
593.694	20424
593.764	21836
593.835	21903
593.906	19747
593.976	21280
594.047	20985
594.117	23854
594.188	26426
594.258	23342
594.329	20714
594.399	20940
594.470	20977
594.540	21682
594.611	22388
594.681	21692
594.751	21976
594.822	23046
594.892	24624
594.963	24664
595.033	24637
595.103	24517
595.174	25375
595.244	29208
595.314	37917
595.384	34345
595.455	25651
595.525	25999
595.595	25556
595.665	27400
595.736	26120
595.806	26112
595.876	26572
595.946	26491
596.016	26537
596.087	27997
596.157	27078
596.227	28266
596.297	28510
596.367	29673
596.437	31254
596.507	34927
596.577	40545
596.647	39312
596.717	32105
596.787	33198
596.857	32968
596.927	33365
596.997	32759
597.067	32405
597.137	34191
597.207	34496
597.277	33111
597.347	34873
597.417	32930
597.487	33962
597.557	33229
597.626	33878
597.696	34463
597.766	36822
597.836	42101
597.906	40304
597.975	32094
598.045	30350
598.115	31276
598.185	32975
598.254	35136
598.324	38502
598.394	40694
598.464	41377
598.533	39325
598.603	36986
598.672	34968
598.742	37030
598.812	35218
598.881	36535
598.951	36366
599.020	35466
599.090	36004
599.159	38627
599.229	37311
599.299	35156
599.368	35285
599.437	37270
599.507	34418
599.576	33460
599.646	32730
599.715	32050
599.785	31350
599.854	31969
599.924	33449
599.993	33412
600.062	31511
600.132	32477
600.201	31785
600.270	37152
600.340	40090
600.409	39288
600.478	38138
600.547	38975
600.617	38963
600.686	33838
600.755	29441
600.824	28855
600.894	29232
600.963	26868
601.032	27040
601.101	26000
601.170	25928
601.239	24797
601.308	25366
601.378	26350
601.447	24385
601.516	24933
601.585	24284
601.654	26461
601.723	27083
601.792	25540
601.861	25647
601.930	27632
601.999	29386
602.068	29992
602.137	28441
602.206	31295
602.275	28458
602.343	28943
602.412	33910
602.481	31274
602.550	28701
602.619	29383
602.688	29802
602.756	29810
602.825	29584
602.894	28319
602.963	29730
603.032	30438
603.100	30450
603.169	29729
603.238	30900
603.307	30453
603.375	30466
603.444	29996
603.513	30820
603.581	31684
603.650	31973
603.719	31694
603.787	31560
603.856	31893
603.924	33453
603.993	34011
604.061	33862
604.130	36178
604.198	37420
604.267	38016
604.335	36803
604.404	37866
604.472	39120
604.541	39577
604.609	39375
604.678	40080
604.746	39962
604.815	41196
604.883	40913
604.951	41851
605.020	40957
605.088	42801
605.156	43109
605.225	44075
605.293	43984
605.361	44125
605.429	44207
605.498	45374
605.566	47189
605.634	47918
605.702	48923
605.771	50857
605.839	51863
605.907	50859
605.975	49088
606.043	48747
606.111	47509
606.180	48311
606.248	47471
606.316	46578
606.384	46767
606.452	49628
606.520	50969
606.588	55193
606.656	49558
606.724	49069
606.792	47137
606.860	43421
606.928	39930
606.996	36735
607.064	35568
607.132	36858
607.200	36141
607.267	40609
607.335	39689
607.403	40873
607.471	41459
607.539	38937
607.607	40192
607.674	37032
607.742	35744
607.810	36594
607.878	36352
607.946	35922
608.013	36115
608.081	37607
608.149	38716
608.216	37711
608.284	40194
608.352	40596
608.419	40959
608.487	42183
608.555	44473
608.622	38969
608.690	39120
608.757	43736
608.825	46257
608.893	46925
608.960	46066
609.028	46865
609.095	47189
609.163	46946
609.230	40675
609.298	35801
609.365	35202
609.432	37871
609.500	39237
609.567	44766
609.635	50354
609.702	57131
609.769	56343
609.837	53123
609.904	41886
609.971	39200
610.039	41767
610.106	48883
610.173	74407
610.241	161134
610.308	276400
610.375	138870
610.442	65764
610.509	43503
610.577	40100
610.644	38609
610.711	40202
610.778	39993
610.845	41356
610.912	43741
610.980	45218
611.047	47363
611.114	47775
611.181	46459
611.248	43627
611.315	45320
611.382	46403
611.449	47976
611.516	49034
611.583	49504
611.650	49049
611.717	50938
611.784	50681
611.851	53726
611.918	55972
611.984	63714
612.051	81398
612.118	129598
612.185	296393
612.252	557588
612.319	168699
612.386	73838
612.452	64737
612.519	59902
612.586	59380
612.653	61262
612.719	57316
612.786	59982
612.853	54612
612.919	49996
612.986	52272
613.053	51730
613.120	47547
613.186	45105
613.253	44093
613.319	43622
613.386	45166
613.453	44928
613.519	46094
613.586	48891
613.652	56057
613.719	57045
613.785	54389
613.852	48866
613.918	46747
613.985	45752
614.051	46436
614.118	48706
614.184	50042
614.250	45399
614.317	45314
614.383	45071
614.449	45286
614.516	47215
614.582	46733
614.648	47332
614.715	45097
614.781	45364
614.847	44059
614.914	46140
614.980	44584
615.046	44498
615.112	44017
615.179	45756
615.245	46016
615.311	46926
615.377	50884
615.443	58550
615.509	53532
615.575	50788
615.642	49416
615.708	49756
615.774	52322
615.840	55852
615.906	61233
615.972	71910
616.038	101234
616.104	177679
616.170	353144
616.236	762932
616.302	300429
616.368	99710
616.434	79214
616.500	61570
616.565	61063
616.631	69549
616.697	75030
616.763	63830
616.829	74052
616.895	118739
616.961	181048
617.026	123005
617.092	60840
617.158	51285
617.224	48436
617.289	46927
617.355	43691
617.421	43487
617.487	43312
617.552	41371
617.618	39566
617.684	40023
617.749	40336
617.815	39047
617.880	37658
617.946	36970
618.012	37031
618.077	38694
618.143	38680
618.208	37096
618.274	38803
618.339	41132
618.405	38978
618.470	34440
618.536	35417
618.601	34796
618.667	35671
618.732	32854
618.798	32134
618.863	30960
618.928	30555
618.994	31659
619.059	32515
619.124	36274
619.190	39819
619.255	31948
619.320	30589
619.386	30487
619.451	30900
619.516	31541
619.581	29146
619.647	30498
619.712	30581
619.777	31079
619.842	29596
619.907	30724
619.972	30895
620.038	31465
620.103	29929
620.168	29768
620.233	29762
620.298	30082
620.363	30387
620.428	29796
620.493	30475
620.558	31414
620.623	32434
620.688	31396
620.753	31257
620.818	32409
620.883	31718
620.948	32333
621.013	31441
621.078	31915
621.143	31656
621.207	32594
621.272	33098
621.337	33576
621.402	33564
621.467	33996
621.532	38763
621.596	35560
621.661	33573
621.726	31796
621.791	30997
621.855	31491
621.920	32925
621.985	33848
622.049	34704
622.114	35350
622.179	35181
622.243	33260
622.308	34736
622.373	33995
622.437	36340
622.502	33908
622.566	32105
622.631	32602
622.695	33073
622.760	32985
622.824	32908
622.889	32661
622.953	34877
623.018	38343
623.082	48711
623.147	39480
623.211	34595
623.276	34817
623.340	33771
623.404	32752
623.469	31743
623.533	32576
623.597	32547
623.662	31499
623.726	30166
623.790	28851
623.854	27594
623.919	27633
623.983	26792
624.047	28917
624.111	28803
624.176	27943
624.240	28824
624.304	30355
624.368	30612
624.432	28708
624.496	30136
624.560	31174
624.625	34516
624.689	34095
624.753	31915
624.817	31950
624.881	30044
624.945	29750
625.009	26615
625.073	26651
625.137	26936
625.201	31227
625.265	36287
625.329	31576
625.393	28111
625.456	30878
625.520	28362
625.584	30714
625.648	33631
625.712	38365
625.776	52193
625.839	84373
625.903	74931
625.967	31623
626.031	30444
626.095	44754
626.158	48149
626.222	26555
626.286	21575
626.349	20222
626.413	19921
626.477	20670
626.540	20538
626.604	20209
626.668	19216
626.731	18965
626.795	19404
626.858	19766
626.922	19834
626.986	18790
627.049	18077
627.113	18680
627.176	18887
627.240	17919
627.303	18106
627.366	18483
627.430	17559
627.493	19006
627.557	17722
627.620	18170
627.684	18203
627.747	18928
627.810	18442
627.874	17264
627.937	15194
628.000	16523
628.064	16502
628.127	16184
628.190	14733
628.253	15213
628.317	14885
628.380	13789
628.443	13359
628.506	14117
628.569	12745
628.632	13019
628.696	12274
628.759	12359
628.822	11964
628.885	12915
628.948	11983
629.011	11720
629.074	11925
629.137	11755
629.200	11592
629.263	11970
629.326	11382
629.389	11386
629.452	11344
629.515	11879
629.578	10892
629.641	11664
629.704	11509
629.767	11935
629.830	11018
629.892	10993
629.955	9984
630.018	10993
630.081	11947
630.144	14655
630.207	12827
630.269	12856
630.332	10990
630.395	12405
630.458	10282
630.520	9277
630.583	10158
630.646	9660
630.708	9469
630.771	9277
630.834	9504
630.896	9490
630.959	9766
631.021	10423
631.084	10398
631.146	9968
631.209	11272
631.272	11325
631.334	10217
631.397	10052
631.459	9922
631.522	9948
631.584	10916
631.646	10750
631.709	11165
631.771	13087
631.834	14406
631.896	11110
631.958	9679
632.021	10243
632.083	9326
632.145	9176
632.208	9344
632.270	10422
632.332	9349
632.395	8562
632.457	9092
632.519	9051
632.581	9441
632.643	9082
632.706	9041
632.768	8731
632.830	8319
632.892	8964
632.954	8444
633.016	9265
633.078	8725
633.141	9248
633.203	8558
633.265	9670
633.327	8366
633.389	9246
633.451	9152
633.513	11082
633.575	11641
633.637	11481
633.698	11817
633.760	10661
633.822	9210
633.884	8731
633.946	8903
634.008	10075
634.070	9356
634.132	9903
634.193	9761
634.255	10820
634.317	11477
634.379	12091
634.441	11215
634.502	11087
634.564	9875
634.626	9418
634.687	9586
634.749	9521
634.811	8574
634.873	7687
634.934	8253
634.996	8170
635.057	8351
635.119	7989
635.181	7945
635.242	8703
635.304	7704
635.365	8762
635.427	7479
635.488	8571
635.550	8530
635.611	7411
635.673	7592
635.734	8427
635.796	8693
635.857	9867
635.918	10324
635.980	10094
636.041	10731
636.102	11421
636.164	12206
636.225	11568
636.286	10894
636.348	10337
636.409	9238
636.470	8835
636.531	7767
636.593	9421
636.654	9087
636.715	8012
636.776	7436
636.838	7338
636.899	6898
636.960	8231
637.021	6545
637.082	6690
637.143	7136
637.204	7040
637.265	5775
637.326	7308
637.387	7144
637.448	7072
637.509	6368
637.570	6900
637.631	6619
637.692	6492
637.753	5574
637.814	6292
637.875	6580
637.936	6268
637.997	6154
638.058	6722
638.119	6947
638.179	6512
638.240	6080
638.301	6032
638.362	6115
638.423	6359
638.483	5941
638.544	5614
638.605	5629
638.666	5643
638.726	5158
638.787	5618
638.848	5778
638.908	6193
638.969	5097
639.030	5689
639.090	6318
639.151	5996
639.211	6066
639.272	6867
639.332	8632
639.393	13583
639.453	6221
639.514	6371
639.574	6022
639.635	6000
639.695	5741
639.756	5916
639.816	5767
639.877	6246
639.937	8272
639.997	14579
640.058	13476
640.118	6120
640.178	4603
640.239	5706
640.299	5043
640.359	5366
640.420	4937
640.480	5516
640.540	6745
640.600	7118
640.661	6174
640.721	5738
640.781	6722
640.841	8232
640.901	5941
640.961	5986
641.021	5786
641.082	6569
641.142	8435
641.202	10504
641.262	4988
641.322	6131
641.382	4486
641.442	5063
641.502	4800
641.562	5415
641.622	4879
641.682	5100
641.742	5509
641.802	6680
641.861	5663
641.921	5848
641.981	6264
642.041	7112
642.101	6572
642.161	6935
642.221	5407
642.280	5039
642.340	4326
642.400	4787
642.460	4521
642.519	4235
642.579	4979
642.639	4725
642.698	3368
642.758	6106
642.818	5087
642.877	5124
642.937	5158
642.997	5123
643.056	6420
643.116	9192
643.175	5377
643.235	5208
643.294	4712
643.354	6480
643.414	6064
643.473	7176
643.532	7477
643.592	10358
643.651	14689
643.711	24983
643.770	45426
643.830	90348
643.889	240940
643.948	341825
644.008	48939
644.067	12574
644.126	9572
644.186	8221
644.245	6706
644.304	6039
644.363	5888
644.423	5041
644.482	4394
644.541	5437
644.600	4960
644.659	6762
644.719	5438
644.778	9393
644.837	12495
644.896	21927
644.955	47717
645.014	82721
645.073	18004
645.132	7086
645.191	5847
645.250	5846
645.309	5837
645.368	4999
645.427	5323
645.486	8547
645.545	13776
645.604	16078
645.663	6461
645.722	5220
645.781	5173
645.840	5662
645.898	6749
645.957	9309
646.016	12959
646.075	23024
646.134	39235
646.192	78204
646.251	230318
646.310	204933
646.369	24419
646.427	10354
646.486	8078
646.545	5725
646.603	4941
646.662	5135
646.721	4307
646.779	4845
646.838	3539
646.896	5326
646.955	6024
647.014	8571
647.072	12293
647.131	25912
647.189	57437
647.248	17237
647.306	4627
647.365	4438
647.423	3582
647.481	4088
647.540	2924
647.598	3687
647.657	2567
647.715	3523
647.773	2925
647.832	3363
647.890	1911
647.948	3358
648.007	3258
648.065	2829
648.123	2822
648.181	4196
648.240	2817
648.298	3853
648.356	2409
648.414	3385
648.472	3690
648.531	3621
648.589	2719
648.647	3614
648.705	2377
648.763	3396
648.821	3016
648.879	3698
648.937	3035
648.995	4152
649.053	4826
649.111	6691
649.169	10738
649.227	18430
649.285	30955
649.343	68229
649.401	166058
649.459	50673
649.516	20880
649.574	9466
649.632	6215
649.690	6381
649.748	6093
649.806	6311
649.863	9562
649.921	16435
649.979	41894
650.037	18258
650.094	3716
650.152	3810
650.210	3109
650.268	3183
650.325	3244
650.383	3039
650.440	2636
650.498	2541
650.556	2554
650.613	2426
650.671	1800
650.728	1661
650.786	2551
650.843	3491
650.901	3026
650.958	2066
651.016	2073
651.073	2791
651.131	1785
651.188	2035
651.246	2313
651.303	2423
651.360	1351
651.418	1339
651.475	2635
651.532	2036
651.590	2466
651.647	1777
651.704	1729
651.762	1658
651.819	2221
651.876	2165
651.933	1345
651.990	2298
652.048	1335
652.105	1730
652.162	2153
652.219	1694
652.276	2374
652.333	1990
652.390	2093
652.448	2087
652.505	1454
652.562	2735
652.619	1058
652.676	1227
652.733	1710
652.790	1820
652.847	929
652.904	1607
652.961	647
653.017	1535
653.074	2152
653.131	2319
653.188	1261
653.245	1910
653.302	1516
653.359	1396
653.415	1601
653.472	1516
653.529	1626
653.586	2006
653.642	927
653.699	1648
653.756	1220
653.813	1687
653.869	655
653.926	1856
653.983	1149
654.039	1891
654.096	1192
654.152	2230
654.209	679
654.266	2629
654.322	1417
654.379	1347
654.435	2018
654.492	2441
654.548	1979
654.605	4498
654.661	5965
654.717	2969
654.774	1698
654.830	1695
654.887	1713
654.943	1463
655.000	1642
655.056	1989
655.112	1661
655.168	1577
655.225	1512
655.281	2265
655.337	1858
655.394	4084
655.450	4564
655.506	4076
655.562	2733
655.618	6355
655.675	2717
655.731	1983
655.787	770
655.843	1221
655.899	1472
655.955	3179
656.011	1426
656.067	1762
656.123	2938
656.179	2984
656.235	3070
656.291	3517
656.347	3302
656.403	2718
656.459	2397
656.515	2127
656.571	2385
656.627	2787
656.683	1687
656.739	2435
656.795	1467
656.850	2610
656.906	1939
656.962	2837
657.018	807
657.074	1905
657.129	1609
657.185	2724
657.241	2461
657.297	6559
657.352	3565
657.408	1327
657.464	2304
657.519	2246
657.575	1152
657.630	1929
657.686	984
657.742	1878
657.797	1697
657.853	1039
657.908	2332
657.964	2019
658.019	1350
658.075	1714
658.130	1656
658.186	1403
658.241	623
658.297	1605
658.352	430
658.407	1298
658.463	1314
658.518	1463
658.573	805
658.629	927
658.684	1527
658.739	758
658.795	909
658.850	1214
658.905	766
658.960	1315
659.016	340
659.071	872
659.126	962
659.181	1505
659.236	2027
659.291	4593
659.346	3219
659.401	2718
659.457	1541
659.512	1338
659.567	841
659.622	734
659.677	969
659.732	754
659.787	1741
659.842	1336
659.897	1578
659.952	2336
660.007	1338
660.061	1616
660.116	772
660.171	1189
660.226	1210
660.281	2179
660.336	423
660.391	1056
660.445	1323
660.500	1308
660.555	1092
660.610	1618
660.664	1600
660.719	1360
660.774	1045
660.828	1880
660.883	1477
660.938	1700
660.992	5
661.047	1626
661.101	1648
661.156	1242
661.211	586
661.265	835
661.320	1322
661.374	1324
661.429	464
661.483	1262
661.538	916
661.592	935
661.647	454
661.701	1846
661.755	1048
661.810	960
661.864	562
661.919	809
661.973	525
662.027	1709
662.081	415
662.136	594
662.190	1431
662.244	1684
662.299	398
662.353	1632
662.407	686
662.461	206
662.515	1260
662.569	1699
662.624	1979
662.678	887
662.732	908
662.786	1262
662.840	1220
662.894	1807
662.948	175
663.002	1677
663.056	1284
663.110	1162
663.164	519
663.218	1530
663.272	438
663.326	1180
663.380	1412
663.434	1374
663.488	1214
663.542	1864
663.595	780
663.649	1317
663.703	1528
663.757	908
663.811	831
663.864	1454
663.918	1399
663.972	770
664.026	1181
664.079	1276
664.133	1463
664.187	1544
664.240	701
664.294	630
664.348	762
664.401	1587
664.455	730
664.508	830
664.562	1140
664.615	1587
664.669	1090
664.722	2077
664.776	1174
664.829	1066
664.883	518
664.936	813
664.990	1478
665.043	2017
665.097	1497
665.150	1708
665.203	1441
665.257	1744
665.310	1517
665.363	1554
665.417	789
665.470	1846
665.523	1066
665.576	2029
665.630	1462
665.683	1419
665.736	1641
665.789	2194
665.842	1406
665.895	454
665.949	1499
666.002	1511
666.055	1439
666.108	1896
666.161	1140
666.214	1336
666.267	1184
666.320	2849
666.373	2068
666.426	2282
666.479	927
666.532	1692
666.585	1365
666.638	2538
666.691	2350
666.744	2867
666.796	1812
666.849	1592
666.902	3150
666.955	1545
667.008	1685
667.060	1504
667.113	469
667.166	1632
667.219	659
667.271	1186
667.324	1565
667.377	1238
667.430	2166
667.482	940
667.535	1810
667.587	2267
667.640	2012
667.693	1923
667.745	2087
667.798	4762
667.850	4070
667.903	2033
667.955	1382
668.008	1947
668.060	2403
668.113	1832
668.165	1881
668.218	1987
668.270	1866
668.322	1930
668.375	1705
668.427	2374
668.479	999
668.532	1096
668.584	868
668.636	2284
668.689	1634
668.741	882
668.793	1804
668.845	2008
668.898	1910
668.950	1805
669.002	1727
669.054	1639
669.106	856
669.158	1604
669.211	1928
669.263	1739
669.315	1598
669.367	2035
669.419	1620
669.471	2550
669.523	2570
669.575	2743
669.627	2091
669.679	2508
669.731	1800
669.783	2988
669.835	2198
669.886	2843
669.938	2260
669.990	2401
670.042	1810
670.094	2546
670.146	1935
670.197	2464
670.249	3209
670.301	3972
670.353	4917
670.404	6878
670.456	8886
670.508	14346
670.560	22163
670.611	36097
670.663	60005
670.715	107320
670.766	254645
670.818	394835
670.869	129719
670.921	24554
670.972	11886
671.024	8524
671.075	6550
671.127	5242
671.178	3623
671.230	4135
671.281	3104
671.333	3345
671.384	1933
671.436	3620
671.487	4169
671.538	4382
671.590	4600
671.641	6696
671.692	10427
671.744	18636
671.795	37709
671.846	25680
671.897	8526
671.949	4991
672.000	4583
672.051	2938
672.102	2225
672.153	2074
672.204	2412
672.256	2239
672.307	1901
672.358	2096
672.409	2262
672.460	2441
672.511	2044
672.562	1595
672.613	1830
672.664	1918
672.715	1658
672.766	1964
672.817	1033
672.868	1911
672.919	2099
672.970	1694
673.021	1632
673.071	1125
673.122	1081
673.173	2147
673.224	1620
673.275	1658
673.326	1392
673.376	2021
673.427	1605
673.478	1375
673.528	1133
673.579	917
673.630	974
673.680	1232
673.731	1587
673.782	1293
673.832	895
673.883	1369
673.934	757
673.984	1402
674.035	1133
674.085	1998
674.136	1117
674.186	1333
674.237	1861
674.287	2476
674.338	4069
674.388	2502
674.438	1415
674.489	2362
674.539	1077
674.589	1822
674.640	952
674.690	2153
674.740	923
674.791	2242
674.841	2108
674.891	2406
674.942	1379
674.992	1833
675.042	1288
675.092	1950
675.142	1498
675.193	1598
675.243	621
675.293	1881
675.343	737
675.393	1846
675.443	1692
675.493	1404
675.543	1025
675.593	1128
675.643	1789
675.693	2078
675.743	1390
675.793	1297
675.843	261
675.893	1603
675.943	1199
675.993	1096
676.043	1139
676.093	1128
676.142	270
676.192	1524
676.242	1121
676.292	1115
676.341	859
676.391	1450
676.441	1447
676.491	1446
676.540	713
676.590	886
676.640	415
676.689	871
676.739	1065
676.789	1540
676.838	1032
676.888	1389
676.937	969
676.987	764
677.037	612
677.086	1368
677.136	596
677.185	700
677.235	350
677.284	1690
677.333	411
677.383	1002
677.432	1177
677.482	1492
677.531	1100
677.580	304
677.630	989
677.679	242
677.728	199
677.778	573
677.827	583
677.876	1026
677.925	-3
677.975	1191
678.024	1509
678.073	1463
678.122	599
678.171	650
678.220	734
678.269	897
678.319	1050
678.368	2139
678.417	863
678.466	2125
678.515	1123
678.564	1072
678.613	1010
678.662	810
678.711	527
678.760	683
678.809	111
678.857	1251
678.906	795
678.955	1176
679.004	888
679.053	1233
679.102	703
679.151	1183
679.199	312
679.248	852
679.297	1697
679.346	1499
679.394	1142
679.443	1264
679.492	234
679.540	438
679.589	450
679.638	1654
679.686	1015
679.735	1254
679.784	767
679.832	1064
679.881	939
679.929	709
679.978	318
680.026	978
680.075	637
680.123	665
680.172	539
680.220	874
680.268	133
680.317	520
680.365	278
680.414	596
680.462	896
680.510	958
680.559	793
680.607	323
680.655	1014
680.703	1083
680.752	135
680.800	511
680.848	-291
680.896	698
680.945	-37
680.993	795
681.041	-168
681.089	14
681.137	1086
681.185	182
681.233	685
681.258	504
681.281	298
681.329	905
681.377	411
681.380	418
681.425	-107
681.473	562
681.502	719
681.521	767
681.569	2100
681.617	742
681.624	910
681.665	1738
681.713	1072
681.745	1920
681.761	2269
681.809	1331
681.857	1868
681.867	1722
681.904	1083
681.952	1863
681.989	1433
682.000	1262
682.048	1927
682.096	1535
682.111	1509
682.143	1343
682.191	1842
682.233	2311
682.239	2345
682.286	1085
682.334	1680
682.354	1788
682.382	1894
682.430	2885
682.476	1948
682.477	1898
682.525	2630
682.572	2153
682.598	2172
682.620	2123
682.667	1908
682.715	2772
682.720	2724
682.763	1998
682.810	3145
682.841	2765
682.857	2547
682.905	2791
682.952	3003
682.963	3155
683.000	3402
683.047	2509
683.085	3513
683.095	3782
683.142	2395
683.190	4094
683.206	3688
683.237	2839
683.284	3819
683.328	3281
683.332	3216
683.379	3911
683.426	3688
683.449	3719
683.473	3653
683.521	4068
683.568	3684
683.571	3709
683.615	3793
683.662	4463
683.693	4067
683.709	3794
683.757	4042
683.804	4144
683.814	4125
683.851	4044
683.898	4238
683.936	4527
683.945	4547
683.992	4227
684.039	4825
684.057	4702
684.086	4581
684.133	5949
684.179	5028
684.180	4971
684.227	5292
684.274	5377
684.300	6023
684.321	6451
684.368	5046
684.415	5697
684.422	5736
684.462	5808
684.509	5243
684.543	5174
684.556	5120
684.603	5720
684.649	4739
684.665	4689
684.696	4571
684.743	5062
684.786	5237
684.790	5258
684.837	5493
684.883	5615
684.908	5999
684.930	6283
684.977	6232
685.023	6412
685.029	6480
685.070	6774
685.117	6487
685.150	6585
685.164	6532
685.210	6775
685.257	6593
685.272	6566
685.303	6770
685.350	6505
685.393	6641
685.396	6622
685.443	7123
685.490	7239
685.514	7655
685.536	8128
685.583	8042
685.629	8484
685.636	8368
685.675	7043
685.722	8369
685.757	7568
685.768	7362
685.815	7684
685.861	7580
685.878	7890
685.908	8473
685.954	7493
686.000	7956
686.000	7953
686.047	8096
686.093	8550
686.121	8437
686.139	8637
686.185	9625
686.232	10618
686.242	10707
686.278	9918
686.324	9434
686.363	9006
686.370	8958
686.416	8109
686.463	8035
686.484	7562
686.509	7347
686.555	8176
686.601	7952
686.606	8045
686.647	8513
686.693	7996
686.727	8100
686.739	8199
686.785	7704
686.831	8724
686.848	8409
686.877	7781
686.923	8473
686.969	8152
686.969	8148
687.015	8526
687.061	7604
687.090	7786
687.107	8026
687.153	8674
687.199	8735
687.211	8657
687.245	8320
687.291	8544
687.332	8848
687.336	8878
687.382	8796
687.428	8798
687.453	8948
687.474	9102
687.520	8629
687.565	9219
687.574	9208
687.611	8799
687.657	9113
687.695	8618
687.702	8629
687.748	8591
687.794	8795
687.816	9192
687.839	9514
687.885	9288
687.931	9077
687.937	9144
687.976	9410
688.022	9705
688.058	9333
688.067	9266
688.113	9450
688.158	9613
688.179	9642
688.204	9736
688.249	9504
688.295	10177
688.300	10098
688.340	9487
688.386	9814
688.421	9734
688.431	9738
688.477	9446
688.522	10340
688.542	10368
688.567	10454
688.613	10266
688.658	10569
688.663	10567
688.703	10439
688.749	10626
688.784	10516
688.794	10485
688.839	10433
688.884	10182
688.905	10156
688.930	10326
688.975	10562
689.020	10854
689.026	10863
689.065	10690
689.110	10367
689.146	10484
689.155	10587
689.201	10875
689.246	10791
689.267	11038
689.291	11110
689.336	10346
689.381	10320
689.388	10261
689.426	10375
689.471	10605
689.509	10421
689.516	10374
689.561	10782
689.606	10354
689.630	10583
689.651	10840
689.696	10252
689.741	10740
689.750	10666
689.785	10365
689.830	10785
689.871	10473
689.875	10469
689.920	10432
689.965	10575
689.992	10566
690.010	10509
690.054	10084
690.099	10175
690.112	10157
690.144	10390
690.189	10314
690.233	10310
690.233	10325
690.278	10688
690.323	10672
690.354	10686
690.367	10755
690.412	10737
690.457	11207
690.474	11267
690.501	11146
690.546	10504
690.590	10353
690.595	10314
690.635	10536
690.680	10587
690.716	10851
690.724	10890
690.769	10359
690.813	10939
690.836	10908
690.857	11080
690.902	10905
690.946	11164
690.957	11171
690.991	11025
691.035	10902
691.077	11112
691.080	11159
691.124	11613
691.168	11975
691.198	11981
691.213	12016
691.257	12519
691.301	12663
691.318	12788
691.346	12905
691.390	12594
691.434	12676
691.439	12646
691.478	12150
691.522	11948
691.559	11016
691.567	11025
691.611	12043
691.655	12212
691.680	12667
691.699	12890
691.743	12938
691.787	13006
691.800	12917
691.831	12635
691.875	12792
691.919	12846
691.921	12813
691.964	12663
692.008	12623
692.041	12790
692.052	12955
692.096	13327
692.139	13709
692.162	13770
692.183	13557
692.227	13245
692.271	13075
692.282	13015
692.315	13322
692.359	13255
692.402	13740
692.403	13768
692.447	13321
692.490	13398
692.523	12973
692.534	13017
692.578	13552
692.622	14130
692.643	14325
692.666	14297
692.709	13916
692.753	13566
692.763	13502
692.797	13229
692.840	13137
692.884	12602
692.884	12627
692.928	12539
692.971	12317
693.004	12294
693.015	12510
693.059	12971
693.102	13548
693.124	13855
693.146	13721
693.189	13255
693.233	12748
693.245	12661
693.276	13167
693.320	13791
693.363	14081
693.365	14071
693.407	14244
693.450	14100
693.485	14217
693.493	14312
693.537	14387
693.580	14529
693.605	14614
693.624	14627
693.667	14493
693.710	14599
693.725	14462
693.753	14282
693.797	14164
693.840	14271
693.845	14220
693.883	14230
693.926	14106
693.966	14204
693.970	14246
694.013	14077
694.056	14184
694.086	14061
694.099	13928
694.142	13501
694.185	13241
694.206	13006
694.229	13446
694.272	13996
694.315	14849
694.326	14954
694.358	15051
694.401	15657
694.444	15949
694.446	15922
694.487	16163
694.530	16223
694.566	16714
694.573	16742
694.616	16176
694.659	15884
694.686	15421
694.702	15030
694.745	14275
694.787	13257
694.806	12864
694.830	12964
694.873	12839
694.916	12813
694.926	12770
694.959	13193
695.002	13896
695.044	14390
695.046	14381
695.087	14425
695.130	14165
695.166	14127
695.172	14208
695.215	14354
695.258	14878
695.286	14714
695.301	14605
695.343	14770
695.386	14777
695.406	14725
695.428	14824
695.471	14789
695.514	14967
695.526	14956
695.556	14737
695.599	14391
695.641	14044
695.646	13979
695.684	14497
695.726	14963
695.766	15311
695.769	15326
695.811	14902
695.854	14676
695.886	14376
695.896	14439
695.938	14629
695.981	14694
696.005	14742
696.023	14810
696.065	14869
696.108	15038
696.125	14996
696.150	15122
696.192	15303
696.235	15640
696.245	15630
696.277	15725
696.319	15831
696.361	16013
696.365	15986
696.404	16039
696.446	16030
696.485	15912
696.488	15938
696.530	15796
696.572	15666
696.604	15513
696.614	15606
696.656	15907
696.698	16013
696.724	16157
696.740	16152
696.783	15792
696.825	15642
696.844	15507
696.867	15689
696.909	15978
696.951	16130
696.964	16160
696.992	16069
697.034	15891
697.076	15637
697.083	15576
697.118	15678
697.160	15618
697.202	15650
697.203	15607
697.244	15779
697.286	15873
697.323	15929
697.327	16008
697.369	16348
697.411	16630
697.442	16872
697.453	16794
697.494	16198
697.536	15672
697.562	15261
697.578	15634
697.620	16523
697.661	17463
697.682	17863
697.703	17720
697.744	17348
697.786	16987
697.801	16789
697.828	17412
697.869	18391
697.911	19270
697.921	19443
697.952	19060
697.994	18476
698.035	17945
698.040	17822
698.077	17516
698.118	17193
698.160	16799
698.160	16750
698.201	17072
698.243	17290
698.279	17527
698.284	17565
698.325	17376
698.367	17229
698.399	17076
698.408	17191
698.449	17485
698.491	17774
698.518	17910
698.532	17933
698.573	17876
698.614	17814
698.638	17712
698.656	17653
698.697	17415
698.738	17200
698.757	17051
698.779	17297
698.820	17646
698.862	18011
698.877	18094
698.903	18074
698.944	17971
698.985	17857
698.996	17778
699.026	18138
699.067	18565
699.116	19024
699.235	18093
699.354	17945
699.474	16720
699.593	17981
699.713	19009
699.832	19011
699.951	18635
700.070	19543
700.190	17213
700.309	17704
700.428	17744
700.547	18711
700.667	17700
700.786	17878
700.905	19255
701.024	17358
701.143	17324
701.262	17895
701.381	16026
701.500	15777
701.619	17807
701.738	18432
701.857	16486
701.976	16399
702.095	14513
702.214	15960
702.333	17623
702.452	17881
702.571	15939
702.690	16922
702.809	14841
702.928	15509
703.047	13846
703.165	15584
703.284	14639
703.403	14526
703.522	14575
703.640	16882
703.759	16367
703.878	20184
703.997	23147
704.115	16035
704.234	13185
704.353	14334
704.471	14000
704.590	13950
704.708	12730
704.827	13790
704.946	12939
705.064	13920
705.183	14874
705.301	13775
705.420	15863
705.538	21566
705.656	18309
705.775	16445
705.893	15601
706.012	16468
706.130	16912
706.249	17139
706.367	17086
706.485	17431
706.604	18068
706.722	18222
706.840	17260
706.958	22315
707.077	19372
707.195	17279
707.313	15457
707.431	15920
707.549	15578
707.668	16244
707.786	15069
707.904	16848
708.022	14724
708.140	15428
708.258	14323
708.376	15570
708.494	15598
708.612	15323
708.730	15858
708.848	22960
708.966	20507
709.084	20545
709.202	19158
709.320	18190
709.438	17876
709.556	18427
709.674	18661
709.791	18369
709.909	17179
710.027	18212
710.145	16052
710.263	17097
710.380	17926
710.498	17686
710.616	17475
710.733	17537
710.851	17020
710.969	17632
711.086	17965
711.204	17810
711.322	17777
711.439	17574
711.557	17141
711.674	17329
711.792	15429
711.909	16911
712.027	15940
712.144	16225
712.262	14886
712.379	15633
712.497	18271
712.614	24957
712.732	23586
712.849	20276
712.966	19391
713.084	23408
713.201	25153
713.318	21055
713.436	20175
713.553	19909
713.670	19999
713.787	19468
713.905	22442
714.022	22759
714.139	19676
714.256	20666
714.373	22262
714.490	26896
714.608	39422
714.725	92292
714.842	385110
714.959	360101
715.076	33909
715.193	21729
715.310	19478
715.427	19127
715.544	17637
715.661	17926
715.778	16408
715.895	17348
716.011	18616
716.128	19778
716.245	16807
716.362	18301
716.479	20784
716.596	20830
716.713	16369
716.829	17556
716.946	16090
717.063	16028
717.180	14827
717.296	15520
717.413	15383
717.530	14671
717.646	14838
717.763	15561
717.880	14350
717.996	14324
718.113	14277
718.229	16068
718.346	13682
718.462	14439
718.579	14509
718.695	19800
718.812	32764
718.928	22881
719.045	21453
719.161	15451
719.277	13445
719.394	13546
719.510	13077
719.626	13431
719.743	14946
719.859	18686
719.975	20058
720.092	31876
720.208	110445
720.324	237830
720.440	30904
720.557	15830
720.673	17469
720.789	26468
720.905	32749
721.021	64268
721.137	21044
721.253	13090
721.369	13438
721.486	13832
721.602	14884
721.718	21111
721.834	12565
721.950	11965
722.066	12445
722.181	11728
722.297	11425
722.413	12899
722.529	11226
722.645	11576
722.761	10878
722.877	11096
722.993	10661
723.108	11853
723.224	12356
723.340	12140
723.456	11358
723.571	10427
723.687	10757
723.803	9651
723.918	11211
724.034	10924
724.150	10481
724.265	10947
724.381	12796
724.497	24951
724.612	29721
724.728	10565
724.843	10141
724.959	10570
725.074	11111
725.190	23429
725.305	26472
725.421	10916
725.536	10610
725.651	9629
725.767	9023
725.882	9105
725.997	8790
726.113	9533
726.228	9290
726.343	8873
726.459	9399
726.574	7499
726.689	9583
726.804	9240
726.920	9171
727.035	9108
727.150	8143
727.265	9145
727.380	8291
727.495	10259
727.610	8621
727.725	8518
727.841	8401
727.956	8677
728.071	8564
728.186	10605
728.301	7838
728.416	8587
728.531	8936
728.645	9108
728.760	7564
728.875	9153
728.990	9823
729.105	9645
729.220	8049
729.335	9101
729.449	8707
729.564	7933
729.679	6932
729.794	7244
729.908	7276
730.023	8900
730.138	7509
730.253	7125
730.367	7507
730.482	7446
730.596	6507
730.711	7976
730.826	8248
730.940	8435
731.055	8216
731.169	8558
731.284	7542
731.398	7305
731.513	7132
731.627	9337
731.742	8609
731.856	10456
731.970	10513
732.085	9440
732.199	9932
732.313	11717
732.428	18470
732.542	42998
732.656	128734
732.771	72761
732.885	15166
732.999	11091
733.113	10479
733.227	10069
733.342	9459
733.456	9338
733.570	8581
733.684	8962
733.798	7968
733.912	9317
734.026	7481
734.140	7855
734.254	8257
734.368	10268
734.482	14353
734.596	16735
734.710	8023
734.824	7258
734.938	7171
735.052	8026
735.166	8166
735.280	10415
735.393	7387
735.507	8179
735.621	7503
735.735	9951
735.849	17733
735.962	9661
736.076	7031
736.190	8397
736.303	7019
736.417	11246
736.531	13950
736.644	8087
736.758	7653
736.872	7681
736.985	7097
737.099	7012
737.212	6220
737.326	6581
737.439	6865
737.553	7009
737.666	6675
737.780	7500
737.893	5878
738.007	6347
738.120	5865
738.233	6542
738.347	5491
738.460	7046
738.573	5817
738.687	7476
738.800	7435
738.913	7589
739.026	9684
739.140	7198
739.253	5922
739.366	6039
739.479	5793
739.592	6661
739.705	5502
739.818	5736
739.932	5950
740.045	6367
740.158	5243
740.271	6419
740.384	6662
740.497	6230
740.610	5026
740.723	6474
740.836	6637
740.949	7525
741.062	7492
741.174	10497
741.287	7962
741.400	5918
741.513	6189
741.626	6801
741.739	6942
741.851	6979
741.964	6320
742.077	5553
742.189	5018
742.302	7977
742.415	7886
742.527	7569
742.640	5776
742.753	6405
742.865	5128
742.978	5711
743.090	5054
743.203	6264
743.316	5500
743.428	5371
743.541	4801
743.653	5272
743.766	4252
743.878	5950
743.990	5927
744.103	7555
744.215	6319
744.327	7054
744.440	6244
744.552	7189
744.664	11818
744.777	6439
744.889	5334
745.001	5225
745.113	3740
745.226	4977
745.338	4288
745.450	4435
745.562	4312
745.674	4774
745.786	3702
745.898	5199
746.010	4376
746.122	4768
746.234	5002
746.347	4831
746.459	4552
746.570	4735
746.682	4052
746.794	4811
746.906	7380
747.018	6054
747.130	4319
747.242	5539
747.354	3964
747.466	4281
747.577	4250
747.689	5109
747.801	3536
747.913	5263
748.024	3766
748.136	4870
748.248	3578
748.359	5125
748.471	3617
748.583	4228
748.694	4432
748.806	4199
748.918	4089
749.029	6373
749.141	5212
749.252	6113
749.364	4250
749.475	6460
749.587	14037
749.698	8657
749.809	4573
749.921	4162
750.032	3474
750.144	4595
750.255	3082
750.366	4387
750.478	3782
750.589	4138
750.700	4206
750.811	4799
750.923	4882
751.034	6530
751.145	14342
751.256	15200
751.367	4254
751.479	3489
751.590	3124
751.701	3558
751.812	3290
751.923	3080
752.034	3251
752.145	3695
752.256	4004
752.367	4457
752.478	3350
752.589	3618
752.700	2909
752.811	3513
752.922	3302
753.032	3852
753.143	3976
753.254	4913
753.365	3667
753.476	3694
753.586	2748
753.697	3184
753.808	3633
753.919	3437
754.029	3015
754.140	3534
754.251	3330
754.361	3646
754.472	2888
754.582	3733
754.693	3381
754.804	3666
754.914	3394
755.025	3548
755.135	3223
755.246	3595
755.356	2849
755.466	3555
755.577	3028
755.687	3369
755.798	3092
755.908	3328
756.018	2988
756.129	3153
756.239	2690
756.349	3061
756.460	2886
756.570	4099
756.680	3836
756.790	4621
756.900	3673
757.011	4781
757.121	2996
757.231	2592
757.341	2734
757.451	3803
757.561	2636
757.671	3071
757.781	2574
757.891	3260
758.001	2022
758.111	3516
758.221	3082
758.331	3344
758.441	3620
758.551	4795
758.661	6571
758.771	5481
758.880	3642
758.990	4207
759.100	3852
759.210	3463
759.320	3073
759.429	3859
759.539	3008
759.649	3107
759.758	4144
759.868	4567
759.978	3897
760.087	4703
760.197	4244
760.307	4596
760.416	3366
760.526	4538
760.635	3905
760.745	4210
760.854	4135
760.964	4119
761.073	4052
761.182	4581
761.292	4564
761.401	4162
761.511	4696
761.620	4481
761.729	2933
761.839	4273
761.948	3668
762.057	4066
762.166	3520
762.276	3491
762.385	3661
762.494	3587
762.603	3304
762.712	3499
762.822	2950
762.931	4064
763.040	3522
763.149	3834
763.258	2798
763.367	3456
763.476	3137
763.585	3540
763.694	3230
763.803	3102
763.912	3110
764.021	4385
764.130	3282
764.238	3491
764.347	3148
764.456	3577
764.565	3540
764.674	3833
764.783	2526
764.891	3259
765.000	1840
765.109	3866
765.217	3490
765.326	3876
765.435	3550
765.543	5734
765.652	4169
765.761	4374
765.869	4368
765.978	5396
766.086	6779
766.195	10907
766.303	19739
766.412	57017
766.520	203015
766.629	196031
766.737	27148
766.846	11291
766.954	6576
767.062	6155
767.171	4976
767.279	5819
767.387	3852
767.496	4550
767.604	3204
767.712	3930
767.820	3491
767.928	4390
768.037	3540
768.145	4426
768.253	4091
768.361	4063
768.469	4004
768.577	4023
768.685	2988
768.793	4128
768.901	3771
769.009	4866
769.117	3238
769.225	4230
769.333	3294
769.441	5259
769.549	5468
769.657	10069
769.765	20174
769.873	69548
769.981	194490
770.088	53872
770.196	8976
770.304	5780
770.412	5233
770.519	5387
770.627	4604
770.735	5023
770.842	3709
770.950	3858
771.058	3422
771.165	4696
771.273	3815
771.380	4628
771.488	3587
771.595	4793
771.703	4693
771.810	4375
771.918	4391
772.025	4755
772.133	3924
772.240	4740
772.348	4940
772.455	5262
772.562	5089
772.670	4608
772.777	3920
772.884	4729
772.991	4849
773.099	5378
773.206	4145
773.313	4566
773.420	4122
773.528	4947
773.635	3732
773.742	4984
773.849	4100
773.956	3764
774.063	3658
774.170	5022
774.277	3519
774.384	4832
774.491	3714
774.598	4633
774.705	3996
774.812	5038
774.919	5976
775.026	5052
775.133	3905
775.239	5114
775.346	4160
775.453	5250
775.560	3875
775.667	4091
775.773	3785
775.880	4876
775.987	3633
776.093	5214
776.200	3034
776.307	4244
776.413	4327
776.520	3982
776.627	3528
776.733	5426
776.840	3473
776.946	4886
777.053	4631
777.159	6214
777.266	9214
777.372	8074
777.478	7370
777.585	8288
777.691	6425
777.798	4493
777.904	4378
778.010	5155
778.117	6274
778.223	5685
778.329	3693
778.435	4281
778.542	3151
778.648	3397
778.754	3110
778.860	3890
778.966	3585
779.072	4149
779.178	3144
779.284	3974
779.391	2836
779.497	3975
779.603	3721
779.708	3831
779.815	3273
779.920	3770
780.026	4292
780.132	5739
780.238	3135
780.344	3994
780.450	3394
780.556	3749
780.661	3655
780.767	3063
780.873	3627
780.979	4114
781.085	2270
781.190	3811
781.296	3253
781.402	2873
781.507	2825
781.613	3193
781.719	2646
781.824	3417
781.930	3314
782.035	3579
782.141	3177
782.246	4165
782.352	2744
782.457	3178
782.563	3524
782.668	3882
782.773	2988
782.879	3426
782.984	3224
783.090	3939
783.195	3913
783.300	8547
783.405	4486
783.511	4168
783.616	3338
783.721	4103
783.826	3107
783.932	3062
784.037	3050
784.142	3476
784.247	3048
784.352	3713
784.457	2421
784.562	3213
784.667	2518
784.772	3331
784.877	2200
784.982	3288
785.087	2569
785.192	4008
785.297	2299
785.402	2931
785.507	2294
785.611	4023
785.716	2486
785.821	3647
785.926	1914
786.031	3117
786.135	1886
786.240	3566
786.345	2088
786.450	2767
786.554	1769
786.659	2821
786.763	2286
786.868	3221
786.973	2622
787.077	2542
787.182	2134
787.286	2982
787.391	1549
787.495	3012
787.600	2200
787.704	1996
787.809	2723
787.913	2440
788.017	2128
788.122	2757
788.226	2906
788.330	2579
788.435	1968
788.539	2648
788.643	2344
788.747	3767
788.852	1812
788.956	3273
789.060	2286
789.164	2930
789.268	1488
789.372	3280
789.476	1524
789.580	2706
789.684	1614
789.788	2150
789.892	2027
789.996	2685
790.100	1526
790.204	3242
790.308	2179
790.412	3054
790.516	1841
790.620	2217
790.724	2440
790.828	2024
790.931	2430
791.035	2653
791.139	1575
791.242	2417
791.346	2370
791.450	2812
791.554	1810
791.657	2986
791.761	2467
791.864	3240
791.968	2001
792.072	2502
792.175	2048
792.279	2377
792.382	1951
792.486	2171
792.589	2353
792.693	3082
792.796	2040
792.899	3176
793.003	2785
793.106	2899
793.209	1852
793.313	3137
793.416	1918
793.519	2325
793.623	2840
793.726	3763
793.829	7066
793.932	3284
794.035	1782
794.138	2382
794.242	2994
794.345	3655
794.448	2603
794.551	4148
794.654	5956
794.757	5799
794.860	3701
794.963	3915
795.066	2664
795.169	2605
795.272	1162
795.375	1907
795.477	1515
795.580	1408
795.683	1154
795.786	1659
795.889	1004
795.991	2167
796.094	1156
796.197	2724
796.300	2510
796.402	2004
796.505	1503
796.608	2439
796.710	1420
796.813	1240
796.915	1936
797.018	1494
797.120	1810
797.223	1221
797.326	1326
797.428	1722
797.530	1800
797.633	2083
797.735	1689
797.838	2652
797.940	5244
798.042	4588
798.145	1197
798.247	1819
798.349	1392
798.452	2140
798.554	1850
798.656	1996
798.758	1758
798.860	2395
798.962	1445
799.065	2255
799.167	1496
799.269	2052
799.371	1659
799.473	2543
799.575	2981
799.677	3524
799.779	3010
799.881	3241
799.983	5570
800.085	3464
800.187	1362
800.289	2079
800.390	1838
800.492	1711
800.594	2079
800.696	1425
800.798	1700
800.899	1828
801.001	1475
801.103	1963
801.205	1384
801.306	2447
801.408	1158
801.509	1889
801.611	1315
801.713	1841
801.814	468
801.916	1919
802.017	1236
802.119	1566
802.220	713
802.322	1186
802.423	1568
802.525	2967
802.626	2035
802.727	1727
802.829	1507
802.930	1547
803.031	2368
803.133	2071
803.234	1451
803.335	1143
803.436	947
803.538	1174
803.639	1082
803.740	1281
803.841	465
803.942	1687
804.043	1472
804.144	1688
804.245	1198
804.346	672
804.447	1191
804.548	2098
804.649	3439
804.750	3556
804.851	1024
804.952	1763
805.053	605
805.154	1304
805.255	1164
805.355	1658
805.456	655
805.557	1829
805.658	339
805.758	1287
805.859	930
805.960	1504
806.061	864
806.161	2133
806.262	974
806.362	1523
806.463	516
806.564	1224
806.664	1258
806.765	1596
806.865	1724
806.966	2449
807.066	1005
807.166	1130
807.267	1452
807.367	1622
807.468	1442
807.568	1139
807.668	498
807.769	1431
807.869	1934
807.969	1708
808.069	1582
808.170	1143
808.270	830
808.370	2333
808.470	1753
808.570	2727
808.670	2858
808.770	1910
808.870	1132
808.970	1064
809.070	1085
809.170	1243
809.271	674
809.370	928
809.470	1512
809.570	1215
809.670	1101
809.770	1157
809.870	1065
809.970	1205
810.070	808
810.169	676
810.269	326
810.369	1391
810.469	789
810.568	1333
810.668	511
810.768	1495
810.867	1252
810.967	1455
811.066	1054
811.166	1376
811.265	794
811.365	1213
811.464	1065
811.564	1365
811.663	1088
811.763	1125
811.862	852
811.962	1323
812.061	583
812.160	1030
812.260	376
812.359	1857
812.458	1582
812.557	3457
812.657	6260
812.756	10825
812.855	4203
812.954	1780
813.053	1404
813.153	1476
813.252	1392
813.351	1904
813.450	418
813.549	1609
813.648	1412
813.747	1343
813.846	1412
813.945	1388
814.044	924
814.143	1819
814.242	445
814.341	1920
814.439	860
814.538	1858
814.637	1073
814.736	2125
814.835	1522
814.933	1423
815.032	2113
815.131	2044
815.229	1422
815.328	2365
815.427	2835
815.525	2984
815.624	2733
815.722	3053
815.821	2075
815.919	2607
816.018	1826
816.116	2542
816.215	3284
816.313	3379
816.412	2146
816.510	3812
816.609	3844
816.707	4269
816.805	3218
816.904	3915
817.002	3557
817.100	4066
817.198	4223
817.296	4878
817.395	5166
817.493	5576
817.591	5426
817.689	6768
817.787	7971
817.885	11746
817.983	15954
818.081	29206
818.179	58370
818.277	132843
818.375	316108
818.473	308081
818.571	94649
818.669	36168
818.767	23632
818.865	19979
818.963	18991
819.061	21933
819.158	31675
819.256	53538
819.354	107509
819.452	232755
819.549	473787
819.647	363645
819.745	119919
819.842	49942
819.940	29856
820.038	20776
820.135	14061
820.233	12377
820.330	9279
820.428	7629
820.525	6663
820.623	6165
820.720	5187
820.818	5598
820.915	5224
821.012	5088
821.110	3522
821.207	4681
821.304	3729
821.402	4347
821.499	4435
821.596	3264
821.693	4618
821.791	4500
821.888	3807
821.985	4867
822.082	7262
822.179	9035
822.276	4202
822.373	3279
822.470	1896
822.567	2578
822.664	2441
822.761	2448
822.858	1773
822.955	3189
823.052	2488
823.149	1841
823.246	2167
823.343	2855
823.440	1902
823.536	2671
823.633	1693
823.730	2481
823.827	1716
823.923	1543
824.020	1480
824.117	2373
824.213	1805
824.310	3700
824.407	1334
824.503	2233
824.600	1536
824.696	2632
824.793	1797
824.889	2338
824.986	2898
825.082	2216
825.179	1371
825.275	1632
825.371	1715
825.468	3175
825.564	1224
825.660	1678
825.757	1355
825.853	2277
825.949	1100
826.045	1852
826.142	1306
826.238	2057
826.334	1517
826.430	2136
826.526	1982
826.622	1580
826.718	379
826.814	1060
826.910	2565
827.006	1984
827.102	1209
827.198	2299
827.294	1072
827.390	2196
827.486	1532
827.582	1552
827.678	919
827.774	1555
827.869	607
827.965	2269
828.061	873
828.157	1755
828.252	1036
828.348	1167
828.444	1656
828.539	908
828.635	512
828.731	1635
828.826	790
828.922	1756
829.017	830
829.113	869
829.208	1812
829.304	1578
829.399	1339
829.495	1677
829.590	1648
829.685	1220
829.781	842
829.876	1431
829.971	1082
830.066	926
830.162	383
830.257	1308
830.352	328
830.447	2134
830.543	450
830.638	1302
830.733	1760
830.828	1979
830.923	1455
831.018	1756
831.113	1038
831.208	1105
831.303	1599
831.398	956
831.493	735
831.588	649
831.683	1007
831.778	1139
831.873	322
831.967	1567
832.062	241
832.157	1268
832.252	1361
832.346	980
832.441	655
832.536	2029
832.631	2141
832.725	5272
832.820	5241
832.914	1907
833.009	750
833.104	1638
833.198	1920
833.293	2548
833.387	1058
833.482	1540
833.576	571
833.670	738
833.765	666
833.859	978
833.954	924
834.048	1868
834.142	701
834.237	1220
834.331	649
834.425	1003
834.519	430
834.613	1516
834.708	-320
834.802	1883
834.896	787
834.990	1084
835.084	1251
835.178	1015
835.272	210
835.366	1582
835.460	1273
835.554	532
835.648	834
835.742	694
835.836	931
835.930	1003
836.024	527
836.117	1666
836.211	932
836.305	2502
836.399	1776
836.493	2676
836.586	1521
836.680	1491
836.774	430
836.867	1033
836.961	2
837.055	1128
837.148	-27
837.242	1198
837.335	907
837.429	643
837.522	669
837.616	1520
837.709	563
837.803	2829
837.896	2414
837.989	1449
838.083	1350
838.176	2389
838.269	3274
838.363	4489
838.456	1119
838.549	1588
838.642	2246
838.735	3171
838.829	6977
838.922	3200
839.015	560
839.108	970
839.201	767
839.294	1280
839.387	-140
839.480	1124
839.573	800
839.666	1789
839.759	1313
839.852	1096
839.945	843
840.038	932
840.131	196
840.223	1001
840.316	-94
840.409	761
840.502	451
840.594	1322
840.687	322
840.780	1200
840.873	344
840.965	1332
841.058	480
841.150	1331
841.243	3216
841.336	3022
841.428	475
841.521	867
841.613	63
841.706	1377
841.798	1558
841.890	590
841.983	723
842.075	1729
842.167	333
842.260	1188
842.352	609
842.444	2983
842.537	2325
842.629	4342
842.721	5292
842.813	2151
842.905	375
842.997	1226
843.090	939
843.182	1639
843.274	1601
843.366	4474
843.458	8603
843.550	18369
843.642	12846
843.734	3328
843.826	460
843.918	2095
844.009	1741
844.101	1013
844.193	206
844.285	1237
844.377	1297
844.469	976
844.560	1514
844.652	1555
844.744	2396
844.835	1924
844.927	338
845.019	1556
845.110	1365
845.202	1922
845.293	-120
845.385	1309
845.476	67
845.568	1152
845.659	187
845.751	1285
845.842	-74
845.934	543
846.025	582
846.116	1183
846.208	-38
846.299	998
846.390	3
846.482	750
846.573	318
846.664	1940
846.755	989
846.846	2928
846.937	1990
847.029	1286
847.120	214
847.211	692
847.302	673
847.393	736
847.484	668
847.575	1080
847.666	181
847.757	1534
847.847	353
847.938	1430
848.029	776
848.120	1325
848.211	1056
848.302	1468
848.392	541
848.483	578
848.574	107
848.664	691
848.755	718
848.846	796
848.936	189
849.027	469
849.118	907
849.208	1144
849.299	1612
849.389	1848
849.480	2477
849.570	7333
849.661	13212
849.751	23408
849.841	43764
849.932	19649
850.022	2737
850.112	2016
850.203	731
850.293	1474
850.383	335
850.474	1078
850.564	570
850.654	460
850.744	557
850.834	883
850.924	289
851.014	953
851.104	818
851.194	1615
851.284	1074
851.374	1951
851.464	934
851.554	1391
851.644	251
851.734	977
851.824	1502
851.914	1493
852.004	60
852.094	596
852.183	577
852.273	1255
852.363	446
852.452	347
852.542	635
852.632	577
852.721	1604
852.811	719
852.901	456
852.990	1396
853.080	932
853.169	1498
853.259	1038
853.348	1007
853.438	1242
853.527	2855
853.617	2443
853.706	5189
853.795	8762
853.885	17840
853.974	38304
854.063	73852
854.152	123179
854.242	220559
854.331	100101
854.420	16894
854.509	5643
854.598	3699
854.687	3124
854.777	2558
854.866	1982
854.955	2762
855.044	1238
855.133	1486
855.222	679
855.311	687
855.400	563
855.488	1029
855.577	-125
855.666	1389
855.755	182
855.844	737
855.933	84
856.021	1228
856.110	564
856.199	683
856.288	332
856.376	617
856.465	-221
856.554	634
856.642	-251
856.731	903
856.819	588
856.908	728
856.996	529
857.085	386
857.173	-150
857.262	691
857.350	-314
857.438	486
857.527	351
857.615	536
857.703	870
857.792	186
857.880	270
857.968	-48
858.056	56
858.145	303
858.233	317
858.321	451
858.409	335
858.497	-140
858.585	187
858.673	914
858.761	-295
858.849	489
858.937	-427
859.025	1716
859.113	-323
859.201	794
859.289	325
859.377	1104
859.465	449
859.552	938
859.640	37
859.728	781
859.816	351
859.903	740
859.991	-203
860.079	855
860.166	-84
860.254	1257
860.342	625
860.429	1219
860.517	141
860.604	1067
860.692	-426
860.779	464
860.867	-80
860.954	153
861.042	745
861.129	745
861.216	744
861.304	249
861.391	510
861.478	437
861.565	120
861.653	472
861.740	-664
861.827	697
861.914	799
862.001	818
862.089	147
862.176	1174
862.263	-559
862.350	371
862.437	509
862.524	506
862.611	-372
862.698	1439
862.785	856
862.871	1257
862.958	1358
863.045	683
863.132	420
863.219	1014
863.306	-526
863.392	987
863.479	60
863.566	634
863.652	548
863.739	623
863.826	492
863.912	140
863.999	169
864.086	643
864.172	556
864.259	1100
864.345	798
864.432	1501
864.518	984
864.604	472
864.691	-177
864.777	937
864.863	1180
864.950	1159
865.036	690
865.122	1994
865.209	2204
865.295	3117
865.381	2319
865.467	3530
865.553	2574
865.639	4937
865.726	5471
865.812	10476
865.898	21315
865.984	39393
866.070	57195
866.156	101337
866.242	131586
866.328	44553
866.414	8847
866.499	4972
866.585	3205
866.671	3669
866.757	2215
866.843	3666
866.928	2156
867.014	2114
867.100	1848
867.186	2399
867.271	2204
867.357	3068
867.442	2598
867.528	3776
867.614	1616
867.699	2150
867.785	1205
867.870	3436
867.956	1932
868.041	4118
868.127	2428
868.212	2386
868.297	2187
868.383	2924
868.468	2341
868.553	2776
868.639	4698
868.724	5537
868.809	7384
868.894	9611
868.979	2165
869.065	2097
869.150	1101
869.235	2638
869.320	886
869.405	1724
869.490	1117
869.575	2004
869.660	1508
869.745	1964
869.830	839
869.915	2063
870.000	1097
870.085	2328
870.169	1216
870.254	2116
870.339	1382
870.424	1477
870.509	1111
870.593	1650
870.678	1681
870.763	1225
870.847	411
870.932	1413
871.016	539
871.101	1969
871.186	950
871.270	2191
871.355	1020
871.439	1104
871.523	469
871.608	1813
871.692	504
871.777	1781
871.861	538
871.945	1459
872.030	998
872.114	971
872.198	1029
872.282	1369
872.367	624
872.451	556
872.535	1097
872.619	1372
872.703	432
872.787	794
872.871	1209
872.955	1124
873.039	644
873.123	1334
873.207	1576
873.291	1732
873.375	441
873.459	1633
873.543	1251
873.627	1482
873.711	466
873.794	1175
873.878	626
873.962	665
874.045	865
874.129	989
874.137	970
874.213	775
874.245	815
874.296	879
874.352	288
874.380	-0
874.460	934
874.464	971
874.547	1298
874.568	1268
874.631	1165
874.676	650
874.714	232
874.784	1047
874.798	1208
874.881	1141
874.892	1059
874.965	494
874.999	506
875.048	505
875.107	1138
875.131	1406
875.215	1446
875.215	1446
875.298	1013
875.323	868
875.381	574
875.430	1008
875.465	1290
875.538	829
875.548	768
875.631	1430
875.646	1244
875.714	328
875.753	607
875.798	962
875.861	306
875.881	98
875.964	1086
875.968	1073
876.047	766
876.076	920
876.130	1258
876.183	763
876.213	517
876.291	1042
876.296	1063
876.379	737
876.398	858
876.462	1400
876.506	1030
876.545	634
876.613	1544
876.628	1742
876.711	790
876.721	814
876.794	1151
876.828	953
876.877	691
876.935	1280
876.960	1485
877.043	641
877.043	642
877.125	1189
877.150	1297
877.208	1588
877.258	1671
877.291	1726
877.365	1735
877.374	1731
877.456	1514
877.472	1497
877.539	1410
877.579	1664
877.622	1983
877.687	1589
877.704	1500
877.787	2320
877.794	2281
877.869	1681
877.901	1726
877.952	1980
878.008	1469
878.034	1045
878.115	1017
878.117	1025
878.199	433
878.222	749
878.282	1550
878.329	1322
878.364	1224
878.437	1567
878.447	1579
878.529	1097
878.544	1068
878.611	961
878.651	775
878.694	548
878.758	799
878.776	972
878.858	749
878.865	866
878.941	1883
878.972	1476
879.023	820
879.078	1036
879.105	1265
879.185	1040
879.187	1035
879.269	2016
879.292	1936
879.351	1459
879.399	1263
879.433	1288
879.506	1108
879.516	1040
879.598	1350
879.613	1188
879.680	867
879.720	1024
879.762	1177
879.827	960
879.844	897
879.926	1372
879.933	1393
880.007	1167
880.040	1061
880.089	1323
880.147	1537
880.171	1525
880.253	2438
880.254	2441
880.335	3571
880.360	4256
880.417	6007
880.467	6665
880.499	8013
880.574	13657
880.580	13912
880.662	16380
880.680	15162
880.744	7962
880.787	4194
880.825	2322
880.893	1375
880.907	1314
880.989	1404
881.000	1398
881.070	1131
881.106	1191
881.152	1510
881.213	1569
881.233	1412
881.315	734
881.319	719
881.396	1371
881.426	1428
881.478	1132
881.532	1134
881.559	1216
881.639	1177
881.641	1185
881.722	1854
881.745	1728
881.803	1158
881.852	1324
881.885	1369
881.958	684
881.966	666
882.047	1513
882.064	1570
882.129	1733
882.171	1830
882.210	1793
882.277	1710
882.291	1821
882.372	3210
882.383	3213
882.454	2321
882.489	1968
882.535	1774
882.596	1414
882.616	1296
882.697	1475
882.702	1456
882.778	1120
882.808	1166
882.859	1326
882.914	922
882.940	747
883.020	950
883.021	955
883.102	937
883.127	972
883.183	1369
883.233	1474
883.264	1431
883.339	2070
883.345	2045
883.426	243
883.445	80
883.507	756
883.551	987
883.587	832
883.657	949
883.668	1056
883.749	1360
883.763	1521
883.830	2222
883.869	2101
883.910	1301
883.975	637
883.991	689
884.072	417
884.081	456
884.152	1289
884.187	1471
884.233	1447
884.292	1813
884.314	1965
884.394	1759
884.398	1765
884.475	1209
884.504	1023
884.555	1166
884.610	1177
884.636	990
884.716	165
884.716	174
884.797	1533
884.821	1842
884.877	1800
884.927	1878
884.958	1831
885.033	1325
885.038	1306
885.118	1059
885.139	1007
885.199	1003
885.244	1063
885.279	916
885.350	455
885.359	536
885.439	1579
885.456	1655
885.520	1728
885.561	2079
885.600	1989
885.667	1485
885.680	1399
885.760	1055
885.773	1000
885.840	1373
885.878	1533
885.920	1188
885.984	569
886.000	700
886.080	1520
886.089	1598
886.160	1270
886.195	1166
886.240	1732
886.300	2220
886.320	1930
886.400	1101
886.406	1013
886.480	1140
886.511	1364
886.560	1520
886.616	1582
886.640	1695
886.720	2166
886.722	2165
886.800	1298
886.827	1076
886.879	1463
886.932	1708
886.959	1755
887.038	2366
887.039	2371
887.119	1911
887.143	1823
887.198	1648
887.248	1465
887.278	1437
887.354	1348
887.358	1375
887.437	1756
887.459	1892
887.517	1869
887.564	1811
887.596	1831
887.669	1819
887.676	1775
887.755	1141
887.774	988
887.835	758
887.880	581
887.914	673
887.985	823
887.994	863
888.073	1276
888.090	1354
888.153	1925
888.195	2263
888.232	2214
888.300	2169
888.311	2127
888.391	1681
888.405	1614
888.470	1487
888.510	1328
888.549	1429
888.615	1698
888.628	1606
888.708	935
888.720	839
888.787	1888
888.825	2446
888.866	2117
888.930	1608
888.945	1505
889.024	915
889.035	841
889.103	1074
889.140	1159
889.182	1688
889.245	2491
889.261	2350
889.340	1641
889.349	1553
889.419	1825
889.454	1950
889.498	1366
889.559	573
889.577	701
889.656	1244
889.664	1299
889.735	2293
889.768	2757
889.814	2242
889.873	1546
889.978	1263
890.083	1605
890.187	1322
890.292	2190
890.397	1205
890.501	2077
890.606	765
890.710	1613
890.815	1221
890.919	2064
891.024	1205
891.128	2488
891.233	1742
891.337	1920
891.442	2200
891.546	1824
891.650	2029
891.755	681
891.859	1899
891.963	1889
892.068	1495
892.172	1576
892.276	1863
892.380	1261
892.484	1746
892.589	1619
892.693	3080
892.797	2237
892.901	1509
893.005	842
893.109	1204
893.213	2167
893.317	1906
893.421	1705
893.525	1306
893.629	251
893.733	572
893.837	2032
893.941	903
894.045	1945
894.148	817
894.252	616
894.356	326
894.460	1981
894.564	1978
894.667	1242
894.771	1050
894.875	1126
894.978	1469
895.082	1375
895.186	2546
895.289	1822
895.393	717
895.496	828
895.600	768
895.703	1563
895.807	363
895.910	817
896.014	1711
896.117	1640
896.221	854
896.324	1339
896.427	1115
896.531	1249
896.634	401
896.737	1762
896.840	1452
896.944	792
897.047	1287
897.150	1332
897.253	779
897.356	1779
897.460	518
897.563	1397
897.666	1094
897.769	2460
897.872	1202
897.975	954
898.078	991
898.181	1393
898.284	378
898.387	1201
898.490	1367
898.593	2636
898.695	1079
898.798	1907
898.901	1546
899.004	1483
899.107	1041
899.209	1391
899.312	1657
899.415	2256
899.518	869
899.620	564
899.723	1094
899.826	1808
899.928	2291
900.031	2490
900.133	1143
900.236	1402
900.338	643
900.441	951
900.543	464
900.646	984
900.748	1360
900.851	1348
900.953	680
901.055	1226
901.158	604
901.260	1950
901.362	528
901.465	1199
901.567	914
901.669	1389
901.771	94
901.873	975
901.976	1004
902.078	1481
902.180	985
902.282	178
902.384	665
902.486	1653
902.588	1397
902.690	1674
902.792	894
902.894	1067
902.996	751
903.098	2098
903.200	1134
903.302	544
903.404	1066
903.505	858
903.607	386
903.709	1193
903.811	1236
903.913	1527
904.014	969
904.116	663
904.218	499
904.319	1109
904.421	1256
904.523	1432
904.624	752
904.726	974
904.827	707
904.929	849
905.030	715
905.132	2008
905.233	891
905.335	560
905.436	379
905.537	625
905.639	-14
905.740	1306
905.841	1198
905.943	1343
906.044	1420
906.145	973
906.247	616
906.348	1071
906.449	888
906.550	1050
906.651	1289
906.752	1023
906.854	583
906.955	1766
907.056	41
907.157	673
907.258	757
907.359	731
907.460	1168
907.561	555
907.662	491
907.762	1194
907.863	30
907.964	1015
908.065	123
908.166	1111
908.267	778
908.367	869
908.468	563
908.569	1035
908.670	991
908.770	1668
908.871	1392
908.971	1703
909.072	1359
909.173	677
909.273	398
909.374	520
909.474	885
909.575	494
909.675	563
909.776	528
909.876	980
909.977	590
910.077	1663
910.177	902
910.278	803
910.378	705
910.478	291
910.579	624
910.679	1082
910.779	951
910.879	1424
910.980	705
911.080	559
911.180	1196
911.280	825
911.380	747
911.480	-125
911.580	1073
911.680	1708
911.780	1010
911.880	1097
911.980	841
912.080	446
912.180	1315
912.280	1243
912.380	858
912.480	565
912.580	736
912.679	487
912.779	507
912.879	695
912.979	1024
913.078	748
913.178	-103
913.278	660
913.377	462
913.477	502
913.577	1102
913.676	67
913.776	502
913.875	887
913.975	405
914.074	300
914.174	963
914.273	404
914.373	1264
914.472	710
914.572	44
914.671	278
914.770	1323
914.870	927
914.969	-68
915.068	401
915.167	1405
915.267	279
915.366	924
915.465	350
915.564	1502
915.663	265
915.763	176
915.862	411
915.961	950
916.060	559
916.159	128
916.258	548
916.357	576
916.456	375
916.555	746
916.654	-161
916.752	488
916.851	1022
916.950	1089
917.049	473
917.148	1058
917.247	1212
917.345	412
917.444	157
917.543	525
917.642	697
917.740	1293
917.839	719
917.937	594
918.036	891
918.135	1093
918.233	-67
918.332	-359
918.430	764
918.529	827
918.627	-89
918.726	432
918.824	1097
918.923	201
919.021	-360
919.119	1060
919.218	163
919.316	338
919.414	-65
919.512	251
919.611	673
919.709	1163
919.807	815
919.905	1400
920.003	1048
920.102	1125
920.200	1906
920.298	748
920.396	429
920.494	1730
920.592	1201
920.690	958
920.788	264
920.886	1260
920.984	1538
921.082	424
921.180	1524
921.277	1049
921.375	1172
921.473	1486
921.571	2123
921.669	2270
921.766	2163
921.864	2564
921.962	1584
922.060	1933
922.157	1593
922.255	2442
922.352	1228
922.450	2216
922.548	2508
922.645	2876
922.743	3191
922.840	3545
922.938	6180
923.035	6225
923.133	4796
923.230	5884
923.327	6044
923.425	8181
923.522	6764
923.619	7014
923.717	5730
923.814	5536
923.911	5577
924.008	5663
924.106	5270
924.203	4880
924.300	5487
924.397	5558
924.494	5583
924.591	5737
924.688	6034
924.786	4788
924.883	5443
924.979	6153
925.077	4702
925.173	5278
925.270	5197
925.367	5566
925.464	5785
925.561	6383
925.658	6996
925.755	6240
925.852	5463
925.948	7200
926.045	5663
926.142	5717
926.239	5692
926.335	6735
926.432	4368
926.529	6748
926.625	6643
926.722	6288
926.818	5132
926.915	4545
927.011	5634
927.108	5529
927.204	4976
927.301	4593
927.397	3546
927.494	5072
927.590	5397
927.687	3624
927.783	3612
927.879	6109
927.976	5216
928.072	5248
928.168	3929
928.264	5442
928.361	4386
928.457	4672
928.553	5075
928.649	3662
928.745	4636
928.841	4338
928.937	4034
929.033	5196
929.129	5130
929.225	3711
929.321	5767
929.417	5127
929.513	4225
929.609	5156
929.705	3744
929.801	4254
929.897	4722
929.993	4540
930.089	4080
930.184	5262
930.280	3510
930.376	3814
930.471	5402
930.567	3681
930.663	4333
930.758	4634
930.854	3496
930.950	3827
931.045	4180
931.141	3884
931.236	3878
931.332	5253
931.427	3919
931.523	2713
931.618	4976
931.714	4963
931.809	2335
931.905	3671
932.000	5018
932.095	2154
932.191	2168
932.286	4856
932.381	4456
932.476	3910
932.572	3374
932.667	3761
932.762	3145
932.857	3358
932.952	3979
933.047	4848
933.142	2862
933.237	3164
933.332	3537
933.427	4391
933.522	3255
933.617	2849
933.712	2545
933.807	3116
933.902	5104
933.997	4833
934.092	4059
934.187	3653
934.282	3121
934.376	3046
934.471	4170
934.566	3500
934.661	2666
934.755	2339
934.850	3275
934.945	4286
935.039	3366
935.134	2479
935.228	2544
935.323	3515
935.417	4863
935.512	2965
935.606	2741
935.701	2882
935.795	3436
935.890	4405
935.984	2703
936.079	2324
936.173	2725
936.267	3607
936.362	2762
936.456	3357
936.550	3137
936.644	4599
936.738	2990
936.833	2201
936.927	2371
937.021	2132
937.115	3137
937.209	3266
937.303	3182
937.397	2491
937.491	2644
937.585	3595
937.679	3592
937.773	3403
937.867	2121
937.961	2526
938.055	2255
938.149	4356
938.243	2708
938.337	2280
938.430	1630
938.524	2190
938.618	3728
938.712	3229
938.805	2749
938.899	3350
938.993	3422
939.086	4540
939.180	1646
939.274	3037
939.367	3184
939.461	4458
939.554	3252
939.648	2435
939.741	2549
939.835	1553
939.928	2344
940.022	4112
940.115	2660
940.208	3065
940.302	2748
940.395	3923
940.488	4036
940.582	2962
940.675	2212
940.768	2185
940.861	1845
940.954	3854
941.048	2815
941.141	1933
941.234	1548
941.327	3799
941.420	5082
941.513	3536
941.606	3023
941.699	2373
941.792	2495
941.885	3321
941.978	2855
942.071	2097
942.164	2521
942.257	1373
942.349	2266
942.442	3031
942.535	2123
942.628	2104
942.721	1783
942.813	2065
942.906	2633
942.999	2348
943.091	2260
943.184	1828
943.277	2084
943.369	2296
943.462	1531
943.554	1380
943.647	1880
943.739	2323
943.832	1989
943.924	3012
944.017	990
944.109	2030
944.201	1904
944.294	1940
944.386	1251
944.478	2302
944.571	1236
944.663	1516
944.755	1520
944.847	1982
944.940	2077
945.032	3123
945.124	1167
945.216	1769
945.308	1446
945.400	1858
945.492	1633
945.584	2058
945.676	2292
945.768	2114
945.860	3099
945.952	1552
946.044	3015
946.136	1923
946.228	1694
946.320	1498
946.412	1559
946.503	1910
946.595	2504
946.687	1399
946.779	2152
946.870	810
946.962	2013
947.054	1553
947.145	1069
947.237	1862
947.329	1229
947.420	2353
947.512	2474
947.603	1454
947.695	564
947.786	1221
947.878	1235
947.969	1532
948.061	2229
948.152	2490
948.243	2028
948.335	1201
948.426	622
948.517	1120
948.609	1204
948.700	1702
948.791	1922
948.882	2200
948.973	822
949.065	1251
949.156	2379
949.247	1391
949.338	1138
949.429	926
949.520	1050
949.611	1457
949.702	1425
949.793	1357
949.884	971
949.975	1792
950.066	1100
950.157	953
950.247	1842
950.338	602
950.429	1372
950.520	854
950.611	1051
950.701	1212
950.792	1130
950.883	2500
950.973	1862
951.064	1883
951.155	1163
951.245	1855
951.336	1737
951.427	2243
951.517	2231
951.608	2403
951.698	725
951.788	2261
951.879	602
951.969	607
952.060	909
952.150	1156
952.240	1866
952.331	1958
952.421	1959
952.511	542
952.602	701
952.692	840
952.782	1452
952.872	305
952.962	1270
953.052	1535
953.143	559
953.233	1377
953.323	796
953.413	1958
953.503	1186
953.593	1062
953.683	1430
953.773	1534
953.863	899
953.953	806
954.042	1172
954.132	1812
954.222	1723
954.312	1853
954.402	1355
954.492	924
954.581	1423
954.671	3065
954.761	950
954.850	1168
954.940	794
955.030	253
955.119	108
955.209	1445
955.298	589
955.388	1205
955.477	615
955.567	764
955.656	660
955.746	1402
955.835	1389
955.925	864
956.014	536
956.103	1019
956.193	1237
956.282	2003
956.371	963
956.461	1063
956.550	746
956.639	906
956.728	996
956.817	1285
956.906	331
956.995	919
957.085	1708
957.174	869
957.263	786
957.352	293
957.441	702
957.530	945
957.619	361
957.708	613
957.796	331
957.885	1400
957.974	544
958.063	604
958.152	623
958.241	197
958.329	34
958.418	412
958.507	565
958.596	1535
958.684	447
958.773	1113
958.861	833
958.950	-79
959.039	735
959.127	692
959.216	713
959.304	1263
959.393	603
959.481	713
959.570	1032
959.658	513
959.746	250
959.835	269
959.923	1525
960.011	1923
960.100	1221
960.188	935
960.276	582
960.365	845
960.453	620
960.541	-71
960.629	221
960.717	630
960.805	268
960.893	-296
960.981	388
961.069	305
961.158	1426
961.245	1532
961.333	959
961.421	826
961.509	665
961.597	456
961.685	1615
961.773	639
961.861	298
961.949	965
962.036	538
962.124	686
962.212	147
962.299	422
962.387	-39
962.475	223
962.562	396
962.650	896
962.738	419
962.825	-139
962.913	662
963.000	167
963.088	502
963.175	1300
963.263	822
963.350	1338
963.438	695
963.525	1063
963.612	875
963.700	2168
963.787	5808
963.874	12598
963.962	4811
964.049	792
964.136	-692
964.223	262
964.310	351
964.398	-386
964.485	170
964.572	625
964.659	1152
964.746	2257
964.833	1984
964.920	974
965.007	703
965.094	430
965.181	689
965.268	1796
965.355	725
965.441	1215
965.528	291
965.615	993
965.702	969
965.789	999
965.875	587
965.962	1170
966.049	720
966.136	1021
966.222	679
966.309	886
966.395	1432
966.482	1972
966.569	628
966.655	671
966.742	551
966.828	708
966.915	-38
967.001	246
967.087	227
967.174	649
967.260	291
967.347	1034
967.433	2325
967.519	4768
967.605	7356
967.692	3034
967.778	382
967.864	789
967.950	529
968.036	556
968.123	315
968.209	612
968.295	1067
968.381	1227
968.467	-286
968.553	403
968.639	753
968.725	1002
968.811	1101
968.897	3379
968.983	1837
969.069	931
969.154	527
969.240	379
969.326	-100
969.412	357
969.497	144
969.583	365
969.669	-148
969.755	1081
969.840	-83
969.926	1072
970.012	1156
970.097	2309
970.183	2935
970.268	3060
970.354	978
970.439	1006
970.525	3078
970.610	5236
970.696	1826
970.781	1146
970.866	597
970.952	968
971.037	-248
971.122	-138
971.208	661
971.293	1560
971.378	1019
971.463	1493
971.549	1003
971.634	577
971.719	992
971.804	1320
971.889	539
971.974	774
972.059	629
972.144	730
972.229	-159
972.314	821
972.399	788
972.484	730
972.569	652
972.654	142
972.739	1135
972.824	2412
972.908	2320
972.993	1259
973.078	55
973.163	-98
973.247	65
973.332	498
973.417	599
973.501	882
973.586	503
973.671	531
973.755	596
973.840	676
973.924	613
974.009	765
974.093	859
974.178	2324
974.262	682
974.346	2645
974.431	1369
974.515	1006
974.600	1055
974.684	1138
974.768	456
974.852	584
974.937	225
975.021	674
975.105	588
975.189	111
975.273	261
975.358	555
975.442	357
975.526	612
975.610	198
975.694	117
975.778	978
975.862	-267
975.946	-3
976.030	771
976.114	873
976.198	506
976.281	363
976.365	520
976.449	434
976.533	475
976.617	164
976.700	467
976.784	795
976.868	1130
976.951	-166
977.035	1092
977.119	1417
977.202	451
977.286	680
977.369	797
977.453	401
977.536	974
977.620	1310
977.703	909
977.787	602
977.870	1367
977.953	1876
978.037	1059
978.120	916
978.203	1485
978.287	1686
978.370	3472
978.453	2084
978.536	-275
978.620	874
978.703	1196
978.786	1687
978.869	1089
978.952	-95
979.035	457
979.118	78
979.201	604
979.284	468
979.367	56
979.450	229
979.533	524
979.616	136
979.699	113
979.782	257
979.865	433
979.948	589
980.030	727
980.113	757
980.196	980
980.279	439
980.361	303
980.444	360
980.526	510
980.609	742
980.692	1339
980.774	1953
980.857	1294
980.939	1299
981.022	1035
981.104	591
981.187	-98
981.269	1469
981.352	898
981.434	24
981.516	478
981.599	1363
981.681	1095
981.763	178
981.846	136
981.928	774
982.010	931
982.092	166
982.174	700
982.256	-360
982.339	1455
982.421	173
982.503	1047
982.585	583
982.667	264
982.749	158
982.831	742
982.913	187
982.995	695
983.077	358
983.158	1403
983.240	232
983.322	1157
983.404	265
983.486	2181
983.568	1784
983.649	1517
983.731	1897
983.813	971
983.894	938
983.976	1548
984.058	1079
984.139	1283
984.221	937
984.302	927
984.384	628
984.465	1135
984.547	1105
984.628	435
984.710	837
984.791	993
984.872	1396
984.954	1234
985.035	-1
985.116	583
985.198	468
985.279	1079
985.360	897
985.441	1086
985.522	418
985.604	897
985.685	113
985.766	1115
985.847	1216
985.928	1393
986.009	1013
986.090	1044
986.171	827
986.252	986
986.333	22
986.414	1841
986.495	628
986.576	1128
986.656	723
986.737	1607
986.818	1566
986.899	1509
986.980	1002
987.060	1520
987.141	500
987.222	942
987.302	1601
987.383	2386
987.464	1705
987.544	1427
987.625	1719
987.705	1792
987.786	1658
987.866	1808
987.947	1488
988.027	1673
988.108	992
988.188	1930
988.268	824
988.349	1360
988.429	1380
988.509	2311
988.589	628
988.670	622
988.750	1181
988.830	1118
988.910	1811
988.990	664
989.070	1505
989.151	1562
989.231	341
989.311	496
989.391	1257
989.471	1385
989.551	941
989.631	1531
989.711	1130
989.791	715
989.870	1426
989.950	1514
990.030	449
990.110	1410
990.190	758
990.269	591
990.349	382
990.429	736
990.509	278
990.588	1096
990.668	219
990.747	1055
990.827	1581
990.907	457
990.986	1047
991.066	885
991.145	277
991.225	166
991.304	727
991.383	586
991.463	1145
991.542	540
991.622	1091
991.701	1004
991.780	416
991.859	730
991.939	-130
992.018	630
992.097	1250
992.176	714
992.256	287
992.335	-448
992.414	1199
992.493	85
992.572	-759
992.651	810
992.730	58
992.809	266
992.888	634
992.967	647
993.046	1054
993.125	113
993.203	261
993.282	67
993.361	929
993.440	607
993.519	-328
993.597	259
993.676	584
993.755	1626
993.834	270
993.912	618
993.991	721
994.069	-40
994.148	163
994.226	232
994.305	-223
994.384	81
994.462	293
994.540	483
994.619	186
994.697	-215
994.776	-656
994.854	889
994.932	464
995.011	535
995.089	-292
995.167	324
995.245	-975
995.324	-488
995.402	1435
995.480	-36
995.558	-203
995.636	42
995.714	107
995.792	1002
995.870	579
995.948	175
996.026	-333
996.104	-826
996.182	375
996.260	-200
996.338	-403
996.416	-492
996.494	-689
996.572	575
996.649	773
996.727	-831
996.805	57
996.883	-176
996.960	-90
997.038	546
997.116	513
997.193	179
997.271	385
997.348	-393
997.426	-693
997.504	61
997.581	-193
997.658	-410
997.736	-529
997.813	-509
997.891	-346
997.968	-145
998.046	-923
998.123	-217
998.200	325
998.277	-184
998.355	-97
998.432	-250
998.509	-1116
998.586	-43
998.663	-611
998.741	403
998.818	-629
998.895	-19
998.972	-167
999.049	248
999.126	-22
999.203	-28
999.280	-994
999.357	-123
999.434	-518
999.511	682
999.587	134
999.664	-426
999.741	-242
999.818	197
999.895	-730
999.971	-445
1000.048	-36
1000.125	87
1000.202	-1540
1000.278	-302
1000.355	-37
1000.431	-57
1000.508	-576
1000.584	292
1000.661	-438
1000.738	-243
1000.814	-75
1000.890	-173
1000.967	-1388
1001.043	537
1001.120	-662
1001.196	-78
1001.272	-803
1001.349	434
1001.425	66
1001.501	457
1001.577	-922
1001.654	-935
1001.730	-287
1001.806	-753
1001.882	-1255
1001.958	-496
1002.034	-534
1002.110	-29
1002.186	-858
1002.262	-1029
1002.338	-813
1002.414	-317
1002.490	-721
1002.566	-1095
1002.642	-941
1002.718	304
1002.794	-239
1002.870	-330
1002.945	-676
1003.021	-408
1003.097	-1194
1003.173	-940
1003.248	-946
1003.324	-735
1003.400	-256
1003.475	-511
1003.551	-276
1003.626	-1359
1003.702	-175
1003.777	-252
1003.853	-552
1003.928	-1025
1004.004	-1150
1004.079	-251
1004.155	-956
1004.230	-530
1004.305	-426
1004.381	-387
1004.456	-1320
1004.531	-1109
1004.607	-968
1004.682	-723
1004.757	-506
1004.832	-758
1004.907	-706
1004.982	-1035
1005.057	-548
1005.133	-507
1005.208	-781
1005.283	-843
1005.358	-738
1005.433	-992
1005.508	-1319
1005.583	-1494
1005.657	-876
1005.732	-349
1005.807	-599
1005.882	-1288
1005.957	-1337
1006.032	-485
1006.106	-1244
1006.181	-685
1006.256	-461
1006.331	-1253
1006.405	-1079
1006.480	-522
1006.554	-921
1006.629	-1235
1006.704	-926
1006.778	-821
1006.853	-710
1006.927	-423
1007.002	-1761
1007.076	-781
1007.150	-608
1007.225	-584
1007.299	-1030
1007.373	-744
1007.448	-695
1007.522	-322
1007.596	-1228
1007.671	-1586
1007.745	-1268
1007.819	-996
1007.893	-1358
1007.967	171
1008.041	-996
1008.115	-191
1008.190	-1480
1008.264	-1118
1008.338	-1426
1008.412	-1230
1008.486	-1081
1008.560	-1201
1008.633	-1642
1008.707	-1179
1008.781	-1383
1008.855	-695
1008.929	-1313
1009.003	-372
1009.076	-1505
1009.150	-566
1009.224	-1616
1009.298	-949
1009.371	-1722
1009.445	-1222
1009.519	-1286
1009.592	-1825
1009.666	-1622
1009.739	-689
1009.813	-1529
1009.886	-1342
1009.960	-1083
1010.033	-1284
1010.107	-1007
1010.180	-1467
1010.253	-1144
1010.327	-748
1010.400	-1656
1010.473	-1271
1010.547	-1242
1010.620	-885
1010.693	-658
1010.766	-2561
1010.840	-814
1010.913	-288
1010.986	-1420
1011.059	-2126
1011.132	-1699
1011.205	-603
1011.278	-1736
1011.351	-1125
1011.424	-696
1011.497	-488
1011.570	-1440
1011.643	-1677
1011.716	-1319
1011.789	-1416
1011.862	-1186
1011.934	-1159
1012.007	-1613
1012.080	-615
1012.153	-1348
1012.225	-631
1012.298	-2073
1012.371	-859
1012.443	-1311
1012.516	-1874
1012.588	-455
1012.661	-888
1012.733	-1281
1012.806	-1071
1012.879	-1288
1012.951	-1448
1013.023	-1395
1013.096	-644
1013.168	-1329
1013.241	-1359
1013.313	-1799
1013.385	-2080
1013.458	-1339
1013.530	-1572
1013.602	-1675
1013.674	-1531
1013.746	-1621
1013.819	-1804
1013.891	-560
1013.963	-1277
1014.035	-1504
1014.107	-751
1014.179	-1402
1014.251	-1229
1014.323	-1573
1014.395	-1636
1014.467	-1284
1014.539	-1135
1014.611	-1934
1014.683	-1648
1014.754	-2133
1014.826	-1676
1014.898	-1565
1014.970	-841
1015.042	-1070
1015.113	-863
1015.185	-2309
1015.257	-1854
1015.328	-1749
1015.400	-2021
1015.471	-1529
1015.543	-1124
1015.615	-1466
1015.686	-1969
1015.757	-1967
1015.829	-869
1015.901	-1688
1015.972	-1436
1016.043	-1439
1016.115	-1168
1016.186	-2408
1016.257	-1548
1016.328	-1506
1016.400	-1486
1016.471	-1881
1016.542	-1030
1016.613	-1264
1016.685	-1166
1016.756	-1404
1016.827	-1652
1016.898	-1500
1016.969	-606
1017.040	-1721
1017.111	-1025
1017.182	-1749
1017.253	-1808
1017.324	-1595
1017.395	-1461
1017.466	-1469
1017.537	-943
1017.608	-2226
1017.678	-1654
1017.749	-940
1017.820	-1053
1017.891	-1350
1017.961	-1690
1018.032	-1019
1018.103	-1304
1018.173	-2284
1018.244	-1651
1018.315	-1498
1018.385	-1624
1018.456	-1170
1018.526	-1172
1018.597	-839
1018.667	-977
1018.738	-1515
1018.808	-1567
1018.878	-1648
1018.949	-1362
1019.019	-2021
1019.089	-1254
1019.160	-1363
1019.230	-2039
1019.300	-1591
1019.371	-1117
1019.441	-1038
1019.511	-784
1019.581	-1562
1019.651	-1250
1019.721	-1718
1019.791	-1314
1019.861	-1762
1019.931	-1642
1020.001	-2511
1020.071	-1786
1020.141	-1381
1020.211	-1013
1020.281	-1891
1020.351	-1896
1020.421	-1471
1020.491	-1543
1020.560	-2460
1020.630	-2136
1020.700	-1441
1020.770	-1910
1020.839	-1439
1020.909	-2222
1020.979	-1975
1021.048	-967
1021.118	-2119
1021.187	-1320
1021.257	-1150
1021.326	-1976
1021.396	-2134
1021.465	-1110
1021.535	-1789
1021.604	-1870
1021.674	-1337
1021.743	-1020
1021.812	-1797
1021.882	-2155
1021.951	-1430
1022.020	-1296
1022.089	-1538
1022.159	-1311
1022.228	-1198
1022.297	-1426
1022.366	-1581
1022.435	-1783
1022.504	-1957
1022.573	-1494
1022.642	-2063
1022.711	-2043
1022.781	-1829
1022.849	-1163
1022.918	-2996
1022.987	-2046
1023.056	-1529
1023.125	-1348
1023.194	-1089
1023.263	-1687
1023.331	-1157
1023.400	-2092
1023.469	-1980
1023.538	-1541
1023.606	-1729
1023.675	-1437
1023.744	-1926
1023.812	-2234
1023.881	-1576
1023.949	-1481
1024.018	-1937
1024.086	-1449
1024.155	-1730
1024.223	-1534
1024.292	-1343
1024.360	-1718
1024.429	-1641
1024.497	-1955
1024.565	-1554
1024.634	-1362
1024.702	-1591
1024.770	-1426
1024.838	-1763
1024.907	-1493
1024.975	-1771
1025.043	-1788
1025.111	-2131
1025.179	-979
1025.247	-2523
1025.315	-911
1025.383	-1389
1025.451	-1923
1025.519	-1903
1025.587	-1741
1025.655	-2383
1025.723	-1357
1025.791	-2432
1025.859	-930
1025.927	-1031
1025.995	-2222
1026.062	-966
1026.130	-1033
1026.198	-2352
1026.266	-1246
1026.333	-1635
1026.401	-1472
1026.469	-1463
1026.536	-1911
1026.604	-1810
1026.671	-2164
1026.739	-1407
1026.806	-1500
1026.874	-1732
1026.941	-1762
1027.009	-1850
1027.076	-1494
1027.144	-1780
1027.211	-1754
1027.278	-2117
1027.345	-1479
1027.413	-1440
1027.480	-1944
1027.547	-1822
1027.614	-1658
1027.682	-1960
1027.749	-1458
1027.816	-1378
1027.883	-912
1027.950	-1479
1028.017	-1582
1028.084	-1788
1028.151	-2477
1028.218	-1852
1028.285	-1462
1028.352	-1772
1028.419	-2407
1028.486	-2288
1028.553	-1876
1028.619	-1720
1028.686	-1712
1028.753	-1913
1028.820	-1131
1028.886	-1540
1028.953	-1145
1029.020	-1531
1029.086	-1614
1029.153	-2358
1029.220	-1444
1029.286	-1576
1029.353	-1948
1029.419	-2065
1029.486	-1794
1029.552	-2436
1029.619	-1590
1029.685	-1938
1029.751	-2686
1029.818	-1435
1029.884	-2399
1029.951	-1508
1030.017	-1864
1030.083	-1613
1030.149	-1646
1030.216	-1861
1030.282	-1381
1030.348	-1530
1030.414	-946
1030.480	-1354
1030.546	-1962
1030.612	-1487
1030.678	-1893
1030.744	-1672
1030.810	-1996
1030.876	-2027
1030.942	-1506
1031.008	-1662
1031.074	-1807
1031.140	-1636
1031.206	-1906
1031.272	-1637
1031.337	-1403
1031.403	-2218
1031.469	-1083
1031.534	-2082
1031.600	-1486
1031.666	-2129
1031.731	-890
1031.797	-2392
1031.863	-2171
1031.928	-1935
1031.994	-2066
1032.059	-2125
1032.125	-2265
1032.190	-1834
1032.256	-1359
1032.321	-2058
1032.386	-1384
1032.452	-2256
1032.517	-2118
1032.582	-1848
1032.647	-1502
1032.713	-1316
1032.778	-573
1032.843	-1708
1032.908	-602
1032.974	-2243
1033.039	-1840
1033.104	-2036
1033.169	-1064
1033.234	-1466
1033.299	-1146
1033.364	-1795
1033.429	-1886
1033.494	-924
1033.559	-556
1033.624	-1592
1033.688	-1630
1033.753	-1913
1033.818	-1194
1033.883	-2011
1033.948	-948
1034.013	-2000
1034.077	-260
1034.142	-1054
1034.207	-471
1034.271	-214
1034.336	1576
1034.400	2222
1034.465	1778
1034.530	464
1034.594	483
1034.658	-678
1034.723	-1182
1034.787	-1043
1034.852	-1668
1034.916	-590
1034.981	-1393
1035.045	-1336
1035.109	-1062
1035.173	-1917
1035.238	-1906
1035.302	-1749
1035.366	-1627
1035.430	-1670
1035.495	-1633
1035.559	-1150
1035.623	-1331
1035.687	-1594
1035.751	-2494
1035.815	-1983
1035.879	-1706
1035.943	-1852
1036.007	-1899
1036.071	-1594
1036.135	-2022
1036.198	-1540
1036.262	-1826
1036.326	-1498
1036.390	-2402
1036.454	-2020
1036.517	-1302
1036.581	-1766
1036.645	-760
1036.709	-1027
1036.772	30
1036.836	-834
1036.900	-1042
1036.963	-1859
1037.026	-1489
1037.090	-1603
1037.154	-1730
1037.217	-1682
1037.280	-1930
1037.344	-2134
1037.407	-992
1037.471	-1702
1037.534	-1206
1037.597	-1587
1037.661	-1214
1037.724	-2208
1037.787	-2092
1037.850	-1644
1037.913	-1880
1037.977	-1096
1038.040	-2302
1038.103	-1743
1038.166	-1392
1038.229	-1534
1038.292	-1821
1038.355	-1917
1038.418	-1929
1038.481	-1619
1038.544	-1981
1038.607	-891
1038.670	-2465
1038.732	-1008
1038.795	-1998
1038.858	-2010
1038.921	-1450
1038.984	-1791
1039.046	-1036
1039.109	-1490
1039.172	-1315
1039.234	-2284
1039.297	-858
1039.360	-2064
1039.422	-2110
1039.485	-2409
1039.547	-1810
1039.610	-2080
1039.672	-1106
1039.734	-2211
1039.797	-2109
1039.859	-2332
1039.922	-1986
1039.984	-2180
1040.046	-1208
1040.109	-2631
1040.171	-2363
1040.233	-1171
1040.295	-2022
1040.358	-1673
1040.420	-1538
1040.482	-1596
1040.544	-2480
1040.606	-1680
1040.668	-2504
1040.730	-1801
1040.792	-494
1040.854	-2255
1040.916	-1598
1040.978	-2072
1041.040	-1809
1041.102	-2473
1041.164	-1145
1041.225	-2210
1041.287	-1487
1041.349	-1977
1041.411	-1920
1041.472	-2377
1041.534	-1095
1041.596	-2297
1041.657	-853
1041.719	-1516
1041.781	-1919
1041.842	-1556
1041.904	-2263
1041.965	-1528
1042.027	-952
1042.088	-2335
1042.150	-1862
1042.211	-1255
1042.272	-1767
1042.334	-1940
1042.395	-1566
1042.456	-1399
1042.518	-2099
1042.579	-1381
1042.640	-1364
1042.701	-1866
1042.763	-2674
1042.824	-1668
1042.885	-2290
1042.946	-1495
1043.007	-1554
1043.068	-2265
1043.129	-902
1043.190	-1787
1043.251	-2403
1043.312	-2691
1043.373	-1808
1043.434	-1610
1043.495	-1896
1043.556	-1443
1043.616	-1734
1043.677	-2684
1043.738	-1607
1043.799	-1630
1043.859	-1379
1043.920	-2001
1043.981	-1885
1044.041	-2287
1044.102	-2977
1044.162	-1402
1044.223	-2084
1044.284	-1987
1044.344	-1158
1044.405	-1779
1044.465	-1561
1044.525	-1859
1044.586	-1820
1044.646	-1715
1044.707	-1231
1044.767	-941
1044.827	-1609
1044.887	-1891
1044.948	-1482
1045.008	-2064
1045.068	-1362
1045.128	-2020
1045.188	-1431
1045.249	-1328
1045.309	-1697
1045.369	-1376
1045.429	-1848
1045.489	-1431
1045.549	-1171
1045.609	-886
1045.669	-1544
1045.729	-2423
1045.789	-1222
1045.848	-1939
1045.908	-1237
1045.968	-726
1046.028	-1550
1046.088	-1487
1046.147	-1080
1046.207	-878
1046.267	-2281
1046.326	-707
1046.386	-851
1046.446	-1036
1046.505	-971
1046.565	-1322
1046.624	-1537
1046.684	-879
1046.743	-1426
1046.803	-900
1046.862	-871
1046.922	0
