'Start Wavelength	183.907
'End Wavelength	1046.922
'Gate Delay	5.000
'Gate Width (ms)	1.050
'Laser Output Level	0.000
'X Position	0.000
'Y Position	0.000
'Z Position	0.000
'Grid Point Number	1.000
'Shot Number	100.000
183.907	753.000
183.977	307.000
184.047	312
184.116	487
184.186	658
184.256	-46
184.325	334
184.395	634
184.465	477
184.534	73
184.604	-33
184.674	221
184.743	-52
184.813	205
184.883	805
184.952	458
185.022	449
185.092	785
185.161	521
185.231	486
185.301	607
185.370	621
185.440	-87
185.509	202
185.579	722
185.649	700
185.718	281
185.788	716
185.857	-29
185.927	556
185.996	843
186.066	527
186.136	295
186.205	480
186.275	167
186.344	542
186.414	716
186.483	-98
186.553	508
186.622	1264
186.692	1551
186.761	691
186.831	650
186.900	228
186.970	833
187.039	599
187.109	1869
187.178	73
187.248	221
187.317	818
187.387	-235
187.456	703
187.526	985
187.595	718
187.664	241
187.734	1053
187.803	66
187.873	391
187.942	560
188.012	107
188.081	614
188.150	550
188.220	777
188.289	905
188.358	532
188.428	197
188.497	122
188.567	743
188.636	845
188.705	-22
188.775	392
188.844	489
188.913	796
188.983	134
189.052	261
189.121	219
189.191	836
189.260	238
189.329	1216
189.399	652
189.468	455
189.537	445
189.606	475
189.676	724
189.745	1038
189.814	281
189.883	496
189.953	570
190.022	417
190.091	1675
190.161	2902
190.230	450
190.299	141
190.368	396
190.437	158
190.507	268
190.576	148
190.645	89
190.714	130
190.783	33
190.853	819
190.922	52
190.991	741
191.060	-521
191.129	91
191.198	695
191.268	281
191.337	32
191.406	1024
191.475	304
191.544	-432
191.613	289
191.682	220
191.752	601
191.821	692
191.890	336
191.959	682
192.028	1019
192.097	54
192.166	165
192.235	242
192.304	103
192.373	150
192.442	370
192.511	1138
192.580	1050
192.650	1051
192.719	214
192.788	570
192.857	-127
192.926	-35
192.995	383
193.064	596
193.133	921
193.202	1152
193.271	1637
193.340	849
193.409	1410
193.478	1575
193.547	1033
193.615	678
193.684	1131
193.753	445
193.822	1119
193.891	477
193.960	-140
194.029	447
194.098	508
194.167	115
194.236	174
194.305	810
194.374	710
194.443	499
194.512	681
194.580	895
194.649	700
194.718	233
194.787	473
194.856	118
194.925	730
194.994	128
195.062	408
195.131	356
195.200	-448
195.269	1120
195.338	1545
195.407	484
195.475	963
195.544	400
195.613	1337
195.682	1061
195.751	1407
195.819	920
195.888	631
195.957	2061
196.026	437
196.094	259
196.163	515
196.232	854
196.301	736
196.369	598
196.438	639
196.507	889
196.576	192
196.644	518
196.713	830
196.782	48
196.850	487
196.919	-100
196.988	621
197.056	791
197.125	1353
197.194	84
197.262	35
197.331	17
197.400	696
197.468	230
197.537	409
197.606	1104
197.674	1362
197.743	2779
197.812	641
197.880	3443
197.949	1433
198.017	2937
198.086	1432
198.155	365
198.223	1635
198.292	2734
198.360	1317
198.429	602
198.497	1375
198.566	2880
198.635	2815
198.703	925
198.772	1038
198.840	4648
198.909	2154
198.977	837
199.046	1014
199.114	486
199.183	330
199.251	298
199.320	57
199.388	87
199.457	320
199.525	336
199.594	901
199.662	394
199.731	750
199.799	-56
199.867	526
199.936	-83
200.004	801
200.073	347
200.141	407
200.210	-204
200.278	592
200.346	701
200.415	527
200.483	999
200.552	1334
200.620	22
200.688	677
200.757	338
200.825	921
200.893	855
200.962	224
201.030	473
201.098	262
201.167	982
201.235	630
201.303	1075
201.372	1050
201.440	611
201.508	535
201.577	603
201.645	406
201.713	523
201.781	845
201.850	1438
201.918	111
201.986	659
202.055	1339
202.123	785
202.191	726
202.259	1086
202.327	1209
202.396	16
202.464	970
202.532	1476
202.600	5143
202.669	2072
202.737	937
202.805	609
202.873	1076
202.941	1049
203.009	472
203.078	563
203.146	191
203.214	-6
203.282	58
203.350	764
203.418	894
203.487	1002
203.555	833
203.623	-122
203.691	197
203.759	17
203.827	-190
203.895	226
203.963	888
204.031	647
204.099	779
204.168	868
204.236	797
204.304	336
204.372	798
204.440	1302
204.508	325
204.576	19
204.644	582
204.712	256
204.780	645
204.848	335
204.916	238
204.984	344
205.052	525
205.120	764
205.188	1139
205.256	-232
205.324	260
205.392	113
205.460	1269
205.528	425
205.596	113
205.664	332
205.732	1134
205.799	5395
205.867	3356
205.935	1243
206.003	609
206.071	413
206.139	1360
206.207	1461
206.275	320
206.343	661
206.411	454
206.478	1063
206.546	852
206.614	542
206.682	169
206.750	567
206.818	1336
206.885	912
206.953	-1
207.021	805
207.089	1380
207.157	161
207.225	373
207.292	884
207.360	472
207.428	1009
207.496	234
207.563	695
207.631	901
207.699	300
207.767	357
207.834	909
207.902	1351
207.970	443
208.038	505
208.105	678
208.173	462
208.241	131
208.309	776
208.376	1397
208.444	3096
208.512	695
208.579	1350
208.647	934
208.715	2052
208.782	664
208.850	799
208.918	800
208.985	596
209.053	1367
209.120	238
209.188	396
209.256	544
209.323	726
209.391	1931
209.459	1752
209.526	524
209.594	1651
209.661	967
209.729	898
209.796	826
209.864	1033
209.932	867
209.999	1081
210.067	1461
210.134	1168
210.202	1071
210.269	2162
210.337	1529
210.404	246
210.472	960
210.539	1308
210.607	880
210.674	860
210.742	689
210.809	1024
210.877	1735
210.944	1672
211.012	890
211.079	1702
211.146	741
211.214	1244
211.281	1939
211.349	898
211.416	1537
211.484	1025
211.551	1148
211.618	467
211.686	1496
211.753	937
211.821	1809
211.888	617
211.955	1620
212.023	645
212.090	1194
212.157	202
212.225	1331
212.292	2642
212.359	7889
212.427	17389
212.494	4812
212.561	1093
212.629	1609
212.696	1568
212.763	1681
212.831	1199
212.898	1375
212.965	1472
213.032	1054
213.100	1572
213.167	1419
213.234	1861
213.301	580
213.369	711
213.436	1227
213.503	636
213.570	1505
213.638	748
213.705	88
213.772	272
213.839	2363
213.906	1070
213.973	1956
214.041	240
214.108	930
214.175	674
214.242	1312
214.309	936
214.376	1077
214.444	1029
214.511	1487
214.578	1601
214.645	1189
214.712	1473
214.779	996
214.846	910
214.913	1826
214.980	694
215.048	2404
215.115	1577
215.182	1370
215.249	1095
215.316	1103
215.383	916
215.450	1358
215.517	1121
215.584	958
215.651	1410
215.718	1362
215.785	2360
215.852	1439
215.919	1237
215.986	1961
216.053	934
216.120	486
216.187	938
216.254	1979
216.321	1447
216.388	1349
216.455	1440
216.522	1308
216.589	1505
216.656	4450
216.722	2925
216.789	1940
216.856	1916
216.923	1069
216.990	1320
217.057	1564
217.124	2678
217.191	1407
217.258	2240
217.324	3373
217.391	3505
217.458	2119
217.525	1249
217.592	725
217.659	1117
217.725	1575
217.792	4021
217.859	1741
217.926	1029
217.993	1533
218.059	1182
218.126	770
218.193	723
218.260	581
218.327	438
218.393	1308
218.460	520
218.527	164
218.594	2055
218.660	4127
218.727	3454
218.794	893
218.860	1014
218.927	649
218.994	1300
219.061	1126
219.127	2238
219.194	2954
219.261	710
219.327	346
219.394	1092
219.461	382
219.527	365
219.594	2227
219.661	1514
219.727	879
219.794	174
219.860	835
219.927	739
219.994	2688
220.060	4029
220.127	1973
220.193	1614
220.260	1442
220.326	2031
220.393	3565
220.460	3953
220.526	2394
220.593	707
220.659	1906
220.726	2474
220.792	8884
220.859	4336
220.925	5570
220.992	7885
221.058	11369
221.125	11054
221.191	7982
221.258	2429
221.324	1797
221.391	1244
221.457	612
221.524	1344
221.590	2968
221.657	11742
221.723	5059
221.789	7672
221.856	4581
221.922	2127
221.989	2015
222.055	742
222.121	587
222.188	2246
222.254	761
222.321	1258
222.387	468
222.453	163
222.520	797
222.586	2
222.652	1121
222.719	-152
222.785	965
222.851	616
222.918	823
222.984	773
223.050	634
223.116	502
223.183	947
223.249	48
223.315	627
223.382	826
223.448	507
223.514	-55
223.580	78
223.647	627
223.713	831
223.779	387
223.845	626
223.911	554
223.978	509
224.044	1086
224.110	242
224.176	809
224.242	685
224.309	441
224.375	383
224.441	762
224.507	684
224.573	379
224.639	472
224.705	558
224.772	639
224.838	769
224.904	1571
224.970	930
225.036	1578
225.102	386
225.168	546
225.234	1557
225.300	791
225.366	395
225.432	206
225.499	798
225.565	824
225.631	610
225.697	1135
225.763	1267
225.829	1028
225.895	1537
225.961	2883
226.027	2584
226.093	1220
226.159	2166
226.225	2646
226.291	7405
226.357	10609
226.423	4801
226.489	2811
226.554	2089
226.620	2390
226.686	2409
226.752	3803
226.818	6407
226.884	18157
226.950	10281
227.016	3829
227.082	3054
227.148	2573
227.214	1971
227.279	2016
227.345	1266
227.411	1716
227.477	1918
227.543	4761
227.609	5209
227.674	1690
227.740	1391
227.806	1745
227.872	1491
227.938	1626
228.003	2282
228.069	867
228.135	678
228.201	382
228.267	1179
228.332	770
228.398	2226
228.464	986
228.530	655
228.595	104
228.661	1200
228.727	2690
228.792	1695
228.858	971
228.924	1302
228.990	2011
229.055	1451
229.121	1608
229.187	1478
229.252	1562
229.318	1069
229.384	1571
229.449	1355
229.515	146
229.581	-906
229.646	1646
229.712	1620
229.777	5904
229.843	4106
229.909	2783
229.974	2377
230.040	3062
230.105	1996
230.171	1667
230.236	2045
230.302	4451
230.368	3132
230.433	1658
230.499	1610
230.564	2068
230.630	1145
230.695	617
230.761	1221
230.826	1139
230.892	3001
230.957	1117
231.023	713
231.088	1603
231.154	840
231.219	1742
231.284	2588
231.350	1963
231.415	661
231.481	848
231.546	491
231.612	1174
231.677	919
231.742	-211
231.808	775
231.873	1139
231.939	935
232.004	3672
232.069	2201
232.135	871
232.200	1121
232.265	574
232.331	232
232.396	552
232.461	266
232.527	1042
232.592	673
232.657	1359
232.723	3299
232.788	945
232.853	863
232.918	710
232.984	76
233.049	951
233.114	3045
233.179	2140
233.245	6333
233.310	4368
233.375	2138
233.440	567
233.506	382
233.571	542
233.636	641
233.701	1123
233.766	5517
233.832	3621
233.897	1294
233.962	1018
234.027	1535
234.092	1335
234.157	1599
234.222	1348
234.288	5496
234.353	13149
234.418	9061
234.483	4712
234.548	2927
234.613	1948
234.678	2556
234.743	4403
234.808	13882
234.873	5096
234.938	1810
235.004	1794
235.069	1402
235.134	1901
235.199	1347
235.264	1108
235.329	1289
235.394	1083
235.459	3286
235.524	1493
235.589	1719
235.654	1049
235.719	829
235.784	1768
235.849	2367
235.913	6696
235.978	8456
236.043	5767
236.108	2314
236.173	2952
236.238	1664
236.303	1918
236.368	1489
236.433	5590
236.498	6794
236.563	3205
236.627	7037
236.692	23536
236.757	11564
236.822	6206
236.887	4686
236.952	3442
237.017	2880
237.081	3081
237.146	3874
237.211	7325
237.276	27456
237.341	35553
237.405	12864
237.470	6316
237.535	4596
237.600	2958
237.664	1839
237.729	2062
237.794	3619
237.859	4806
237.923	5214
237.988	3386
238.053	5933
238.118	5600
238.182	19545
238.247	10523
238.312	6210
238.376	4462
238.441	2774
238.506	3281
238.570	780
238.635	2041
238.700	1301
238.764	2129
238.829	9659
238.893	7530
238.958	3457
239.023	2630
239.087	2181
239.152	1664
239.216	969
239.281	1743
239.346	1584
239.410	1867
239.475	3649
239.539	19654
239.604	8947
239.668	3630
239.733	1438
239.797	2933
239.862	9221
239.926	13049
239.991	3794
240.055	1703
240.120	1378
240.184	1729
240.249	1296
240.313	1551
240.378	2152
240.442	13335
240.507	13033
240.571	3181
240.635	10101
240.700	7612
240.764	2538
240.829	2032
240.893	1080
240.957	1932
241.022	12654
241.086	15765
241.151	5406
241.215	2334
241.279	5057
241.344	7209
241.408	3349
241.472	2040
241.537	2665
241.601	1883
241.665	897
241.730	1857
241.794	1473
241.858	1283
241.922	1012
241.987	1901
242.051	1072
242.115	1803
242.179	1557
242.244	735
242.308	1298
242.372	1226
242.436	1918
242.501	1563
242.565	1674
242.629	376
242.693	1888
242.757	757
242.822	2119
242.886	1961
242.950	1714
243.014	1592
243.078	1949
243.142	2056
243.206	2122
243.271	2016
243.335	1763
243.399	3228
243.463	26189
243.527	42375
243.591	10110
243.655	4515
243.719	2621
243.783	2873
243.847	5899
243.911	6739
243.975	8774
244.040	4314
244.104	2311
244.168	2335
244.232	4641
244.296	6039
244.360	5479
244.424	3557
244.488	2654
244.552	2202
244.615	1010
244.679	1795
244.743	3217
244.807	2328
244.871	1715
244.935	1946
244.999	1140
245.063	1774
245.127	2624
245.191	5115
245.255	3056
245.319	3862
245.383	1777
245.446	1945
245.510	1038
245.574	2197
245.638	2495
245.702	3694
245.766	7456
245.829	3482
245.893	2755
245.957	1859
246.021	2085
246.085	2211
246.149	3339
246.212	13494
246.276	13952
246.340	5037
246.404	3894
246.467	5469
246.531	6536
246.595	3075
246.659	3464
246.722	2934
246.786	4440
246.850	5413
246.913	5322
246.977	2768
247.041	3222
247.104	2504
247.168	3437
247.232	12461
247.295	22513
247.359	7143
247.423	5409
247.486	7598
247.550	3550
247.614	3847
247.677	4531
247.741	2438
247.804	3130
247.868	3205
247.932	13073
247.995	18093
248.059	5413
248.122	3536
248.186	4485
248.249	9109
248.313	39470
248.376	28522
248.440	18413
248.503	5648
248.567	6073
248.630	8753
248.694	10105
248.757	18318
248.821	34240
248.884	15075
248.948	21707
249.011	27022
249.075	44791
249.138	27726
249.202	10143
249.265	6740
249.328	10171
249.392	5991
249.455	4854
249.519	4493
249.582	5508
249.645	9872
249.709	6700
249.772	5347
249.835	4968
249.899	5216
249.962	4473
250.025	4632
250.089	17145
250.152	14443
250.215	8047
250.279	5494
250.342	6009
250.405	4808
250.468	4926
250.532	7085
250.595	11451
250.658	63825
250.721	59543
250.785	19438
250.848	10842
250.911	6656
250.974	6585
251.038	13942
251.101	19373
251.164	9871
251.227	10256
251.290	8966
251.354	16062
251.417	78844
251.480	43999
251.543	44448
251.606	132451
251.669	58273
251.732	24194
251.795	29751
251.859	34042
251.922	76670
251.985	27555
252.048	12585
252.111	8976
252.174	9535
252.237	22855
252.300	38391
252.363	57669
252.426	90892
252.489	29023
252.552	15780
252.615	11106
252.678	13727
252.741	32749
252.804	54074
252.867	91309
252.930	45376
252.993	23577
253.056	13868
253.119	9650
253.182	8806
253.245	14431
253.308	9964
253.371	11294
253.434	8961
253.497	11130
253.559	21468
253.622	11246
253.685	15883
253.748	11550
253.811	7307
253.874	10662
253.937	7517
254.000	6112
254.062	17450
254.125	18259
254.188	17210
254.251	10432
254.314	7091
254.376	14791
254.439	11651
254.502	9802
254.565	17069
254.628	21487
254.690	11308
254.753	6684
254.816	6082
254.878	6290
254.941	18702
255.004	11895
255.067	6765
255.129	5540
255.192	3585
255.255	3197
255.317	3653
255.380	2685
255.443	2318
255.505	1588
255.568	2486
255.631	2904
255.693	2566
255.756	1923
255.819	2939
255.881	1687
255.944	1808
256.006	2422
256.069	1640
256.132	1669
256.194	5495
256.257	13602
256.319	9938
256.382	6587
256.444	4171
256.507	3234
256.569	2148
256.632	3058
256.694	4967
256.757	15936
256.819	26671
256.882	7687
256.944	4171
257.007	3570
257.069	5252
257.132	2681
257.194	2677
257.257	2557
257.319	2711
257.381	1991
257.444	10343
257.506	45311
257.569	37533
257.631	30386
257.693	12477
257.756	6650
257.818	5539
257.880	2174
257.943	3583
258.005	2501
258.067	2841
258.130	1858
258.192	4743
258.254	8440
258.317	3503
258.379	3753
258.441	15001
258.503	7624
258.566	24359
258.628	17695
258.690	4376
258.753	4744
258.815	6866
258.877	2712
258.939	3104
259.001	2799
259.064	2310
259.126	4255
259.188	5083
259.250	3955
259.312	7363
259.375	24416
259.437	8379
259.499	2937
259.561	3056
259.623	3265
259.685	2537
259.747	3662
259.809	23899
259.872	27821
259.934	53978
259.996	23922
260.058	6826
260.120	3455
260.182	3439
260.244	2298
260.306	1652
260.368	2475
260.430	3192
260.492	5133
260.554	19278
260.616	12439
260.678	30360
260.740	24697
260.802	6480
260.864	4530
260.926	2914
260.988	3758
261.050	3534
261.112	8140
261.174	35262
261.236	17438
261.298	5838
261.359	18751
261.421	15509
261.483	4235
261.545	3629
261.607	2786
261.669	2679
261.731	12744
261.793	17546
261.854	5637
261.916	4167
261.978	3029
262.040	3459
262.102	3105
262.164	8643
262.225	4244
262.287	3251
262.349	10018
262.411	5016
262.472	2590
262.534	13390
262.596	17716
262.658	4248
262.719	2837
262.781	8507
262.843	19653
262.904	5388
262.966	4117
263.028	5790
263.090	54553
263.151	72228
263.213	17886
263.275	9157
263.336	4227
263.398	3676
263.459	2050
263.521	2622
263.583	7739
263.644	3774
263.706	1725
263.767	1146
263.829	1717
263.891	1230
263.952	1418
264.014	1206
264.075	2403
264.137	4651
264.198	2685
264.260	1295
264.321	1548
264.383	7591
264.444	7619
264.506	2503
264.567	786
264.629	4696
264.690	5177
264.752	2470
264.813	2453
264.875	1269
264.936	1477
264.998	1682
265.059	1351
265.120	1545
265.182	2957
265.243	16823
265.305	7872
265.366	3201
265.427	1601
265.489	1557
265.550	665
265.611	2076
265.673	1769
265.734	690
265.795	2016
265.857	1013
265.918	1055
265.979	5327
266.040	27768
266.102	11954
266.163	4373
266.224	4028
266.286	2257
266.347	1799
266.408	1786
266.469	2520
266.530	1167
266.592	1150
266.653	5609
266.714	6396
266.775	1852
266.836	1073
266.898	1738
266.959	3423
267.020	978
267.081	2033
267.142	2506
267.203	1560
267.264	699
267.326	1957
267.387	1335
267.448	649
267.509	1574
267.570	1226
267.631	367
267.692	350
267.753	2114
267.814	999
267.875	7300
267.936	8836
267.997	3303
268.058	2785
268.119	1660
268.180	1940
268.241	-100
268.302	901
268.363	803
268.424	2103
268.485	2081
268.546	182
268.607	-128
268.668	887
268.729	611
268.790	1716
268.851	1461
268.912	7799
268.972	5620
269.033	2756
269.094	1064
269.155	1160
269.216	1210
269.277	1666
269.338	1248
269.398	1693
269.459	1610
269.520	2967
269.581	4301
269.642	4189
269.702	2615
269.763	1927
269.824	1198
269.885	2819
269.945	3845
270.006	1570
270.067	1591
270.128	1144
270.188	1424
270.249	2124
270.310	816
270.370	2223
270.431	1805
270.492	1120
270.553	2428
270.613	6468
270.674	9900
270.734	2977
270.795	1952
270.856	4537
270.916	1944
270.977	1829
271.038	3022
271.098	2618
271.159	6819
271.219	3354
271.280	2062
271.340	2078
271.401	4408
271.462	9197
271.522	3588
271.583	3077
271.643	2400
271.704	2455
271.764	2241
271.825	9670
271.885	40877
271.946	32505
272.006	9878
272.066	27321
272.127	28664
272.187	7465
272.248	3773
272.308	7799
272.369	26897
272.429	8710
272.489	9144
272.550	6840
272.610	9438
272.671	5187
272.731	8984
272.791	10881
272.852	4614
272.912	4601
272.972	2775
273.033	4145
273.093	5520
273.153	5006
273.214	3224
273.274	4040
273.334	23868
273.394	28956
273.455	11239
273.515	16281
273.575	24588
273.635	9547
273.696	23266
273.756	33045
273.816	9621
273.876	7543
273.936	28774
273.997	26535
274.057	6810
274.117	5613
274.177	10975
274.237	48575
274.297	29478
274.358	24889
274.418	29231
274.478	15023
274.538	6155
274.598	8228
274.658	34330
274.718	30750
274.778	9349
274.838	6337
274.898	25236
274.958	47942
275.018	41137
275.078	18291
275.138	6816
275.198	4623
275.258	4147
275.318	5778
275.378	8413
275.438	7325
275.498	5516
275.558	32051
275.618	41271
275.678	19566
275.738	13214
275.798	8127
275.858	4272
275.918	3435
275.978	4917
276.038	3257
276.098	2857
276.157	10157
276.217	19054
276.277	7611
276.337	6032
276.397	4161
276.457	4570
276.517	3302
276.576	2290
276.636	3284
276.696	5428
276.756	14786
276.815	7500
276.875	5006
276.935	6102
276.995	3850
277.055	3201
277.114	3510
277.174	8104
277.234	16927
277.293	5518
277.353	3911
277.413	2878
277.472	3860
277.532	4109
277.592	5198
277.651	32949
277.711	32665
277.771	15233
277.830	54344
277.890	25007
277.950	42578
278.009	80178
278.069	21566
278.128	39916
278.188	33640
278.248	19208
278.307	53018
278.367	19853
278.426	8090
278.486	5666
278.545	3942
278.605	4628
278.664	3887
278.724	4629
278.783	22932
278.843	35280
278.902	10200
278.962	7415
279.021	7862
279.081	14437
279.140	10727
279.199	7676
279.259	7913
279.318	9470
279.378	11267
279.437	26834
279.496	108968
279.556	280212
279.615	142684
279.675	44553
279.734	28436
279.793	52248
279.853	58187
279.912	19018
279.971	11871
280.031	10911
280.090	32236
280.149	35851
280.208	41971
280.268	207561
280.327	122488
280.386	35389
280.445	28530
280.505	18814
280.564	10286
280.623	8191
280.682	14933
280.742	14781
280.801	5530
280.860	5591
280.919	5158
280.978	4239
281.037	4882
281.097	4754
281.156	4226
281.215	3922
281.274	7363
281.333	31108
281.392	13838
281.451	5510
281.510	4522
281.569	4605
281.628	2925
281.688	3578
281.747	5151
281.806	3632
281.865	3821
281.924	3419
281.983	3229
282.042	2307
282.101	3473
282.160	3178
282.219	2359
282.278	4423
282.337	14299
282.396	5916
282.454	3133
282.513	6714
282.572	20367
282.631	8356
282.690	5010
282.749	3709
282.808	4412
282.867	4553
282.926	4827
282.985	2944
283.043	2512
283.102	3221
283.161	3871
283.220	14628
283.279	20857
283.338	6512
283.396	4928
283.455	4821
283.514	5916
283.573	8592
283.631	5861
283.690	3761
283.749	5130
283.808	11091
283.866	9047
283.925	5011
283.984	5366
284.043	7690
284.101	6996
284.160	5079
284.219	7138
284.277	6668
284.336	13509
284.395	34364
284.453	20819
284.512	11056
284.570	14864
284.629	12639
284.688	14038
284.746	14202
284.805	17984
284.863	22908
284.922	27482
284.981	33259
285.039	45356
285.098	83672
285.156	196774
285.215	319233
285.273	256367
285.332	153137
285.390	94283
285.449	59311
285.507	39746
285.566	29768
285.624	22884
285.683	18446
285.741	15235
285.799	12945
285.858	11104
285.916	10030
285.975	9304
286.033	7366
286.091	7603
286.150	6482
286.208	6704
286.267	7591
286.325	8188
286.383	10874
286.442	7541
286.500	6087
286.558	5271
286.616	4845
286.675	7304
286.733	7286
286.791	5525
286.850	6493
286.908	9057
286.966	11146
287.024	5721
287.083	4663
287.141	3718
287.199	5149
287.257	6033
287.315	4746
287.374	6397
287.432	13588
287.490	7182
287.548	6262
287.606	4348
287.664	5484
287.723	7786
287.781	7345
287.839	4735
287.897	5926
287.955	7009
288.013	9699
288.071	25084
288.129	165889
288.187	287549
288.245	95797
288.303	37220
288.361	22200
288.419	16274
288.477	9962
288.535	7634
288.593	5786
288.651	4694
288.709	3781
288.767	4470
288.825	4249
288.883	3996
288.941	4534
288.999	3774
289.057	2989
289.115	3281
289.173	3166
289.231	4362
289.289	4034
289.346	4382
289.404	4496
289.462	8378
289.520	6903
289.578	3899
289.636	2437
289.694	3067
289.751	1866
289.809	3468
289.867	3370
289.925	4852
289.983	4937
290.040	2682
290.098	2843
290.156	4023
290.214	4132
290.271	3163
290.329	3059
290.387	1037
290.444	1614
290.502	1889
290.560	1663
290.617	2380
290.675	3400
290.733	2482
290.790	2749
290.848	2561
290.906	3653
290.963	3440
291.021	3637
291.078	3337
291.136	3067
291.194	15558
291.251	20397
291.309	6076
291.366	2899
291.424	3678
291.481	4254
291.539	4904
291.596	3186
291.654	2489
291.711	2113
291.769	4240
291.826	8344
291.884	4244
291.941	2679
291.999	3095
292.056	4443
292.114	3665
292.171	2953
292.228	3557
292.286	5384
292.343	9728
292.401	10607
292.458	7071
292.515	5576
292.573	6223
292.630	5727
292.687	5573
292.745	3092
292.802	4769
292.859	15508
292.917	29739
292.974	14061
293.031	5514
293.089	3765
293.146	3031
293.203	3183
293.260	3501
293.318	7393
293.375	5372
293.432	3302
293.489	2812
293.546	2655
293.604	6011
293.661	30890
293.718	49501
293.775	19740
293.832	11922
293.889	11334
293.947	13387
294.004	6411
294.061	6918
294.118	16597
294.175	26235
294.232	24070
294.289	10530
294.346	6372
294.403	6110
294.460	6007
294.517	5076
294.574	3450
294.631	2457
294.688	4097
294.745	21203
294.802	60095
294.859	38619
294.916	22824
294.973	13726
295.030	10695
295.087	7696
295.144	5083
295.201	4673
295.258	3481
295.315	5642
295.372	31100
295.429	38096
295.486	14422
295.542	8331
295.599	21033
295.656	22920
295.713	29121
295.770	32534
295.827	12040
295.883	6892
295.940	6779
295.997	12761
296.054	9100
296.111	5586
296.167	4585
296.224	3669
296.281	2570
296.338	3144
296.394	3227
296.451	4990
296.508	22711
296.564	25525
296.621	19525
296.678	62123
296.734	54696
296.791	20611
296.848	10405
296.904	13518
296.961	30678
297.018	49413
297.074	26014
297.131	11359
297.187	8243
297.244	13357
297.301	70842
297.357	74533
297.414	24512
297.470	11719
297.527	8402
297.583	7495
297.640	7450
297.696	4368
297.753	4299
297.809	2586
297.866	2827
297.922	3498
297.979	2199
298.035	5040
298.092	10910
298.148	31592
298.204	20645
298.261	10814
298.317	29848
298.374	59299
298.430	27648
298.486	15677
298.543	10663
298.599	11666
298.656	14479
298.712	26101
298.768	48025
298.824	26681
298.881	11185
298.937	6722
298.993	6950
299.050	7492
299.106	6603
299.162	6791
299.218	7013
299.275	5103
299.331	5088
299.387	18989
299.443	64079
299.500	49346
299.556	22266
299.612	11310
299.668	11916
299.724	16887
299.780	14732
299.837	8038
299.893	15864
299.949	52530
300.005	43791
300.061	57304
300.117	70148
300.173	31353
300.229	16895
300.285	21703
300.341	19261
300.397	11683
300.453	7981
300.510	7426
300.566	6657
300.622	9900
300.678	34656
300.734	47654
300.790	52899
300.845	48155
300.901	36836
300.957	50815
301.013	30786
301.069	14842
301.125	10883
301.181	10866
301.237	8593
301.293	6844
301.349	5678
301.405	5800
301.461	8991
301.516	12199
301.572	11674
301.628	14100
301.684	13164
301.740	26227
301.796	29614
301.851	23465
301.907	33114
301.963	28999
302.019	77729
302.074	166691
302.130	130834
302.186	60796
302.242	27485
302.297	17180
302.353	20118
302.409	33026
302.464	24071
302.520	27007
302.576	64728
302.631	54799
302.687	29919
302.743	14013
302.798	8374
302.854	7155
302.910	7331
302.965	9417
303.021	18178
303.076	17415
303.132	23427
303.187	22769
303.243	12282
303.299	7153
303.354	5647
303.410	6407
303.465	5624
303.521	4736
303.576	4844
303.632	6775
303.687	23545
303.743	54983
303.798	34290
303.853	16312
303.909	8428
303.964	7841
304.020	15021
304.075	17536
304.130	19628
304.186	31393
304.241	30439
304.297	23188
304.352	12710
304.358	12262
304.407	8631
304.449	8988
304.463	9117
304.518	8052
304.539	7577
304.573	6823
304.629	6805
304.630	6955
304.684	13868
304.720	37775
304.739	50027
304.794	50049
304.811	42593
304.850	24607
304.902	11859
304.905	11047
304.960	8477
304.992	8292
305.015	8166
305.071	8370
305.083	7890
305.126	6135
305.173	4446
305.181	4181
305.236	4010
305.264	4720
305.292	5436
305.347	7711
305.354	7855
305.402	8754
305.445	8781
305.457	8776
305.512	9548
305.535	9317
305.567	9019
305.622	8769
305.626	9405
305.678	20506
305.716	43576
305.733	53080
305.788	45121
305.807	41797
305.843	35254
305.897	53224
305.898	53467
305.953	40363
305.988	29124
306.008	22544
306.063	13295
306.078	12070
306.118	9426
306.168	6380
306.173	6109
306.228	5008
306.259	4611
306.283	4368
306.338	4229
306.349	4367
306.393	4779
306.440	5151
306.448	5208
306.503	4801
306.530	5446
306.558	6949
306.613	17355
306.620	19032
306.668	29466
306.711	41007
306.723	43455
306.778	30731
306.801	24869
306.833	17145
306.888	8645
306.892	8375
306.943	6107
306.982	5367
306.997	5139
307.052	5002
307.072	5074
307.107	5500
307.162	6340
307.163	6370
307.217	9422
307.253	12262
307.272	13289
307.327	13138
307.343	12585
307.381	10533
307.434	8259
307.436	8359
307.491	18878
307.524	28870
307.546	33661
307.600	31266
307.614	28368
307.655	17670
307.704	9343
307.710	8800
307.765	8460
307.795	11387
307.819	15276
307.874	23432
307.885	23370
307.929	16499
307.975	11106
307.984	10841
308.038	11784
308.065	15006
308.093	21707
308.148	60926
308.156	71372
308.202	138018
308.246	147655
308.257	141672
308.312	81306
308.336	61393
308.366	48370
308.421	29632
308.426	28626
308.475	19220
308.517	14293
308.530	13054
308.585	11081
308.607	10474
308.639	9889
308.694	9972
308.697	10256
308.748	19414
308.787	27368
308.803	28017
308.857	21475
308.877	19297
308.912	15406
308.967	12229
308.967	12256
309.021	15938
309.058	21219
309.076	25192
309.130	43242
309.148	52345
309.185	84396
309.238	163101
309.239	164013
309.293	204250
309.328	192013
309.348	163397
309.402	83344
309.418	63830
309.457	43572
309.508	29022
309.511	28280
309.566	26101
309.598	29031
309.620	33652
309.674	54322
309.688	58199
309.729	58810
309.778	48418
309.783	46957
309.837	31638
309.868	24991
309.892	23300
309.946	27893
309.959	30580
310.001	41843
310.049	47244
310.055	45913
310.109	29611
310.139	20847
310.163	15949
310.218	9656
310.229	8790
310.272	7025
310.319	5885
310.326	5734
310.381	5245
310.409	5242
310.435	4836
310.489	4015
310.499	3884
310.543	3946
310.589	4557
310.598	4523
310.652	4177
310.679	3987
310.706	3580
310.760	2826
310.769	2721
310.814	2102
310.859	1705
310.868	1739
310.923	1834
310.948	2029
310.977	2425
311.031	3444
311.038	3575
311.085	3459
311.128	3201
311.139	3098
311.193	2649
311.218	2561
311.247	2474
311.301	2204
311.308	2213
311.356	2215
311.398	2068
311.410	2081
311.464	2336
311.488	2443
311.518	2176
311.572	1791
311.578	1780
311.626	2578
311.668	3200
311.680	3149
311.734	2978
311.758	2950
311.788	3114
311.842	3392
311.847	3447
311.896	3465
311.937	3586
311.950	3595
312.004	3693
312.027	3759
312.058	3170
312.112	2195
312.117	2120
312.165	1895
312.207	1751
312.297	2488
312.386	2309
312.476	2394
312.566	4693
312.656	2198
312.745	1320
312.835	2003
312.925	1905
313.015	2116
313.104	3102
313.194	1679
313.284	2248
313.374	2724
313.463	2252
313.553	1388
313.643	1015
313.732	1562
313.822	1940
313.912	1540
314.001	1655
314.091	2498
314.180	2608
314.270	3036
314.360	2774
314.449	3758
314.539	1270
314.628	2276
314.718	1937
314.808	3575
314.897	1870
314.987	2219
315.076	2690
315.166	3001
315.255	3913
315.345	3261
315.434	4060
315.524	3311
315.613	3914
315.703	4447
315.792	8095
315.881	28604
315.971	13576
316.060	6183
316.150	11949
316.239	14078
316.328	6167
316.418	1673
316.507	1947
316.597	2087
316.686	3366
316.775	4590
316.865	15563
316.954	4045
317.043	2206
317.133	1522
317.222	2011
317.311	1686
317.400	1410
317.490	2965
317.579	3108
317.668	2236
317.757	5079
317.847	13465
317.936	51920
318.025	22877
318.114	9770
318.203	6537
318.293	4615
318.382	9293
318.471	7704
318.560	9527
318.649	19248
318.738	6214
318.828	2885
318.917	3510
319.006	3981
319.095	14058
319.184	23551
319.273	16661
319.362	8241
319.451	2397
319.540	2583
319.629	5071
319.718	10377
319.807	3524
319.896	7505
319.985	30347
320.074	15468
320.163	3762
320.252	8611
320.341	4728
320.430	3626
320.519	5151
320.608	2808
320.697	2871
320.786	1929
320.875	3079
320.964	4396
321.053	6834
321.142	9556
321.230	11843
321.319	6936
321.408	17013
321.497	9811
321.586	7031
321.675	11559
321.764	12176
321.852	5857
321.941	8569
322.030	7083
322.119	6106
322.207	19177
322.296	20907
322.385	8349
322.474	8007
322.562	21299
322.651	14480
322.740	6945
322.829	14554
322.917	18636
323.006	10640
323.095	5780
323.183	5312
323.272	7235
323.361	12966
323.449	58423
323.538	24670
323.626	35441
323.715	33122
323.804	7377
323.892	33111
323.981	23664
324.069	4908
324.158	15793
324.246	24307
324.335	4218
324.424	6741
324.512	3047
324.601	2702
324.689	5091
324.778	9812
324.866	14055
324.954	4392
325.043	1821
325.131	5645
325.220	14940
325.308	18249
325.397	11100
325.485	8116
325.574	1850
325.662	1288
325.750	1360
325.839	1965
325.927	2119
326.015	2604
326.104	4673
326.192	10404
326.280	1985
326.369	1993
326.457	1937
326.545	5677
326.634	2309
326.722	726
326.810	1858
326.898	1160
326.987	812
327.075	4787
327.163	7301
327.251	3721
327.340	2378
327.428	4479
327.516	1824
327.604	2129
327.692	2043
327.781	2466
327.869	5772
327.957	3671
328.045	2771
328.133	2166
328.221	2996
328.309	2249
328.397	1088
328.485	1987
328.574	2513
328.662	10784
328.750	9406
328.838	4054
328.926	1567
329.014	666
329.102	1802
329.190	5822
329.278	4582
329.366	1151
329.454	1284
329.542	1172
329.630	1129
329.718	1591
329.806	2332
329.893	2027
329.981	1360
330.069	705
330.157	5024
330.245	17465
330.333	11585
330.421	1850
330.509	2271
330.597	12173
330.684	11186
330.772	2366
330.860	3706
330.948	5325
331.036	2233
331.123	1274
331.211	999
331.299	1294
331.387	2857
331.475	7653
331.562	3679
331.650	1300
331.738	1741
331.825	4137
331.913	2064
332.001	778
332.089	1528
332.176	5256
332.264	16137
332.352	18421
332.439	2767
332.527	1897
332.614	1827
332.702	3010
332.790	1926
332.877	5816
332.965	20178
333.052	5239
333.140	3331
333.228	11620
333.315	3160
333.403	1417
333.490	8752
333.578	11084
333.665	12017
333.753	6355
333.840	1545
333.928	2490
334.015	8894
334.103	12479
334.190	43088
334.278	15330
334.365	4274
334.452	3173
334.540	1843
334.627	2848
334.715	5240
334.802	7038
334.889	56005
334.977	89008
335.064	9734
335.151	3051
335.239	2042
335.326	3171
335.413	11587
335.501	27611
335.588	3619
335.675	2194
335.762	2366
335.850	4696
335.937	4342
336.024	9745
336.111	61819
336.199	38829
336.286	4528
336.373	2348
336.460	1512
336.547	1465
336.635	2924
336.722	2210
336.809	2132
336.896	2479
336.983	7403
337.070	20005
337.157	36491
337.245	38224
337.332	43971
337.419	3310
337.506	1983
337.593	1894
337.680	4270
337.767	20362
337.854	6803
337.941	6190
338.028	14258
338.115	6564
338.202	2318
338.289	6746
338.376	43086
338.463	18274
338.550	9185
338.637	15805
338.724	5948
338.811	15740
338.898	3138
338.984	1166
339.071	1089
339.158	1942
339.245	5777
339.332	5076
339.419	6396
339.506	10856
339.593	1735
339.679	912
339.766	920
339.853	1425
339.940	4831
340.027	2126
340.113	1685
340.200	2553
340.287	2043
340.374	1917
340.460	4602
340.547	1824
340.634	2525
340.720	11274
340.807	10536
340.894	1537
340.980	1090
341.067	1695
341.154	1230
341.240	2690
341.327	6699
341.414	2356
341.500	2888
341.587	1425
341.674	1129
341.760	2805
341.847	4904
341.933	1833
342.020	493
342.106	253
342.193	954
342.279	3833
342.366	2526
342.452	4324
342.539	2597
342.625	4283
342.712	13915
342.798	7485
342.885	2457
342.971	520
343.058	630
343.144	1453
343.230	1447
343.317	1295
343.403	1621
343.490	567
343.576	500
343.662	1166
343.749	1856
343.835	1613
343.921	3659
344.008	25614
344.094	98000
344.180	27561
344.267	4618
344.353	14881
344.439	27131
344.525	7242
344.612	2766
344.698	1961
344.784	2077
344.870	826
344.957	546
345.043	2597
345.129	1430
345.215	3350
345.301	2295
345.387	2149
345.474	676
345.560	790
345.646	1574
345.732	1732
345.818	1472
345.904	2009
345.990	1448
346.076	2241
346.162	5625
346.249	2780
346.335	979
346.421	1885
346.507	4466
346.593	29659
346.679	10606
346.765	1393
346.851	1084
346.937	1479
347.023	645
347.108	1415
347.194	1663
347.280	1870
347.366	2055
347.452	5740
347.538	34476
347.624	27507
347.710	20845
347.796	5076
347.882	1615
347.967	862
348.053	1261
348.139	1507
348.225	1903
348.311	717
348.397	1363
348.482	2075
348.568	2072
348.654	464
348.740	1776
348.825	1256
348.911	3095
348.997	11350
349.083	39813
349.168	8648
349.254	1841
349.340	1544
349.425	565
349.511	1869
349.597	2382
349.682	3291
349.768	15519
349.854	11210
349.939	1526
350.025	427
350.110	1006
350.196	663
350.282	419
350.367	1001
350.453	2700
350.538	4506
350.624	1280
350.709	1491
350.795	354
350.880	1465
350.966	1312
351.051	2716
351.137	3558
351.222	1078
351.308	2788
351.393	14027
351.479	4735
351.564	1525
351.649	633
351.735	779
351.820	1222
351.906	539
351.991	1067
352.076	6440
352.162	15575
352.247	3568
352.332	1024
352.418	2846
352.503	4174
352.588	15324
352.673	19573
352.759	4166
352.844	2012
352.929	1825
353.014	3072
353.100	1519
353.185	3063
353.270	4566
353.355	5382
353.441	1782
353.526	1429
353.611	3943
353.696	6582
353.781	3331
353.866	1275
353.952	1851
354.037	2469
354.122	9222
354.207	9743
354.292	4132
354.377	1351
354.462	1019
354.547	1254
354.632	1767
354.717	2413
354.802	4345
354.887	2669
354.972	928
355.057	669
355.142	561
355.227	1006
355.312	2474
355.397	5168
355.482	14728
355.567	10487
355.652	4497
355.737	6503
355.822	16826
355.907	22233
355.991	2888
356.076	2081
356.161	1624
356.246	1248
356.331	1327
356.416	3399
356.501	29603
356.585	54859
356.670	7292
356.755	2979
356.840	3732
356.924	17381
357.009	98039
357.094	55623
357.179	6628
357.263	5242
357.348	3959
357.433	3268
357.517	3670
357.602	2078
357.687	2318
357.771	3939
357.856	14356
357.941	11312
358.025	12126
358.110	91899
358.195	67033
358.279	7070
358.364	3022
358.448	9243
358.533	32002
358.617	30169
358.702	26026
358.787	13040
358.871	4097
358.956	4250
359.040	1690
359.125	942
359.209	1465
359.294	5125
359.378	12635
359.462	4766
359.547	3093
359.631	2804
359.716	551
359.800	597
359.885	1524
359.969	1888
360.053	1368
360.138	565
360.222	2382
360.306	3883
360.391	4433
360.475	6230
360.559	17458
360.644	13751
360.728	11813
360.812	13451
360.896	63651
360.981	30038
361.065	11358
361.149	2482
361.233	1696
361.318	1754
361.402	2825
361.486	2322
361.570	1604
361.654	1707
361.739	5161
361.823	26430
361.907	74974
361.991	16284
362.075	3951
362.159	9230
362.243	7739
362.327	4943
362.411	8112
362.495	5241
362.580	2504
362.664	1104
362.748	1309
362.832	2008
362.916	2814
363.000	9422
363.084	35757
363.168	81763
363.252	24074
363.336	4173
363.420	4875
363.503	15691
363.587	31344
363.671	6425
363.755	2466
363.839	4336
363.923	2558
364.007	3751
364.091	6266
364.175	5983
364.258	30515
364.342	28903
364.426	23714
364.510	18371
364.594	7511
364.677	6581
364.761	41645
364.845	52508
364.929	9756
365.013	7470
365.096	4673
365.180	7631
365.264	6025
365.347	33234
365.431	22422
365.515	3373
365.598	2270
365.682	1137
365.766	1284
365.849	3914
365.933	2333
366.017	2736
366.100	1559
366.184	1210
366.267	1816
366.351	711
366.435	1043
366.518	708
366.602	197
366.685	848
366.769	432
366.852	1770
366.936	5072
367.019	3060
367.103	1742
367.186	3574
367.270	2128
367.353	25
367.436	1375
367.520	74
367.603	1762
367.687	2197
367.770	5091
367.853	3373
367.937	8734
368.020	22946
368.104	6849
368.187	3387
368.270	5538
368.353	5057
368.437	6269
368.520	26872
368.603	19727
368.687	10280
368.770	29277
368.853	8961
368.936	4591
369.020	5057
369.103	1893
369.186	582
369.269	556
369.352	1609
369.436	5228
369.519	3423
369.602	1292
369.685	1268
369.768	1456
369.851	1266
369.934	399
370.018	872
370.101	3775
370.184	4573
370.267	1891
370.350	4165
370.433	5999
370.516	17936
370.599	40708
370.682	13799
370.765	11114
370.848	14733
370.931	33805
371.014	18932
371.097	2446
371.180	1653
371.263	1057
371.346	692
371.429	1462
371.511	1501
371.594	1906
371.677	4501
371.760	5392
371.843	4327
371.926	20212
372.009	84045
372.091	35806
372.174	10417
372.257	34803
372.340	20796
372.423	6176
372.505	8299
372.588	4527
372.671	7008
372.754	30255
372.836	24271
372.919	7286
373.002	19201
373.085	8804
373.167	4147
373.250	10864
373.332	31279
373.415	39935
373.498	112310
373.580	56744
373.663	40614
373.746	93690
373.828	23220
373.911	5666
373.993	4346
374.076	14441
374.159	23381
374.241	9078
374.324	22515
374.406	24118
374.489	19705
374.571	84253
374.654	50511
374.736	12959
374.819	44827
374.901	70680
374.983	98034
375.066	22546
375.148	3950
375.231	10517
375.313	32593
375.395	14464
375.478	3336
375.560	1657
375.643	3087
375.725	9637
375.807	56789
375.890	70764
375.972	33154
376.054	12263
376.136	22089
376.219	14450
376.301	10824
376.383	53331
376.465	31044
376.548	8751
376.630	11171
376.712	38198
376.794	30318
376.877	2816
376.959	1207
377.041	1636
377.123	2552
377.205	4129
377.287	566
377.369	533
377.452	1212
377.534	694
377.616	629
377.698	1006
377.780	1194
377.862	1109
377.944	1424
378.026	789
378.108	1126
378.190	377
378.272	445
378.354	38
378.436	501
378.518	1119
378.600	6762
378.682	6958
378.764	13688
378.846	18183
378.928	4063
379.010	4923
379.091	3563
379.173	1120
379.255	1168
379.337	1171
379.419	5459
379.501	24405
379.583	15205
379.664	1873
379.746	4521
379.828	14462
379.910	21830
379.991	26120
380.073	5841
380.155	1899
380.237	2287
380.318	1103
380.400	743
380.482	2702
380.564	6638
380.645	6106
380.727	6586
380.809	3566
380.890	2011
380.972	1386
381.053	844
381.135	2335
381.217	4050
381.298	17252
381.380	12891
381.461	6997
381.543	32277
381.624	66928
381.706	16166
381.787	4742
381.869	3878
381.951	13020
382.032	73176
382.113	73411
382.195	12185
382.276	5732
382.358	10252
382.439	36320
382.521	44539
382.602	80929
382.684	43664
382.765	44711
382.846	61497
382.928	87207
383.009	67789
383.090	27493
383.172	89289
383.253	220860
383.334	91384
383.416	60824
383.497	47078
383.578	14074
383.659	21567
383.741	70163
383.822	266931
383.903	214132
383.984	47174
384.066	67257
384.147	55784
384.228	13482
384.309	6034
384.390	6072
384.471	3953
384.553	4101
384.634	4329
384.715	5628
384.796	2819
384.877	4027
384.958	12155
385.039	24062
385.120	8908
385.201	3668
385.282	3589
385.363	3803
385.444	4278
385.525	4962
385.606	23260
385.687	33976
385.768	6888
385.849	5487
385.930	24031
386.011	72349
386.092	27978
386.173	3121
386.254	1960
386.335	2536
386.416	2826
386.496	6616
386.577	17855
386.658	8411
386.739	3680
386.820	3012
386.901	1360
386.981	2516
387.062	1542
387.143	3034
387.224	13569
387.304	20154
387.385	6044
387.466	3539
387.547	4371
387.627	3180
387.708	4794
387.789	22850
387.869	46672
387.950	18199
388.031	2006
388.111	281
388.192	4166
388.273	7097
388.353	5336
388.434	2912
388.514	4785
388.595	27742
388.676	52874
388.756	22635
388.837	14009
388.917	12453
388.998	2346
389.078	1819
389.159	1739
389.239	1031
389.320	2790
389.400	1907
389.480	4122
389.561	16750
389.641	13075
389.722	2686
389.802	4305
389.883	6034
389.963	21032
390.043	21666
390.124	6038
390.204	4079
390.284	16165
390.365	15885
390.445	10085
390.525	33417
390.605	42204
390.686	13864
390.766	4708
390.846	2679
390.927	1157
391.007	988
391.087	1584
391.167	1703
391.247	1172
391.328	3713
391.408	5475
391.488	3175
391.568	600
391.648	1762
391.728	2683
391.808	3840
391.888	4085
391.969	6830
392.049	17322
392.129	9094
392.209	6331
392.289	20153
392.369	15968
392.449	7952
392.529	6066
392.609	5194
392.689	6150
392.769	18047
392.849	25922
392.929	12645
393.009	27263
393.089	33060
393.169	22723
393.248	59522
393.328	276276
393.408	477644
393.488	158699
393.568	31723
393.648	15010
393.728	8938
393.807	6019
393.887	5686
393.967	4058
394.047	3708
394.127	4275
394.206	6296
394.286	14968
394.366	91587
394.446	161995
394.525	40760
394.605	6251
394.685	5312
394.764	8645
394.844	16613
394.924	17479
395.003	5148
395.083	3507
395.163	3804
395.242	2592
395.322	2622
395.402	2303
395.481	3162
395.561	5205
395.640	18947
395.720	19395
395.799	20002
395.879	23694
395.958	9005
396.038	19811
396.117	118285
396.197	210164
396.276	59297
396.356	13455
396.435	10256
396.515	8870
396.594	10123
396.673	18546
396.753	60724
396.832	280571
396.912	320522
396.991	77713
397.070	17414
397.150	6866
397.229	6131
397.308	5542
397.388	8743
397.467	5968
397.546	2456
397.625	906
397.705	3099
397.784	2656
397.863	1404
397.942	756
398.022	1189
398.101	3001
398.180	17523
398.259	12656
398.338	2533
398.417	1743
398.497	125
398.576	1841
398.655	729
398.734	164
398.813	1052
398.892	3373
398.971	17401
399.050	15507
399.129	1374
399.208	256
399.287	249
399.366	10
399.445	114
399.524	643
399.603	-259
399.682	1000
399.761	4518
399.840	18568
399.919	25212
399.998	4268
400.077	215
400.156	-211
400.235	1292
400.313	-133
400.392	11
400.471	5318
400.550	14702
400.629	4793
400.708	1564
400.786	8
400.865	2158
400.944	3730
401.023	3135
401.102	21
401.180	-577
401.259	401
401.338	416
401.416	819
401.495	1324
401.574	954
401.652	27
401.731	565
401.810	1326
401.888	744
401.967	-459
402.046	103
402.124	469
402.203	1463
402.281	940
402.360	875
402.438	3427
402.517	4151
402.596	810
402.674	-21
402.753	456
402.831	280
402.910	364
402.988	3555
403.066	21322
403.145	22625
403.223	5672
403.302	18563
403.380	18223
403.459	15088
403.537	8685
403.615	1570
403.694	83
403.772	364
403.850	-194
403.929	-679
404.007	154
404.085	1337
404.164	3935
404.242	858
404.320	312
404.398	2123
404.477	5182
404.555	40409
404.633	64698
404.711	12682
404.789	1603
404.868	620
404.946	722
405.024	-110
405.102	231
405.180	-309
405.258	-1101
405.336	230
405.415	-762
405.493	1000
405.571	2225
405.649	401
405.727	-389
405.805	1002
405.883	1325
405.961	501
406.039	792
406.117	-325
406.195	1739
406.273	5540
406.351	36864
406.429	37871
406.507	5365
406.585	745
406.663	457
406.740	916
406.818	516
406.896	-562
406.974	732
407.052	726
407.130	15234
407.208	39776
407.285	12026
407.363	418
407.441	568
407.519	44
407.596	511
407.674	2021
407.752	7573
407.830	11425
407.907	3765
407.985	1257
408.063	152
408.141	-265
408.218	960
408.296	874
408.373	757
408.451	892
408.529	374
408.606	-588
408.684	-173
408.762	-471
408.839	-1087
408.917	-1311
408.994	-375
409.072	-855
409.149	215
409.227	-275
409.304	190
409.382	946
409.459	332
409.537	1577
409.614	1161
409.692	441
409.769	-302
409.846	1849
409.924	2550
410.001	517
410.079	797
410.156	725
410.233	463
410.311	-216
410.388	-586
410.465	412
410.543	64
410.620	-335
410.697	-307
410.775	-99
410.852	-819
410.929	581
411.006	1520
411.083	-278
411.161	536
411.238	2524
411.315	524
411.392	-304
411.469	-36
411.547	423
411.624	-912
411.701	-662
411.778	-133
411.855	926
411.932	1061
412.009	-386
412.086	428
412.163	-548
412.240	-249
412.317	350
412.394	28
412.471	516
412.548	-279
412.625	-475
412.702	-278
412.779	564
412.856	1148
412.933	-1113
413.010	-331
413.087	-131
413.164	3345
413.241	11478
413.318	3667
413.395	1447
413.471	671
413.548	819
413.625	-192
413.702	-330
413.779	349
413.855	-1008
413.932	-990
414.009	-1095
414.086	-195
414.162	166
414.239	62
414.316	4624
414.393	16665
414.469	10276
414.546	378
414.623	-540
414.699	-60
414.776	-282
414.853	-871
414.929	-256
415.006	179
415.082	-517
415.159	-210
415.236	-225
415.312	-396
415.389	672
415.465	1797
415.542	1727
415.618	-631
415.695	1107
415.771	804
415.848	169
415.924	-52
416.000	20
416.077	-202
416.153	-687
416.230	-911
416.306	-566
416.383	-571
416.459	-497
416.535	-1002
416.612	-447
416.688	204
416.764	365
416.841	-921
416.917	-175
416.993	-642
417.069	369
417.146	-133
417.222	420
417.298	182
417.374	-597
417.451	38
417.527	-401
417.603	726
417.679	-181
417.755	126
417.831	-770
417.908	-600
417.984	-619
418.060	-683
418.136	103
418.212	2605
418.288	519
418.364	-322
418.440	-844
418.516	267
418.592	212
418.668	2228
418.744	3775
418.820	3675
418.896	275
418.972	-616
419.048	-957
419.124	991
419.200	834
419.276	-710
419.352	-846
419.428	-486
419.504	-1049
419.579	-76
419.655	-354
419.731	-166
419.807	1572
419.883	4361
419.959	5259
420.034	1150
420.110	716
420.186	7313
420.262	11519
420.337	2267
420.413	-207
420.489	-392
420.565	206
420.640	-268
420.716	627
420.792	-733
420.867	-275
420.943	-608
421.019	262
421.094	659
421.170	-434
421.245	-671
421.321	231
421.397	-216
421.472	269
421.548	2932
421.623	5276
421.699	1257
421.774	522
421.850	-25
421.925	1340
422.001	1884
422.076	1655
422.152	1192
422.227	1886
422.302	4126
422.378	4226
422.453	8748
422.529	20454
422.604	64392
422.679	169212
422.755	142629
422.830	45115
422.905	15152
422.981	6287
423.056	3965
423.131	3329
423.207	1496
423.282	1953
423.357	3753
423.432	3481
423.508	1786
423.583	3544
423.658	4845
423.733	1257
423.808	829
423.883	1373
423.959	1328
424.034	-163
424.109	529
424.184	-491
424.259	-301
424.334	-493
424.409	-632
424.484	-402
424.559	407
424.634	-417
424.709	-65
424.784	1534
424.859	-18
424.934	-517
425.009	4219
425.084	12138
425.159	7488
425.234	464
425.309	-135
425.384	1626
425.459	5902
425.534	2775
425.609	-412
425.683	-569
425.758	-831
425.833	184
425.908	239
425.983	1145
426.058	12376
426.132	10018
426.207	657
426.282	486
426.357	688
426.431	-532
426.506	272
426.581	-397
426.655	-86
426.730	-59
426.805	-704
426.879	-386
426.954	-210
427.029	457
427.103	7381
427.178	32665
427.253	28457
427.327	3472
427.402	923
427.476	5415
427.551	5179
427.625	157
427.700	-471
427.774	-442
427.849	-19
427.923	-879
427.998	-303
428.072	-956
428.147	1287
428.221	5968
428.296	25315
428.370	26302
428.444	3716
428.519	757
428.593	2144
428.667	3630
428.742	3222
428.816	3688
428.890	11045
428.965	35030
429.039	19489
429.113	5565
429.188	2994
429.262	-139
429.336	659
429.410	3700
429.485	5837
429.559	2633
429.633	2976
429.707	616
429.781	1669
429.855	11924
429.930	34030
430.004	20046
430.078	17375
430.152	21279
430.226	32741
430.300	62003
430.374	18382
430.448	2267
430.522	2958
430.596	15899
430.670	18560
430.744	22923
430.818	64593
430.892	28561
430.966	2453
431.040	493
431.114	-183
431.188	-771
431.262	33
431.336	-154
431.410	1237
431.484	3065
431.557	5279
431.631	894
431.705	-158
431.779	1720
431.853	19828
431.927	29935
432.000	6226
432.074	429
432.148	62
432.222	-50
432.295	-546
432.369	-356
432.443	535
432.516	6190
432.590	35029
432.664	27895
432.737	2811
432.811	-1603
432.885	-393
432.958	-708
433.032	-1369
433.106	-559
433.179	-940
433.253	-872
433.326	-800
433.400	-1168
433.473	-815
433.547	-1782
433.620	-631
433.694	-748
433.767	920
433.841	137
433.914	-716
433.988	-1219
434.061	-416
434.134	-961
434.208	-656
434.281	-789
434.355	-1014
434.428	-209
434.501	-411
434.575	-1240
434.648	-261
434.721	-161
434.795	-1103
434.868	-1246
434.941	-924
435.014	-713
435.088	-482
435.161	-183
435.234	1736
435.307	1780
435.381	409
435.454	87
435.527	299
435.600	1190
435.673	84
435.746	-228
435.819	-990
435.892	-280
435.966	-780
436.039	-722
436.112	-719
436.185	-1617
436.258	-1145
436.331	-1511
436.404	-1004
436.477	-880
436.550	-1356
436.623	-1237
436.696	-591
436.769	-446
436.842	-1094
436.915	-1071
436.987	-339
437.060	-564
437.133	-442
437.206	-1328
437.279	8
437.352	-1282
437.425	-1283
437.498	-591
437.570	471
437.643	1099
437.716	140
437.789	-1500
437.861	-452
437.934	2299
438.007	3246
438.080	-422
438.152	-534
438.225	28
438.298	8994
438.370	55013
438.443	51692
438.516	8643
438.588	1756
438.661	-1077
438.734	-34
438.806	-558
438.879	139
438.951	443
439.024	2200
439.096	1360
439.169	-118
439.241	-639
439.314	-828
439.386	-704
439.459	-42
439.531	2516
439.604	1913
439.676	-307
439.749	-446
439.821	-1239
439.893	-759
439.966	-214
440.038	213
440.110	-156
440.183	68
440.255	-1300
440.327	50
440.400	2865
440.472	23377
440.544	41138
440.617	8569
440.689	1018
440.761	1482
440.833	3690
440.905	3755
440.978	415
441.050	-702
441.122	7
441.194	-1064
441.266	-674
441.338	-1629
441.411	-561
441.483	4333
441.555	17409
441.627	9285
441.699	1134
441.771	1441
441.843	178
441.915	-787
441.987	-616
442.059	-650
442.131	227
442.203	607
442.275	896
442.347	1731
442.419	2010
442.491	6844
442.563	33342
442.635	37023
442.706	10319
442.778	7134
442.850	2591
442.922	-399
442.994	0
443.066	278
443.137	699
443.209	1351
443.281	490
443.353	3783
443.425	10092
443.496	50826
443.568	94878
443.640	56567
443.711	14013
443.783	1646
443.855	1467
443.926	671
443.998	366
444.070	27
444.141	72
444.213	840
444.285	2364
444.356	1703
444.428	2283
444.499	-31
444.571	105
444.642	-78
444.714	-547
444.785	1136
444.857	1969
444.928	2877
445.000	4318
445.071	2479
445.143	4132
445.214	3874
445.285	3634
445.357	9935
445.428	28563
445.500	101141
445.571	118143
445.642	63265
445.714	26940
445.785	13051
445.856	5890
445.928	2878
445.999	2190
446.070	2062
446.141	545
446.213	1886
446.284	1399
446.355	496
446.426	188
446.497	123
446.569	-129
446.640	1515
446.711	2666
446.782	585
446.853	410
446.924	1532
446.995	420
447.066	216
447.138	343
447.209	1087
447.280	-642
447.351	-173
447.422	-1012
447.493	-661
447.564	-292
447.635	1413
447.706	1096
447.777	265
447.847	-682
447.918	-1260
447.989	-703
448.060	289
448.131	1210
448.202	2954
448.273	2168
448.344	1179
448.414	424
448.485	-15
448.556	-116
448.627	-639
448.698	-592
448.768	-914
448.839	-603
448.910	-345
448.981	1224
449.051	-16
449.122	-34
449.193	-800
449.263	-724
449.334	-96
449.405	-288
449.475	825
449.546	2859
449.616	314
449.687	1651
449.758	904
449.828	-718
449.899	-934
449.969	-661
450.040	-650
450.110	266
450.181	356
450.251	-632
450.322	-153
450.392	-463
450.463	-964
450.533	-403
450.604	-722
450.674	-1022
450.744	-891
450.815	-793
450.885	-293
450.955	-897
451.026	-578
451.096	-872
451.166	-277
451.237	671
451.307	3464
451.377	3317
451.447	718
451.518	310
451.588	-657
451.658	-183
451.728	-68
451.799	2081
451.869	6028
451.939	3264
452.009	53
452.079	-1077
452.149	-722
452.219	-125
452.289	2781
452.360	6392
452.430	2458
452.500	503
452.570	800
452.640	1774
452.710	4097
452.780	9450
452.850	8889
452.920	7913
452.990	4918
453.060	1375
453.129	349
453.199	1248
453.269	2587
453.339	19352
453.409	36156
453.479	23157
453.549	32493
453.619	39558
453.688	29929
453.758	6613
453.828	55
453.898	183
453.968	-708
454.037	545
454.087	-117
454.107	-412
454.168	-623
454.177	-683
454.247	-246
454.249	-216
454.316	-212
454.330	-59
454.386	354
454.411	467
454.456	217
454.492	2404
454.525	4245
454.574	3399
454.595	3097
454.655	714
454.665	308
454.734	897
454.736	972
454.804	1511
454.817	2336
454.873	4469
454.898	5646
454.943	7396
454.979	6642
455.013	6298
455.060	3951
455.082	3060
455.141	2511
455.152	2354
455.221	4216
455.222	4425
455.291	9961
455.303	10241
455.360	11496
455.384	11480
455.430	8571
455.465	8523
455.499	9127
455.546	7380
455.569	6192
455.627	5671
455.638	5704
455.707	1901
455.708	1923
455.777	622
455.789	619
455.846	337
455.869	452
455.916	771
455.950	1072
455.985	1256
456.031	1086
456.054	925
456.112	1023
456.124	1050
456.193	1245
456.193	1218
456.262	822
456.274	1067
456.332	2136
456.355	2354
456.401	2384
456.436	2398
456.470	2422
456.516	1446
456.540	977
456.597	611
456.609	497
456.678	678
456.678	653
456.747	1073
456.759	1110
456.817	1226
456.840	1155
456.886	835
456.920	1118
456.955	1585
457.001	1664
457.024	1758
457.082	2907
457.093	3016
457.162	3230
457.163	3269
457.232	4014
457.243	3930
457.301	3335
457.324	2847
457.370	2421
457.405	2290
457.439	2142
457.485	2659
457.508	2938
457.566	4007
457.577	4362
457.646	5553
457.647	5613
457.715	11124
457.727	12319
457.784	21644
457.808	26079
457.853	27966
457.889	30861
457.922	27531
457.969	21227
457.991	25085
458.050	32925
458.060	35047
458.129	53713
458.130	54456
458.198	36996
458.211	32885
458.267	23008
458.292	16195
458.336	13626
458.372	13049
458.405	18051
458.453	27502
458.474	35556
458.533	60648
458.543	61763
458.611	76359
458.614	77241
458.680	39223
458.694	28838
458.749	19727
458.775	14079
458.818	8515
458.855	6575
458.887	5298
458.936	4650
458.955	4423
459.016	4106
459.024	4087
459.093	4855
459.097	4868
459.162	5430
459.177	5669
459.230	6212
459.257	6597
459.299	6836
459.338	6728
459.368	6865
459.418	7505
459.437	6860
459.499	5152
459.505	5213
459.574	5013
459.579	5014
459.643	4263
459.659	4220
459.711	4719
459.740	4985
459.780	5297
459.820	5466
459.849	5393
459.900	5585
459.917	5679
459.981	6065
459.986	6077
460.054	6263
460.061	6303
460.123	6821
460.141	7025
460.191	8470
460.222	9302
460.260	9813
460.302	10352
460.328	9081
460.382	7240
460.397	7564
460.462	7435
460.465	7597
460.534	12772
460.543	13438
460.602	28834
460.623	34405
460.671	58082
460.703	74412
460.739	56183
460.783	35461
460.808	28755
460.864	9341
460.876	9041
460.944	6132
460.945	6100
461.013	6227
461.024	6293
461.081	6859
461.104	7210
461.150	6653
461.184	6258
461.218	6679
461.264	6826
461.286	6640
461.345	6395
461.355	6354
461.423	6383
461.425	6374
461.491	6129
461.505	6069
461.559	10092
461.585	12279
461.628	17890
461.665	22818
461.696	23382
461.745	25089
461.764	21428
461.825	9153
461.832	9358
461.901	8528
461.905	8550
461.969	6938
461.985	6746
462.037	6482
462.065	6069
462.105	6525
462.145	7363
462.173	9360
462.225	12871
462.241	13930
462.305	18507
462.310	17984
462.378	10432
462.385	9441
462.446	8916
462.465	8602
462.514	8328
462.545	8519
462.582	8154
462.625	7807
462.650	7376
462.705	6416
462.718	6536
462.785	7065
462.786	7104
462.854	8932
462.865	9293
462.922	10493
462.945	11054
462.990	8906
463.025	7026
463.058	6840
463.104	6389
463.126	6487
463.184	6718
463.194	6861
463.262	7896
463.264	7943
463.330	7510
463.344	7310
463.398	7709
463.424	7988
463.466	7885
463.504	7855
463.533	7951
463.583	7848
463.601	8219
463.663	9385
463.669	9607
463.737	12479
463.743	12729
463.805	15724
463.823	16487
463.873	23264
463.903	27552
463.940	27445
463.982	27357
464.008	22085
464.062	10966
464.076	10658
464.142	7659
464.144	7649
464.211	7439
464.221	7493
464.279	8255
464.301	8505
464.347	9060
464.381	9519
464.414	10495
464.461	11762
464.482	12598
464.540	14796
464.550	14842
464.617	15092
464.620	15084
464.685	14103
464.699	13772
464.753	14998
464.779	15630
464.820	15874
464.859	16045
464.888	15594
464.938	14737
464.956	14613
465.018	14145
465.023	14194
465.091	14502
465.098	14512
465.158	15023
465.177	15108
465.226	14738
465.257	14613
465.293	14539
465.336	14218
465.361	15721
465.416	19024
465.428	19319
465.495	20807
465.496	20904
465.563	30599
465.575	32176
465.631	35795
465.654	37443
465.698	24948
465.734	14449
465.765	13878
465.813	12456
465.833	12565
465.893	13308
465.900	13339
465.968	13412
465.972	13385
466.035	13019
466.052	12921
466.102	13451
466.131	13690
466.170	14014
466.210	14296
466.237	14358
466.290	14465
466.304	14569
466.369	14756
466.372	14806
466.439	15453
466.449	15511
466.506	17841
466.528	18698
466.573	23859
466.607	27644
466.641	37188
466.687	50348
466.708	53393
466.766	61475
466.775	57500
466.842	26857
466.845	25348
466.909	21541
466.925	20549
466.977	20139
467.004	19953
467.044	19940
467.083	19844
467.111	21445
467.163	24342
467.178	24944
467.242	27178
467.245	27129
467.312	24879
467.321	24526
467.379	22341
467.400	21476
467.446	22816
467.480	23699
467.559	20531
467.638	19521
467.717	19515
467.796	22087
467.875	24545
467.955	21504
468.034	28677
468.113	52670
468.192	72365
468.271	25092
468.350	26170
468.429	32328
468.508	33539
468.588	24442
468.667	20773
468.746	19535
468.825	18737
468.904	17428
468.983	19280
469.062	26258
469.141	27441
469.220	15959
469.299	16452
469.378	18650
469.456	22368
469.535	20553
469.614	18836
469.693	20470
469.772	23608
469.851	29082
469.930	21847
470.009	20384
470.088	22662
470.166	32676
470.245	52969
470.324	65647
470.403	39945
470.482	24187
470.560	20913
470.639	21834
470.718	24593
470.797	19172
470.875	21807
470.954	26412
471.033	25542
471.111	15362
471.190	14973
471.269	15086
471.347	15400
471.426	16345
471.505	17755
471.583	19687
471.662	16925
471.740	17239
471.819	16700
471.898	16418
471.976	15519
472.055	15372
472.133	17709
472.212	20691
472.290	20274
472.369	15904
472.447	15826
472.526	14474
472.604	16673
472.683	19208
472.761	19486
472.839	17110
472.918	16421
472.996	16083
473.075	17958
473.153	17145
473.231	14481
473.310	17762
473.388	16970
473.466	17195
473.545	20561
473.623	28092
473.701	25500
473.780	17757
473.858	16661
473.936	17921
474.014	16592
474.093	18356
474.171	21863
474.249	27169
474.327	19749
474.405	16571
474.484	13734
474.562	15916
474.640	15097
474.718	15898
474.796	16230
474.874	15513
474.952	13732
475.030	14465
475.108	15143
475.187	19229
475.265	21833
475.343	36253
475.421	38689
475.499	15993
475.577	15275
475.655	19246
475.733	29463
475.811	44602
475.889	41810
475.966	25362
476.044	17279
476.122	25611
476.200	36833
476.278	22600
476.356	14070
476.434	17089
476.512	23170
476.590	32059
476.667	23748
476.745	13626
476.823	15850
476.901	13768
476.979	14466
477.056	14187
477.134	15082
477.212	14783
477.290	14204
477.367	12012
477.445	12456
477.523	12330
477.601	13856
477.678	13430
477.756	14959
477.834	15484
477.911	13567
477.989	13812
478.066	12263
478.144	16311
478.222	23874
478.299	45618
478.377	34495
478.454	13285
478.532	12085
478.609	14389
478.687	15134
478.764	12478
478.842	14584
478.919	16730
478.997	13913
479.074	11951
479.152	13439
479.229	16225
479.307	11872
479.384	10533
479.461	11297
479.539	11753
479.616	14303
479.694	13246
479.771	13393
479.848	13319
479.926	16902
480.003	16250
480.080	12234
480.157	11280
480.235	11779
480.312	11135
480.389	13125
480.467	18358
480.544	20185
480.621	13775
480.698	13913
480.775	15332
480.853	14191
480.930	11779
481.007	12815
481.084	14093
481.161	16636
481.238	13106
481.315	11710
481.392	11700
481.470	11374
481.547	10915
481.624	10630
481.701	12312
481.778	11721
481.855	13525
481.932	17615
482.009	28738
482.086	18519
482.163	17362
482.240	30708
482.317	62337
482.393	35137
482.470	14116
482.547	13108
482.624	12659
482.701	13507
482.778	12405
482.855	11883
482.932	12084
483.009	12291
483.085	15113
483.162	18960
483.239	16884
483.316	14432
483.393	14889
483.469	12360
483.546	14194
483.623	13101
483.699	11034
483.776	12096
483.853	13714
483.930	20206
484.006	39463
484.083	64867
484.160	40895
484.236	65031
484.313	47095
484.389	35861
484.466	33432
484.543	32738
484.619	35754
484.696	37122
484.772	34505
484.849	34476
484.925	29874
485.002	28409
485.078	32212
485.155	32578
485.231	27575
485.308	27470
485.384	29783
485.461	32162
485.537	46796
485.614	48342
485.690	28026
485.766	26777
485.843	31182
485.919	44642
485.995	43485
486.072	25160
486.148	24892
486.224	25009
486.301	25728
486.377	29426
486.453	32970
486.530	29528
486.606	38547
486.682	40884
486.758	43421
486.835	47846
486.911	41025
486.987	64442
487.063	80806
487.139	109439
487.215	73655
487.292	33279
487.368	29579
487.444	34645
487.520	47023
487.596	52734
487.672	96427
487.748	264302
487.824	380569
487.900	97118
487.976	42409
488.052	38426
488.128	44030
488.204	34768
488.280	26692
488.356	30864
488.432	51728
488.508	69677
488.584	31206
488.660	26721
488.736	26561
488.812	28094
488.888	36152
488.964	52299
489.039	113093
489.115	166188
489.191	80401
489.267	26235
489.343	23805
489.418	21341
489.494	21894
489.570	19925
489.646	21838
489.722	21229
489.797	22575
489.873	30435
489.949	54167
490.024	42470
490.100	20403
490.176	21813
490.251	27815
490.327	38437
490.403	21083
490.478	20304
490.554	16942
490.629	19444
490.705	18156
490.781	20940
490.856	18901
490.932	23614
491.007	23206
491.083	21758
491.158	19906
491.234	24526
491.309	41496
491.385	39549
491.460	18331
491.536	19793
491.611	19231
491.686	22205
491.762	33505
491.837	70572
491.913	112734
491.988	157820
492.063	188093
492.139	38673
492.214	26014
492.289	17535
492.365	17703
492.440	20760
492.515	19622
492.590	18592
492.666	15193
492.741	21429
492.816	26077
492.891	16478
492.967	15921
493.042	14349
493.117	16886
493.192	16591
493.267	28371
493.342	66566
493.418	77875
493.493	18441
493.568	14698
493.643	16143
493.718	18820
493.793	26887
493.868	34401
493.943	22030
494.018	17551
494.093	14094
494.168	15364
494.243	15251
494.318	13048
494.393	13581
494.468	13376
494.543	15085
494.618	18119
494.693	14848
494.768	14217
494.842	14904
494.917	12835
494.992	15524
495.067	12691
495.142	13426
495.217	14995
495.292	13564
495.366	16168
495.441	20443
495.516	26257
495.591	46938
495.665	156203
495.740	358777
495.815	102649
495.890	21344
495.964	16965
496.039	19371
496.114	18532
496.188	21303
496.263	20455
496.338	17066
496.412	19003
496.487	21309
496.561	25046
496.636	25471
496.710	19610
496.785	21197
496.860	21934
496.934	19205
497.009	19385
497.083	19526
497.158	19896
497.232	23598
497.307	27743
497.381	24856
497.455	27552
497.530	30227
497.604	23255
497.679	25294
497.753	37345
497.827	48178
497.902	46515
497.976	55586
498.050	118533
498.125	384834
498.199	332009
498.273	75070
498.348	63460
498.422	50933
498.496	48596
498.570	41377
498.645	27223
498.719	25368
498.793	28280
498.867	39551
498.941	56618
499.016	151012
499.090	388499
499.164	96652
499.238	19822
499.312	20252
499.386	27939
499.460	21557
499.534	20876
499.609	25423
499.683	30604
499.757	29267
499.831	69370
499.905	251349
499.979	191811
500.053	33292
500.127	38819
500.201	33543
500.275	19199
500.349	19890
500.422	22740
500.496	37764
500.570	85819
500.644	150916
500.718	245581
500.792	40186
500.866	17019
500.940	20583
501.013	16524
501.087	19047
501.161	37317
501.235	43764
501.309	79810
501.382	211659
501.456	155772
501.530	40129
501.603	64417
501.677	22574
501.751	14477
501.825	16840
501.898	31262
501.972	82193
502.046	41136
502.119	19473
502.193	41648
502.266	88538
502.340	36012
502.413	40277
502.487	70674
502.561	38374
502.634	16165
502.708	16988
502.781	15921
502.855	12030
502.928	10870
503.002	10186
503.075	10925
503.149	11281
503.222	10389
503.295	11840
503.369	14223
503.442	21585
503.516	61101
503.589	143140
503.662	80859
503.736	31265
503.809	71272
503.882	57080
503.956	93882
504.029	97695
504.102	146293
504.175	188202
504.249	55063
504.322	25526
504.395	18314
504.468	14625
504.542	12913
504.615	11689
504.688	10454
504.761	9877
504.834	14960
504.907	20159
504.980	31371
505.053	14404
505.127	21534
505.200	19345
505.273	15367
505.346	9768
505.419	9437
505.492	8955
505.565	7302
505.638	7979
505.711	8694
505.784	8116
505.857	7445
505.930	9395
506.003	8041
506.076	9324
506.149	10300
506.221	13265
506.294	15494
506.367	37088
506.440	111454
506.513	47921
506.586	15433
506.659	10064
506.731	10652
506.804	13944
506.877	19762
506.950	11778
507.022	9609
507.095	12166
507.168	14321
507.241	9924
507.313	9664
507.386	11920
507.459	17049
507.531	10105
507.604	9700
507.677	8249
507.749	8364
507.822	13920
507.894	28451
507.967	28010
508.040	16034
508.112	15351
508.185	14978
508.257	14728
508.330	21544
508.402	13327
508.475	12747
508.547	12764
508.620	13046
508.692	17998
508.765	11676
508.837	10583
508.909	9807
508.982	11665
509.054	13968
509.127	10325
509.199	9817
509.271	9506
509.344	9912
509.416	9262
509.488	10327
509.560	10782
509.633	13113
509.705	14672
509.777	13405
509.849	20446
509.922	13808
509.994	10951
510.066	10474
510.138	13036
510.210	23834
510.283	19763
510.355	17125
510.427	14525
510.499	14978
510.571	14423
510.643	14630
510.715	25356
510.787	20783
510.859	14132
510.931	17696
511.003	24923
511.076	19820
511.148	12658
511.219	13092
511.291	18019
511.363	18040
511.435	11505
511.507	11401
511.579	11328
511.651	11975
511.723	10676
511.795	10826
511.867	11825
511.939	14920
512.010	23141
512.082	18578
512.154	12928
512.226	14640
512.298	20876
512.369	29509
512.441	21656
512.513	22461
512.585	17602
512.656	17099
512.728	19130
512.800	14792
512.871	14119
512.943	14463
513.015	12981
513.086	13651
513.158	15568
513.230	17525
513.301	26347
513.373	28279
513.444	15976
513.516	13831
513.588	13937
513.659	16574
513.731	21090
513.802	20174
513.874	39290
513.945	67162
514.016	18728
514.088	14496
514.159	17291
514.231	21842
514.302	27245
514.374	18231
514.445	17864
514.516	27552
514.588	21555
514.659	17655
514.730	26973
514.802	23755
514.873	21890
514.944	19856
515.016	18967
515.087	21115
515.158	23258
515.229	27259
515.301	22183
515.372	27254
515.443	17930
515.514	15265
515.585	13548
515.656	14249
515.728	13781
515.799	14605
515.870	15167
515.941	16263
516.012	16044
516.083	20936
516.154	24016
516.225	30826
516.296	26645
516.367	24511
516.438	32385
516.509	51066
516.580	100138
516.651	314292
516.722	997232
516.793	307633
516.864	51806
516.935	48839
517.006	67169
517.077	120757
517.148	332716
517.219	1156006
517.289	1517500
517.360	234472
517.431	60648
517.502	33063
517.573	29983
517.643	25870
517.714	27927
517.785	28249
517.856	29195
517.926	33406
517.997	42077
518.068	60802
518.138	105513
518.209	236352
518.280	789682
518.350	2335892
518.421	736864
518.492	83688
518.562	47002
518.633	47784
518.703	54413
518.774	99324
518.845	229595
518.915	196419
518.986	56764
519.056	40834
519.127	64771
519.197	87069
519.268	132176
519.338	68965
519.408	25773
519.479	38186
519.549	26422
519.620	18982
519.690	15301
519.760	15194
519.831	16242
519.901	15952
519.971	13002
520.042	14867
520.112	15756
520.182	20615
520.253	24243
520.323	19997
520.393	40151
520.463	64649
520.534	43600
520.604	93852
520.674	29320
520.744	36682
520.814	110124
520.885	75865
520.955	45654
521.025	133685
521.095	42783
521.165	12906
521.235	13079
521.305	11485
521.375	11606
521.445	14622
521.515	20942
521.585	23630
521.655	20212
521.725	17854
521.795	14538
521.865	11468
521.935	15516
522.005	14491
522.075	10951
522.145	11922
522.215	12841
522.285	16999
522.355	21280
522.424	36396
522.494	31906
522.564	26512
522.634	57120
522.704	150403
522.774	46638
522.843	13407
522.913	13856
522.983	17680
523.053	14747
523.122	15167
523.192	27680
523.262	84777
523.331	70320
523.401	13653
523.471	10200
523.540	11688
523.610	9287
523.680	9951
523.749	10052
523.819	11705
523.888	12512
523.958	10288
524.027	10143
524.097	12149
524.166	11590
524.236	13034
524.305	12132
524.375	10690
524.444	9573
524.514	11431
524.583	11458
524.653	12882
524.722	15258
524.791	11699
524.861	10643
524.930	10792
524.999	11649
525.069	16521
525.138	11788
525.207	13416
525.277	11388
525.346	12369
525.415	11783
525.484	13655
525.554	14182
525.623	13074
525.692	14488
525.761	13904
525.830	16283
525.900	22907
525.969	38399
526.038	79178
526.107	170842
526.176	440770
526.245	316865
526.314	105912
526.383	234865
526.452	316195
526.522	495544
526.591	423823
526.660	94638
526.729	50466
526.797	74749
526.867	173954
526.935	593241
527.004	1040050
527.073	494701
527.142	41452
527.211	21961
527.280	22065
527.349	21049
527.418	12758
527.487	12847
527.555	12458
527.624	10517
527.693	9720
527.762	9853
527.831	9745
527.899	10331
527.968	10565
528.037	10288
528.106	14317
528.174	24433
528.243	17671
528.312	25582
528.380	33261
528.449	10639
528.518	9338
528.586	6633
528.655	8578
528.723	7791
528.792	7287
528.861	9103
528.929	6532
528.998	7206
529.066	7712
529.135	7431
529.203	7434
529.272	7051
529.340	8529
529.409	8051
529.477	8191
529.545	10971
529.614	12795
529.682	14406
529.751	14512
529.819	17627
529.887	10573
529.956	9324
530.024	8181
530.092	8578
530.161	12334
530.229	18563
530.297	10127
530.365	7963
530.434	7252
530.502	7431
530.570	8326
530.638	7057
530.707	9559
530.775	9839
530.843	7685
530.911	8431
530.979	7293
531.047	7446
531.115	8825
531.183	7709
531.252	7708
531.320	7664
531.388	6672
531.456	9036
531.524	6739
531.592	8767
531.660	9259
531.728	7792
531.796	7824
531.864	8705
531.932	8290
532.000	7694
532.067	8700
532.135	9591
532.203	11059
532.271	13643
532.339	24721
532.407	62038
532.475	31743
532.542	15941
532.610	20891
532.678	38790
532.746	125423
532.814	276825
532.881	56162
532.949	13974
533.017	10950
533.084	9035
533.152	9910
533.220	9299
533.287	12198
533.355	9824
533.423	9137
533.490	7952
533.558	9354
533.625	10123
533.693	10152
533.761	10505
533.828	10827
533.896	12257
533.963	23113
534.031	27764
534.098	38838
534.166	18273
534.233	10899
534.300	12856
534.368	12307
534.435	11251
534.503	12206
534.570	18781
534.637	15139
534.705	18643
534.772	29120
534.840	60396
534.907	199915
534.974	226466
535.041	23917
535.109	14126
535.176	11159
535.243	11353
535.310	11343
535.378	10555
535.445	9549
535.512	10405
535.579	10464
535.646	10120
535.714	12372
535.781	13694
535.848	12607
535.915	12332
535.982	12385
536.049	10800
536.116	11893
536.183	11605
536.250	11426
536.317	13283
536.384	14915
536.451	20978
536.518	22210
536.585	15049
536.652	19478
536.719	26436
536.786	22566
536.853	17856
536.920	25113
536.987	42782
537.053	50194
537.120	140735
537.187	109268
537.254	15048
537.321	12864
537.388	13944
537.454	12356
537.521	11319
537.588	12020
537.654	13962
537.721	15997
537.788	15066
537.855	11753
537.921	13020
537.988	12060
538.055	12696
538.121	12659
538.188	14754
538.254	22394
538.321	40022
538.388	24706
538.454	13746
538.521	13097
538.587	12710
538.654	12471
538.720	11810
538.787	12250
538.853	13258
538.920	14779
538.986	14851
539.053	12631
539.119	14236
539.185	14371
539.252	16254
539.318	24808
539.385	18717
539.451	17541
539.517	18081
539.583	23412
539.650	44270
539.716	99297
539.782	27301
539.849	14107
539.915	14468
539.981	15204
540.047	17350
540.114	14962
540.180	15511
540.246	16965
540.312	22521
540.378	40542
540.444	42789
540.510	47504
540.576	113505
540.643	32963
540.709	14249
540.775	14427
540.841	14650
540.907	19098
540.973	30573
541.039	24712
541.105	24379
541.171	15221
541.237	15065
541.303	14830
541.369	17797
541.435	22570
541.500	35271
541.566	21899
541.632	12947
541.698	12236
541.764	12565
541.830	11854
541.896	12452
541.961	13058
542.027	14409
542.093	13573
542.159	15093
542.224	16821
542.290	23147
542.356	34942
542.421	39132
542.487	17967
542.553	13691
542.618	14389
542.684	14103
542.750	15072
542.815	19896
542.881	34188
542.947	97321
543.012	67303
543.078	13923
543.143	12548
543.209	15400
543.274	16786
543.340	20746
543.405	39512
543.471	59211
543.536	15400
543.602	12585
543.667	13033
543.732	12968
543.798	12268
543.863	13315
543.928	11841
543.994	12027
544.059	12230
544.124	12658
544.190	13880
544.255	12987
544.320	13400
544.386	14351
544.451	20512
544.516	24591
544.581	28512
544.646	63071
544.712	89758
544.777	18948
544.842	14639
544.907	15597
544.972	14683
545.037	14795
545.102	15593
545.168	15302
545.233	16438
545.298	17278
545.363	21130
545.428	25577
545.493	40098
545.558	79633
545.623	31960
545.688	16973
545.753	16893
545.818	16345
545.883	18152
545.947	17219
546.012	18402
546.077	18627
546.142	20562
546.207	20160
546.272	24773
546.337	26033
546.401	22470
546.466	20588
546.531	20789
546.596	22961
546.661	23798
546.725	22799
546.790	23065
546.855	25551
546.919	26557
546.984	29227
547.049	32950
547.113	36385
547.178	37743
547.243	43285
547.307	49028
547.372	54878
547.436	55706
547.501	55215
547.565	59178
547.630	58198
547.695	56301
547.759	55197
547.823	53623
547.888	53601
547.952	55081
548.017	57369
548.081	61475
548.146	62544
548.210	62135
548.274	62663
548.339	61007
548.403	55964
548.468	52382
548.532	52378
548.596	53863
548.660	54137
548.725	59682
548.789	67403
548.853	64244
548.917	58303
548.982	58263
549.046	54318
549.110	46849
549.174	48769
549.238	55818
549.303	59530
549.367	62555
549.431	57900
549.495	55089
549.559	56757
549.623	66347
549.687	73440
549.751	79372
549.815	84987
549.879	83478
549.943	79357
550.007	83906
550.071	81637
550.135	79497
550.199	70156
550.263	68578
550.327	65997
550.391	70615
550.455	74116
550.519	76845
550.582	86062
550.646	99097
550.710	99657
550.774	92477
550.838	94130
550.901	95660
550.965	102788
551.029	106658
551.093	116649
551.156	129840
551.220	155060
551.284	173491
551.347	126559
551.411	120292
551.475	117357
551.538	97907
551.602	90082
551.666	86258
551.729	79190
551.793	79648
551.856	76546
551.920	76419
551.983	76335
552.047	75718
552.110	76296
552.174	75720
552.237	77713
552.301	71190
552.364	69793
552.428	67419
552.491	70639
552.554	73505
552.618	73424
552.681	79165
552.745	84347
552.808	109299
552.871	135284
552.934	91975
552.998	75950
553.061	70788
553.124	67767
553.187	67677
553.251	69258
553.314	70666
553.377	71827
553.440	81327
553.503	95325
553.567	106256
553.630	74511
553.693	73039
553.756	74293
553.819	70223
553.882	67573
553.945	68785
554.008	68685
554.071	68707
554.134	69576
554.197	66442
554.260	62885
554.323	66727
554.386	67411
554.449	68435
554.512	68484
554.575	65854
554.638	65792
554.701	65294
554.764	63476
554.827	61474
554.889	57739
554.952	55414
555.015	53984
555.078	55399
555.141	57641
555.203	54771
555.266	54988
555.329	55575
555.391	53628
555.454	53523
555.517	51577
555.580	49146
555.642	47032
555.705	46428
555.768	46853
555.830	45839
555.893	42649
555.955	42232
556.018	41421
556.080	41715
556.143	42540
556.206	42367
556.268	42037
556.330	42187
556.393	40576
556.455	39303
556.518	41375
556.580	41364
556.643	35799
556.705	35411
556.767	34055
556.830	36898
556.892	35824
556.955	44323
557.017	37979
557.079	33364
557.142	32969
557.204	35380
557.266	49853
557.328	43270
557.391	28230
557.453	27689
557.515	28290
557.577	31015
557.639	31598
557.701	28384
557.764	26725
557.826	27069
557.888	30526
557.950	33789
558.012	41530
558.074	59443
558.136	109751
558.198	250050
558.260	79417
558.322	30343
558.384	29719
558.446	33631
558.508	39816
558.570	55694
558.632	87225
558.694	142944
558.756	203972
558.818	450599
558.880	1022536
558.942	310618
559.003	252765
559.065	112145
559.127	43612
559.189	50146
559.251	72254
559.312	122243
559.374	226801
559.436	668756
559.498	306192
559.559	49803
559.621	52022
559.683	77181
559.744	131133
559.806	321629
559.868	476137
559.929	83886
559.991	62856
560.052	93441
560.114	246192
560.176	161659
560.237	134232
560.299	221561
560.360	43800
560.422	19758
560.483	18452
560.545	17308
560.606	17551
560.667	16244
560.729	14959
560.790	15157
560.852	15159
560.913	14963
560.974	14564
561.036	14982
561.097	14154
561.158	14814
561.220	15540
561.281	14396
561.342	16917
561.403	19755
561.465	24140
561.526	44328
561.587	57453
561.648	18072
561.709	14415
561.771	13491
561.832	13917
561.893	13017
561.954	13489
562.015	12929
562.076	12407
562.137	12701
562.198	13377
562.259	14327
562.320	13965
562.381	15892
562.442	20271
562.503	17195
562.564	12964
562.625	12723
562.686	12893
562.747	14220
562.808	13798
562.869	12982
562.930	13946
562.991	13319
563.051	13027
563.112	11451
563.173	12451
563.234	11481
563.294	11860
563.355	12231
563.416	12324
563.477	11243
563.537	12558
563.598	12543
563.659	11752
563.720	13612
563.780	12698
563.841	13807
563.901	12742
563.962	11753
564.023	10972
564.083	12445
564.144	11963
564.204	12814
564.265	12500
564.325	13278
564.386	18619
564.446	17782
564.507	11896
564.567	12505
564.628	12409
564.688	11867
564.749	11051
564.809	12278
564.869	14081
564.930	11974
564.990	11731
565.050	10893
565.111	11345
565.171	11712
565.231	11556
565.292	12140
565.352	10467
565.412	11874
565.472	11896
565.532	12871
565.593	12907
565.653	11546
565.713	11679
565.773	13717
565.833	15060
565.893	18001
565.953	12909
566.013	11704
566.074	13062
566.134	15164
566.194	18426
566.254	19430
566.314	14491
566.374	12547
566.434	11897
566.494	12252
566.554	13035
566.614	13292
566.673	12799
566.733	13559
566.793	14264
566.853	15697
566.913	14149
566.973	14797
567.033	16036
567.092	15513
567.152	15710
567.212	15149
567.272	14792
567.331	15213
567.391	15615
567.451	17142
567.511	19394
567.570	18809
567.630	15037
567.690	13920
567.749	14801
567.809	15398
567.868	16658
567.928	18712
567.988	21215
568.047	25427
568.107	32098
568.166	42771
568.226	64244
568.285	87164
568.345	68359
568.404	50363
568.464	42219
568.523	39862
568.582	43193
568.642	51862
568.701	67672
568.761	93027
568.820	145925
568.879	135155
568.939	90631
568.998	62389
569.057	46208
569.116	34194
569.176	29194
569.235	24484
569.294	22321
569.353	18966
569.413	18536
569.472	17203
569.531	15921
569.590	14791
569.649	14762
569.708	13952
569.767	14251
569.827	17654
569.886	15196
569.945	12750
570.004	14646
570.063	13039
570.122	13757
570.181	13814
570.240	13306
570.299	14805
570.358	15805
570.417	12650
570.475	12239
570.534	13895
570.593	13167
570.652	13305
570.711	14246
570.770	11593
570.829	13471
570.887	12786
570.946	14345
571.005	12492
571.064	13428
571.122	14841
571.181	14148
571.240	11434
571.299	10766
571.357	11034
571.416	11053
571.475	11611
571.533	12541
571.592	11087
571.650	11241
571.709	10281
571.768	11684
571.826	11709
571.885	10953
571.943	10913
572.002	10225
572.060	10415
572.119	8884
572.177	9403
572.236	9524
572.294	9194
572.352	10382
572.411	10105
572.469	9142
572.528	10877
572.586	10825
572.644	11333
572.703	14921
572.761	11080
572.819	9579
572.877	10001
572.936	8354
572.994	9773
573.052	9141
573.110	9677
573.169	10228
573.227	10018
573.285	8850
573.343	8959
573.401	9519
573.459	9215
573.517	9095
573.576	9243
573.634	8961
573.692	10250
573.750	10516
573.808	9032
573.866	8730
573.924	11312
573.982	10230
574.040	9360
574.098	8830
574.155	8459
574.213	8698
574.271	8653
574.329	9732
574.387	9532
574.445	8351
574.503	8184
574.560	6965
574.618	7912
574.676	8375
574.734	7744
574.792	8052
574.849	8843
574.907	6564
574.965	7656
575.022	6527
575.080	7876
575.138	7644
575.195	7843
575.253	7846
575.311	8697
575.368	8002
575.426	7212
575.483	7080
575.541	7564
575.598	7069
575.656	7915
575.713	7318
575.771	7467
575.828	7439
575.886	7000
575.943	8499
576.001	8092
576.058	7184
576.115	8961
576.173	9310
576.230	10693
576.287	11146
576.345	9339
576.402	8290
576.459	8055
576.517	8376
576.574	8638
576.631	8697
576.688	8813
576.746	7931
576.803	7733
576.860	7111
576.917	7734
576.974	7192
577.031	7391
577.089	7384
577.146	7465
577.203	8028
577.260	7840
577.317	7428
577.374	8167
577.431	8614
577.488	8464
577.545	7713
577.602	8110
577.659	7385
577.716	7426
577.773	8069
577.830	7395
577.886	7706
577.943	7744
578.000	7001
578.057	7405
578.114	7386
578.171	7976
578.227	7749
578.284	8091
578.341	8088
578.398	7390
578.454	8161
578.511	7939
578.568	9587
578.625	8948
578.681	7264
578.738	7269
578.794	6972
578.851	9101
578.908	7475
578.964	7616
579.021	8513
579.077	7657
579.134	8188
579.190	8032
579.247	7288
579.303	7634
579.360	7618
579.416	7158
579.473	7308
579.529	7214
579.586	7150
579.642	8528
579.698	8202
579.755	8112
579.811	7657
579.867	7682
579.924	7609
579.980	7175
580.036	8012
580.093	8306
580.149	8604
580.205	9291
580.261	8156
580.317	8337
580.374	8230
580.430	9626
580.486	9537
580.542	8335
580.598	8400
580.619	8176
580.654	7798
580.692	8219
580.710	8445
580.765	8972
580.767	9001
580.823	8167
580.838	8167
580.879	8204
580.911	8457
580.935	8647
580.984	8037
580.991	7970
581.047	7805
581.057	7961
581.103	8674
581.130	8181
581.159	7681
581.203	8465
581.215	8689
581.270	8097
581.276	8081
581.326	8020
581.349	8238
581.382	8577
581.422	8671
581.438	8728
581.494	7733
581.494	7728
581.550	7972
581.567	8138
581.606	8503
581.640	8482
581.661	8490
581.713	8301
581.717	8291
581.773	7795
581.786	7908
581.829	8331
581.859	7933
581.885	7594
581.932	7843
581.940	7886
581.996	8444
582.004	8402
582.052	8312
582.077	8141
582.107	7915
582.150	8103
582.163	8170
582.219	7490
582.223	7520
582.274	7894
582.296	7827
582.330	7841
582.368	7733
582.386	7636
582.441	7555
582.441	7558
582.497	7943
582.514	8003
582.552	8191
582.587	7771
582.608	7503
582.659	8533
582.663	8609
582.719	8056
582.732	8003
582.774	7961
582.805	8364
582.830	8661
582.877	8368
582.885	8331
582.941	7756
582.950	7855
582.996	8416
583.023	8438
583.052	8409
583.095	7941
583.107	7821
583.162	8995
583.168	8945
583.218	8414
583.240	8074
583.273	7590
583.313	7656
583.328	7735
583.384	8097
583.385	8077
583.439	7416
583.458	7596
583.494	7862
583.531	7501
583.549	7308
583.603	7202
583.605	7204
583.660	8124
583.676	8191
583.715	8161
583.748	7852
583.770	7726
583.820	8315
583.825	8376
583.881	8618
583.893	8613
583.936	8518
583.965	8008
583.991	7467
584.038	8235
584.046	8402
584.101	7731
584.110	7676
584.156	7337
584.183	7672
584.211	8043
584.255	8274
584.266	8269
584.321	7466
584.328	7440
584.376	7764
584.400	7945
584.431	7920
584.472	7831
584.486	7806
584.541	8563
584.545	8584
584.596	8832
584.617	8922
584.651	9192
584.689	8781
584.706	8501
584.761	8349
584.762	8354
584.816	8672
584.834	8871
584.871	9052
584.906	8881
584.926	8785
584.978	8922
584.980	8919
585.035	9425
585.051	9440
585.090	9698
585.123	10566
585.145	11058
585.195	11326
585.200	11365
585.254	12301
585.267	12724
585.309	13973
585.340	15671
585.364	17038
585.412	20844
585.419	21330
585.473	28170
585.484	30097
585.528	38410
585.556	45200
585.583	52760
585.628	69731
585.637	75041
585.692	143156
585.700	160610
585.747	260502
585.772	215052
585.801	134087
585.845	54865
585.856	39226
585.910	19606
585.917	17934
585.965	15329
585.989	14175
586.019	12976
586.061	12520
586.074	12448
586.128	12609
586.133	12602
586.183	12440
586.205	12698
586.237	13089
586.277	12812
586.292	12578
586.346	12447
586.349	12479
586.401	12914
586.421	12886
586.455	12767
586.493	13268
586.509	13831
586.564	15562
586.565	15680
586.618	21711
586.637	22807
586.672	22423
586.709	20212
586.727	18426
586.781	15701
586.781	15674
586.835	15241
586.853	14795
586.889	13550
586.925	13131
586.944	13306
586.996	14280
586.998	14267
587.052	14215
587.068	14230
587.106	14252
587.140	14369
587.161	14307
587.212	14405
587.215	14392
587.269	15411
587.284	15489
587.323	15437
587.356	15656
587.377	15941
587.427	16842
587.431	16849
587.485	17284
587.499	17405
587.539	17474
587.571	17695
587.593	18006
587.643	19603
587.648	19694
587.702	20222
587.715	20471
587.755	20919
587.786	21688
587.810	22048
587.858	22282
587.864	22316
587.917	23906
587.930	24373
587.971	25980
588.001	27433
588.025	28515
588.073	30619
588.079	30746
588.133	33328
588.145	34049
588.187	37004
588.217	39739
588.241	41852
588.288	46613
588.295	47204
588.348	55002
588.360	57084
588.402	64854
588.431	71688
588.456	76566
588.503	89970
588.510	91766
588.564	113134
588.575	119656
588.617	144327
588.646	166497
588.671	185036
588.718	231498
588.725	238886
588.778	317513
588.789	339887
588.832	456609
588.861	553720
588.886	685579
588.932	907453
588.939	937950
588.993	1073474
589.004	1119333
589.047	980433
589.075	818050
589.100	663551
589.147	374508
589.154	351932
589.207	245238
589.218	230841
589.261	209647
589.290	206678
589.314	209319
589.361	228535
589.368	232608
589.421	292709
589.433	311855
589.475	440305
589.504	547522
589.528	690215
589.576	906627
589.582	899494
589.635	824180
589.647	789757
589.689	487310
589.718	289282
589.742	221045
589.790	126279
589.795	120480
589.849	86260
589.861	80414
589.902	68759
589.932	62212
589.955	56707
590.004	46503
590.009	45462
590.062	38540
590.075	37111
590.115	33411
590.146	31392
590.168	30137
590.218	27743
590.222	27410
590.275	25538
590.289	25196
590.328	24099
590.360	23388
590.381	22673
590.431	21378
590.435	21168
590.488	19872
590.503	19561
590.541	19036
590.574	18928
590.594	18375
590.645	17035
590.647	16935
590.700	16713
590.716	16821
590.753	16479
590.787	16305
590.806	15945
590.859	15211
590.859	15125
590.912	14638
590.930	14545
590.965	14533
591.001	14743
591.018	14584
591.071	14185
591.072	14251
591.124	13773
591.143	13694
591.177	13377
591.214	13183
591.230	13243
591.283	13765
591.285	13856
591.336	14234
591.356	14453
591.389	14502
591.427	14585
591.442	14136
591.495	12719
591.498	12683
591.547	12447
591.569	12419
591.600	11960
591.640	11558
591.653	11594
591.706	11963
591.711	12066
591.759	11856
591.782	11860
591.811	12444
591.853	13481
591.864	13314
591.917	12630
591.924	12593
591.969	11811
591.995	11489
592.022	11548
592.066	11815
592.075	11878
592.127	12639
592.137	12845
592.180	13964
592.208	14789
592.233	14225
592.279	13246
592.285	13025
592.338	11707
592.350	11465
592.390	11226
592.421	11181
592.443	10964
592.491	10704
592.495	10646
592.548	10805
592.562	10914
592.600	11296
592.633	11767
592.653	11297
592.704	10191
592.705	10264
592.775	11124
592.846	11964
592.916	10578
592.987	12409
593.058	11531
593.128	10229
593.199	10282
593.270	11224
593.341	10443
593.411	11227
593.482	10357
593.553	11200
593.623	10836
593.694	11707
593.764	12230
593.835	11804
593.906	10854
593.976	11613
594.047	12107
594.117	13551
594.188	14573
594.258	12550
594.329	11877
594.399	12154
594.470	12084
594.540	12638
594.611	12516
594.681	12258
594.751	12074
594.822	13544
594.892	13965
594.963	14938
595.033	14362
595.103	14858
595.174	14938
595.244	17547
595.314	23629
595.384	18055
595.455	14566
595.525	16822
595.595	16182
595.665	16268
595.736	15509
595.806	16612
595.876	16013
595.946	16230
596.016	15593
596.087	17814
596.157	16239
596.227	16581
596.297	17409
596.367	18195
596.437	20092
596.507	22927
596.577	25655
596.647	22588
596.717	20145
596.787	20930
596.857	21004
596.927	21090
596.997	20244
597.067	20282
597.137	22152
597.207	21493
597.277	20440
597.347	21335
597.417	20724
597.487	20920
597.557	21430
597.626	22024
597.696	22220
597.766	22793
597.836	26074
597.906	23895
597.975	19008
598.045	19945
598.115	20161
598.185	20553
598.254	22407
598.324	25688
598.394	25451
598.464	26184
598.533	24799
598.603	23157
598.672	22309
598.742	22524
598.812	23527
598.881	23722
598.951	22128
599.020	21907
599.090	23152
599.159	24363
599.229	23395
599.299	22010
599.368	22649
599.437	23160
599.507	21816
599.576	22248
599.646	20839
599.715	20932
599.785	19591
599.854	20202
599.924	20371
599.993	21742
600.062	19976
600.132	19861
600.201	20530
600.270	24170
600.340	25807
600.409	25256
600.478	23539
600.547	25267
600.617	25547
600.686	21240
600.755	17707
600.824	18211
600.894	17473
600.963	16176
601.032	15903
601.101	15996
601.170	15592
601.239	14875
601.308	14856
601.378	15640
601.447	14440
601.516	14064
601.585	14979
601.654	15419
601.723	15971
601.792	14867
601.861	15105
601.930	17273
601.999	17188
602.068	16171
602.137	17868
602.206	18432
602.275	16367
602.343	18067
602.412	19968
602.481	18388
602.550	16775
602.619	18110
602.688	18079
602.756	16787
602.825	17321
602.894	17097
602.963	17320
603.032	18505
603.100	18412
603.169	18984
603.238	18338
603.307	18699
603.375	18041
603.444	18803
603.513	19772
603.581	19717
603.650	19424
603.719	20195
603.787	19507
603.856	21664
603.924	21385
603.993	21884
604.061	21581
604.130	23273
604.198	24384
604.267	23691
604.335	24606
604.404	24863
604.472	24134
604.541	25471
604.609	25046
604.678	25059
604.746	24834
604.815	26518
604.883	26594
604.951	26972
605.020	26638
605.088	27533
605.156	27836
605.225	29222
605.293	28403
605.361	29461
605.429	29553
605.498	29824
605.566	30618
605.634	31503
605.702	33239
605.771	34849
605.839	34948
605.907	34484
605.975	33252
606.043	30732
606.111	31422
606.180	32072
606.248	31452
606.316	31381
606.384	31762
606.452	32721
606.520	35037
606.588	35980
606.656	34161
606.724	34091
606.792	31303
606.860	29666
606.928	26636
606.996	24772
607.064	24274
607.132	24625
607.200	25466
607.267	26748
607.335	26224
607.403	27996
607.471	26814
607.539	26007
607.607	26383
607.674	24265
607.742	24011
607.810	24384
607.878	24137
607.946	23870
608.013	23315
608.081	26005
608.149	25433
608.216	26461
608.284	27010
608.352	27080
608.419	27118
608.487	28950
608.555	28603
608.622	26376
608.690	27481
608.757	29701
608.825	32426
608.893	31537
608.960	31339
609.028	31490
609.095	31340
609.163	30278
609.230	27139
609.298	23544
609.365	23937
609.432	25220
609.500	27004
609.567	30759
609.635	35268
609.702	38189
609.769	38858
609.837	33850
609.904	26526
609.971	25293
610.039	27930
610.106	34933
610.173	59846
610.241	145303
610.308	180377
610.375	60385
610.442	33449
610.509	26885
610.577	26320
610.644	26770
610.711	26680
610.778	27691
610.845	27926
610.912	30660
610.980	31555
611.047	31335
611.114	31689
611.181	30694
611.248	30034
611.315	31193
611.382	33110
611.449	32244
611.516	34477
611.583	34558
611.650	33982
611.717	34444
611.784	35449
611.851	37396
611.918	40377
611.984	46559
612.051	61566
612.118	113714
612.185	297822
612.252	413770
612.319	87859
612.386	47555
612.452	42123
612.519	40284
612.586	41508
612.653	42148
612.719	39732
612.786	39995
612.853	36751
612.919	34933
612.986	35887
613.053	33771
613.120	33161
613.186	29194
613.253	30476
613.319	30021
613.386	30208
613.453	30887
613.519	32293
613.586	32910
613.652	37962
613.719	36711
613.785	35522
613.852	32596
613.918	30742
613.985	31286
614.051	32818
614.118	34668
614.184	38497
614.250	32126
614.317	31430
614.383	30712
614.449	30775
614.516	31771
614.582	32317
614.648	32744
614.715	30042
614.781	31815
614.847	29925
614.914	30870
614.980	29957
615.046	29115
615.112	29430
615.179	30355
615.245	30957
615.311	31045
615.377	32972
615.443	37347
615.509	32827
615.575	32851
615.642	32206
615.708	33873
615.774	35123
615.840	37568
615.906	42284
615.972	51724
616.038	75930
616.104	145748
616.170	352388
616.236	624077
616.302	152480
616.368	65477
616.434	49477
616.500	40531
616.565	40729
616.631	52593
616.697	50409
616.763	43222
616.829	56326
616.895	103777
616.961	141549
617.026	69894
617.092	36462
617.158	32425
617.224	32395
617.289	30883
617.355	28834
617.421	28666
617.487	28369
617.552	26145
617.618	25759
617.684	25488
617.749	26343
617.815	25670
617.880	24093
617.946	26028
618.012	24101
618.077	25637
618.143	25001
618.208	23914
618.274	25678
618.339	27719
618.405	24146
618.470	22047
618.536	21958
618.601	22215
618.667	22520
618.732	20054
618.798	20174
618.863	19734
618.928	18501
618.994	20606
619.059	19932
619.124	23336
619.190	24267
619.255	19336
619.320	19586
619.386	20062
619.451	18672
619.516	19273
619.581	18392
619.647	19566
619.712	19892
619.777	19241
619.842	18689
619.907	19928
619.972	19534
620.038	19870
620.103	18458
620.168	18367
620.233	18164
620.298	18895
620.363	19020
620.428	19137
620.493	19725
620.558	20322
620.623	20414
620.688	20287
620.753	19047
620.818	20628
620.883	20409
620.948	21124
621.013	21311
621.078	21207
621.143	19878
621.207	21056
621.272	20790
621.337	21007
621.402	21040
621.467	22086
621.532	24213
621.596	21862
621.661	20693
621.726	19850
621.791	19210
621.855	20292
621.920	20571
621.985	21049
622.049	21964
622.114	22409
622.179	22020
622.243	20507
622.308	21873
622.373	22750
622.437	22538
622.502	21927
622.566	20235
622.631	20454
622.695	21636
622.760	21244
622.824	20315
622.889	21575
622.953	21357
623.018	25083
623.082	30872
623.147	23058
623.211	21685
623.276	22766
623.340	21058
623.404	19706
623.469	20245
623.533	20369
623.597	19458
623.662	20144
623.726	18997
623.790	17907
623.854	17054
623.919	17435
623.983	17130
624.047	16999
624.111	17670
624.176	17760
624.240	18126
624.304	20412
624.368	18344
624.432	18183
624.496	19234
624.560	19808
624.625	22063
624.689	20869
624.753	18981
624.817	19028
624.881	18068
624.945	17588
625.009	16329
625.073	16394
625.137	17055
625.201	20270
625.265	22767
625.329	18193
625.393	17692
625.456	18686
625.520	17324
625.584	19311
625.648	20734
625.712	24767
625.776	36477
625.839	53720
625.903	37939
625.967	16915
626.031	19313
626.095	31756
626.158	26528
626.222	15032
626.286	12238
626.349	12050
626.413	12380
626.477	12169
626.540	12532
626.604	12362
626.668	11550
626.731	11285
626.795	10907
626.858	11548
626.922	11854
626.986	10782
627.049	11295
627.113	11242
627.176	11697
627.240	10413
627.303	10387
627.366	11017
627.430	10588
627.493	11412
627.557	11176
627.620	10744
627.684	10853
627.747	11171
627.810	10781
627.874	10486
627.937	8769
628.000	10049
628.064	9928
628.127	8870
628.190	8264
628.253	9251
628.317	7898
628.380	7870
628.443	7892
628.506	7129
628.569	8170
628.632	7317
628.696	6338
628.759	6973
628.822	6608
628.885	6306
628.948	6094
629.011	6349
629.074	6522
629.137	6682
629.200	6174
629.263	7626
629.326	6585
629.389	6153
629.452	6213
629.515	6274
629.578	6148
629.641	6776
629.704	5891
629.767	6457
629.830	5542
629.892	6416
629.955	5649
630.018	5990
630.081	5576
630.144	8062
630.207	6424
630.269	7487
630.332	6106
630.395	6764
630.458	5545
630.520	5441
630.583	6014
630.646	5117
630.708	4882
630.771	4872
630.834	5512
630.896	5690
630.959	5546
631.021	6432
631.084	5324
631.146	5808
631.209	6523
631.272	5780
631.334	5227
631.397	5089
631.459	5243
631.522	6324
631.584	5035
631.646	6714
631.709	6683
631.771	8371
631.834	8275
631.896	6206
631.958	4653
632.021	5823
632.083	4834
632.145	5681
632.208	4796
632.270	5381
632.332	4713
632.395	4177
632.457	5047
632.519	5641
632.581	4912
632.643	4639
632.706	5276
632.768	4505
632.830	4616
632.892	4234
632.954	4911
633.016	5186
633.078	4786
633.141	5169
633.203	5440
633.265	4634
633.327	3809
633.389	5173
633.451	5031
633.513	6029
633.575	6682
633.637	6122
633.698	5889
633.760	5614
633.822	4651
633.884	5345
633.946	5788
634.008	5951
634.070	5752
634.132	5348
634.193	6186
634.255	6965
634.317	7491
634.379	7657
634.441	6175
634.502	5883
634.564	4845
634.626	4361
634.687	4595
634.749	4820
634.811	4804
634.873	3931
634.934	3692
634.996	4106
635.057	4873
635.119	3749
635.181	4746
635.242	5163
635.304	3355
635.365	5653
635.427	4474
635.488	4241
635.550	4794
635.611	4694
635.673	3648
635.734	4872
635.796	4567
635.857	5733
635.918	4409
635.980	6669
636.041	7537
636.102	6692
636.164	7996
636.225	7567
636.286	7091
636.348	6161
636.409	5027
636.470	3984
636.531	3861
636.593	4153
636.654	4595
636.715	3858
636.776	3438
636.838	2535
636.899	3182
636.960	3569
637.021	3858
637.082	3687
637.143	3696
637.204	3420
637.265	3252
637.326	3299
637.387	3121
637.448	3634
637.509	2784
637.570	3723
637.631	2774
637.692	3064
637.753	2837
637.814	2958
637.875	2703
637.936	2985
637.997	3166
638.058	3290
638.119	3814
638.179	3169
638.240	2257
638.301	3116
638.362	2502
638.423	2412
638.483	3554
638.544	2347
638.605	3018
638.666	2796
638.726	3224
638.787	2959
638.848	3054
638.908	3259
638.969	3355
639.030	2231
639.090	2569
639.151	2741
639.211	2418
639.272	4307
639.332	5497
639.393	6160
639.453	3362
639.514	3376
639.574	3168
639.635	2429
639.695	2076
639.756	1930
639.816	2879
639.877	3372
639.937	4421
639.997	8465
640.058	5238
640.118	2902
640.178	2519
640.239	1828
640.299	1775
640.359	2802
640.420	2821
640.480	2659
640.540	2808
640.600	4185
640.661	2383
640.721	2425
640.781	4390
640.841	2878
640.901	2783
640.961	2604
641.021	2647
641.082	2851
641.142	4447
641.202	5323
641.262	878
641.322	2505
641.382	2065
641.442	2584
641.502	2221
641.562	2627
641.622	2162
641.682	2832
641.742	3116
641.802	3413
641.861	2653
641.921	2461
641.981	3185
642.041	2940
642.101	3388
642.161	3724
642.221	1321
642.280	2045
642.340	1492
642.400	2333
642.460	2214
642.519	2153
642.579	1542
642.639	2815
642.698	529
642.758	3277
642.818	2387
642.877	1967
642.937	1785
642.997	2280
643.056	3814
643.116	3004
643.175	3142
643.235	2138
643.294	2335
643.354	2446
643.414	2998
643.473	3754
643.532	4692
643.592	6398
643.651	10975
643.711	20627
643.770	41052
643.830	85562
643.889	272780
643.948	223886
644.008	20819
644.067	7398
644.126	4947
644.186	4005
644.245	3873
644.304	2654
644.363	2922
644.423	2680
644.482	1427
644.541	1771
644.600	1574
644.659	3689
644.719	3283
644.778	5752
644.837	8793
644.896	19527
644.955	50036
645.014	54750
645.073	6827
645.132	3038
645.191	2916
645.250	2267
645.309	2022
645.368	2195
645.427	3566
645.486	5029
645.545	10860
645.604	7404
645.663	2530
645.722	2460
645.781	2008
645.840	3318
645.898	3977
645.957	6805
646.016	10811
646.075	19265
646.134	36351
646.192	78745
646.251	237581
646.310	111628
646.369	10747
646.427	5517
646.486	3783
646.545	2819
646.603	2407
646.662	2558
646.721	1504
646.779	1916
646.838	1690
646.896	3165
646.955	3524
647.014	5967
647.072	9871
647.131	25451
647.189	41690
647.248	6252
647.306	2626
647.365	2149
647.423	1207
647.481	2689
647.540	1151
647.598	1556
647.657	1051
647.715	1567
647.773	702
647.832	1247
647.890	527
647.948	220
648.007	1864
648.065	744
648.123	761
648.181	2020
648.240	523
648.298	1172
648.356	375
648.414	964
648.472	1514
648.531	1000
648.589	1358
648.647	584
648.705	1212
648.763	900
648.821	1107
648.879	724
648.937	671
648.995	2131
649.053	2355
649.111	4283
649.169	7847
649.227	15045
649.285	27390
649.343	75316
649.401	125334
649.459	20261
649.516	10500
649.574	2804
649.632	3782
649.690	5390
649.748	3925
649.806	3242
649.863	8937
649.921	17061
649.979	33077
650.037	6377
650.094	206
650.152	1341
650.210	14
650.268	1111
650.325	662
650.383	1011
650.440	671
650.498	1013
650.556	848
650.613	550
650.671	534
650.728	288
650.786	831
650.843	997
650.901	-138
650.958	235
651.016	250
651.073	347
651.131	594
651.188	141
651.246	516
651.303	103
651.360	678
651.418	-165
651.475	720
651.532	14
651.590	270
651.647	-88
651.704	197
651.762	-448
651.819	-594
651.876	-26
651.933	282
651.990	337
652.048	24
652.105	106
652.162	299
652.219	655
652.276	-24
652.333	596
652.390	-218
652.448	-54
652.505	384
652.562	74
652.619	-384
652.676	6
652.733	260
652.790	55
652.847	-848
652.904	-267
652.961	2
653.017	-375
653.074	311
653.131	462
653.188	-31
653.245	-44
653.302	-457
653.359	-309
653.415	159
653.472	-48
653.529	-447
653.586	-164
653.642	106
653.699	475
653.756	243
653.813	-251
653.869	93
653.926	-415
653.983	-307
654.039	-228
654.096	-85
654.152	1014
654.209	-1082
654.266	-224
654.322	-1013
654.379	399
654.435	3
654.492	162
654.548	-18
654.605	1867
654.661	2150
654.717	-78
654.774	-243
654.830	273
654.887	801
654.943	203
655.000	540
655.056	362
655.112	261
655.168	-319
655.225	-327
655.281	234
655.337	-63
655.394	1848
655.450	1813
655.506	722
655.562	692
655.618	2896
655.675	388
655.731	-392
655.787	18
655.843	273
655.899	-411
655.955	451
656.011	263
656.067	-613
656.123	548
656.179	-153
656.235	383
656.291	168
656.347	431
656.403	46
656.459	518
656.515	658
656.571	-165
656.627	844
656.683	-24
656.739	248
656.795	-257
656.850	284
656.906	129
656.962	259
657.018	-541
657.074	-8
657.129	258
657.185	1028
657.241	533
657.297	2217
657.352	-38
657.408	-819
657.464	1253
657.519	-119
657.575	-891
657.630	-732
657.686	-89
657.742	-254
657.797	-496
657.853	-147
657.908	717
657.964	-256
658.019	-414
658.075	473
658.130	-102
658.186	-753
658.241	-1110
658.297	-36
658.352	-1026
658.407	126
658.463	-250
658.518	-178
658.573	461
658.629	-9
658.684	-129
658.739	-80
658.795	-619
658.850	364
658.905	-779
658.960	104
659.016	-783
659.071	-21
659.126	-208
659.181	-319
659.236	334
659.291	1811
659.346	911
659.401	-260
659.457	-78
659.512	449
659.567	324
659.622	373
659.677	-1441
659.732	-929
659.787	-34
659.842	-612
659.897	-258
659.952	302
660.007	575
660.061	-34
660.116	-932
660.171	-690
660.226	-478
660.281	983
660.336	-1021
660.391	-409
660.445	-846
660.500	-610
660.555	-447
660.610	-729
660.664	-56
660.719	-733
660.774	291
660.828	-690
660.883	-727
660.938	162
660.992	-638
661.047	-452
661.101	110
661.156	119
661.211	-192
661.265	-773
661.320	-41
661.374	-524
661.429	-979
661.483	354
661.538	-238
661.592	-1038
661.647	-446
661.701	-304
661.755	-811
661.810	-650
661.864	-1645
661.919	-815
661.973	-231
662.027	-217
662.081	-1071
662.136	-830
662.190	-533
662.244	1138
662.299	-721
662.353	168
662.407	-963
662.461	-638
662.515	129
662.569	-121
662.624	-149
662.678	438
662.732	-351
662.786	-870
662.840	-959
662.894	243
662.948	-380
663.002	277
663.056	-556
663.110	-565
663.164	-818
663.218	-27
663.272	-983
663.326	34
663.380	-495
663.434	-218
663.488	-792
663.542	276
663.595	584
663.649	-884
663.703	158
663.757	209
663.811	-1236
663.864	-314
663.918	-191
663.972	-976
664.026	78
664.079	-893
664.133	-521
664.187	913
664.240	-564
664.294	120
664.348	-106
664.401	98
664.455	277
664.508	-987
664.562	-371
664.615	-174
664.669	-1221
664.722	-262
664.776	-263
664.829	-1091
664.883	-695
664.936	36
664.990	-1151
665.043	-173
665.097	-841
665.150	169
665.203	-135
665.257	335
665.310	50
665.363	-1244
665.417	-1048
665.470	10
665.523	-1442
665.576	157
665.630	-278
665.683	-816
665.736	236
665.789	824
665.842	-697
665.895	-534
665.949	438
666.002	-353
666.055	-502
666.108	460
666.161	-599
666.214	-125
666.267	202
666.320	-133
666.373	287
666.426	213
666.479	-674
666.532	2
666.585	-662
666.638	671
666.691	-231
666.744	974
666.796	-127
666.849	493
666.902	-142
666.955	-619
667.008	-542
667.060	-617
667.113	-1229
667.166	-237
667.219	203
667.271	-231
667.324	-521
667.377	-130
667.430	-361
667.482	-945
667.535	11
667.587	402
667.640	352
667.693	-738
667.745	752
667.798	2164
667.850	242
667.903	-553
667.955	135
668.008	-209
668.060	21
668.113	-133
668.165	942
668.218	-276
668.270	-145
668.322	-228
668.375	-3
668.427	1273
668.479	-589
668.532	-148
668.584	-547
668.636	401
668.689	-258
668.741	14
668.793	-674
668.845	-324
668.898	-111
668.950	35
669.002	-1321
669.054	-300
669.106	-414
669.158	8
669.211	-545
669.263	293
669.315	-158
669.367	398
669.419	-703
669.471	813
669.523	492
669.575	641
669.627	384
669.679	-202
669.731	-437
669.783	157
669.835	-435
669.886	34
669.938	-170
669.990	337
670.042	-714
670.094	142
670.146	-58
670.197	218
670.249	-112
670.301	718
670.353	806
670.404	2008
670.456	2343
670.508	5794
670.560	10293
670.611	18400
670.663	34871
670.715	64941
670.766	182746
670.818	175389
670.869	29059
670.921	6056
670.972	2858
671.024	1854
671.075	1342
671.127	1251
671.178	665
671.230	675
671.281	952
671.333	53
671.384	13
671.436	327
671.487	1055
671.538	1509
671.590	1914
671.641	4147
671.692	6362
671.744	15124
671.795	22496
671.846	6845
671.897	1763
671.949	841
672.000	219
672.051	25
672.102	590
672.153	-274
672.204	29
672.256	-334
672.307	-38
672.358	-16
672.409	-272
672.460	363
672.511	-265
672.562	-866
672.613	-445
672.664	-479
672.715	-716
672.766	-355
672.817	-608
672.868	-661
672.919	384
672.970	-264
673.021	422
673.071	-364
673.122	-5
673.173	-839
673.224	-94
673.275	180
673.326	-431
673.376	27
673.427	-1403
673.478	-386
673.528	-667
673.579	-988
673.630	-454
673.680	561
673.731	-797
673.782	-879
673.832	-741
673.883	-189
673.934	-606
673.984	46
674.035	-438
674.085	79
674.136	-4
674.186	127
674.237	-118
674.287	94
674.338	769
674.388	-114
674.438	-291
674.489	-224
674.539	-664
674.589	-182
674.640	-89
674.690	-196
674.740	-689
674.791	-677
674.841	98
674.891	80
674.942	-719
674.992	-691
675.042	-626
675.092	-622
675.142	-950
675.193	-812
675.243	-1281
675.293	-162
675.343	-984
675.393	157
675.443	-569
675.493	-185
675.543	-1342
675.593	2
675.643	-297
675.693	-342
675.743	-78
675.793	201
675.843	-1258
675.893	-285
675.943	-273
675.993	-742
676.043	-755
676.093	268
676.142	-1023
676.192	-350
676.242	-34
676.292	-267
676.341	-462
676.391	-891
676.441	-805
676.491	-523
676.540	-854
676.590	-52
676.640	-1268
676.689	-914
676.739	-1317
676.789	-879
676.838	-685
676.888	-759
676.937	-889
676.987	-810
677.037	-541
677.086	-1235
677.136	-459
677.185	-652
677.235	-474
677.284	-502
677.333	-829
677.383	-817
677.432	-1761
677.482	-730
677.531	-833
677.580	-1612
677.630	-814
677.679	-658
677.728	-1364
677.778	41
677.827	-860
677.876	-1214
677.925	-1784
677.975	-237
678.024	-123
678.073	-380
678.122	-975
678.171	-699
678.220	-410
678.269	-32
678.319	-320
678.368	-730
678.417	-1018
678.466	-128
678.515	-528
678.564	-600
678.613	-151
678.662	-702
678.711	-1055
678.760	-468
678.809	-857
678.857	-1334
678.906	-457
678.955	-1293
679.004	-774
679.053	-822
679.102	-1454
679.151	-503
679.199	-639
679.248	-625
679.297	-1047
679.346	-760
679.394	-1024
679.443	-945
679.492	-941
679.540	-957
679.589	-753
679.638	-937
679.686	34
679.735	-319
679.784	-714
679.832	-742
679.881	-1288
679.929	-762
679.978	-1328
680.026	-755
680.075	-823
680.123	-938
680.172	-1450
680.220	-434
680.268	-1262
680.317	-882
680.365	-899
680.414	-1186
680.462	-790
680.510	-93
680.559	-618
680.607	-1174
680.655	-1175
680.703	-647
680.752	-1432
680.800	-413
680.848	-1206
680.896	-1223
680.945	-398
680.993	-791
681.041	-407
681.089	-130
681.137	-790
681.185	-1351
681.233	-1054
681.258	-962
681.281	-890
681.329	-807
681.377	-751
681.380	-775
681.425	-1480
681.473	-1221
681.502	-1012
681.521	-894
681.569	-51
681.617	-626
681.624	-609
681.665	-622
681.713	-1116
681.745	-400
681.761	-80
681.809	-1097
681.857	-106
681.867	-333
681.904	-1158
681.952	-82
681.989	-209
682.000	-268
682.048	-359
682.096	-774
682.111	-633
682.143	-373
682.191	-272
682.233	-461
682.239	-506
682.286	-38
682.334	-488
682.354	-641
682.382	-886
682.430	219
682.476	-36
682.477	-51
682.525	-470
682.572	-221
682.598	-21
682.620	136
682.667	-84
682.715	-82
682.720	-38
682.763	196
682.810	16
682.841	-53
682.857	-74
682.905	-58
682.952	296
682.963	258
683.000	-14
683.047	136
683.085	379
683.095	440
683.142	216
683.190	116
683.206	-53
683.237	-376
683.284	153
683.328	181
683.332	173
683.379	-15
683.426	-372
683.449	28
683.473	396
683.521	362
683.568	236
683.571	239
683.615	191
683.662	415
683.693	206
683.709	36
683.757	297
683.804	680
683.814	593
683.851	377
683.898	623
683.936	324
683.945	227
683.992	465
684.039	934
684.057	916
684.086	880
684.133	861
684.179	860
684.180	849
684.227	1608
684.274	1054
684.300	1374
684.321	1639
684.368	749
684.415	894
684.422	902
684.462	764
684.509	604
684.543	808
684.556	877
684.603	344
684.649	683
684.665	745
684.696	966
684.743	1099
684.786	1492
684.790	1511
684.837	938
684.883	651
684.908	568
684.930	514
684.977	1055
685.023	1273
685.029	1265
685.070	1020
685.117	1000
685.150	1312
685.164	1462
685.210	774
685.257	1968
685.272	1943
685.303	1861
685.350	1414
685.393	1697
685.396	1713
685.443	1498
685.490	1549
685.514	1715
685.536	1896
685.583	2079
685.629	1948
685.636	2011
685.675	2082
685.722	2307
685.757	1930
685.768	1856
685.815	1566
685.861	1521
685.878	1776
685.908	2110
685.954	2257
686.000	1830
686.000	1823
686.047	1894
686.093	2432
686.121	2448
686.139	2423
686.185	2991
686.232	2360
686.242	2325
686.278	1992
686.324	1498
686.363	2030
686.370	2155
686.416	2016
686.463	2330
686.484	2044
686.509	1640
686.555	2548
686.601	1330
686.606	1340
686.647	1585
686.693	1746
686.727	2190
686.739	2341
686.785	2229
686.831	2522
686.848	2450
686.877	2247
686.923	1623
686.969	1738
686.969	1739
687.015	2090
687.061	2229
687.090	2295
687.107	2240
687.153	2282
687.199	2273
687.211	2150
687.245	1972
687.291	2759
687.332	2562
687.336	2523
687.382	2698
687.428	2583
687.453	2354
687.474	2214
687.520	2446
687.565	2205
687.574	2149
687.611	1887
687.657	2001
687.695	2139
687.702	2199
687.748	2368
687.794	2823
687.816	2741
687.839	2567
687.885	2407
687.931	2487
687.937	2488
687.976	2684
688.022	3206
688.058	3241
688.067	3201
688.113	3150
688.158	2779
688.179	2995
688.204	3314
688.249	3064
688.295	3455
688.300	3382
688.340	2836
688.386	3375
688.421	3231
688.431	3174
688.477	3021
688.522	2312
688.542	2654
688.567	3203
688.613	2853
688.658	3211
688.663	3215
688.703	3191
688.749	3322
688.784	3287
688.794	3288
688.839	3401
688.884	3654
688.905	3507
688.930	3325
688.975	3515
689.020	3500
689.026	3509
689.065	3492
689.110	3297
689.146	3157
689.155	3168
689.201	3168
689.246	3316
689.267	3379
689.291	3420
689.336	3370
689.381	3425
689.388	3402
689.426	3313
689.471	3389
689.509	3162
689.516	3129
689.561	3532
689.606	3209
689.630	3241
689.651	3253
689.696	3270
689.741	3379
689.750	3350
689.785	3337
689.830	3421
689.871	3044
689.875	3011
689.920	3468
689.965	3301
689.992	3463
690.010	3521
690.054	2822
690.099	2893
690.112	2911
690.144	3126
690.189	3145
690.233	2666
690.233	2670
690.278	3598
690.323	3165
690.354	3328
690.367	3427
690.412	3523
690.457	3579
690.474	3635
690.501	3601
690.546	3489
690.590	3509
690.595	3467
690.635	3350
690.680	3701
690.716	3529
690.724	3464
690.769	3497
690.813	3576
690.836	3426
690.857	3502
690.902	3807
690.946	3973
690.957	4035
690.991	4118
691.035	4207
691.077	4621
691.080	4668
691.124	4949
691.168	5531
691.198	5556
691.213	5312
691.257	4997
691.301	4437
691.318	4371
691.346	4613
691.390	4572
691.434	4347
691.439	4337
691.478	4092
691.522	4245
691.559	3854
691.567	3850
691.611	4122
691.655	4101
691.680	4140
691.699	4090
691.743	4100
691.787	4286
691.800	4116
691.831	3884
691.875	4272
691.919	4650
691.921	4634
691.964	4285
692.008	4150
692.041	4271
692.052	4374
692.096	4331
692.139	4492
692.162	4455
692.183	4325
692.227	4467
692.271	4396
692.282	4401
692.315	4518
692.359	4064
692.402	4121
692.403	4135
692.447	4384
692.490	4753
692.523	4452
692.534	4336
692.578	4734
692.622	4674
692.643	4565
692.666	4403
692.709	4471
692.753	4341
692.763	4240
692.797	4259
692.840	4626
692.884	5111
692.884	5126
692.928	4853
692.971	5201
693.004	5058
693.015	5003
693.059	4935
693.102	5063
693.124	4760
693.146	4452
693.189	4587
693.233	4274
693.245	4234
693.276	4468
693.320	4728
693.363	5066
693.365	5061
693.407	4931
693.450	4855
693.485	4658
693.493	4687
693.537	4626
693.580	4959
693.605	5127
693.624	5244
693.667	5313
693.710	5413
693.725	5480
693.753	5914
693.797	6410
693.840	6780
693.845	6844
693.883	7572
693.926	8147
693.966	8910
693.970	8861
694.013	7632
694.056	6637
694.086	6188
694.099	6199
694.142	5634
694.185	5549
694.206	5267
694.229	5208
694.272	5373
694.315	5595
694.326	5579
694.358	5478
694.401	5484
694.444	5475
694.446	5445
694.487	5597
694.530	6133
694.566	6371
694.573	6303
694.616	5729
694.659	5360
694.686	5038
694.702	5004
694.745	4808
694.787	4776
694.806	4727
694.830	4760
694.873	4717
694.916	4591
694.926	4579
694.959	4757
695.002	5030
695.044	4939
695.046	4936
695.087	5082
695.130	4878
695.166	4918
695.172	4975
695.215	5179
695.258	5400
695.286	5403
695.301	5402
695.343	5633
695.386	5680
695.406	5708
695.428	5685
695.471	5611
695.514	5405
695.526	5367
695.556	5411
695.599	5561
695.641	5312
695.646	5314
695.684	5526
695.726	5387
695.766	5590
695.769	5605
695.811	5244
695.854	5081
695.886	4868
695.896	4950
695.938	5367
695.981	5545
696.005	5761
696.023	5828
696.065	5856
696.108	5827
696.125	5803
696.150	5778
696.192	5781
696.235	5655
696.245	5627
696.277	5714
696.319	5787
696.361	5907
696.365	5895
696.404	6185
696.446	6491
696.485	6670
696.488	6650
696.530	6233
696.572	5685
696.604	5353
696.614	5473
696.656	5852
696.698	6231
696.724	6379
696.740	6281
696.783	6216
696.825	6030
696.844	5903
696.867	6091
696.909	6285
696.951	6661
696.964	6756
696.992	6673
697.034	6410
697.076	6289
697.083	6232
697.118	6461
697.160	6791
697.202	7083
697.203	7070
697.244	6677
697.286	6108
697.323	5733
697.327	5780
697.369	6003
697.411	6121
697.442	6234
697.453	6246
697.494	6170
697.536	6179
697.562	6115
697.578	6282
697.620	6792
697.661	7168
697.682	7375
697.703	7387
697.744	7293
697.786	7278
697.801	7198
697.828	7458
697.869	8017
697.911	8379
697.921	8471
697.952	8188
697.994	7776
698.035	7309
698.040	7235
698.077	7088
698.118	6869
698.160	6668
698.160	6646
698.201	6675
698.243	6667
698.279	6681
698.284	6745
698.325	7086
698.367	7469
698.399	7725
698.408	7720
698.449	7573
698.491	7493
698.518	7346
698.532	7374
698.573	7451
698.614	7519
698.638	7526
698.656	7464
698.697	7260
698.738	7070
698.757	6961
698.779	7226
698.820	7673
698.862	8121
698.877	8265
698.903	8275
698.944	8243
698.985	8216
698.996	8186
699.026	8078
699.067	7893
699.116	7651
699.235	7228
699.354	7843
699.474	7108
699.593	8069
699.713	9402
699.832	7301
699.951	7581
700.070	7989
700.190	7249
700.309	7844
700.428	6762
700.547	7633
700.667	6985
700.786	7390
700.905	6962
701.024	6697
701.143	6882
701.262	6838
701.381	6891
701.500	7388
701.619	7689
701.738	6605
701.857	6125
701.976	6689
702.095	6303
702.214	7126
702.333	6901
702.452	7974
702.571	6644
702.690	7272
702.809	6832
702.928	6880
703.047	6355
703.165	6419
703.284	5881
703.403	6095
703.522	6309
703.640	7409
703.759	6810
703.878	8465
703.997	8006
704.115	6511
704.234	6157
704.353	6131
704.471	5649
704.590	5653
704.708	5182
704.827	5848
704.946	5310
705.064	6232
705.183	4940
705.301	6266
705.420	6576
705.538	7875
705.656	7307
705.775	5500
705.893	5577
706.012	7533
706.130	6848
706.249	6787
706.367	6217
706.485	7365
706.604	6813
706.722	6732
706.840	6918
706.958	8048
707.077	6630
707.195	6479
707.313	6181
707.431	6234
707.549	5489
707.668	6669
707.786	5834
707.904	5717
708.022	5450
708.140	6024
708.258	4877
708.376	5925
708.494	5986
708.612	5021
708.730	6554
708.848	8703
708.966	7206
709.084	7772
709.202	6336
709.320	6584
709.438	6187
709.556	6966
709.674	7386
709.791	6556
709.909	5599
710.027	6981
710.145	6234
710.263	6583
710.380	5670
710.498	5915
710.616	5687
710.733	5855
710.851	5452
710.969	6346
711.086	6162
711.204	6425
711.322	6409
711.439	6250
711.557	5985
711.674	5503
711.792	5305
711.909	6639
712.027	5421
712.144	5635
712.262	5040
712.379	5896
712.497	6969
712.614	8728
712.732	7698
712.849	6367
712.966	6679
713.084	8740
713.201	8444
713.318	6336
713.436	7009
713.553	6860
713.670	6031
713.787	7976
713.905	6997
714.022	7781
714.139	6762
714.256	7299
714.373	9281
714.490	12557
714.608	22264
714.725	76023
714.842	303851
714.959	91818
715.076	11024
715.193	8305
715.310	7648
715.427	7127
715.544	6025
715.661	6795
715.778	5753
715.895	5808
716.011	5061
716.128	6787
716.245	5461
716.362	6428
716.479	7687
716.596	6821
716.713	5654
716.829	5717
716.946	5246
717.063	5110
717.180	5345
717.296	5455
717.413	4354
717.530	5943
717.646	4407
717.763	6219
717.880	4706
717.996	4832
718.113	4676
718.229	5528
718.346	4504
718.462	4562
718.579	5250
718.695	8219
718.812	11557
718.928	6994
719.045	6972
719.161	5341
719.277	4370
719.394	5111
719.510	4821
719.626	4943
719.743	5354
719.859	7006
719.975	9694
720.092	22483
720.208	94576
720.324	87580
720.440	7939
720.557	5570
720.673	6267
720.789	10459
720.905	11958
721.021	17403
721.137	4708
721.253	4686
721.369	3967
721.486	4653
721.602	5433
721.718	6173
721.834	3592
721.950	4338
722.066	3608
722.181	4762
722.297	3517
722.413	4310
722.529	3897
722.645	3962
722.761	3462
722.877	3753
722.993	3628
723.108	4133
723.224	4247
723.340	3831
723.456	3734
723.571	4277
723.687	3049
723.803	3835
723.918	3330
724.034	4440
724.150	3037
724.265	3785
724.381	3621
724.497	9350
724.612	6003
724.728	3347
724.843	3145
724.959	3353
725.074	4491
725.190	9218
725.305	5108
725.421	3935
725.536	3392
725.651	3206
725.767	2966
725.882	3102
725.997	3033
726.113	3257
726.228	2926
726.343	3014
726.459	2203
726.574	3402
726.689	3012
726.804	3226
726.920	2493
727.035	2866
727.150	2648
727.265	3219
727.380	3277
727.495	3401
727.610	1756
727.725	3604
727.841	2443
727.956	2803
728.071	3376
728.186	3859
728.301	2181
728.416	2979
728.531	3081
728.645	3338
728.760	2410
728.875	3646
728.990	4064
729.105	3967
729.220	3866
729.335	4060
729.449	3119
729.564	2847
729.679	2266
729.794	2485
729.908	2875
730.023	3622
730.138	1251
730.253	2632
730.367	2416
730.482	2278
730.596	2146
730.711	3861
730.826	2862
730.940	3514
731.055	2312
731.169	3602
731.284	2537
731.398	2660
731.513	3292
731.627	3238
731.742	3076
731.856	4315
731.970	3088
732.085	4056
732.199	3736
732.313	6323
732.428	10684
732.542	31403
732.656	78816
732.771	19456
732.885	5146
732.999	4754
733.113	3820
733.227	4292
733.342	3978
733.456	3629
733.570	3059
733.684	3057
733.798	2617
733.912	3185
734.026	2436
734.140	3474
734.254	2526
734.368	3400
734.482	6018
734.596	4077
734.710	3003
734.824	3622
734.938	2430
735.052	3372
735.166	3569
735.280	3817
735.393	3073
735.507	2509
735.621	3472
735.735	4437
735.849	5194
735.962	3284
736.076	2683
736.190	3776
736.303	2860
736.417	5597
736.531	4013
736.644	3310
736.758	1699
736.872	2867
736.985	3130
737.099	2988
737.212	2763
737.326	3095
737.439	2685
737.553	3560
737.666	2151
737.780	3124
737.893	2449
738.007	2879
738.120	2515
738.233	2929
738.347	2237
738.460	2731
738.573	2980
738.687	3199
738.800	2910
738.913	2949
739.026	3929
739.140	2955
739.253	1738
739.366	3091
739.479	1516
739.592	2840
739.705	2734
739.818	2650
739.932	1871
740.045	2580
740.158	2468
740.271	3122
740.384	2847
740.497	2241
740.610	1897
740.723	2375
740.836	1882
740.949	3565
741.062	3163
741.174	4827
741.287	1887
741.400	2018
741.513	1772
741.626	3056
741.739	2153
741.851	2545
741.964	2287
742.077	1847
742.189	2121
742.302	2191
742.415	2773
742.527	3201
742.640	2124
742.753	2734
742.865	1537
742.978	2360
743.090	2119
743.203	2689
743.316	2149
743.428	1951
743.541	2148
743.653	2162
743.766	1660
743.878	2260
743.990	2845
744.103	2918
744.215	1675
744.327	2480
744.440	2705
744.552	3533
744.664	3286
744.777	1829
744.889	1838
745.001	2421
745.113	1815
745.226	2406
745.338	2164
745.450	2027
745.562	1615
745.674	2059
745.786	1617
745.898	1611
746.010	1355
746.122	1440
746.234	1461
746.347	2683
746.459	2037
746.570	2161
746.682	1163
746.794	2588
746.906	1703
747.018	1857
747.130	1716
747.242	1801
747.354	1027
747.466	2196
747.577	598
747.689	3013
747.801	1923
747.913	1965
748.024	1399
748.136	1444
748.248	990
748.359	1233
748.471	1464
748.583	1550
748.694	1440
748.806	1721
748.918	1969
749.029	2111
749.141	1506
749.252	2556
749.364	1728
749.475	2669
749.587	4966
749.698	1557
749.809	1924
749.921	1501
750.032	1289
750.144	1321
750.255	1253
750.366	1206
750.478	1572
750.589	1958
750.700	1661
750.811	1773
750.923	1560
751.034	2551
751.145	7039
751.256	2330
751.367	745
751.479	1474
751.590	1083
751.701	2156
751.812	1043
751.923	1488
752.034	1164
752.145	1172
752.256	1207
752.367	1606
752.478	1740
752.589	1838
752.700	1068
752.811	1370
752.922	1005
753.032	1454
753.143	1699
753.254	1422
753.365	1412
753.476	1649
753.586	1494
753.697	1493
753.808	1204
753.919	1306
754.029	589
754.140	1880
754.251	1029
754.361	1366
754.472	1174
754.582	1464
754.693	699
754.804	2155
754.914	768
755.025	1734
755.135	804
755.246	1241
755.356	1535
755.466	1489
755.577	1025
755.687	1050
755.798	754
755.908	1199
756.018	1332
756.129	496
756.239	887
756.349	1013
756.460	522
756.570	1507
756.680	717
756.790	1920
756.900	914
757.011	1246
757.121	1175
757.231	1196
757.341	194
757.451	1596
757.561	1109
757.671	1358
757.781	1039
757.891	1782
758.001	1522
758.111	942
758.221	1505
758.331	1603
758.441	1514
758.551	1965
758.661	2174
758.771	2062
758.880	1288
758.990	1423
759.100	498
759.210	1069
759.320	1913
759.429	1408
759.539	1747
759.649	1405
759.758	1352
759.868	1814
759.978	1239
760.087	1897
760.197	2051
760.307	2038
760.416	948
760.526	1400
760.635	849
760.745	1850
760.854	1858
760.964	1853
761.073	1063
761.182	1685
761.292	2345
761.401	1324
761.511	1754
761.620	1740
761.729	1464
761.839	1519
761.948	918
762.057	1661
762.166	1568
762.276	812
762.385	1620
762.494	1610
762.603	447
762.712	1766
762.822	1611
762.931	1726
763.040	695
763.149	963
763.258	610
763.367	1119
763.476	1429
763.585	1238
763.694	626
763.803	1092
763.912	1589
764.021	1168
764.130	668
764.238	1166
764.347	1570
764.456	1032
764.565	1411
764.674	1323
764.783	1157
764.891	1075
765.000	1537
765.109	2203
765.217	2289
765.326	2182
765.435	2461
765.543	3491
765.652	3190
765.761	3319
765.869	3472
765.978	6409
766.086	9601
766.195	18202
766.303	38023
766.412	111813
766.520	261090
766.629	148138
766.737	33502
766.846	13963
766.954	8113
767.062	6546
767.171	4751
767.279	4407
767.387	3024
767.496	2765
767.604	2030
767.712	2852
767.820	1750
767.928	1819
768.037	1724
768.145	2153
768.253	801
768.361	1914
768.469	1822
768.577	1867
768.685	2564
768.793	1963
768.901	1604
769.009	1606
769.117	1477
769.225	2580
769.333	2999
769.441	4579
769.549	6972
769.657	15025
769.765	38716
769.873	130211
769.981	184039
770.088	40071
770.196	10069
770.304	6540
770.412	3996
770.519	3620
770.627	2360
770.735	2761
770.842	2097
770.950	2095
771.058	1060
771.165	2374
771.273	2091
771.380	1895
771.488	1536
771.595	3113
771.703	2001
771.810	3009
771.918	2286
772.025	1919
772.133	1913
772.240	2212
772.348	1488
772.455	2626
772.562	1708
772.670	2018
772.777	1423
772.884	1564
772.991	1672
773.099	2252
773.206	865
773.313	1878
773.420	1521
773.528	2108
773.635	1438
773.742	2164
773.849	1824
773.956	1785
774.063	1064
774.170	1328
774.277	1089
774.384	1317
774.491	1464
774.598	1407
774.705	1661
774.812	1954
774.919	772
775.026	1755
775.133	1761
775.239	1355
775.346	1612
775.453	1278
775.560	797
775.667	1419
775.773	917
775.880	1964
775.987	1552
776.093	1200
776.200	1094
776.307	1674
776.413	1988
776.520	1711
776.627	1642
776.733	2592
776.840	664
776.946	1575
777.053	1254
777.159	1799
777.266	2091
777.372	1979
777.478	2499
777.585	2530
777.691	1239
777.798	1770
777.904	1628
778.010	1796
778.117	2093
778.223	2338
778.329	627
778.435	720
778.542	994
778.648	1497
778.754	370
778.860	1712
778.966	470
779.072	1681
779.178	935
779.284	1094
779.391	642
779.497	1438
779.603	918
779.708	1130
779.815	2156
779.920	2736
780.026	5400
780.132	6082
780.238	766
780.344	950
780.450	1171
780.556	1723
780.661	833
780.767	1548
780.873	1272
780.979	1433
781.085	268
781.190	1647
781.296	171
781.402	1508
781.507	1159
781.613	915
781.719	-317
781.824	1776
781.930	160
782.035	975
782.141	508
782.246	1509
782.352	896
782.457	677
782.563	62
782.668	1117
782.773	1059
782.879	1442
782.984	605
783.090	1304
783.195	1687
783.300	2839
783.405	1344
783.511	1290
783.616	574
783.721	1107
783.826	492
783.932	643
784.037	687
784.142	1288
784.247	1161
784.352	1053
784.457	788
784.562	598
784.667	109
784.772	370
784.877	325
784.982	314
785.087	938
785.192	1095
785.297	-408
785.402	628
785.507	705
785.611	1121
785.716	126
785.821	1602
785.926	457
786.031	790
786.135	698
786.240	578
786.345	28
786.450	823
786.554	-6
786.659	731
786.763	-22
786.868	546
786.973	458
787.077	659
787.182	241
787.286	578
787.391	118
787.495	269
787.600	344
787.704	389
787.809	374
787.913	574
788.017	586
788.122	618
788.226	-148
788.330	293
788.435	166
788.539	1624
788.643	-350
788.747	1306
788.852	162
788.956	670
789.060	895
789.164	893
789.268	317
789.372	952
789.476	309
789.580	469
789.684	505
789.788	419
789.892	268
789.996	188
790.100	-83
790.204	429
790.308	-235
790.412	485
790.516	134
790.620	428
790.724	-108
790.828	1267
790.931	119
791.035	-21
791.139	-256
791.242	421
791.346	121
791.450	-538
791.554	-115
791.657	1042
791.761	504
791.864	709
791.968	543
792.072	187
792.175	-441
792.279	630
792.382	-188
792.486	316
792.589	179
792.693	541
792.796	-195
792.899	396
793.003	241
793.106	466
793.209	-23
793.313	594
793.416	313
793.519	919
793.623	582
793.726	2361
793.829	1756
793.932	396
794.035	-20
794.138	719
794.242	185
794.345	382
794.448	448
794.551	1236
794.654	2369
794.757	2724
794.860	2339
794.963	1758
795.066	-229
795.169	1404
795.272	-26
795.375	976
795.477	-243
795.580	970
795.683	-497
795.786	493
795.889	334
795.991	609
796.094	-583
796.197	867
796.300	371
796.402	340
796.505	-719
796.608	299
796.710	-211
796.813	252
796.915	417
797.018	799
797.120	-399
797.223	-732
797.326	107
797.428	356
797.530	-16
797.633	54
797.735	61
797.838	577
797.940	723
798.042	397
798.145	-46
798.247	763
798.349	-1078
798.452	300
798.554	-628
798.656	520
798.758	212
798.860	421
798.962	91
799.065	-152
799.167	-630
799.269	159
799.371	1
799.473	1246
799.575	206
799.677	614
799.779	1044
799.881	222
799.983	1795
800.085	844
800.187	-129
800.289	-91
800.390	-503
800.492	365
800.594	373
800.696	-23
800.798	-197
800.899	345
801.001	-226
801.103	90
801.205	-551
801.306	195
801.408	573
801.509	111
801.611	245
801.713	215
801.814	-229
801.916	546
802.017	-672
802.119	437
802.220	3
802.322	-689
802.423	-99
802.525	207
802.626	-747
802.727	15
802.829	12
802.930	-259
803.031	196
803.133	-409
803.234	191
803.335	332
803.436	-670
803.538	388
803.639	-315
803.740	579
803.841	-246
803.942	-117
804.043	-188
804.144	-160
804.245	-323
804.346	-185
804.447	-829
804.548	-62
804.649	1022
804.750	889
804.851	-256
804.952	-193
805.053	-69
805.154	-1131
805.255	-89
805.355	18
805.456	-254
805.557	-639
805.658	-329
805.758	86
805.859	173
805.960	-148
806.061	-742
806.161	97
806.262	-5
806.362	-229
806.463	512
806.564	590
806.664	-49
806.765	434
806.865	169
806.966	251
807.066	-616
807.166	540
807.267	600
807.367	-150
807.468	-270
807.568	-898
807.668	-179
807.769	179
807.869	63
807.969	-35
808.069	-100
808.170	-184
808.270	-1114
808.370	499
808.470	5
808.570	366
808.670	-281
808.770	4
808.870	-554
808.970	155
809.070	-793
809.170	-359
809.271	156
809.370	848
809.470	-1119
809.570	35
809.670	-430
809.770	51
809.870	-807
809.970	974
810.070	149
810.169	-167
810.269	-1153
810.369	516
810.469	-801
810.568	-2
810.668	-13
810.768	-101
810.867	-320
810.967	-128
811.066	-426
811.166	-353
811.265	-345
811.365	-642
811.464	-875
811.564	52
811.663	-588
811.763	164
811.862	-412
811.962	57
812.061	270
812.160	-449
812.260	-126
812.359	-51
812.458	-79
812.557	324
812.657	1602
812.756	1586
812.855	-637
812.954	191
813.053	-602
813.153	44
813.252	-811
813.351	-58
813.450	-151
813.549	231
813.648	-838
813.747	-130
813.846	-774
813.945	-796
814.044	-202
814.143	-146
814.242	-460
814.341	-490
814.439	-947
814.538	22
814.637	-808
814.736	-323
814.835	-353
814.933	-96
815.032	-767
815.131	412
815.229	-572
815.328	732
815.427	388
815.525	1141
815.624	529
815.722	335
815.821	372
815.919	816
816.018	-385
816.116	1117
816.215	298
816.313	493
816.412	410
816.510	1019
816.609	1213
816.707	1487
816.805	1224
816.904	631
817.002	1191
817.100	1333
817.198	680
817.296	1540
817.395	666
817.493	1466
817.591	800
817.689	1384
817.787	1949
817.885	3542
817.983	4671
818.081	9644
818.179	22856
818.277	59534
818.375	138332
818.473	69125
818.571	14291
818.669	6700
818.767	4394
818.865	5132
818.963	4281
819.061	6105
819.158	10410
819.256	19738
819.354	46377
819.452	115910
819.549	218859
819.647	86415
819.745	18478
819.842	8195
819.940	5675
820.038	4895
820.135	2283
820.233	3132
820.330	1120
820.428	1988
820.525	1516
820.623	1706
820.720	417
820.818	1521
820.915	449
821.012	788
821.110	-399
821.207	1372
821.304	468
821.402	840
821.499	1056
821.596	1195
821.693	919
821.791	1005
821.888	366
821.985	1381
822.082	2134
822.179	2210
822.276	562
822.373	316
822.470	-323
822.567	472
822.664	-34
822.761	607
822.858	-417
822.955	154
823.052	369
823.149	370
823.246	-38
823.343	258
823.440	206
823.536	282
823.633	-88
823.730	44
823.827	591
823.923	-168
824.020	1171
824.117	809
824.213	-707
824.310	1311
824.407	375
824.503	529
824.600	289
824.696	553
824.793	-96
824.889	591
824.986	-105
825.082	89
825.179	50
825.275	-168
825.371	-492
825.468	786
825.564	-620
825.660	211
825.757	226
825.853	251
825.949	-729
826.045	427
826.142	335
826.238	-815
826.334	-335
826.430	-215
826.526	764
826.622	73
826.718	-666
826.814	599
826.910	-3
827.006	-681
827.102	-742
827.198	32
827.294	-365
827.390	644
827.486	-423
827.582	-269
827.678	-1594
827.774	344
827.869	-848
827.965	1330
828.061	-1056
828.157	-326
828.252	188
828.348	123
828.444	-640
828.539	-501
828.635	-177
828.731	-173
828.826	-567
828.922	58
829.017	-572
829.113	-272
829.208	-151
829.304	-382
829.399	-146
829.495	247
829.590	173
829.685	-197
829.781	-180
829.876	-358
829.971	-597
830.066	-275
830.162	-408
830.257	-237
830.352	-910
830.447	300
830.543	108
830.638	-318
830.733	580
830.828	-38
830.923	174
831.018	80
831.113	-879
831.208	318
831.303	-327
831.398	-165
831.493	-480
831.588	-317
831.683	-389
831.778	118
831.873	-327
831.967	174
832.062	-430
832.157	56
832.252	144
832.346	-507
832.441	-453
832.536	377
832.631	509
832.725	2423
832.820	46
832.914	-331
833.009	-180
833.104	-577
833.198	-539
833.293	-315
833.387	-515
833.482	511
833.576	-10
833.670	-57
833.765	-208
833.859	73
833.954	36
834.048	246
834.142	-302
834.237	-416
834.331	-1436
834.425	-88
834.519	-877
834.613	572
834.708	-1366
834.802	345
834.896	-869
834.990	-13
835.084	-1083
835.178	-844
835.272	-1328
835.366	-636
835.460	-626
835.554	-283
835.648	-583
835.742	-391
835.836	-527
835.930	-1226
836.024	-73
836.117	-105
836.211	-3
836.305	855
836.399	-76
836.493	-669
836.586	-297
836.680	-647
836.774	-1308
836.867	-317
836.961	-841
837.055	-150
837.148	-1162
837.242	470
837.335	-319
837.429	-310
837.522	-1102
837.616	-536
837.709	-413
837.803	390
837.896	-708
837.989	-490
838.083	-248
838.176	621
838.269	-327
838.363	277
838.456	-577
838.549	-663
838.642	-190
838.735	746
838.829	1127
838.922	133
839.015	-668
839.108	-183
839.201	-197
839.294	-372
839.387	211
839.480	-421
839.573	-656
839.666	-504
839.759	-339
839.852	-131
839.945	-504
840.038	-830
840.131	-824
840.223	-1000
840.316	-113
840.409	-468
840.502	-1516
840.594	789
840.687	-823
840.780	296
840.873	-1592
840.965	-558
841.058	-1168
841.150	-441
841.243	-80
841.336	769
841.428	-450
841.521	-417
841.613	-358
841.706	-88
841.798	-1196
841.890	-524
841.983	-1004
842.075	-514
842.167	-591
842.260	-139
842.352	379
842.444	-391
842.537	-804
842.629	993
842.721	673
842.813	-391
842.905	-1493
842.997	-112
843.090	-988
843.182	-234
843.274	-932
843.366	1468
843.458	2077
843.550	4632
843.642	1499
843.734	29
843.826	-843
843.918	1081
844.009	-888
844.101	-673
844.193	-1315
844.285	-426
844.377	-567
844.469	185
844.560	-287
844.652	-455
844.744	-80
844.835	-262
844.927	-576
845.019	-224
845.110	-915
845.202	-58
845.293	-856
845.385	-9
845.476	-1409
845.568	-469
845.659	-5
845.751	-751
845.842	-701
845.934	-625
846.025	-707
846.116	161
846.208	-1210
846.299	-757
846.390	-600
846.482	-537
846.573	-1187
846.664	-471
846.755	-559
846.846	652
846.937	-1063
847.029	-215
847.120	-911
847.211	-577
847.302	160
847.393	-1669
847.484	-1043
847.575	-454
847.666	-204
847.757	135
847.847	-694
847.938	-405
848.029	-1632
848.120	-325
848.211	-1359
848.302	-807
848.392	-845
848.483	-574
848.574	-976
848.664	-1124
848.755	-358
848.846	48
848.936	-506
849.027	-53
849.118	-1011
849.208	-551
849.299	-729
849.389	507
849.480	580
849.570	3781
849.661	7431
849.751	15213
849.841	22198
849.932	4154
850.022	-511
850.112	496
850.203	-664
850.293	-370
850.383	-494
850.474	-516
850.564	-433
850.654	-452
850.744	-946
850.834	-1013
850.924	-1018
851.014	-828
851.104	-1303
851.194	-690
851.284	-50
851.374	-103
851.464	-361
851.554	359
851.644	-930
851.734	-214
851.824	-111
851.914	-488
852.004	-958
852.094	-93
852.183	-462
852.273	-196
852.363	-856
852.452	-753
852.542	-1115
852.632	-495
852.721	-298
852.811	-803
852.901	-764
852.990	95
853.080	-958
853.169	-263
853.259	-666
853.348	-65
853.438	-123
853.527	1042
853.617	189
853.706	2898
853.795	4066
853.885	10133
853.974	24444
854.063	45047
854.152	85710
854.242	115137
854.331	30255
854.420	5052
854.509	1107
854.598	1602
854.687	549
854.777	927
854.866	93
854.955	842
855.044	-919
855.133	260
855.222	-1183
855.311	-612
855.400	-1252
855.488	-263
855.577	-1686
855.666	-544
855.755	-648
855.844	-247
855.933	-854
856.021	-278
856.110	-829
856.199	-962
856.288	-658
856.376	-1545
856.465	-1372
856.554	98
856.642	-1035
856.731	-57
856.819	-771
856.908	-754
856.996	-894
857.085	-808
857.173	-1091
857.262	-298
857.350	-660
857.438	-335
857.527	-480
857.615	-1201
857.703	-663
857.792	-900
857.880	-1320
857.968	-1371
858.056	-794
858.145	-453
858.233	-1690
858.321	-1055
858.409	-1396
858.497	-195
858.585	-950
858.673	-686
858.761	-1173
858.849	-866
858.937	-391
859.025	-810
859.113	-891
859.201	-1025
859.289	-686
859.377	-1131
859.465	-288
859.552	-396
859.640	-564
859.728	-629
859.816	-1597
859.903	-275
859.991	-1430
860.079	-118
860.166	-965
860.254	-1024
860.342	-685
860.429	-806
860.517	-1293
860.604	-227
860.692	-1122
860.779	-711
860.867	-1937
860.954	-668
861.042	-1405
861.129	-393
861.216	-838
861.304	-969
861.391	-1143
861.478	-583
861.565	-881
861.653	-346
861.740	-1565
861.827	-268
861.914	-483
862.001	-684
862.089	-802
862.176	-573
862.263	-1157
862.350	-1318
862.437	-957
862.524	-257
862.611	-1310
862.698	-383
862.785	-1722
862.871	-161
862.958	-1514
863.045	-441
863.132	-696
863.219	-537
863.306	-1254
863.392	-480
863.479	-1066
863.566	-520
863.652	-856
863.739	-512
863.826	-625
863.912	-648
863.999	-1062
864.086	-1203
864.172	-1271
864.259	-755
864.345	-1460
864.432	-493
864.518	-1260
864.604	-533
864.691	-1371
864.777	-652
864.863	-1261
864.950	-440
865.036	-991
865.122	-442
865.209	473
865.295	-7
865.381	45
865.467	761
865.553	226
865.639	699
865.726	2433
865.812	5307
865.898	11884
865.984	23723
866.070	32683
866.156	66716
866.242	58093
866.328	11389
866.414	2373
866.499	922
866.585	386
866.671	115
866.757	4
866.843	518
866.928	229
867.014	798
867.100	-589
867.186	63
867.271	-133
867.357	411
867.442	-53
867.528	875
867.614	318
867.699	-368
867.785	-7
867.870	29
867.956	-108
868.041	733
868.127	-138
868.212	485
868.297	-325
868.383	104
868.468	-117
868.553	389
868.639	812
868.724	1605
868.809	2060
868.894	2655
868.979	335
869.065	271
869.150	-875
869.235	-397
869.320	-226
869.405	-319
869.490	-1077
869.575	-528
869.660	-482
869.745	-256
869.830	-332
869.915	-883
870.000	-795
870.085	374
870.169	194
870.254	-143
870.339	-634
870.424	-783
870.509	-428
870.593	-125
870.678	57
870.763	562
870.847	-554
870.932	-436
871.016	182
871.101	-169
871.186	-825
871.270	-29
871.355	2
871.439	41
871.523	-651
871.608	-382
871.692	-146
871.777	-638
871.861	125
871.945	3
872.030	-945
872.114	-847
872.198	-1476
872.282	-128
872.367	-1039
872.451	-670
872.535	-376
872.619	-685
872.703	-639
872.787	-474
872.871	-132
872.955	-478
873.039	-589
873.123	-876
873.207	-403
873.291	-393
873.375	-912
873.459	-45
873.543	-643
873.627	-98
873.711	-1305
873.794	-788
873.878	-795
873.962	-767
874.045	-855
874.129	-294
874.137	-307
874.213	-435
874.245	-652
874.296	-1008
874.352	-1014
874.380	-1015
874.460	-788
874.464	-780
874.547	-336
874.568	-388
874.631	-538
874.676	-738
874.714	-896
874.784	-314
874.798	-203
874.881	-282
874.892	-292
874.965	-340
874.999	-121
875.048	163
875.107	67
875.131	29
875.215	-747
875.215	-747
875.298	-862
875.323	-762
875.381	-534
875.430	-555
875.465	-529
875.538	-405
875.548	-410
875.631	-300
875.646	-318
875.714	-319
875.753	-402
875.798	-485
875.861	-1065
875.881	-1274
875.964	-193
875.968	-244
876.047	-1017
876.076	-938
876.130	-850
876.183	-607
876.213	-456
876.291	-258
876.296	-246
876.379	-279
876.398	-251
876.462	-165
876.506	-443
876.545	-712
876.613	-392
876.628	-304
876.711	-608
876.721	-483
876.794	457
876.828	-43
876.877	-778
876.935	-420
876.960	-273
877.043	-1148
877.043	-1144
877.125	-121
877.150	-305
877.208	-502
877.258	-564
877.291	-715
877.365	-437
877.374	-403
877.456	-666
877.472	-688
877.539	-542
877.579	-258
877.622	-95
877.687	-231
877.704	-273
877.787	-36
877.794	-113
877.869	-882
877.901	-572
877.952	131
878.008	234
878.034	99
878.115	-388
878.117	-391
878.199	-164
878.222	-148
878.282	-178
878.329	-362
878.364	-444
878.437	-131
878.447	-97
878.529	-501
878.544	-479
878.611	-363
878.651	-329
878.694	-181
878.758	-73
878.776	-148
878.858	-629
878.865	-610
878.941	63
878.972	76
879.023	44
879.078	96
879.105	22
879.185	-209
879.187	-205
879.269	244
879.292	188
879.351	-175
879.399	-146
879.433	88
879.506	-199
879.516	-296
879.598	-216
879.613	-313
879.680	-470
879.720	-381
879.762	-451
879.827	-1168
879.844	-1231
879.926	471
879.933	471
880.007	-110
880.040	-207
880.089	-32
880.147	44
880.171	47
880.253	610
880.254	615
880.335	1474
880.360	1659
880.417	2619
880.467	3387
880.499	4206
880.574	8736
880.580	8942
880.662	7530
880.680	6477
880.744	2417
880.787	578
880.825	-438
880.893	-152
880.907	-112
880.989	-134
881.000	-134
881.070	2
881.106	-348
881.152	-771
881.213	-275
881.233	-153
881.315	-655
881.319	-656
881.396	-113
881.426	100
881.478	145
881.532	-1
881.559	69
881.639	7
881.641	-9
881.722	-129
881.745	-453
881.803	-828
881.852	-423
881.885	-273
881.958	-623
881.966	-613
882.047	42
882.064	121
882.129	254
882.171	103
882.210	-96
882.277	257
882.291	328
882.372	308
882.383	213
882.454	-157
882.489	-121
882.535	-288
882.596	-446
882.616	-428
882.697	-473
882.702	-464
882.778	64
882.808	131
882.859	-180
882.914	-231
882.940	-169
883.020	-83
883.021	-80
883.102	-866
883.127	-619
883.183	30
883.233	86
883.264	33
883.339	-12
883.345	24
883.426	-127
883.445	34
883.507	-141
883.551	-441
883.587	-301
883.657	-87
883.668	-28
883.749	314
883.763	426
883.830	409
883.869	152
883.910	49
883.975	378
883.991	387
884.072	-377
884.081	-401
884.152	-30
884.187	62
884.233	90
884.292	232
884.314	238
884.394	-210
884.398	-228
884.475	-261
884.504	-148
884.555	73
884.610	328
884.636	398
884.716	77
884.716	82
884.797	355
884.821	391
884.877	477
884.927	519
884.958	415
885.033	219
885.038	218
885.118	-118
885.139	-151
885.199	135
885.244	338
885.279	343
885.350	393
885.359	386
885.439	145
885.456	91
885.520	31
885.561	20
885.600	9
885.667	37
885.680	104
885.760	341
885.773	367
885.840	279
885.878	330
885.920	244
885.984	-143
886.000	-76
886.080	704
886.089	735
886.160	222
886.195	6
886.240	83
886.300	143
886.320	77
886.400	130
886.406	112
886.480	153
886.511	214
886.560	421
886.616	471
886.640	489
886.720	787
886.722	784
886.800	448
886.827	369
886.879	303
886.932	100
886.959	65
887.038	286
887.039	296
887.119	501
887.143	671
887.198	715
887.248	557
887.278	744
887.354	1310
887.358	1286
887.437	449
887.459	335
887.517	755
887.564	863
887.596	768
887.669	788
887.676	793
887.755	556
887.774	512
887.835	393
887.880	327
887.914	425
887.985	570
887.994	587
888.073	622
888.090	643
888.153	695
888.195	719
888.232	521
888.300	210
888.311	302
888.391	724
888.405	830
888.470	442
888.510	125
888.549	186
888.615	400
888.628	418
888.708	365
888.720	375
888.787	591
888.825	657
888.866	516
888.930	343
888.945	278
889.024	-143
889.035	-195
889.103	260
889.140	493
889.182	522
889.245	578
889.261	521
889.340	198
889.349	161
889.419	366
889.454	466
889.498	349
889.559	174
889.577	252
889.656	601
889.664	634
889.735	757
889.768	810
889.814	1127
889.873	1541
889.978	495
890.083	570
890.187	-2
890.292	371
890.397	854
890.501	239
890.606	638
890.710	584
890.815	441
890.919	646
891.024	886
891.128	742
891.233	1112
891.337	421
891.442	-439
891.546	710
891.650	-48
891.755	804
891.859	151
891.963	126
892.068	581
892.172	846
892.276	285
892.380	485
892.484	1591
892.589	802
892.693	-192
892.797	189
892.901	411
893.005	340
893.109	632
893.213	624
893.317	18
893.421	7
893.525	438
893.629	491
893.733	859
893.837	156
893.941	23
894.045	567
894.148	921
894.252	534
894.356	103
894.460	491
894.564	637
894.667	508
894.771	-117
894.875	-507
894.978	-247
895.082	730
895.186	341
895.289	582
895.393	977
895.496	-695
895.600	292
895.703	413
895.807	190
895.910	341
896.014	-80
896.117	754
896.221	338
896.324	476
896.427	1187
896.531	467
896.634	72
896.737	344
896.840	47
896.944	11
897.047	-118
897.150	558
897.253	83
897.356	381
897.460	-274
897.563	-317
897.666	-363
897.769	214
897.872	30
897.975	184
898.078	133
898.181	399
898.284	-73
898.387	-78
898.490	511
898.593	344
898.695	453
898.798	413
898.901	652
899.004	-131
899.107	116
899.209	385
899.312	452
899.415	223
899.518	1152
899.620	207
899.723	510
899.826	500
899.928	16
900.031	372
900.133	-169
900.236	-139
900.338	403
900.441	-151
900.543	447
900.646	121
900.748	268
900.851	1005
900.953	-371
901.055	-56
901.158	260
901.260	290
901.362	-453
901.465	333
901.567	1049
901.669	751
901.771	7
901.873	73
901.976	169
902.078	-162
902.180	-85
902.282	234
902.384	515
902.486	241
902.588	-523
902.690	-256
902.792	-584
902.894	818
902.996	619
903.098	-16
903.200	330
903.302	1038
903.404	161
903.505	285
903.607	415
903.709	503
903.811	-45
903.913	700
904.014	-32
904.116	178
904.218	-716
904.319	-191
904.421	662
904.523	-83
904.624	211
904.726	206
904.827	-405
904.929	141
905.030	-337
905.132	107
905.233	89
905.335	-218
905.436	584
905.537	91
905.639	87
905.740	225
905.841	1341
905.943	808
906.044	-658
906.145	227
906.247	267
906.348	387
906.449	156
906.550	241
906.651	706
906.752	785
906.854	78
906.955	106
907.056	-296
907.157	36
907.258	169
907.359	404
907.460	-72
907.561	-579
907.662	-291
907.762	54
907.863	33
907.964	-291
908.065	610
908.166	617
908.267	513
908.367	-72
908.468	-795
908.569	279
908.670	685
908.770	346
908.871	613
908.971	343
909.072	-275
909.173	332
909.273	-559
909.374	54
909.474	-181
909.575	346
909.675	-774
909.776	-84
909.876	-367
909.977	-212
910.077	526
910.177	234
910.278	122
910.378	-1072
910.478	98
910.579	90
910.679	-588
910.779	892
910.879	-397
910.980	99
911.080	136
911.180	-426
911.280	-369
911.380	181
911.480	98
911.580	-451
911.680	-139
911.780	349
911.880	-232
911.980	403
912.080	-399
912.180	-370
912.280	162
912.380	255
912.480	314
912.580	-704
912.679	-228
912.779	182
912.879	454
912.979	-414
913.078	-767
913.178	29
913.278	-450
913.377	443
913.477	-530
913.577	119
913.676	-220
913.776	-182
913.875	4
913.975	105
914.074	19
914.174	-158
914.273	-312
914.373	302
914.472	-111
914.572	-288
914.671	88
914.770	102
914.870	-585
914.969	-622
915.068	-552
915.167	480
915.267	-185
915.366	-611
915.465	-340
915.564	-380
915.663	-233
915.763	435
915.862	289
915.961	450
916.060	-423
916.159	349
916.258	-445
916.357	-728
916.456	101
916.555	47
916.654	319
916.752	476
916.851	-270
916.950	273
917.049	-647
917.148	-618
917.247	278
917.345	-555
917.444	-601
917.543	-687
917.642	-262
917.740	-111
917.839	-550
917.937	329
918.036	391
918.135	365
918.233	-598
918.332	176
918.430	-643
918.529	-9
918.627	-940
918.726	186
918.824	661
918.923	-587
919.021	-1281
919.119	-98
919.218	-93
919.316	-352
919.414	-305
919.512	-726
919.611	-827
919.709	229
919.807	-573
919.905	-282
920.003	437
920.102	-257
920.200	158
920.298	-53
920.396	-375
920.494	333
920.592	-672
920.690	-525
920.788	-176
920.886	353
920.984	-1080
921.082	-309
921.180	91
921.277	59
921.375	576
921.473	603
921.571	-787
921.669	-203
921.766	257
921.864	-150
921.962	211
922.060	355
922.157	-34
922.255	-204
922.352	-270
922.450	520
922.548	442
922.645	13
922.743	281
922.840	918
922.938	1171
923.035	749
923.133	363
923.230	1259
923.327	850
923.425	1101
923.522	551
923.619	1338
923.717	998
923.814	1071
923.911	882
924.008	1533
924.106	726
924.203	644
924.300	346
924.397	305
924.494	821
924.591	1202
924.688	368
924.786	1293
924.883	1207
924.979	292
925.077	382
925.173	230
925.270	821
925.367	1108
925.464	1175
925.561	814
925.658	1150
925.755	996
925.852	637
925.948	1378
926.045	1178
926.142	841
926.239	1045
926.335	708
926.432	1033
926.529	1147
926.625	1435
926.722	780
926.818	791
926.915	1802
927.011	967
927.108	338
927.204	707
927.301	-399
927.397	1101
927.494	1006
927.590	515
927.687	59
927.783	1108
927.879	1361
927.976	11
928.072	318
928.168	434
928.264	624
928.361	1259
928.457	1242
928.553	910
928.649	278
928.745	969
928.841	763
928.937	1372
929.033	1453
929.129	1129
929.225	197
929.321	743
929.417	402
929.513	187
929.609	1089
929.705	276
929.801	90
929.897	-88
929.993	146
930.089	1522
930.184	590
930.280	553
930.376	1019
930.471	821
930.567	1740
930.663	1040
930.758	671
930.854	187
930.950	299
931.045	-238
931.141	726
931.236	1212
931.332	1155
931.427	-140
931.523	499
931.618	270
931.714	-156
931.809	34
931.905	1429
932.000	-97
932.095	-84
932.191	-10
932.286	1260
932.381	103
932.476	1097
932.572	835
932.667	175
932.762	-237
932.857	528
932.952	125
933.047	1623
933.142	1069
933.237	-85
933.332	-89
933.427	-265
933.522	716
933.617	109
933.712	895
933.807	864
933.902	687
933.997	931
934.092	523
934.187	930
934.282	999
934.376	609
934.471	437
934.566	591
934.661	623
934.755	40
934.850	24
934.945	1391
935.039	708
935.134	174
935.228	247
935.323	228
935.417	932
935.512	-90
935.606	-47
935.701	280
935.795	288
935.890	766
935.984	-12
936.079	206
936.173	541
936.267	749
936.362	-186
936.456	186
936.550	569
936.644	880
936.738	864
936.833	905
936.927	-91
937.021	-12
937.115	-96
937.209	1318
937.303	872
937.397	856
937.491	612
937.585	795
937.679	1161
937.773	196
937.867	-218
937.961	1009
938.055	-474
938.149	1508
938.243	493
938.337	665
938.430	160
938.524	29
938.618	510
938.712	480
938.805	260
938.899	18
938.993	539
939.086	-378
939.180	727
939.274	1069
939.367	208
939.461	1232
939.554	710
939.648	-259
939.741	321
939.835	1028
939.928	433
940.022	642
940.115	1230
940.208	788
940.302	696
940.395	1125
940.488	-350
940.582	782
940.675	249
940.768	2
940.861	451
940.954	1082
941.048	-373
941.141	748
941.234	267
941.327	656
941.420	506
941.513	495
941.606	253
941.699	113
941.792	213
941.885	-50
941.978	-28
942.071	373
942.164	-114
942.257	-319
942.349	700
942.442	581
942.535	674
942.628	-8
942.721	-218
942.813	14
942.906	513
942.999	855
943.091	457
943.184	649
943.277	263
943.369	335
943.462	682
943.554	144
943.647	119
943.739	1275
943.832	-278
943.924	495
944.017	-603
944.109	-156
944.201	950
944.294	433
944.386	575
944.478	139
944.571	69
944.663	444
944.755	43
944.847	-282
944.940	819
945.032	657
945.124	305
945.216	748
945.308	-60
945.400	1026
945.492	97
945.584	257
945.676	206
945.768	445
945.860	800
945.952	74
946.044	522
946.136	170
946.228	-121
946.320	788
946.412	403
946.503	-255
946.595	706
946.687	511
946.779	886
946.870	167
946.962	-373
947.054	226
947.145	797
947.237	345
947.329	25
947.420	-663
947.512	981
947.603	775
947.695	-64
947.786	110
947.878	-235
947.969	-58
948.061	181
948.152	52
948.243	531
948.335	-106
948.426	-161
948.517	64
948.609	464
948.700	-556
948.791	153
948.882	193
948.973	438
949.065	264
949.156	558
949.247	-326
949.338	-237
949.429	522
949.520	-700
949.611	-240
949.702	349
949.793	253
949.884	-172
949.975	-68
950.066	335
950.157	-573
950.247	-217
950.338	75
950.429	293
950.520	-87
950.611	-374
950.701	-471
950.792	-41
950.883	443
950.973	-160
951.064	559
951.155	113
951.245	386
951.336	-73
951.427	554
951.517	478
951.608	319
951.698	-637
951.788	65
951.879	-248
951.969	285
952.060	-100
952.150	-427
952.240	237
952.331	370
952.421	708
952.511	244
952.602	-199
952.692	-218
952.782	-558
952.872	-1099
952.962	89
953.052	-142
953.143	-824
953.233	-152
953.323	-168
953.413	-41
953.503	-8
953.593	-12
953.683	-681
953.773	-571
953.863	57
953.953	98
954.042	-297
954.132	-651
954.222	-390
954.312	-654
954.402	-361
954.492	323
954.581	-197
954.671	634
954.761	-118
954.850	-342
954.940	-605
955.030	212
955.119	-461
955.209	-293
955.298	-522
955.388	-245
955.477	-182
955.567	-422
955.656	-626
955.746	121
955.835	-775
955.925	-427
956.014	-822
956.103	-166
956.193	-706
956.282	185
956.371	374
956.461	-91
956.550	409
956.639	217
956.728	-703
956.817	-67
956.906	-913
956.995	-138
957.085	-623
957.174	-726
957.263	-672
957.352	4
957.441	-417
957.530	-580
957.619	-615
957.708	-233
957.796	-441
957.885	295
957.974	-491
958.063	-677
958.152	-1033
958.241	-39
958.329	-420
958.418	-639
958.507	-588
958.596	-35
958.684	-348
958.773	68
958.861	52
958.950	-473
959.039	-630
959.127	-273
959.216	-114
959.304	-119
959.393	-517
959.481	-970
959.570	-395
959.658	-504
959.746	-633
959.835	-458
959.923	124
960.011	-270
960.100	-352
960.188	-76
960.276	-261
960.365	-150
960.453	-713
960.541	-139
960.629	-785
960.717	-336
960.805	-641
960.893	-1321
960.981	-904
961.069	-697
961.158	-641
961.245	361
961.333	-858
961.421	-352
961.509	-658
961.597	-465
961.685	-1203
961.773	-1085
961.861	-1072
961.949	-109
962.036	-568
962.124	-922
962.212	-587
962.299	-358
962.387	-741
962.475	-486
962.562	-761
962.650	265
962.738	-406
962.825	-394
962.913	-1650
963.000	-114
963.088	-674
963.175	-779
963.263	-1001
963.350	-227
963.438	-153
963.525	-695
963.612	-269
963.700	-809
963.787	941
963.874	1662
963.962	-321
964.049	-816
964.136	-1070
964.223	-1308
964.310	-857
964.398	-431
964.485	-1049
964.572	-346
964.659	-350
964.746	-125
964.833	-267
964.920	-688
965.007	222
965.094	-625
965.181	-951
965.268	-815
965.355	-976
965.441	-180
965.528	74
965.615	-1062
965.702	-1030
965.789	-863
965.875	-740
965.962	-1067
966.049	-1318
966.136	-945
966.222	-843
966.309	-617
966.395	-503
966.482	-567
966.569	-775
966.655	-540
966.742	-841
966.828	-1116
966.915	-1239
967.001	-900
967.087	-727
967.174	-797
967.260	-139
967.347	-571
967.433	-1201
967.519	152
967.605	-488
967.692	-631
967.778	-1040
967.864	-713
967.950	-805
968.036	-1015
968.123	-996
968.209	-835
968.295	-1292
968.381	-1046
968.467	-464
968.553	-1447
968.639	-1108
968.725	-611
968.811	-799
968.897	-347
968.983	-807
969.069	-752
969.154	-473
969.240	-676
969.326	-924
969.412	-925
969.497	-1041
969.583	-156
969.669	-892
969.755	-827
969.840	-1504
969.926	-547
970.012	-391
970.097	-96
970.183	-1625
970.268	-1000
970.354	-517
970.439	-723
970.525	-840
970.610	-203
970.696	-558
970.781	-717
970.866	-956
970.952	-463
971.037	-586
971.122	-999
971.208	-876
971.293	-740
971.378	-639
971.463	-684
971.549	-403
971.634	-942
971.719	-1228
971.804	-1661
971.889	-1106
971.974	-1042
972.059	164
972.144	-417
972.229	-1083
972.314	-434
972.399	-740
972.484	-1370
972.569	-1505
972.654	-757
972.739	-1199
972.824	289
972.908	-1245
972.993	-835
973.078	-1603
973.163	-544
973.247	-266
973.332	-1176
973.417	-797
973.501	-983
973.586	-1330
973.671	-1098
973.755	-824
973.840	-1078
973.924	-301
974.009	-559
974.093	-449
974.178	152
974.262	-625
974.346	-663
974.431	-1005
974.515	-943
974.600	-751
974.684	-1072
974.768	-988
974.852	-1072
974.937	-1480
975.021	-623
975.105	-1339
975.189	-821
975.273	-1085
975.358	-1275
975.442	-1612
975.526	-695
975.610	-1755
975.694	-664
975.778	-847
975.862	-1081
975.946	-2401
976.030	-739
976.114	-1410
976.198	-810
976.281	-1307
976.365	-884
976.449	-922
976.533	-165
976.617	-801
976.700	-191
976.784	-932
976.868	-907
976.951	-1127
977.035	-1341
977.119	-858
977.202	-334
977.286	-717
977.369	-1380
977.453	-840
977.536	-716
977.620	-866
977.703	-458
977.787	-989
977.870	122
977.953	-115
978.037	-1287
978.120	-1344
978.203	-1046
978.287	-658
978.370	-362
978.453	-1061
978.536	-1855
978.620	-683
978.703	-1370
978.786	-230
978.869	-1301
978.952	-1269
979.035	-701
979.118	-890
979.201	-818
979.284	-946
979.367	-663
979.450	-428
979.533	-966
979.616	-685
979.699	-996
979.782	-349
979.865	-1210
979.948	-1836
980.030	-1127
980.113	-561
980.196	-316
980.279	-1229
980.361	-641
980.444	-1087
980.526	-177
980.609	-1223
980.692	-1130
980.774	-561
980.857	-1537
980.939	-1177
981.022	-921
981.104	-1977
981.187	-749
981.269	-1260
981.352	-342
981.434	-1300
981.516	-492
981.599	-373
981.681	-717
981.763	-1288
981.846	-950
981.928	-941
982.010	-610
982.092	-1536
982.174	-174
982.256	-2045
982.339	-472
982.421	-1000
982.503	-1349
982.585	-1336
982.667	-1164
982.749	-1389
982.831	-1418
982.913	-542
982.995	-802
983.077	-1607
983.158	-1037
983.240	-1371
983.322	-802
983.404	-1201
983.486	-667
983.568	-984
983.649	-1261
983.731	-798
983.813	-2134
983.894	-684
983.976	-1709
984.058	-1961
984.139	-1630
984.221	-852
984.302	62
984.384	-1156
984.465	-488
984.547	-1060
984.628	-700
984.710	-464
984.791	-1021
984.872	-257
984.954	-875
985.035	-1027
985.116	-1623
985.198	-1648
985.279	-742
985.360	-536
985.441	-1000
985.522	-369
985.604	-974
985.685	-965
985.766	-715
985.847	-1025
985.928	-652
986.009	-1137
986.090	-811
986.171	-378
986.252	-808
986.333	-1398
986.414	-974
986.495	-846
986.576	-639
986.656	-1457
986.737	33
986.818	-572
986.899	-1402
986.980	-967
987.060	-1037
987.141	-1989
987.222	-1014
987.302	-1859
987.383	-802
987.464	-379
987.544	-1160
987.625	-277
987.705	-1037
987.786	-478
987.866	-178
987.947	-556
988.027	-651
988.108	-1067
988.188	-146
988.268	-1356
988.349	-293
988.429	-525
988.509	-901
988.589	-1017
988.670	-1595
988.750	-572
988.830	-655
988.910	-1081
988.990	-55
989.070	-1326
989.151	-1019
989.231	-789
989.311	-911
989.391	-1157
989.471	-880
989.551	-1244
989.631	-1113
989.711	-637
989.791	-1267
989.870	-1051
989.950	-402
990.030	-1549
990.110	-84
990.190	-855
990.269	-515
990.349	-822
990.429	-770
990.509	-881
990.588	-1636
990.668	-1544
990.747	-817
990.827	-761
990.907	-644
990.986	-842
991.066	-451
991.145	-770
991.225	-1101
991.304	-1403
991.383	-128
991.463	-975
991.542	-693
991.622	-1870
991.701	-1413
991.780	-890
991.859	-1243
991.939	-999
992.018	-740
992.097	-492
992.176	-465
992.256	-1258
992.335	-1442
992.414	-604
992.493	-1364
992.572	-847
992.651	-1542
992.730	-1371
992.809	-586
992.888	-1638
992.967	-807
993.046	-1408
993.125	-1076
993.203	-1078
993.282	-470
993.361	-1146
993.440	-622
993.519	-1393
993.597	-1133
993.676	-1192
993.755	-1170
993.834	-1155
993.912	-1188
993.991	-1058
994.069	-1682
994.148	-1977
994.226	-1586
994.305	-783
994.384	-1706
994.462	-1115
994.540	-1697
994.619	-104
994.697	-1010
994.776	-1238
994.854	-1110
994.932	-1809
995.011	-1040
995.089	-1710
995.167	-1382
995.245	-1291
995.324	-1755
995.402	-62
995.480	-1289
995.558	-1164
995.636	-1694
995.714	-1798
995.792	-439
995.870	-1201
995.948	-1182
996.026	-813
996.104	-1689
996.182	-1467
996.260	-2128
996.338	-442
996.416	-1945
996.494	-2089
996.572	-764
996.649	-2113
996.727	-1554
996.805	-1362
996.883	-1073
996.960	-1369
997.038	-453
997.116	-538
997.193	-1094
997.271	-1157
997.348	-1234
997.426	-1749
997.504	-1705
997.581	-441
997.658	-826
997.736	-2030
997.813	-1112
997.891	-1599
997.968	-769
998.046	-1911
998.123	-1420
998.200	-441
998.277	-2350
998.355	-904
998.432	-1147
998.509	-994
998.586	-1416
998.663	-1273
998.741	-1587
998.818	-1419
998.895	-1345
998.972	-1942
999.049	-744
999.126	-1569
999.203	-1428
999.280	-975
999.357	-1383
999.434	-1841
999.511	-819
999.587	-885
999.664	-1367
999.741	-1467
999.818	-1839
999.895	-1350
999.971	-1491
1000.048	-1872
1000.125	-646
1000.202	-2012
1000.278	-1912
1000.355	-1060
1000.431	-1517
1000.508	-1319
1000.584	-1162
1000.661	-1447
1000.738	-1405
1000.814	-1376
1000.890	-1070
1000.967	-1145
1001.043	-736
1001.120	-1761
1001.196	-974
1001.272	-2270
1001.349	-1910
1001.425	-1468
1001.501	-1306
1001.577	-1395
1001.654	-1468
1001.730	-861
1001.806	-1608
1001.882	-1385
1001.958	-1068
1002.034	-1416
1002.110	-627
1002.186	-1817
1002.262	-748
1002.338	-2394
1002.414	-1154
1002.490	-1404
1002.566	-1235
1002.642	-808
1002.718	-1234
1002.794	-1263
1002.870	-1197
1002.945	-1468
1003.021	-1289
1003.097	-1718
1003.173	-916
1003.248	-1551
1003.324	-1148
1003.400	-1537
1003.475	-1987
1003.551	-1443
1003.626	-795
1003.702	-1072
1003.777	-994
1003.853	-1013
1003.928	-1658
1004.004	-965
1004.079	-1709
1004.155	-1380
1004.230	-1499
1004.305	-1456
1004.381	-1358
1004.456	-1482
1004.531	-1797
1004.607	-1716
1004.682	-1260
1004.757	-2203
1004.832	-1614
1004.907	-932
1004.982	-1568
1005.057	-1611
1005.133	-1316
1005.208	-1521
1005.283	-2226
1005.358	-1795
1005.433	-2367
1005.508	-1544
1005.583	-1222
1005.657	-2053
1005.732	-440
1005.807	-1618
1005.882	-2066
1005.957	-2101
1006.032	-1690
1006.106	-1425
1006.181	-1105
1006.256	-1542
1006.331	-1192
1006.405	-1560
1006.480	-824
1006.554	-1490
1006.629	-1011
1006.704	-1607
1006.778	-1678
1006.853	-1269
1006.927	-1107
1007.002	-1603
1007.076	-1768
1007.150	-1750
1007.225	-1451
1007.299	-916
1007.373	-2458
1007.448	-792
1007.522	-1675
1007.596	-2009
1007.671	-1620
1007.745	-1249
1007.819	-2274
1007.893	-1582
1007.967	-1097
1008.041	-2235
1008.115	-1350
1008.190	-1802
1008.264	-1841
1008.338	-1381
1008.412	-2120
1008.486	-1076
1008.560	-1616
1008.633	-1649
1008.707	-2099
1008.781	-821
1008.855	-1710
1008.929	-2432
1009.003	-2252
1009.076	-1947
1009.150	-1769
1009.224	-1455
1009.298	-1552
1009.371	-1726
1009.445	-1643
1009.519	-1458
1009.592	-2572
1009.666	-2023
1009.739	-1572
1009.813	-2411
1009.886	-1716
1009.960	-2573
1010.033	-1758
1010.107	-1651
1010.180	-2405
1010.253	-1227
1010.327	-1729
1010.400	-1977
1010.473	-1361
1010.547	-1853
1010.620	-1781
1010.693	-1669
1010.766	-2303
1010.840	-2021
1010.913	-2035
1010.986	-1171
1011.059	-1522
1011.132	-2650
1011.205	-1440
1011.278	-2040
1011.351	-2138
1011.424	-1775
1011.497	-1867
1011.570	-1019
1011.643	-1761
1011.716	-2031
1011.789	-1886
1011.862	-951
1011.934	-1554
1012.007	-2320
1012.080	-1958
1012.153	-2104
1012.225	-1374
1012.298	-1974
1012.371	-1482
1012.443	-1422
1012.516	-1814
1012.588	-1396
1012.661	-2011
1012.733	-2705
1012.806	-1613
1012.879	-1950
1012.951	-1530
1013.023	-2269
1013.096	-1939
1013.168	-2417
1013.241	-1890
1013.313	-2210
1013.385	-2007
1013.458	-1552
1013.530	-1791
1013.602	-2392
1013.674	-2603
1013.746	-2366
1013.819	-2386
1013.891	-1342
1013.963	-2742
1014.035	-1836
1014.107	-1910
1014.179	-2138
1014.251	-1497
1014.323	-1325
1014.395	-1501
1014.467	-2427
1014.539	-2277
1014.611	-2030
1014.683	-1821
1014.754	-1621
1014.826	-1763
1014.898	-1889
1014.970	-2352
1015.042	-892
1015.113	-1919
1015.185	-2267
1015.257	-1743
1015.328	-1967
1015.400	-2174
1015.471	-1775
1015.543	-1850
1015.615	-1132
1015.686	-2012
1015.757	-2056
1015.829	-1103
1015.901	-2187
1015.972	-1973
1016.043	-2294
1016.115	-1960
1016.186	-2703
1016.257	-2464
1016.328	-1532
1016.400	-2143
1016.471	-1854
1016.542	-2069
1016.613	-2423
1016.685	-2386
1016.756	-1575
1016.827	-1497
1016.898	-2482
1016.969	-1517
1017.040	-2480
1017.111	-1551
1017.182	-2534
1017.253	-1745
1017.324	-2002
1017.395	-1767
1017.466	-1129
1017.537	-2667
1017.608	-1913
1017.678	-2701
1017.749	-2276
1017.820	-1606
1017.891	-2682
1017.961	-2376
1018.032	-1736
1018.103	-847
1018.173	-2232
1018.244	-2658
1018.315	-2390
1018.385	-1162
1018.456	-1986
1018.526	-2838
1018.597	-1727
1018.667	-1565
1018.738	-2061
1018.808	-1985
1018.878	-1839
1018.949	-2107
1019.019	-2252
1019.089	-1395
1019.160	-2058
1019.230	-3192
1019.300	-1459
1019.371	-2725
1019.441	-2091
1019.511	-1926
1019.581	-2512
1019.651	-1627
1019.721	-1710
1019.791	-2504
1019.861	-2715
1019.931	-2538
1020.001	-1498
1020.071	-2066
1020.141	-2457
1020.211	-2379
1020.281	-2525
1020.351	-2832
1020.421	-2184
1020.491	-1700
1020.560	-2569
1020.630	-2310
1020.700	-2017
1020.770	-2318
1020.839	-1960
1020.909	-1597
1020.979	-2827
1021.048	-2793
1021.118	-2531
1021.187	-2206
1021.257	-2308
1021.326	-1990
1021.396	-2606
1021.465	-1832
1021.535	-2184
1021.604	-2083
1021.674	-2311
1021.743	-1549
1021.812	-2555
1021.882	-2383
1021.951	-2167
1022.020	-2543
1022.089	-2567
1022.159	-2034
1022.228	-2233
1022.297	-2841
1022.366	-2906
1022.435	-2150
1022.504	-2465
1022.573	-2299
1022.642	-1982
1022.711	-2051
1022.781	-2031
1022.849	-1209
1022.918	-2022
1022.987	-2312
1023.056	-1940
1023.125	-2459
1023.194	-2215
1023.263	-2309
1023.331	-2596
1023.400	-2458
1023.469	-2660
1023.538	-1486
1023.606	-2412
1023.675	-1717
1023.744	-2022
1023.812	-3196
1023.881	-2234
1023.949	-2299
1024.018	-1540
1024.086	-2031
1024.155	-2606
1024.223	-2396
1024.292	-2290
1024.360	-1919
1024.429	-2349
1024.497	-3229
1024.565	-2065
1024.634	-2359
1024.702	-2217
1024.770	-2397
1024.838	-2871
1024.907	-2495
1024.975	-2473
1025.043	-2538
1025.111	-3334
1025.179	-2565
1025.247	-2504
1025.315	-2232
1025.383	-2833
1025.451	-1709
1025.519	-2396
1025.587	-2657
1025.655	-2537
1025.723	-2282
1025.791	-1699
1025.859	-2359
1025.927	-2169
1025.995	-2035
1026.062	-2444
1026.130	-2404
1026.198	-2844
1026.266	-2402
1026.333	-2466
1026.401	-1182
1026.469	-2708
1026.536	-3027
1026.604	-2101
1026.671	-2308
1026.739	-2452
1026.806	-2012
1026.874	-2516
1026.941	-2207
1027.009	-2554
1027.076	-3648
1027.144	-1792
1027.211	-3246
1027.278	-3188
1027.345	-2410
1027.413	-1625
1027.480	-2600
1027.547	-1887
1027.614	-3043
1027.682	-2097
1027.749	-2730
1027.816	-2302
1027.883	-2638
1027.950	-2516
1028.017	-2719
1028.084	-1937
1028.151	-2128
1028.218	-2605
1028.285	-2351
1028.352	-2704
1028.419	-2447
1028.486	-2556
1028.553	-3126
1028.619	-2973
1028.686	-2692
1028.753	-2230
1028.820	-2390
1028.886	-2863
1028.953	-2504
1029.020	-3211
1029.086	-2734
1029.153	-2253
1029.220	-2503
1029.286	-1911
1029.353	-2349
1029.419	-2572
1029.486	-2553
1029.552	-2883
1029.619	-3114
1029.685	-2236
1029.751	-3288
1029.818	-2654
1029.884	-2496
1029.951	-2623
1030.017	-2538
1030.083	-2838
1030.149	-3094
1030.216	-2760
1030.282	-2701
1030.348	-2873
1030.414	-2728
1030.480	-2633
1030.546	-2043
1030.612	-2977
1030.678	-3370
1030.744	-1989
1030.810	-2906
1030.876	-2269
1030.942	-2348
1031.008	-2350
1031.074	-2768
1031.140	-2971
1031.206	-2527
1031.272	-2866
1031.337	-2508
1031.403	-2897
1031.469	-2564
1031.534	-3260
1031.600	-1755
1031.666	-3406
1031.731	-3045
1031.797	-2027
1031.863	-2316
1031.928	-2322
1031.994	-2496
1032.059	-2315
1032.125	-2763
1032.190	-2956
1032.256	-2025
1032.321	-3283
1032.386	-2563
1032.452	-2666
1032.517	-2501
1032.582	-2333
1032.647	-3033
1032.713	-2528
1032.778	-2157
1032.843	-2614
1032.908	-3070
1032.974	-2884
1033.039	-2694
1033.104	-2418
1033.169	-2175
1033.234	-2542
1033.299	-2738
1033.364	-2639
1033.429	-3153
1033.494	-2485
1033.559	-2065
1033.624	-3374
1033.688	-2884
1033.753	-3258
1033.818	-3047
1033.883	-2927
1033.948	-2582
1034.013	-2688
1034.077	-1745
1034.142	-2463
1034.207	-1906
1034.271	-2517
1034.336	-1598
1034.400	-2445
1034.465	-1578
1034.530	-2584
1034.594	-1443
1034.658	-2520
1034.723	-2258
1034.787	-2244
1034.852	-2447
1034.916	-2147
1034.981	-2814
1035.045	-2437
1035.109	-2767
1035.173	-2247
1035.238	-2369
1035.302	-2641
1035.366	-2596
1035.430	-2793
1035.495	-1944
1035.559	-1951
1035.623	-2486
1035.687	-2664
1035.751	-2173
1035.815	-3885
1035.879	-2151
1035.943	-2670
1036.007	-1412
1036.071	-2790
1036.135	-3068
1036.198	-2471
1036.262	-2807
1036.326	-3127
1036.390	-2842
1036.454	-2418
1036.517	-2532
1036.581	-2211
1036.645	-1978
1036.709	-2518
1036.772	-1949
1036.836	-1488
1036.900	-2609
1036.963	-2371
1037.026	-1909
1037.090	-2772
1037.154	-2770
1037.217	-2033
1037.280	-2767
1037.344	-2967
1037.407	-2977
1037.471	-2457
1037.534	-2052
1037.597	-2279
1037.661	-2863
1037.724	-2451
1037.787	-1907
1037.850	-2051
1037.913	-2745
1037.977	-2075
1038.040	-2248
1038.103	-3616
1038.166	-2620
1038.229	-2052
1038.292	-2647
1038.355	-2754
1038.418	-2151
1038.481	-1931
1038.544	-2971
1038.607	-1752
1038.670	-2313
1038.732	-2565
1038.795	-2754
1038.858	-2506
1038.921	-2559
1038.984	-3398
1039.046	-2654
1039.109	-3397
1039.172	-2418
1039.234	-2980
1039.297	-2880
1039.360	-1962
1039.422	-1957
1039.485	-1409
1039.547	-3189
1039.610	-2316
1039.672	-3199
1039.734	-2830
1039.797	-2499
1039.859	-3136
1039.922	-2623
1039.984	-2275
1040.046	-2206
1040.109	-3070
1040.171	-2644
1040.233	-2865
1040.295	-2326
1040.358	-2386
1040.420	-2008
1040.482	-2340
1040.544	-2420
1040.606	-1632
1040.668	-1967
1040.730	-2100
1040.792	-2545
1040.854	-1765
1040.916	-1913
1040.978	-2767
1041.040	-1066
1041.102	-2589
1041.164	-2909
1041.225	-2671
1041.287	-2363
1041.349	-2442
1041.411	-2402
1041.472	-3555
1041.534	-2867
1041.596	-2331
1041.657	-2134
1041.719	-2020
1041.781	-1917
1041.842	-2682
1041.904	-2422
1041.965	-2420
1042.027	-1829
1042.088	-2588
1042.150	-1819
1042.211	-2592
1042.272	-2497
1042.334	-1958
1042.395	-2445
1042.456	-2364
1042.518	-2588
1042.579	-3009
1042.640	-2410
1042.701	-2415
1042.763	-2205
1042.824	-2648
1042.885	-2157
1042.946	-1849
1043.007	-2325
1043.068	-2149
1043.129	-2148
1043.190	-1974
1043.251	-1718
1043.312	-2323
1043.373	-2193
1043.434	-1726
1043.495	-2421
1043.556	-1875
1043.616	-2101
1043.677	-2387
1043.738	-2823
1043.799	-2299
1043.859	-2126
1043.920	-2090
1043.981	-1918
1044.041	-2849
1044.102	-2152
1044.162	-2148
1044.223	-2840
1044.284	-2336
1044.344	-2207
1044.405	-1662
1044.465	-1739
1044.525	-2539
1044.586	-1949
1044.646	-1417
1044.707	-1295
1044.767	-2156
1044.827	-1688
1044.887	-2958
1044.948	-1571
1045.008	-2102
1045.068	-2324
1045.128	-1410
1045.188	-2699
1045.249	-2011
1045.309	-2627
1045.369	-1049
1045.429	-1824
1045.489	-1746
1045.549	-1701
1045.609	-2600
1045.669	-1475
1045.729	-1872
1045.789	-1529
1045.848	-1154
1045.908	-2131
1045.968	-1444
1046.028	-1540
1046.088	-1293
1046.147	-2101
1046.207	-2431
1046.267	-1379
1046.326	-1706
1046.386	-1320
1046.446	-1285
1046.505	-1007
1046.565	-1439
1046.624	-841
1046.684	-1130
1046.743	-485
1046.803	-583
1046.862	-616
1046.922	0
