'Start Wavelength	183.907
'End Wavelength	1046.922
'Gate Delay	5.000
'Gate Width (ms)	1.050
'Laser Output Level	0.000
'X Position	0.000
'Y Position	0.000
'Z Position	0.000
'Grid Point Number	1.000
'Shot Number	100.000
183.907	1127.000
183.977	-156.000
184.047	311
184.116	877
184.186	142
184.256	-130
184.325	-222
184.395	567
184.465	543
184.534	466
184.604	563
184.674	52
184.743	108
184.813	301
184.883	38
184.952	381
185.022	603
185.092	-73
185.161	237
185.231	-42
185.301	329
185.370	147
185.440	177
185.509	-167
185.579	-285
185.649	471
185.718	612
185.788	-60
185.857	109
185.927	624
185.996	585
186.066	1067
186.136	666
186.205	430
186.275	540
186.344	575
186.414	572
186.483	676
186.553	1270
186.622	374
186.692	506
186.761	738
186.831	462
186.900	-509
186.970	601
187.039	-179
187.109	308
187.178	735
187.248	543
187.317	536
187.387	492
187.456	783
187.526	435
187.595	1157
187.664	576
187.734	346
187.803	821
187.873	310
187.942	754
188.012	673
188.081	449
188.150	571
188.220	830
188.289	751
188.358	858
188.428	732
188.497	685
188.567	1050
188.636	719
188.705	-67
188.775	758
188.844	903
188.913	653
188.983	701
189.052	537
189.121	462
189.191	1219
189.260	148
189.329	820
189.399	91
189.468	922
189.537	947
189.606	1061
189.676	670
189.745	409
189.814	781
189.883	841
189.953	795
190.022	1212
190.091	1479
190.161	1175
190.230	501
190.299	500
190.368	339
190.437	92
190.507	370
190.576	706
190.645	468
190.714	250
190.783	520
190.853	112
190.922	905
190.991	1054
191.060	908
191.129	1010
191.198	1293
191.268	504
191.337	927
191.406	1217
191.475	857
191.544	821
191.613	813
191.682	328
191.752	936
191.821	707
191.890	871
191.959	619
192.028	835
192.097	1263
192.166	911
192.235	22
192.304	395
192.373	260
192.442	-102
192.511	678
192.580	407
192.650	953
192.719	748
192.788	248
192.857	1020
192.926	506
192.995	1310
193.064	958
193.133	1345
193.202	1461
193.271	794
193.340	1426
193.409	2230
193.478	1863
193.547	1961
193.615	1472
193.684	1671
193.753	881
193.822	515
193.891	1177
193.960	1241
194.029	855
194.098	1234
194.167	371
194.236	637
194.305	1033
194.374	778
194.443	716
194.512	961
194.580	792
194.649	1152
194.718	581
194.787	805
194.856	1125
194.925	1570
194.994	863
195.062	1300
195.131	1268
195.200	1023
195.269	1548
195.338	1270
195.407	654
195.475	293
195.544	1724
195.613	666
195.682	1594
195.751	1923
195.819	991
195.888	862
195.957	1439
196.026	1063
196.094	1050
196.163	1011
196.232	804
196.301	786
196.369	935
196.438	1446
196.507	1018
196.576	228
196.644	1572
196.713	903
196.782	794
196.850	1029
196.919	627
196.988	966
197.056	1548
197.125	1097
197.194	1095
197.262	780
197.331	457
197.400	935
197.468	1460
197.537	465
197.606	1490
197.674	2101
197.743	1289
197.812	1601
197.880	1840
197.949	2207
198.017	1946
198.086	1208
198.155	1648
198.223	1288
198.292	2056
198.360	1216
198.429	1054
198.497	1393
198.566	2067
198.635	2653
198.703	407
198.772	1725
198.840	2446
198.909	1597
198.977	1006
199.046	1139
199.114	1471
199.183	1072
199.251	1050
199.320	968
199.388	679
199.457	1369
199.525	1717
199.594	923
199.662	1315
199.731	1249
199.799	1116
199.867	1171
199.936	1276
200.004	1430
200.073	1879
200.141	1334
200.210	290
200.278	1441
200.346	1165
200.415	1935
200.483	2437
200.552	1964
200.620	464
200.688	1257
200.757	821
200.825	452
200.893	1331
200.962	948
201.030	987
201.098	1319
201.167	1298
201.235	1341
201.303	2019
201.372	1611
201.440	1481
201.508	2047
201.577	1652
201.645	1367
201.713	1480
201.781	1849
201.850	1897
201.918	962
201.986	1634
202.055	2094
202.123	1017
202.191	1779
202.259	759
202.327	1169
202.396	1864
202.464	1064
202.532	2461
202.600	3815
202.669	1676
202.737	1375
202.805	1536
202.873	1230
202.941	1136
203.009	751
203.078	897
203.146	815
203.214	1439
203.282	1678
203.350	1128
203.418	1705
203.487	2129
203.555	1838
203.623	1131
203.691	1208
203.759	1525
203.827	1107
203.895	1759
203.963	1866
204.031	1266
204.099	748
204.168	1436
204.236	1697
204.304	1555
204.372	1645
204.440	1421
204.508	1344
204.576	669
204.644	1788
204.712	1088
204.780	788
204.848	1855
204.916	1213
204.984	1475
205.052	2037
205.120	1030
205.188	1914
205.256	749
205.324	1261
205.392	785
205.460	1706
205.528	2003
205.596	1352
205.664	1230
205.732	1776
205.799	3401
205.867	2284
205.935	1592
206.003	1830
206.071	1350
206.139	1572
206.207	1224
206.275	1908
206.343	1777
206.411	1268
206.478	781
206.546	1271
206.614	1671
206.682	1064
206.750	1230
206.818	1748
206.885	2049
206.953	996
207.021	1520
207.089	1744
207.157	1752
207.225	1716
207.292	1833
207.360	1881
207.428	1350
207.496	2184
207.563	1194
207.631	1597
207.699	1606
207.767	1593
207.834	1871
207.902	2157
207.970	2161
208.038	1823
208.105	1803
208.173	1964
208.241	2047
208.309	1692
208.376	2241
208.444	2925
208.512	1360
208.579	2072
208.647	1474
208.715	2053
208.782	1477
208.850	2234
208.918	1412
208.985	1544
209.053	1317
209.120	2106
209.188	1598
209.256	1898
209.323	1816
209.391	2330
209.459	2328
209.526	2203
209.594	1736
209.661	2030
209.729	1538
209.796	1308
209.864	1945
209.932	2153
209.999	2624
210.067	2126
210.134	1827
210.202	2276
210.269	2983
210.337	3111
210.404	2255
210.472	1500
210.539	1589
210.607	2337
210.674	2124
210.742	1836
210.809	2308
210.877	2537
210.944	2660
211.012	2132
211.079	2250
211.146	2399
211.214	3049
211.281	3507
211.349	2641
211.416	3124
211.484	1856
211.551	2536
211.618	1892
211.686	2557
211.753	1815
211.821	2031
211.888	2067
211.955	2392
212.023	1828
212.090	2533
212.157	2870
212.225	2896
212.292	4001
212.359	6454
212.427	8030
212.494	4113
212.561	3419
212.629	2898
212.696	2489
212.763	2900
212.831	2680
212.898	2296
212.965	2447
213.032	2668
213.100	2110
213.167	2374
213.234	2167
213.301	2844
213.369	2268
213.436	3034
213.503	2193
213.570	3325
213.638	2302
213.705	3033
213.772	2756
213.839	2737
213.906	2662
213.973	1941
214.041	2727
214.108	3433
214.175	2222
214.242	2270
214.309	2252
214.376	3018
214.444	2761
214.511	2867
214.578	2906
214.645	3194
214.712	3501
214.779	2949
214.846	2820
214.913	3488
214.980	3043
215.048	3580
215.115	4128
215.182	2819
215.249	3385
215.316	3306
215.383	2811
215.450	2942
215.517	1962
215.584	2280
215.651	2485
215.718	2502
215.785	2959
215.852	3179
215.919	3433
215.986	3610
216.053	2282
216.120	2994
216.187	3814
216.254	2240
216.321	2978
216.388	3068
216.455	2938
216.522	2757
216.589	3994
216.656	4657
216.722	3985
216.789	4433
216.856	4502
216.923	4044
216.990	3734
217.057	4100
217.124	4473
217.191	4093
217.258	5559
217.324	5149
217.391	5225
217.458	3920
217.525	3655
217.592	2832
217.659	3658
217.725	3613
217.792	3536
217.859	3321
217.926	2316
217.993	2734
218.059	2890
218.126	2826
218.193	2598
218.260	2170
218.327	2301
218.393	2306
218.460	2881
218.527	1761
218.594	3067
218.660	3604
218.727	3865
218.794	2181
218.860	2674
218.927	2694
218.994	2344
219.061	2912
219.127	3312
219.194	2895
219.261	1894
219.327	2508
219.394	2375
219.461	1507
219.527	2021
219.594	3385
219.661	2262
219.727	2219
219.794	2195
219.860	2759
219.927	2709
219.994	4225
220.060	5247
220.127	3786
220.193	3646
220.260	3457
220.326	6024
220.393	8304
220.460	7329
220.526	4715
220.593	3382
220.659	3648
220.726	4728
220.792	7715
220.859	8614
220.925	10742
220.992	10903
221.058	10439
221.125	8029
221.191	5479
221.258	3070
221.324	3526
221.391	3054
221.457	2409
221.524	2718
221.590	5164
221.657	7909
221.723	4877
221.789	5260
221.856	5161
221.922	3292
221.989	2540
222.055	2704
222.121	2930
222.188	3575
222.254	2868
222.321	2222
222.387	2385
222.453	2408
222.520	2516
222.586	2755
222.652	2441
222.719	2011
222.785	2336
222.851	2165
222.918	2356
222.984	2808
223.050	2413
223.116	2718
223.183	2130
223.249	1550
223.315	1333
223.382	1919
223.448	2237
223.514	1505
223.580	1525
223.647	1209
223.713	2473
223.779	2086
223.845	2061
223.911	2410
223.978	2033
224.044	1926
224.110	2162
224.176	1791
224.242	1578
224.309	1816
224.375	2534
224.441	1796
224.507	1819
224.573	1994
224.639	1929
224.705	1873
224.772	2104
224.838	2259
224.904	1962
224.970	2242
225.036	1585
225.102	1980
225.168	1811
225.234	1743
225.300	2581
225.366	1375
225.432	2214
225.499	2467
225.565	2485
225.631	2368
225.697	3445
225.763	3032
225.829	3832
225.895	4640
225.961	4800
226.027	3892
226.093	4244
226.159	4480
226.225	8831
226.291	15656
226.357	14310
226.423	9640
226.489	6445
226.554	4646
226.620	4786
226.686	6694
226.752	9296
226.818	14966
226.884	18132
226.950	13990
227.016	7227
227.082	5790
227.148	5925
227.214	4969
227.279	4187
227.345	3777
227.411	4207
227.477	5782
227.543	8039
227.609	5798
227.674	4602
227.740	3574
227.806	3515
227.872	2009
227.938	3936
228.003	4242
228.069	2449
228.135	2611
228.201	2901
228.267	3684
228.332	3705
228.398	3224
228.464	2302
228.530	1556
228.595	2586
228.661	2854
228.727	3552
228.792	2356
228.858	2279
228.924	2833
228.990	3733
229.055	3715
229.121	3183
229.187	2397
229.252	2802
229.318	2169
229.384	2673
229.449	2703
229.515	1929
229.581	1199
229.646	3206
229.712	3347
229.777	5751
229.843	4477
229.909	4785
229.974	4711
230.040	3819
230.105	4486
230.171	4239
230.236	5230
230.302	5514
230.368	4167
230.433	3714
230.499	3794
230.564	3677
230.630	3476
230.695	2748
230.761	2826
230.826	3277
230.892	3791
230.957	3185
231.023	2762
231.088	3568
231.154	2556
231.219	3175
231.284	4671
231.350	3449
231.415	2728
231.481	2745
231.546	2547
231.612	2939
231.677	2475
231.742	3013
231.808	2594
231.873	2791
231.939	2732
232.004	4825
232.069	3120
232.135	3395
232.200	2949
232.265	2170
232.331	2527
232.396	2494
232.461	2643
232.527	1930
232.592	2627
232.657	2892
232.723	3259
232.788	3374
232.853	2353
232.918	2317
232.984	2362
233.049	2330
233.114	3036
233.179	2667
233.245	4359
233.310	2911
233.375	1921
233.440	2870
233.506	2535
233.571	1940
233.636	1976
233.701	2631
233.766	4012
233.832	3402
233.897	2769
233.962	2724
234.027	3207
234.092	3348
234.157	2995
234.222	3338
234.288	5711
234.353	7259
234.418	6300
234.483	4878
234.548	4933
234.613	4708
234.678	4573
234.743	5066
234.808	8802
234.873	4916
234.938	4196
235.004	4274
235.069	4064
235.134	3565
235.199	3128
235.264	3513
235.329	3314
235.394	2885
235.459	3841
235.524	3388
235.589	3019
235.654	2556
235.719	2589
235.784	2835
235.849	3940
235.913	4982
235.978	5562
236.043	4339
236.108	3577
236.173	3722
236.238	3516
236.303	2876
236.368	3390
236.433	5207
236.498	5508
236.563	6998
236.627	15496
236.692	26356
236.757	16159
236.822	10148
236.887	8078
236.952	6437
237.017	6082
237.081	6654
237.146	10315
237.211	19105
237.276	29688
237.341	29040
237.405	15299
237.470	9334
237.535	6911
237.600	4459
237.664	4761
237.729	4468
237.794	8950
237.859	9634
237.923	5860
237.988	4933
238.053	5727
238.118	5607
238.182	11361
238.247	5465
238.312	4780
238.376	4101
238.441	3722
238.506	3835
238.570	2664
238.635	2850
238.700	3180
238.764	3564
238.829	6356
238.893	5019
238.958	4711
239.023	4095
239.087	4117
239.152	3790
239.216	2883
239.281	2438
239.346	3344
239.410	3550
239.475	5191
239.539	9730
239.604	4312
239.668	3561
239.733	3297
239.797	8429
239.862	12707
239.926	8328
239.991	4695
240.055	3745
240.120	3659
240.184	3535
240.249	2254
240.313	2882
240.378	3333
240.442	8252
240.507	6154
240.571	3576
240.635	5700
240.700	4612
240.764	2998
240.829	2434
240.893	2239
240.957	2411
241.022	7744
241.086	7509
241.151	3791
241.215	2996
241.279	4060
241.344	5232
241.408	4568
241.472	4577
241.537	4973
241.601	4751
241.665	4497
241.730	4540
241.794	4628
241.858	3411
241.922	3668
241.987	4298
242.051	4664
242.115	4161
242.179	3708
242.244	3517
242.308	4319
242.372	4712
242.436	5390
242.501	4615
242.565	4036
242.629	3375
242.693	4539
242.757	3360
242.822	3464
242.886	3528
242.950	3977
243.014	3740
243.078	4648
243.142	3878
243.206	4337
243.271	4329
243.335	4284
243.399	6899
243.463	23849
243.527	22990
243.591	8490
243.655	5436
243.719	4446
243.783	5663
243.847	8161
243.911	9217
243.975	10532
244.040	6296
244.104	4614
244.168	4063
244.232	7921
244.296	7548
244.360	7109
244.424	4009
244.488	4292
244.552	3710
244.615	3163
244.679	3658
244.743	5372
244.807	3781
244.871	2608
244.935	3077
244.999	3801
245.063	4016
245.127	5062
245.191	6942
245.255	5029
245.319	6596
245.383	3859
245.446	4430
245.510	2989
245.574	3630
245.638	3453
245.702	5515
245.766	6540
245.829	5231
245.893	4386
245.957	4192
246.021	5014
246.085	4863
246.149	5860
246.212	13599
246.276	10952
246.340	7218
246.404	5332
246.467	6827
246.531	6655
246.595	5098
246.659	5631
246.722	6167
246.786	6143
246.850	8062
246.913	6613
246.977	4314
247.041	5075
247.104	4073
247.168	6526
247.232	13357
247.295	16003
247.359	7017
247.423	6739
247.486	7904
247.550	6174
247.614	6318
247.677	6813
247.741	4393
247.804	3745
247.868	5876
247.932	14995
247.995	13365
248.059	7064
248.122	4947
248.186	7697
248.249	15990
248.313	29026
248.376	23824
248.440	14509
248.503	7119
248.567	8326
248.630	12345
248.694	15596
248.757	21294
248.821	26130
248.884	18042
248.948	21987
249.011	25776
249.075	32363
249.138	21542
249.202	11909
249.265	9890
249.328	8778
249.392	9357
249.455	6408
249.519	6509
249.582	9370
249.645	11597
249.709	7735
249.772	6148
249.835	6523
249.899	7026
249.962	6322
250.025	7189
250.089	17095
250.152	13335
250.215	8779
250.279	7879
250.342	7763
250.405	7423
250.468	7133
250.532	9098
250.595	15441
250.658	46522
250.721	33726
250.785	16729
250.848	11320
250.911	8100
250.974	8237
251.038	15704
251.101	15378
251.164	11019
251.227	11766
251.290	10238
251.354	21986
251.417	49981
251.480	31691
251.543	45296
251.606	70976
251.669	37895
251.732	23834
251.795	25977
251.859	31888
251.922	45700
251.985	20092
252.048	12890
252.111	11240
252.174	12499
252.237	25778
252.300	31743
252.363	47634
252.426	46325
252.489	21878
252.552	12863
252.615	11384
252.678	15791
252.741	28639
252.804	44944
252.867	54709
252.930	32807
252.993	18031
253.056	14737
253.119	9882
253.182	11040
253.245	13797
253.308	10043
253.371	11891
253.434	9117
253.497	12602
253.559	16024
253.622	12204
253.685	21052
253.748	12759
253.811	8744
253.874	10083
253.937	8670
254.000	8097
254.062	18280
254.125	15798
254.188	20723
254.251	10400
254.314	9043
254.376	16927
254.439	14271
254.502	12311
254.565	18458
254.628	19990
254.690	12890
254.753	7915
254.816	7773
254.878	8901
254.941	16186
255.004	8719
255.067	7997
255.129	6801
255.192	5047
255.255	4985
255.317	5682
255.380	3387
255.443	4208
255.505	3302
255.568	4397
255.631	4524
255.693	4564
255.756	2906
255.819	3676
255.881	3446
255.944	3096
256.006	3451
256.069	3274
256.132	4087
256.194	6188
256.257	7473
256.319	7274
256.382	5568
256.444	6431
256.507	4973
256.569	4277
256.632	5288
256.694	9288
256.757	31000
256.819	35622
256.882	14090
256.944	9277
257.007	8664
257.069	7977
257.132	5061
257.194	5243
257.257	5714
257.319	5025
257.381	7255
257.444	23569
257.506	59851
257.569	41894
257.631	22789
257.693	12128
257.756	7544
257.818	6431
257.880	4957
257.943	5416
258.005	4759
258.067	4908
258.130	4875
258.192	8673
258.254	8894
258.317	4948
258.379	6682
258.441	13420
258.503	7030
258.566	14046
258.628	7797
258.690	4675
258.753	8586
258.815	10558
258.877	6370
258.939	5372
259.001	5368
259.064	5136
259.126	5808
259.188	5959
259.250	5655
259.312	8533
259.375	13054
259.437	7424
259.499	4671
259.561	4769
259.623	5900
259.685	4264
259.747	5241
259.809	14145
259.872	14236
259.934	30083
259.996	17869
260.058	7424
260.120	5124
260.182	4054
260.244	3873
260.306	3973
260.368	4214
260.430	4705
260.492	13002
260.554	14024
260.616	8747
260.678	19970
260.740	10725
260.802	6362
260.864	5882
260.926	4670
260.988	4526
261.050	6816
261.112	18012
261.174	21798
261.236	8996
261.298	7031
261.359	11302
261.421	7887
261.483	4127
261.545	4640
261.607	3279
261.669	4198
261.731	8958
261.793	11761
261.854	6909
261.916	5893
261.978	6068
262.040	4353
262.102	4497
262.164	5660
262.225	4232
262.287	5902
262.349	11004
262.411	5803
262.472	4134
262.534	9341
262.596	7848
262.658	4428
262.719	3878
262.781	7034
262.843	8066
262.904	5085
262.966	4750
263.028	6378
263.090	36466
263.151	33333
263.213	17077
263.275	10122
263.336	5035
263.398	4955
263.459	3596
263.521	4637
263.583	9803
263.644	5340
263.706	2774
263.767	3148
263.829	2188
263.891	2328
263.952	2447
264.014	3303
264.075	11219
264.137	12133
264.198	4470
264.260	3030
264.321	3270
264.383	17465
264.444	15773
264.506	5190
264.567	4925
264.629	15711
264.690	12500
264.752	5531
264.813	4520
264.875	3517
264.936	3118
264.998	3243
265.059	2495
265.120	3732
265.182	10798
265.243	36397
265.305	14561
265.366	5724
265.427	4111
265.489	3491
265.550	3597
265.611	5018
265.673	3641
265.734	3748
265.795	3065
265.857	3789
265.918	3962
265.979	16965
266.040	47382
266.102	19093
266.163	10265
266.224	8394
266.286	4363
266.347	3488
266.408	3514
266.469	3385
266.530	2943
266.592	3587
266.653	10395
266.714	7747
266.775	3766
266.836	3217
266.898	4765
266.959	7316
267.020	3894
267.081	3624
267.142	4085
267.203	4117
267.264	3678
267.326	4713
267.387	3693
267.448	3258
267.509	3354
267.570	3635
267.631	2924
267.692	2922
267.753	3230
267.814	3317
267.875	10695
267.936	10192
267.997	9688
268.058	7515
268.119	4193
268.180	4175
268.241	2800
268.302	2771
268.363	3367
268.424	4152
268.485	3563
268.546	2548
268.607	2266
268.668	3023
268.729	2194
268.790	2783
268.851	4985
268.912	12033
268.972	8896
269.033	5087
269.094	2895
269.155	3318
269.216	2979
269.277	2999
269.338	2737
269.398	3367
269.459	4799
269.520	7064
269.581	9249
269.642	8071
269.702	5408
269.763	4239
269.824	3718
269.885	7710
269.945	5510
270.006	3507
270.067	2466
270.128	3090
270.188	3020
270.249	2552
270.310	2153
270.370	3655
270.431	2718
270.492	2771
270.553	4060
270.613	10809
270.674	11063
270.734	3875
270.795	4116
270.856	6948
270.916	2766
270.977	3535
271.038	5244
271.098	4919
271.159	9799
271.219	3817
271.280	3243
271.340	3000
271.401	4658
271.462	6183
271.522	5421
271.583	3621
271.643	3379
271.704	4528
271.764	6260
271.825	16825
271.885	38677
271.946	24802
272.006	13478
272.066	29204
272.127	20687
272.187	9366
272.248	6031
272.308	10866
272.369	18498
272.429	7828
272.489	12668
272.550	9222
272.610	12472
272.671	6558
272.731	8369
272.791	9787
272.852	6319
272.912	5742
272.972	3562
273.033	5204
273.093	6903
273.153	6681
273.214	5245
273.274	7459
273.334	27053
273.394	21778
273.455	12021
273.515	20245
273.575	20483
273.635	11000
273.696	22238
273.756	21058
273.816	10394
273.876	7569
273.936	16610
273.997	11527
274.057	5621
274.117	6188
274.177	16933
274.237	39482
274.297	18391
274.358	18786
274.418	23595
274.478	12358
274.538	5789
274.598	7137
274.658	17076
274.718	12736
274.778	5698
274.838	4973
274.898	14355
274.958	20566
275.018	25521
275.078	12450
275.138	6370
275.198	4164
275.258	3704
275.318	6846
275.378	12900
275.438	9109
275.498	6944
275.558	16520
275.618	23137
275.678	13414
275.738	14927
275.798	9664
275.858	4839
275.918	4435
275.978	5932
276.038	4410
276.098	4081
276.157	16158
276.217	17827
276.277	9599
276.337	6968
276.397	5940
276.457	5808
276.517	3106
276.576	3798
276.636	4351
276.696	9630
276.756	15280
276.815	6644
276.875	5569
276.935	6344
276.995	4937
277.055	4273
277.114	4272
277.174	10957
277.234	13703
277.293	6146
277.353	4776
277.413	4136
277.472	4921
277.532	4381
277.592	5809
277.651	28484
277.711	16424
277.771	15299
277.830	38619
277.890	15990
277.950	34564
278.009	37088
278.069	15057
278.128	31649
278.188	20376
278.248	19464
278.307	33566
278.367	11152
278.426	6687
278.486	4468
278.545	3773
278.605	4198
278.664	3878
278.724	4875
278.783	21566
278.843	17539
278.902	6992
278.962	6577
279.021	7290
279.081	8328
279.140	8004
279.199	7680
279.259	7512
279.318	6959
279.378	9950
279.437	23887
279.496	68863
279.556	120819
279.615	47864
279.675	20904
279.734	17668
279.793	31754
279.853	25680
279.912	11199
279.971	8557
280.031	8270
280.090	21949
280.149	17045
280.208	32152
280.268	98819
280.327	41500
280.386	16770
280.445	20402
280.505	11620
280.564	7647
280.623	7081
280.682	14981
280.742	10705
280.801	5211
280.860	4559
280.919	4808
280.978	3407
281.037	3406
281.097	3822
281.156	3099
281.215	3595
281.274	8290
281.333	19326
281.392	7219
281.451	3568
281.510	4051
281.569	3484
281.628	2652
281.688	3358
281.747	5254
281.806	4516
281.865	3556
281.924	4139
281.983	3462
282.042	2654
282.101	3219
282.160	2736
282.219	2490
282.278	6328
282.337	12696
282.396	4904
282.454	4057
282.513	9883
282.572	19311
282.631	6641
282.690	4195
282.749	5092
282.808	5618
282.867	6361
282.926	3725
282.985	3851
283.043	2949
283.102	3682
283.161	4523
283.220	14967
283.279	12139
283.338	5104
283.396	4461
283.455	4468
283.514	7061
283.573	8793
283.631	4995
283.690	4930
283.749	5130
283.808	12989
283.866	7552
283.925	4664
283.984	5025
284.043	8295
284.101	6548
284.160	5816
284.219	7324
284.277	6383
284.336	15529
284.395	28457
284.453	13291
284.512	12302
284.570	15960
284.629	12969
284.688	14841
284.746	15885
284.805	19480
284.863	26638
284.922	29790
284.981	39781
285.039	60552
285.098	97312
285.156	112999
285.215	80040
285.273	113707
285.332	105467
285.390	74315
285.449	51681
285.507	38094
285.566	28423
285.624	21910
285.683	16449
285.741	15181
285.799	13085
285.858	11534
285.916	10056
285.975	8618
286.033	8171
286.091	7228
286.150	6487
286.208	6796
286.267	6889
286.325	8387
286.383	11236
286.442	6425
286.500	4540
286.558	4860
286.616	4986
286.675	7424
286.733	5132
286.791	5126
286.850	5894
286.908	10326
286.966	7969
287.024	4767
287.083	3629
287.141	3410
287.199	6057
287.257	5970
287.315	4365
287.374	7967
287.432	11485
287.490	6038
287.548	4869
287.606	3627
287.664	4382
287.723	7605
287.781	5389
287.839	4929
287.897	5143
287.955	5321
288.013	7982
288.071	25287
288.129	112148
288.187	121913
288.245	41553
288.303	20226
288.361	13533
288.419	9144
288.477	6508
288.535	5520
288.593	4697
288.651	3997
288.709	2945
288.767	4664
288.825	3630
288.883	3065
288.941	3354
288.999	3117
289.057	2658
289.115	3278
289.173	3460
289.231	4317
289.289	2965
289.346	3161
289.404	5377
289.462	8012
289.520	5706
289.578	3155
289.636	2044
289.694	2180
289.751	2492
289.809	2988
289.867	3195
289.925	5152
289.983	4051
290.040	3420
290.098	3725
290.156	4843
290.214	4308
290.271	2038
290.329	2023
290.387	2253
290.444	2193
290.502	1842
290.560	2619
290.617	3602
290.675	2214
290.733	2978
290.790	2367
290.848	2577
290.906	3316
290.963	2107
291.021	2261
291.078	2333
291.136	3793
291.194	19591
291.251	13571
291.309	3658
291.366	2945
291.424	2811
291.481	3712
291.539	3096
291.596	2652
291.654	1440
291.711	1725
291.769	5152
291.826	6626
291.884	3326
291.941	2192
291.999	2276
292.056	4429
292.114	2256
292.171	2210
292.228	3295
292.286	4584
292.343	9818
292.401	7880
292.458	4613
292.515	3938
292.573	4932
292.630	3888
292.687	3547
292.745	2800
292.802	8064
292.859	16999
292.917	18539
292.974	6641
293.031	3831
293.089	2878
293.146	2250
293.203	2478
293.260	2495
293.318	5423
293.375	5283
293.432	3326
293.489	2855
293.546	2306
293.604	5995
293.661	24093
293.718	26872
293.775	12048
293.832	8021
293.889	6631
293.947	5218
294.004	3652
294.061	6181
294.118	15336
294.175	27636
294.232	20377
294.289	7233
294.346	6537
294.403	5494
294.460	4307
294.517	4214
294.574	3255
294.631	3308
294.688	4883
294.745	18645
294.802	44581
294.859	26522
294.916	11390
294.973	7995
295.030	7847
295.087	5217
295.144	4189
295.201	4189
295.258	2643
295.315	6019
295.372	21402
295.429	17423
295.486	7034
295.542	8684
295.599	28217
295.656	22946
295.713	23032
295.770	16646
295.827	6865
295.883	5578
295.940	6215
295.997	11135
296.054	6283
296.111	4046
296.167	3337
296.224	2611
296.281	3693
296.338	3042
296.394	2816
296.451	4427
296.508	17548
296.564	15987
296.621	17231
296.678	41921
296.734	27709
296.791	11699
296.848	8080
296.904	14889
296.961	24746
297.018	26624
297.074	11939
297.131	6455
297.187	6491
297.244	11703
297.301	39103
297.357	27798
297.414	10178
297.470	6921
297.527	4955
297.583	5282
297.640	4643
297.696	3397
297.753	3288
297.809	2738
297.866	2084
297.922	3056
297.979	2552
298.035	4589
298.092	8965
298.148	17785
298.204	10577
298.261	7889
298.317	25372
298.374	29932
298.430	13071
298.486	8029
298.543	6338
298.599	7174
298.656	8913
298.712	20565
298.768	27219
298.824	11653
298.881	6798
298.937	4719
298.993	5430
299.050	6034
299.106	4907
299.162	5177
299.218	4744
299.275	3594
299.331	4713
299.387	16334
299.443	38822
299.500	23679
299.556	9917
299.612	7256
299.668	8526
299.724	11732
299.780	7188
299.837	4836
299.893	14444
299.949	33192
300.005	22711
300.061	37291
300.117	33191
300.173	13117
300.229	10507
300.285	16355
300.341	11760
300.397	6194
300.453	4478
300.510	5322
300.566	4454
300.622	8579
300.678	29052
300.734	28025
300.790	28343
300.845	23701
300.901	26319
300.957	29394
301.013	12872
301.069	6443
301.125	6910
301.181	6653
301.237	5325
301.293	4026
301.349	4041
301.405	3297
301.461	6088
301.516	6319
301.572	8627
301.628	9814
301.684	7753
301.740	18089
301.796	14800
301.851	15692
301.907	21846
301.963	19116
302.019	48892
302.074	81352
302.130	55694
302.186	24860
302.242	12851
302.297	9849
302.353	13394
302.409	18276
302.464	10734
302.520	19429
302.576	36622
302.631	28695
302.687	14256
302.743	7313
302.798	5508
302.854	5561
302.910	5990
302.965	9037
303.021	12540
303.076	11932
303.132	18679
303.187	13957
303.243	6898
303.299	5863
303.354	4222
303.410	4285
303.465	4697
303.521	3370
303.576	4272
303.632	5120
303.687	17435
303.743	29132
303.798	15072
303.853	7164
303.909	6061
303.964	6774
304.020	12405
304.075	11700
304.130	16385
304.186	24104
304.241	20881
304.297	14201
304.352	8532
304.358	8269
304.407	6109
304.449	6892
304.463	7166
304.518	6589
304.539	6181
304.573	5472
304.629	5641
304.630	5788
304.684	12513
304.720	24500
304.739	30747
304.794	24266
304.811	21125
304.850	12429
304.902	7462
304.905	7197
304.960	6063
304.992	6238
305.015	6456
305.071	6662
305.083	6275
305.126	4629
305.173	4101
305.181	4035
305.236	3392
305.264	4398
305.292	5568
305.347	6794
305.354	6883
305.402	7422
305.445	7345
305.457	7299
305.512	9129
305.535	8797
305.567	8199
305.622	8439
305.626	8973
305.678	19562
305.716	30802
305.733	35458
305.788	28203
305.807	28124
305.843	25702
305.897	33216
305.898	33353
305.953	23934
305.988	19644
306.008	16448
306.063	12224
306.078	10694
306.118	7739
306.168	5780
306.173	5651
306.228	5238
306.259	4635
306.283	4327
306.338	4441
306.349	4640
306.393	5910
306.440	6492
306.448	6458
306.503	5771
306.530	6883
306.558	9902
306.613	20811
306.620	21900
306.668	30058
306.711	36670
306.723	36829
306.778	25924
306.801	22280
306.833	16494
306.888	9120
306.892	8704
306.943	7341
306.982	6236
306.997	6070
307.052	5920
307.072	5924
307.107	6217
307.162	8226
307.163	8241
307.217	11749
307.253	13715
307.272	14383
307.327	14891
307.343	14630
307.381	12183
307.434	11021
307.436	11329
307.491	22852
307.524	30342
307.546	34571
307.600	33565
307.614	33073
307.655	21471
307.704	11451
307.710	11491
307.765	12770
307.795	15813
307.819	20563
307.874	28212
307.885	28795
307.929	22941
307.975	18719
307.984	19298
308.038	25931
308.065	31658
308.093	48965
308.148	104460
308.156	112732
308.202	181344
308.246	214140
308.257	202279
308.312	129148
308.336	101164
308.366	83219
308.421	51236
308.426	48310
308.475	32820
308.517	21274
308.530	20251
308.585	17072
308.607	16125
308.639	16317
308.694	17465
308.697	17688
308.748	28320
308.787	35024
308.803	35531
308.857	32560
308.877	31886
308.912	29160
308.967	27160
308.967	27085
309.021	38023
309.058	47018
309.076	57370
309.130	94060
309.148	108532
309.185	162547
309.238	246823
309.239	248458
309.293	288844
309.328	298744
309.348	265715
309.402	169465
309.418	143969
309.457	107286
309.508	62387
309.511	62010
309.566	56877
309.598	55532
309.620	65220
309.674	93325
309.688	98976
309.729	104028
309.778	104871
309.783	102282
309.837	69787
309.868	52483
309.892	52270
309.946	57419
309.959	58487
310.001	82851
310.049	104816
310.055	101209
310.109	64911
310.139	46034
310.163	38128
310.218	22378
310.229	19183
310.272	16331
310.319	13454
310.326	13167
310.381	11301
310.409	10306
310.435	10035
310.489	9460
310.499	9390
310.543	9925
310.589	10329
310.598	10460
310.652	11178
310.679	11347
310.706	10634
310.760	9124
310.769	8900
310.814	8180
310.859	7437
310.868	7562
310.923	8129
310.948	8393
310.977	9102
311.031	10464
311.038	10616
311.085	10817
311.128	10818
311.139	10755
311.193	10403
311.218	10172
311.247	9620
311.301	8578
311.308	8423
311.356	8902
311.398	9268
311.410	9269
311.464	9123
311.488	9051
311.518	8995
311.572	8832
311.578	8797
311.626	12385
311.668	15460
311.680	15450
311.734	15084
311.758	14885
311.788	14840
311.842	14632
311.847	14573
311.896	15976
311.937	17105
311.950	18076
312.004	22026
312.027	23683
312.058	19727
312.112	12522
312.117	11763
312.165	11072
312.207	10424
312.297	15296
312.386	14942
312.476	12122
312.566	23562
312.656	17642
312.745	9843
312.835	9930
312.925	13217
313.015	11545
313.104	11293
313.194	10113
313.284	11483
313.374	13626
313.463	17191
313.553	10666
313.643	9731
313.732	9581
313.822	9719
313.912	10958
314.001	12669
314.091	14496
314.180	18684
314.270	16674
314.360	16714
314.449	17052
314.539	11372
314.628	10158
314.718	11695
314.808	14350
314.897	11035
314.987	10726
315.076	13405
315.166	17768
315.255	15354
315.345	16129
315.434	14850
315.524	12927
315.613	14629
315.703	19930
315.792	22799
315.881	39563
315.971	31142
316.060	24027
316.150	30136
316.239	32427
316.328	18542
316.418	10262
316.507	11728
316.597	14312
316.686	15287
316.775	15122
316.865	30271
316.954	14589
317.043	9399
317.133	10535
317.222	10428
317.311	9284
317.400	10072
317.490	12497
317.579	19012
317.668	11622
317.757	14640
317.847	28084
317.936	69992
318.025	58082
318.114	29415
318.203	22251
318.293	25279
318.382	59606
318.471	53023
318.560	58848
318.649	80493
318.738	37410
318.828	14125
318.917	19376
319.006	14837
319.095	34820
319.184	90407
319.273	88333
319.362	49821
319.451	15955
319.540	13336
319.629	25212
319.718	57663
319.807	24172
319.896	32202
319.985	113232
320.074	83171
320.163	19421
320.252	22013
320.341	20709
320.430	25312
320.519	26177
320.608	23119
320.697	14081
320.786	16109
320.875	17381
320.964	23695
321.053	34379
321.142	47285
321.230	64846
321.319	36357
321.408	85070
321.497	57453
321.586	34433
321.675	35056
321.764	41016
321.852	25818
321.941	45355
322.030	48367
322.119	31393
322.207	85725
322.296	64906
322.385	32701
322.474	32994
322.562	93798
322.651	86057
322.740	35740
322.829	60462
322.917	46118
323.006	37246
323.095	31596
323.183	22319
323.272	27990
323.361	41989
323.449	99623
323.538	56402
323.626	63668
323.715	71551
323.804	20069
323.892	58555
323.981	69921
324.069	18223
324.158	27898
324.246	49573
324.335	20378
324.424	37791
324.512	19678
324.601	19008
324.689	34354
324.778	87304
324.866	46639
324.954	16734
325.043	12622
325.131	19661
325.220	31532
325.308	38077
325.397	28090
325.485	28760
325.574	11369
325.662	10978
325.750	12715
325.839	11481
325.927	9952
326.015	12324
326.104	13901
326.192	21806
326.280	11447
326.369	10175
326.457	15211
326.545	29778
326.634	21773
326.722	7408
326.810	9261
326.898	9692
326.987	11184
327.075	22812
327.163	28950
327.251	15081
327.340	25617
327.428	69360
327.516	16956
327.604	11184
327.692	10881
327.781	9562
327.869	16448
327.957	15215
328.045	15314
328.133	9312
328.221	9769
328.309	11568
328.397	9571
328.485	12799
328.574	14630
328.662	48251
328.750	46205
328.838	14679
328.926	10896
329.014	9079
329.102	13008
329.190	29575
329.278	35705
329.366	11928
329.454	8843
329.542	10239
329.630	10235
329.718	11038
329.806	14200
329.893	16050
329.981	17820
330.069	24794
330.157	75838
330.245	241954
330.333	212329
330.421	52284
330.509	23836
330.597	61776
330.684	70344
330.772	20547
330.860	22231
330.948	28934
331.036	20983
331.123	9881
331.211	8842
331.299	12046
331.387	17568
331.475	50440
331.562	20433
331.650	9783
331.738	9371
331.825	13467
331.913	9626
332.001	8540
332.089	9304
332.176	17450
332.264	29361
332.352	42822
332.439	16554
332.527	12461
332.614	9054
332.702	11221
332.790	9219
332.877	15982
332.965	42088
333.052	26366
333.140	14846
333.228	47389
333.315	25663
333.403	11424
333.490	18725
333.578	29555
333.665	52701
333.753	49292
333.840	13563
333.928	11785
334.015	20031
334.103	32126
334.190	103751
334.278	63576
334.365	17686
334.452	17740
334.540	12944
334.627	12249
334.715	17290
334.802	22392
334.889	81893
334.977	159101
335.064	35082
335.151	16535
335.239	14167
335.326	16490
335.413	38328
335.501	107306
335.588	24181
335.675	14191
335.762	14932
335.850	29338
335.937	20679
336.024	30673
336.111	121000
336.199	109553
336.286	27998
336.373	15145
336.460	10860
336.547	10517
336.635	12532
336.722	14434
336.809	10832
336.896	12563
336.983	33618
337.070	90742
337.157	129746
337.245	81268
337.332	81861
337.419	14545
337.506	9933
337.593	10091
337.680	20518
337.767	100717
337.854	46438
337.941	36961
338.028	36408
338.115	23356
338.202	14703
338.289	23945
338.376	71367
338.463	50095
338.550	38161
338.637	86288
338.724	18973
338.811	31949
338.898	12358
338.984	9614
339.071	12123
339.158	13576
339.245	30869
339.332	33363
339.419	17223
339.506	28490
339.593	8357
339.679	9286
339.766	10953
339.853	10927
339.940	27179
340.027	16564
340.113	10132
340.200	16239
340.287	13123
340.374	12052
340.460	27208
340.547	16929
340.634	13186
340.720	46936
340.807	60132
340.894	10649
340.980	10922
341.067	10130
341.154	10631
341.240	13778
341.327	37011
341.414	19231
341.500	19054
341.587	12281
341.674	9081
341.760	18048
341.847	34115
341.933	16473
342.020	7471
342.106	6970
342.193	7981
342.279	20662
342.366	15091
342.452	27702
342.539	17040
342.625	20956
342.712	69873
342.798	44465
342.885	20052
342.971	7624
343.058	5898
343.144	7050
343.230	8583
343.317	9614
343.403	10760
343.490	7186
343.576	7110
343.662	8466
343.749	10484
343.835	11682
343.921	14479
344.008	51769
344.094	203454
344.180	88417
344.267	23061
344.353	40205
344.439	80596
344.525	40727
344.612	21549
344.698	14819
344.784	13840
344.870	8305
344.957	8979
345.043	14592
345.129	12723
345.215	23874
345.301	20534
345.387	15047
345.474	7252
345.560	7474
345.646	8230
345.732	9108
345.818	11179
345.904	12983
345.990	11676
346.076	9680
346.162	17302
346.249	13627
346.335	8793
346.421	9206
346.507	14038
346.593	72385
346.679	42465
346.765	11064
346.851	8950
346.937	12362
347.023	8506
347.108	10069
347.194	11976
347.280	9628
347.366	10792
347.452	19114
347.538	78861
347.624	85180
347.710	77121
347.796	21359
347.882	9690
347.967	8735
348.053	11783
348.139	11249
348.225	7625
348.311	9656
348.397	8849
348.482	9236
348.568	15119
348.654	8562
348.740	9781
348.825	16169
348.911	13562
348.997	28449
349.083	94322
349.168	34428
349.254	10187
349.340	13558
349.425	8473
349.511	10588
349.597	15763
349.682	18320
349.768	54506
349.854	53198
349.939	11798
350.025	8363
350.110	8000
350.196	7737
350.282	9084
350.367	6613
350.453	8957
350.538	13865
350.624	12133
350.709	15934
350.795	8130
350.880	9972
350.966	9123
351.051	12966
351.137	11808
351.222	8824
351.308	15143
351.393	63539
351.479	34513
351.564	14285
351.649	8878
351.735	8397
351.820	6420
351.906	9443
351.991	9928
352.076	24181
352.162	74125
352.247	23807
352.332	11852
352.418	20541
352.503	28632
352.588	62843
352.673	118709
352.759	29369
352.844	15731
352.929	12202
353.014	20948
353.100	13433
353.185	17685
353.270	29325
353.355	36973
353.441	13850
353.526	9831
353.611	17640
353.696	37353
353.781	20295
353.866	14495
353.952	10711
354.037	17724
354.122	53323
354.207	55751
354.292	33558
354.377	11659
354.462	9191
354.547	12584
354.632	13803
354.717	14464
354.802	27761
354.887	17645
354.972	9228
355.057	8035
355.142	7715
355.227	9748
355.312	15845
355.397	29804
355.482	74379
355.567	69907
355.652	26216
355.737	34793
355.822	49716
355.907	89021
355.991	19036
356.076	10380
356.161	9998
356.246	8486
356.331	9382
356.416	14166
356.501	59912
356.585	147229
356.670	38343
356.755	18036
356.840	18276
356.924	50038
357.009	221430
357.094	188086
357.179	37380
357.263	28243
357.348	18981
357.433	26054
357.517	21346
357.602	20750
357.687	14681
357.771	17457
357.856	57253
357.941	63632
358.025	36543
358.110	187834
358.195	205142
358.279	41596
358.364	19710
358.448	37599
358.533	129537
358.617	144518
358.702	105871
358.787	69915
358.871	29100
358.956	32978
359.040	14552
359.125	9647
359.209	10451
359.294	20502
359.378	67637
359.462	35823
359.547	19783
359.631	11593
359.716	8835
359.800	9543
359.885	14726
359.969	14203
360.053	10438
360.138	9791
360.222	12954
360.306	25601
360.391	27753
360.475	25232
360.559	92156
360.644	65950
360.728	64308
360.812	36061
360.896	143027
360.981	104291
361.065	72555
361.149	20680
361.233	16654
361.318	14666
361.402	15639
361.486	14372
361.570	11900
361.654	12748
361.739	23091
361.823	69680
361.907	178911
361.991	68845
362.075	21301
362.159	47747
362.243	50512
362.327	36604
362.411	51411
362.495	33041
362.580	20696
362.664	13451
362.748	13601
362.832	15557
362.916	22318
363.000	51629
363.084	135355
363.168	221627
363.252	100025
363.336	29058
363.420	26102
363.503	56415
363.587	132505
363.671	40540
363.755	19477
363.839	30262
363.923	20445
364.007	22652
364.091	41143
364.175	29299
364.258	107128
364.342	147249
364.426	147968
364.510	123342
364.594	49974
364.677	35041
364.761	91091
364.845	148108
364.929	47572
365.013	51173
365.096	29738
365.180	43985
365.264	26631
365.347	103806
365.431	102029
365.515	29186
365.598	17424
365.682	12031
365.766	16173
365.849	32761
365.933	16663
366.017	17658
366.100	19810
366.184	10790
366.267	8939
366.351	9472
366.435	9393
366.518	9725
366.602	7753
366.685	9026
366.769	12319
366.852	14968
366.936	33512
367.019	28879
367.103	14660
367.186	29226
367.270	17916
367.353	8893
367.436	9810
367.520	9810
367.603	11357
367.687	16289
367.770	32758
367.853	24717
367.937	25241
368.020	79293
368.104	36475
368.187	20106
368.270	34887
368.353	38312
368.437	31207
368.520	48821
368.603	55404
368.687	39113
368.770	106534
368.853	53450
368.936	26714
369.020	38820
369.103	19897
369.186	11039
369.269	13450
369.352	15386
369.436	35112
369.519	25767
369.602	16584
369.685	11944
369.768	15582
369.851	13289
369.934	10166
370.018	10573
370.101	25530
370.184	27987
370.267	17957
370.350	23990
370.433	40122
370.516	57580
370.599	109269
370.682	48326
370.765	55243
370.848	80472
370.931	105327
371.014	84561
371.097	21602
371.180	15509
371.263	11407
371.346	9681
371.429	11206
371.511	11612
371.594	18575
371.677	29015
371.760	37182
371.843	30337
371.926	55879
372.009	208937
372.091	145508
372.174	51668
372.257	95699
372.340	80291
372.423	38471
372.505	60464
372.588	35695
372.671	28253
372.754	96221
372.836	101752
372.919	35180
373.002	93966
373.085	59180
373.167	27613
373.250	47977
373.332	98263
373.415	115342
373.498	252945
373.580	192356
373.663	90740
373.746	216520
373.828	94145
373.911	32743
373.993	25381
374.076	54902
374.159	106775
374.241	38337
374.324	76519
374.406	107352
374.489	51244
374.571	185107
374.654	167489
374.736	47485
374.819	100889
374.901	170154
374.983	239611
375.066	89085
375.148	22369
375.231	35855
375.313	126732
375.395	88321
375.478	26732
375.560	13373
375.643	14271
375.725	26729
375.807	115837
375.890	175637
375.972	78712
376.054	41222
376.136	44661
376.219	35871
376.301	26373
376.383	120764
376.465	104263
376.548	40763
376.630	47920
376.712	93999
376.794	106818
376.877	19866
376.959	10169
377.041	12080
377.123	15645
377.205	34648
377.287	13557
377.369	8831
377.452	9800
377.534	11025
377.616	10206
377.698	11086
377.780	9703
377.862	11069
377.944	10154
378.026	8959
378.108	8213
378.190	8909
378.272	8158
378.354	7252
378.436	6900
378.518	9902
378.600	36609
378.682	49954
378.764	53598
378.846	88418
378.928	26059
379.010	32609
379.091	29617
379.173	11392
379.255	9568
379.337	11832
379.419	22179
379.501	85302
379.583	79436
379.664	17931
379.746	24212
379.828	58502
379.910	102334
379.991	110623
380.073	38091
380.155	14363
380.237	14777
380.318	10082
380.400	10675
380.482	15874
380.564	35370
380.645	32689
380.727	41903
380.809	25431
380.890	18711
380.972	16041
381.053	12961
381.135	14207
381.217	19117
381.298	69470
381.380	73898
381.461	30672
381.543	71006
381.624	189134
381.706	74101
381.787	25861
381.869	27637
381.951	35305
382.032	149294
382.113	210063
382.195	70886
382.276	34421
382.358	40958
382.439	102498
382.521	128619
382.602	189099
382.684	145240
382.765	137196
382.846	242890
382.928	379386
383.009	378262
383.090	165995
383.172	336697
383.253	766781
383.334	442088
383.416	216346
383.497	181661
383.578	90801
383.659	127627
383.741	292136
383.822	784645
383.903	761226
383.984	264267
384.066	224771
384.147	231989
384.228	78854
384.309	40656
384.390	39475
384.471	28234
384.553	27893
384.634	30171
384.715	39118
384.796	26126
384.877	22657
384.958	44367
385.039	106065
385.120	64253
385.201	25445
385.282	24684
385.363	28901
385.444	28157
385.525	29781
385.606	70488
385.687	114961
385.768	39987
385.849	29932
385.930	63217
386.011	184171
386.092	113029
386.173	26840
386.254	17010
386.335	16885
386.416	17234
386.496	30298
386.577	86715
386.658	52874
386.739	25947
386.820	22653
386.901	18916
386.981	18308
387.062	14273
387.143	15854
387.224	47520
387.304	96367
387.385	42077
387.466	25646
387.547	27050
387.627	25028
387.708	21200
387.789	69880
387.869	163971
387.950	84987
388.031	17537
388.111	12100
388.192	21282
388.273	40524
388.353	36064
388.434	18072
388.514	19303
388.595	62550
388.676	151174
388.756	113827
388.837	66890
388.917	82548
388.998	22066
389.078	14210
389.159	12603
389.239	12570
389.320	15357
389.400	21501
389.480	19244
389.561	59752
389.641	66401
389.722	19369
389.802	28915
389.883	32127
389.963	61021
390.043	80041
390.124	31000
390.204	21328
390.284	68993
390.365	91882
390.445	44092
390.525	113606
390.605	167996
390.686	84688
390.766	32669
390.846	17248
390.927	11357
391.007	13126
391.087	12327
391.167	16312
391.247	16398
391.328	12761
391.408	23126
391.488	27927
391.568	12629
391.648	12674
391.728	23832
391.808	21270
391.888	23291
391.969	28889
392.049	71860
392.129	53004
392.209	28496
392.289	66085
392.369	73348
392.449	42732
392.529	43777
392.609	27402
392.689	25757
392.769	51947
392.849	96953
392.929	47229
393.009	91162
393.089	126268
393.169	74030
393.248	130449
393.328	452044
393.408	867748
393.488	451997
393.568	125733
393.648	59959
393.728	37423
393.807	28538
393.887	24471
393.967	21663
394.047	23269
394.127	29436
394.206	36826
394.286	70800
394.366	271284
394.446	585127
394.525	295468
394.605	75809
394.685	38446
394.764	49591
394.844	89729
394.924	109669
395.003	45017
395.083	24070
395.163	22022
395.242	18766
395.322	20727
395.402	16669
395.481	17152
395.561	25263
395.640	89552
395.720	121004
395.799	98829
395.879	130965
395.958	66865
396.038	105383
396.117	371298
396.197	714317
396.276	424132
396.356	149157
396.435	82347
396.515	60109
396.594	48180
396.673	67765
396.753	124868
396.832	458935
396.912	699015
396.991	294079
397.070	75285
397.150	38459
397.229	27240
397.308	23650
397.388	50365
397.467	46730
397.546	18552
397.625	14003
397.705	16771
397.784	20188
397.863	17095
397.942	10662
398.022	9985
398.101	14851
398.180	73336
398.259	88937
398.338	28023
398.417	15520
398.497	13043
398.576	10923
398.655	10646
398.734	8065
398.813	8212
398.892	12958
398.971	67797
399.050	94445
399.129	18984
399.208	7592
399.287	7676
399.366	7102
399.445	7785
399.524	7572
399.603	7940
399.682	10503
399.761	24831
399.840	65116
399.919	116334
399.998	32692
400.077	9250
400.156	6838
400.235	8152
400.313	7814
400.392	8398
400.471	18100
400.550	75069
400.629	46974
400.708	12530
400.786	10481
400.865	16412
400.944	36141
401.023	24673
401.102	8614
401.180	5401
401.259	5786
401.338	7386
401.416	10874
401.495	13349
401.574	9748
401.652	8105
401.731	10025
401.810	12784
401.888	10104
401.967	6576
402.046	7366
402.124	9602
402.203	14562
402.281	12681
402.360	10006
402.438	24056
402.517	38374
402.596	13810
402.674	9891
402.753	9744
402.831	5854
402.910	6102
402.988	12123
403.066	65192
403.145	97025
403.223	27311
403.302	60646
403.380	84271
403.459	65696
403.537	54556
403.615	17433
403.694	8267
403.772	5814
403.850	5128
403.929	4952
404.007	6253
404.085	9442
404.164	20864
404.242	13659
404.320	7758
404.398	12897
404.477	25546
404.555	78528
404.633	188087
404.711	62235
404.789	15156
404.868	9353
404.946	9294
405.024	5630
405.102	5490
405.180	5561
405.258	5184
405.336	5212
405.415	5039
405.493	10086
405.571	18593
405.649	10105
405.727	5309
405.805	8542
405.883	10366
405.961	10050
406.039	12568
406.117	9881
406.195	7945
406.273	16590
406.351	86352
406.429	142313
406.507	35738
406.585	13384
406.663	7693
406.740	11480
406.818	12555
406.896	8445
406.974	7128
407.052	8540
407.130	34064
407.208	131606
407.285	67201
407.363	10054
407.441	8325
407.519	7845
407.596	6777
407.674	11057
407.752	22774
407.830	43289
407.907	33139
407.985	14560
408.063	8713
408.141	5322
408.218	7458
408.296	13504
408.373	11668
408.451	9588
408.529	10189
408.606	7410
408.684	4778
408.762	3877
408.839	4693
408.917	3942
408.994	4721
409.072	5472
409.149	5671
409.227	6670
409.304	13637
409.382	11794
409.459	10637
409.537	12262
409.614	16914
409.692	13146
409.769	10012
409.846	13205
409.924	17596
410.001	20953
410.079	16498
410.156	10260
410.233	9309
410.311	9088
410.388	6872
410.465	7264
410.543	11621
410.620	9188
410.697	6220
410.775	10331
410.852	9053
410.929	7081
411.006	14153
411.083	10779
411.161	13573
411.238	26311
411.315	17528
411.392	8597
411.469	8446
411.547	13873
411.624	9840
411.701	9237
411.778	6543
411.855	13042
411.932	17634
412.009	7390
412.086	6818
412.163	6585
412.240	9063
412.317	10040
412.394	12614
412.471	7486
412.548	4533
412.625	5933
412.702	6234
412.779	13138
412.856	17056
412.933	7654
413.010	5281
413.087	5924
413.164	17475
413.241	70195
413.318	42083
413.395	10753
413.471	16450
413.548	16286
413.625	5683
413.702	6833
413.779	9320
413.855	5121
413.932	3717
414.009	4146
414.086	5185
414.162	4053
414.239	5995
414.316	15781
414.393	70722
414.469	76283
414.546	11801
414.623	4358
414.699	3875
414.776	6216
414.853	7899
414.929	5268
415.006	5991
415.082	6168
415.159	6863
415.236	5037
415.312	5066
415.389	7129
415.465	16292
415.542	14868
415.618	6266
415.695	9118
415.771	10700
415.848	6978
415.924	6455
416.000	6198
416.077	5345
416.153	3254
416.230	2948
416.306	3600
416.383	3902
416.459	3975
416.535	3565
416.612	3529
416.688	4017
416.764	4711
416.841	4621
416.917	4968
416.993	5404
417.069	4954
417.146	7913
417.222	11486
417.298	13343
417.374	6990
417.451	5600
417.527	7244
417.603	10655
417.679	9070
417.755	6259
417.831	5345
417.908	4478
417.984	3883
418.060	3558
418.136	6669
418.212	19681
418.288	14233
418.364	5560
418.440	3814
418.516	9178
418.592	10183
418.668	16511
418.744	29991
418.820	35595
418.896	16158
418.972	5631
419.048	4335
419.124	9256
419.200	19117
419.276	9051
419.352	3780
419.428	3781
419.504	4424
419.579	8236
419.655	7516
419.731	5951
419.807	10471
419.883	31052
419.959	38929
420.034	16337
420.110	9295
420.186	27735
420.262	69121
420.337	22811
420.413	10255
420.489	8476
420.565	6025
420.640	5374
420.716	6936
420.792	6126
420.867	6638
420.943	6260
421.019	8162
421.094	13638
421.170	8349
421.245	6462
421.321	6675
421.397	7615
421.472	8039
421.548	14360
421.623	24298
421.699	17102
421.774	11237
421.850	11626
421.925	13752
422.001	19720
422.076	16152
422.152	16755
422.227	22506
422.302	32219
422.378	35972
422.453	59207
422.529	110840
422.604	261320
422.679	494750
422.755	514198
422.830	353461
422.905	146082
422.981	73445
423.056	46572
423.131	32329
423.207	24401
423.282	20163
423.357	24571
423.432	30293
423.508	18638
423.583	25346
423.658	45087
423.733	19382
423.808	12151
423.883	14278
423.959	15059
424.034	12217
424.109	12319
424.184	8443
424.259	7248
424.334	6665
424.409	6228
424.484	6181
424.559	7918
424.634	6717
424.709	7065
424.784	11239
424.859	9514
424.934	7259
425.009	19530
425.084	62496
425.159	60643
425.234	14351
425.309	5810
425.384	8078
425.459	34987
425.534	31455
425.609	8249
425.683	6200
425.758	5353
425.833	5308
425.908	7135
425.983	9524
426.058	48427
426.132	71925
426.207	16571
426.282	8233
426.357	12526
426.431	7771
426.506	5047
426.581	5372
426.655	5523
426.730	4950
426.805	5764
426.879	5819
426.954	5928
427.029	7943
427.103	21456
427.178	92419
427.253	118465
427.327	26907
427.402	8704
427.476	26153
427.551	44097
427.625	11585
427.700	7919
427.774	6322
427.849	6901
427.923	5998
427.998	4413
428.072	5170
428.147	9062
428.221	18698
428.296	86102
428.370	140949
428.444	35874
428.519	12074
428.593	19010
428.667	29661
428.742	21575
428.816	29463
428.890	34966
428.965	140237
429.039	120237
429.113	36082
429.188	28298
429.262	9061
429.336	6282
429.410	20613
429.485	39512
429.559	18153
429.633	26469
429.707	12889
429.781	8802
429.855	36505
429.930	147818
430.004	125525
430.078	78436
430.152	115850
430.226	96721
430.300	211235
430.374	101321
430.448	17253
430.522	13791
430.596	58620
430.670	98976
430.744	58188
430.818	198713
430.892	137132
430.966	19940
431.040	8749
431.114	5379
431.188	5103
431.262	5442
431.336	3941
431.410	5859
431.484	19698
431.557	39629
431.631	13021
431.705	6005
431.779	8528
431.853	51284
431.927	135305
432.000	43827
432.074	7156
432.148	5198
432.222	8637
432.295	5621
432.369	4119
432.443	5865
432.516	13788
432.590	79728
432.664	108416
432.737	22673
432.811	5667
432.885	3749
432.958	3200
433.032	3350
433.106	3242
433.179	2372
433.253	3050
433.326	3575
433.400	3429
433.473	3301
433.547	2346
433.620	2725
433.694	4636
433.767	12707
433.841	6540
433.914	4165
433.988	3753
434.061	3534
434.134	3281
434.208	3359
434.281	2927
434.355	2389
434.428	3867
434.501	4163
434.575	3405
434.648	3701
434.721	3101
434.795	3784
434.868	2286
434.941	1999
435.014	2715
435.088	3067
435.161	3851
435.234	7584
435.307	12951
435.381	11641
435.454	5669
435.527	5871
435.600	7680
435.673	8068
435.746	6192
435.819	5584
435.892	5245
435.966	4086
436.039	3876
436.112	3868
436.185	3118
436.258	3160
436.331	2226
436.404	2555
436.477	2403
436.550	2320
436.623	2607
436.696	2097
436.769	3146
436.842	4025
436.915	3264
436.987	5926
437.060	5593
437.133	3872
437.206	2983
437.279	3731
437.352	3081
437.425	3194
437.498	3057
437.570	5636
437.643	15180
437.716	8567
437.789	3238
437.861	4140
437.934	15884
438.007	28293
438.080	6627
438.152	4690
438.225	4944
438.298	14466
438.370	94928
438.443	146170
438.516	45189
438.588	17840
438.661	4104
438.734	3680
438.806	3935
438.879	5936
438.951	5701
439.024	11837
439.096	13220
439.169	5271
439.241	3384
439.314	2740
439.386	4018
439.459	6968
439.531	9979
439.604	13101
439.676	4519
439.749	3272
439.821	2833
439.893	3925
439.966	3304
440.038	4418
440.110	6961
440.183	6006
440.255	3510
440.327	4367
440.400	7325
440.472	45896
440.544	118923
440.617	36956
440.689	9354
440.761	9454
440.833	17351
440.905	24684
440.978	9101
441.050	3548
441.122	2853
441.194	3409
441.266	3417
441.338	3651
441.411	3668
441.483	11500
441.555	60302
441.627	42891
441.699	9174
441.771	9250
441.843	7508
441.915	3750
441.987	3101
442.059	3710
442.131	4288
442.203	7043
442.275	9256
442.347	11315
442.419	8879
442.491	19086
442.563	97837
442.635	140331
442.706	40599
442.778	40978
442.850	18333
442.922	6520
442.994	4675
443.066	8777
443.137	11243
443.209	8143
443.281	8176
443.353	13240
443.425	27731
443.496	119868
443.568	295553
443.640	200608
443.711	56014
443.783	13224
443.855	9544
443.926	6361
443.998	5226
444.070	6820
444.141	7316
444.213	8112
444.285	11849
444.356	11241
444.428	9442
444.499	6849
444.571	3359
444.642	3500
444.714	4287
444.785	6722
444.857	10091
444.928	14057
445.000	21434
445.071	11692
445.143	19425
445.214	17095
445.285	13548
445.357	28803
445.428	70646
445.500	239989
445.571	344782
445.642	199134
445.714	90909
445.785	45156
445.856	30127
445.928	13347
445.999	14546
446.070	12676
446.141	9442
446.213	13114
446.284	12030
446.355	5381
446.426	6095
446.497	5140
446.569	5420
446.640	10455
446.711	14002
446.782	7507
446.853	3966
446.924	5618
446.995	5779
447.066	5847
447.138	6555
447.209	9420
447.280	3658
447.351	2764
447.422	1781
447.493	3062
447.564	6042
447.635	8085
447.706	8521
447.777	3252
447.847	2430
447.918	3081
447.989	3999
448.060	5916
448.131	7861
448.202	15858
448.273	13372
448.344	9519
448.414	3995
448.485	4572
448.556	3402
448.627	3233
448.698	2375
448.768	2841
448.839	3135
448.910	4595
448.981	10333
449.051	6950
449.122	3654
449.193	2106
449.263	2189
449.334	3534
449.405	3245
449.475	7622
449.546	13597
449.616	8130
449.687	11460
449.758	7573
449.828	4864
449.899	3958
449.969	4121
450.040	3342
450.110	3127
450.181	5352
450.251	4503
450.322	4217
450.392	3076
450.463	3688
450.533	3118
450.604	3191
450.674	3457
450.744	3097
450.815	3031
450.885	2962
450.955	3397
451.026	2973
451.096	3187
451.166	3885
451.237	4990
451.307	15278
451.377	21182
451.447	5950
451.518	3184
451.588	3548
451.658	3455
451.728	4453
451.799	8421
451.869	31244
451.939	18774
452.009	5037
452.079	2691
452.149	3337
452.219	3371
452.289	11005
452.360	31126
452.430	12681
452.500	4290
452.570	5234
452.640	6785
452.710	10994
452.780	29723
452.850	28869
452.920	25171
452.990	17082
453.060	7220
453.129	5852
453.199	8651
453.269	9265
453.339	65147
453.409	121077
453.479	61903
453.549	101012
453.619	126897
453.688	120063
453.758	27918
453.828	6402
453.898	4913
453.968	4782
454.037	4105
454.087	3715
454.107	3542
454.168	3567
454.177	3557
454.247	4040
454.249	4037
454.316	3628
454.330	3693
454.386	3868
454.411	4557
454.456	5315
454.492	12232
454.525	18340
454.574	17107
454.595	16671
454.655	7327
454.665	5823
454.734	4012
454.736	4098
454.804	5509
454.817	6635
454.873	10288
454.898	16966
454.943	28897
454.979	23097
455.013	18143
455.060	10545
455.082	7230
455.141	5668
455.152	5278
455.221	7794
455.222	8039
455.291	20676
455.303	21278
455.360	24843
455.384	18939
455.430	8315
455.465	8720
455.499	8732
455.546	11103
455.569	11634
455.627	19799
455.638	21611
455.707	8897
455.708	8878
455.777	4086
455.789	4040
455.846	3561
455.869	3740
455.916	4155
455.950	3723
455.985	3260
456.031	3541
456.054	3621
456.112	3731
456.124	3784
456.193	3271
456.193	3254
456.262	2785
456.274	3077
456.332	4474
456.355	4756
456.401	4955
456.436	4841
456.470	4726
456.516	3961
456.540	3652
456.597	3254
456.609	3146
456.678	3436
456.678	3425
456.747	3134
456.759	2945
456.817	2308
456.840	2723
456.886	3337
456.920	3218
456.955	3198
457.001	3312
457.024	3363
457.082	3670
457.093	3748
457.162	5398
457.163	5421
457.232	5355
457.243	5382
457.301	5255
457.324	4551
457.370	3836
457.405	4177
457.439	4295
457.485	3842
457.508	3768
457.566	4398
457.577	4527
457.646	5669
457.647	5703
457.715	8255
457.727	8786
457.784	12106
457.808	13719
457.853	15460
457.889	20420
457.922	22237
457.969	20776
457.991	22853
458.050	20316
458.060	19922
458.129	25964
458.130	26350
458.198	29594
458.211	29535
458.267	29724
458.292	22501
458.336	13885
458.372	11887
458.405	12079
458.453	14256
458.474	16668
458.533	26691
458.543	27436
458.611	38856
458.614	39789
458.680	42887
458.694	37388
458.749	26128
458.775	19115
458.818	9618
458.855	7497
458.887	6259
458.936	6154
458.955	5893
459.016	5665
459.024	5676
459.093	5420
459.097	5411
459.162	5046
459.177	5262
459.230	6635
459.257	6868
459.299	6721
459.338	7396
459.368	7934
459.418	7866
459.437	7369
459.499	7303
459.505	7446
459.574	5991
459.579	5993
459.643	5790
459.659	5754
459.711	5736
459.740	5865
459.780	6074
459.820	6375
459.849	6571
459.900	6778
459.917	6761
459.981	6811
459.986	6848
460.054	7829
460.061	7888
460.123	8223
460.141	8331
460.191	9410
460.222	9881
460.260	9996
460.302	11201
460.328	10949
460.382	10451
460.397	10610
460.462	9078
460.465	9111
460.534	10095
460.543	10372
460.602	18473
460.623	21390
460.671	31248
460.703	38960
460.739	33539
460.783	33865
460.808	33503
460.864	16907
460.876	15674
460.944	6339
460.945	6241
461.013	6252
461.024	6294
461.081	5973
461.104	5958
461.150	6020
461.184	6140
461.218	6173
461.264	5859
461.286	5924
461.345	6046
461.355	5977
461.423	6273
461.425	6266
461.491	6175
461.505	6266
461.559	9574
461.585	10987
461.628	15560
461.665	20015
461.696	21916
461.745	26814
461.764	23654
461.825	15112
461.832	15623
461.901	8948
461.905	8791
461.969	6637
461.985	6603
462.037	6468
462.065	6244
462.105	6876
462.145	7654
462.173	9468
462.225	12910
462.241	13916
462.305	18161
462.310	17688
462.378	12989
462.385	12143
462.446	10175
462.465	8712
462.514	7151
462.545	7296
462.582	7173
462.625	7361
462.650	7389
462.705	7270
462.718	7303
462.785	7086
462.786	7113
462.854	8941
462.865	9251
462.922	11147
462.945	12206
462.990	10167
463.025	8244
463.058	8105
463.104	7041
463.126	6681
463.184	6163
463.194	6190
463.262	6501
463.264	6525
463.330	6902
463.344	6911
463.398	7334
463.424	7537
463.466	7367
463.504	7242
463.533	7392
463.583	7778
463.601	7830
463.663	7661
463.669	7877
463.737	10497
463.743	10746
463.805	14463
463.823	15602
463.873	22266
463.903	26044
463.940	26817
463.982	28817
464.008	24057
464.062	14375
464.076	14277
464.142	8832
464.144	8757
464.211	7179
464.221	7185
464.279	7690
464.301	7895
464.347	8172
464.381	8450
464.414	9135
464.461	9879
464.482	10265
464.540	11499
464.550	11440
464.617	11200
464.620	11165
464.685	11113
464.699	11060
464.753	13283
464.779	14454
464.820	15753
464.859	17036
464.888	16557
464.938	15850
464.956	15840
465.018	15008
465.023	14834
465.091	12874
465.098	12626
465.158	13054
465.177	13181
465.226	12858
465.257	12761
465.293	13140
465.336	13417
465.361	14075
465.416	15552
465.428	16422
465.495	20942
465.496	21026
465.563	29948
465.575	31379
465.631	37226
465.654	40074
465.698	27147
465.734	16385
465.765	16130
465.813	13935
465.833	13470
465.893	13102
465.900	13032
465.968	12553
465.972	12520
466.035	12788
466.052	12789
466.102	13754
466.131	14313
466.170	14211
466.210	14059
466.237	14255
466.290	14602
466.304	14883
466.369	15970
466.372	16028
466.439	17166
466.449	17298
466.506	18992
466.528	19595
466.573	23213
466.607	25869
466.641	34006
466.687	45302
466.708	49778
466.766	61857
466.775	57983
466.842	28776
466.845	27335
466.909	23242
466.925	22184
466.977	20782
467.004	20195
467.044	20335
467.083	20475
467.111	21716
467.163	23954
467.178	24832
467.242	28296
467.245	28156
467.312	24277
467.321	23724
467.379	23043
467.400	22736
467.446	22848
467.480	22862
467.559	21488
467.638	19639
467.717	19705
467.796	20358
467.875	21746
467.955	21221
468.034	27011
468.113	49860
468.192	70342
468.271	24796
468.350	19059
468.429	21211
468.508	22677
468.588	19644
468.667	18100
468.746	18608
468.825	17315
468.904	16819
468.983	17432
469.062	23063
469.141	28046
469.220	16297
469.299	14445
469.378	18465
469.456	22417
469.535	19314
469.614	19023
469.693	19506
469.772	21913
469.851	27182
469.930	21809
470.009	17183
470.088	18133
470.166	20341
470.245	27567
470.324	32195
470.403	23355
470.482	18801
470.560	17775
470.639	17343
470.718	20670
470.797	16612
470.875	18857
470.954	22143
471.033	24266
471.111	14655
471.190	14426
471.269	13827
471.347	13936
471.426	15131
471.505	18259
471.583	19401
471.662	18555
471.740	16408
471.819	15867
471.898	15644
471.976	15122
472.055	15284
472.133	16520
472.212	19070
472.290	20862
472.369	15476
472.447	14047
472.526	13235
472.604	15648
472.683	14863
472.761	16980
472.839	15276
472.918	14823
472.996	15059
473.075	16735
473.153	16093
473.231	14148
473.310	16605
473.388	16820
473.466	15311
473.545	17796
473.623	21345
473.701	21048
473.780	15419
473.858	15178
473.936	14738
474.014	14788
474.093	16098
474.171	20573
474.249	26497
474.327	20216
474.405	14258
474.484	14063
474.562	14288
474.640	14688
474.718	14895
474.796	15919
474.874	14230
474.952	14339
475.030	15080
475.108	15845
475.187	18227
475.265	17735
475.343	22155
475.421	24841
475.499	15587
475.577	15089
475.655	17582
475.733	28689
475.811	45434
475.889	42107
475.966	29869
476.044	15170
476.122	17823
476.200	21146
476.278	17930
476.356	13836
476.434	15368
476.512	16945
476.590	20730
476.667	19666
476.745	13173
476.823	14947
476.901	13716
476.979	15215
477.056	13376
477.134	14640
477.212	14502
477.290	14932
477.367	13195
477.445	12472
477.523	13843
477.601	13359
477.678	12990
477.756	15998
477.834	16270
477.911	13435
477.989	12072
478.066	12713
478.144	15392
478.222	16303
478.299	24134
478.377	23780
478.454	12756
478.532	11875
478.609	12866
478.687	13684
478.764	11769
478.842	13320
478.919	14279
478.997	13232
479.074	12275
479.152	13528
479.229	16043
479.307	13564
479.384	10590
479.461	10751
479.539	11591
479.616	14179
479.694	12098
479.771	13105
479.848	13541
479.926	17011
480.003	16929
480.080	12262
480.157	11177
480.235	11787
480.312	11134
480.389	13088
480.467	16956
480.544	22444
480.621	13941
480.698	13161
480.775	15337
480.853	14505
480.930	12673
481.007	13029
481.084	14154
481.161	16154
481.238	13849
481.315	11947
481.392	12145
481.470	12276
481.547	12670
481.624	12551
481.701	11508
481.778	12453
481.855	13524
481.932	17842
482.009	27190
482.086	22627
482.163	12701
482.240	17412
482.317	28715
482.393	24409
482.470	12097
482.547	12876
482.624	12626
482.701	12588
482.778	13207
482.855	11821
482.932	11192
483.009	11525
483.085	13041
483.162	14625
483.239	14829
483.316	11916
483.393	11750
483.469	11727
483.546	13783
483.623	14284
483.699	11077
483.776	11851
483.853	13921
483.930	18364
484.006	39116
484.083	67798
484.160	46285
484.236	70501
484.313	56373
484.389	41043
484.466	34945
484.543	35321
484.619	35642
484.696	36866
484.772	37086
484.849	39073
484.925	34518
485.002	33071
485.078	34821
485.155	35522
485.231	32335
485.308	30094
485.384	31656
485.461	36030
485.537	48147
485.614	58289
485.690	32055
485.766	30211
485.843	30951
485.919	39293
485.995	42159
486.072	28588
486.148	27910
486.224	28424
486.301	28261
486.377	31927
486.453	33755
486.530	32295
486.606	39680
486.682	47347
486.758	47336
486.835	53934
486.911	42370
486.987	60597
487.063	68124
487.139	80583
487.215	60489
487.292	36255
487.368	31381
487.444	35586
487.520	39930
487.596	41296
487.672	53674
487.748	118821
487.824	185579
487.900	79989
487.976	38787
488.052	34867
488.128	40197
488.204	35284
488.280	28717
488.356	33836
488.432	51915
488.508	78862
488.584	36617
488.660	27387
488.736	26824
488.812	28599
488.888	34490
488.964	42495
489.039	73184
489.115	111243
489.191	73301
489.267	28673
489.343	26850
489.418	25415
489.494	24323
489.570	23869
489.646	24096
489.722	23648
489.797	24380
489.873	31945
489.949	55928
490.024	54807
490.100	23719
490.176	24247
490.251	26705
490.327	33724
490.403	24002
490.478	23172
490.554	19973
490.629	21161
490.705	19955
490.781	21285
490.856	20150
490.932	24693
491.007	22731
491.083	23976
491.158	21854
491.234	25733
491.309	42907
491.385	49599
491.460	21841
491.536	21467
491.611	21328
491.686	20343
491.762	27526
491.837	47677
491.913	79032
491.988	99893
492.063	134589
492.139	43347
492.214	28507
492.289	18887
492.365	17241
492.440	20392
492.515	20581
492.590	21386
492.666	18112
492.741	21066
492.816	28225
492.891	20740
492.967	17515
493.042	15157
493.117	16760
493.192	16376
493.267	17537
493.342	20940
493.418	22465
493.493	16841
493.568	15323
493.643	15927
493.718	19910
493.793	25291
493.868	30540
493.943	21422
494.018	18156
494.093	16285
494.168	16896
494.243	15733
494.318	14698
494.393	15291
494.468	15493
494.543	15180
494.618	17257
494.693	16866
494.768	14718
494.842	17173
494.917	14982
494.992	15832
495.067	15297
495.142	14606
495.217	15769
495.292	14770
495.366	18045
495.441	20772
495.516	24495
495.591	35636
495.665	90321
495.740	214413
495.815	106366
495.890	24555
495.964	20255
496.039	21793
496.114	20248
496.188	21876
496.263	22982
496.338	19975
496.412	21702
496.487	24858
496.561	24534
496.636	27138
496.710	22702
496.785	23472
496.860	26249
496.934	23879
497.009	23737
497.083	24891
497.158	26859
497.232	29061
497.307	32833
497.381	31236
497.455	34210
497.530	39316
497.604	32076
497.679	33893
497.753	46153
497.827	62335
497.902	61539
497.976	64603
498.050	106774
498.125	306558
498.199	366965
498.273	96088
498.348	78874
498.422	64080
498.496	56505
498.570	51829
498.645	38545
498.719	35210
498.793	35318
498.867	45480
498.941	61310
499.016	127305
499.090	338285
499.164	151051
499.238	26330
499.312	24229
499.386	27851
499.460	27123
499.534	23818
499.609	27924
499.683	35789
499.757	34101
499.831	62090
499.905	209836
499.979	240918
500.053	42421
500.127	41183
500.201	31901
500.275	22287
500.349	20951
500.422	23377
500.496	32423
500.570	63098
500.644	131785
500.718	249721
500.792	70737
500.866	19073
500.940	24654
501.013	20698
501.087	21113
501.161	33207
501.235	47311
501.309	76990
501.382	201967
501.456	215886
501.530	47627
501.603	73161
501.677	37207
501.751	14927
501.825	19119
501.898	31790
501.972	85414
502.046	68112
502.119	21132
502.193	40321
502.266	93126
502.340	59532
502.413	42309
502.487	85468
502.561	55177
502.634	21033
502.708	17050
502.781	15263
502.855	13679
502.928	12841
503.002	12496
503.075	11757
503.149	12971
503.222	12928
503.295	13741
503.369	15796
503.442	22740
503.516	60163
503.589	158095
503.662	121201
503.736	37030
503.809	71415
503.882	74510
503.956	87370
504.029	102962
504.102	72918
504.175	103123
504.249	44328
504.322	23908
504.395	19970
504.468	15444
504.542	14133
504.615	13437
504.688	12192
504.761	11522
504.834	14310
504.907	17578
504.980	26459
505.053	17112
505.127	20166
505.200	22911
505.273	19133
505.346	13737
505.419	11360
505.492	11917
505.565	9544
505.638	9793
505.711	10428
505.784	10557
505.857	9994
505.930	11082
506.003	10263
506.076	11132
506.149	13043
506.221	17899
506.294	16204
506.367	36125
506.440	112363
506.513	81890
506.586	18135
506.659	13296
506.731	10814
506.804	12390
506.877	18103
506.950	14265
507.022	10841
507.095	13742
507.168	16725
507.241	11249
507.313	10727
507.386	11611
507.459	15049
507.531	11362
507.604	10156
507.677	10574
507.749	9057
507.822	12764
507.894	25168
507.967	35534
508.040	22006
508.112	17566
508.185	17552
508.257	17071
508.330	21482
508.402	17527
508.475	15849
508.547	15065
508.620	15295
508.692	22223
508.765	17662
508.837	13552
508.909	13305
508.982	13896
509.054	14982
509.127	14489
509.199	12057
509.271	12923
509.344	12615
509.416	11870
509.488	11924
509.560	13901
509.633	13782
509.705	15016
509.777	14208
509.849	18169
509.922	15390
509.994	13327
510.066	12492
510.138	16245
510.210	27430
510.283	28980
510.355	22871
510.427	19679
510.499	18596
510.571	19154
510.643	18818
510.715	24998
510.787	25251
510.859	19001
510.931	20658
511.003	25689
511.076	24961
511.148	17278
511.219	16628
511.291	21916
511.363	26191
511.435	15539
511.507	14632
511.579	15161
511.651	14955
511.723	14347
511.795	13665
511.867	15626
511.939	16630
512.010	26821
512.082	25278
512.154	15721
512.226	16609
512.298	21878
512.369	35053
512.441	27649
512.513	23982
512.585	20344
512.656	19944
512.728	22040
512.800	18567
512.871	17583
512.943	17213
513.015	16271
513.086	16874
513.158	18954
513.230	19194
513.301	22995
513.373	25972
513.444	19137
513.516	15347
513.588	17536
513.659	17138
513.731	20547
513.802	19926
513.874	29478
513.945	51964
514.016	25658
514.088	15866
514.159	18851
514.231	22111
514.302	31584
514.374	24205
514.445	23745
514.516	32081
514.588	31098
514.659	22295
514.730	32099
514.802	29811
514.873	28965
514.944	28324
515.016	23631
515.087	24674
515.158	27818
515.229	38389
515.301	31682
515.372	39620
515.443	29424
515.514	21985
515.585	17486
515.656	17230
515.728	16409
515.799	15699
515.870	16786
515.941	16998
516.012	18968
516.083	22903
516.154	25169
516.225	27904
516.296	24814
516.367	22545
516.438	25356
516.509	32779
516.580	53380
516.651	141983
516.722	467272
516.793	276282
516.864	46802
516.935	40526
517.006	43255
517.077	66379
517.148	158386
517.219	472674
517.289	845935
517.360	240831
517.431	83842
517.502	28965
517.573	25273
517.643	25023
517.714	26811
517.785	27726
517.856	26203
517.926	29020
517.997	31962
518.068	39805
518.138	58445
518.209	107537
518.280	324773
518.350	1059635
518.421	558011
518.492	70086
518.562	38273
518.633	36441
518.703	36402
518.774	52535
518.845	110549
518.915	124961
518.986	50086
519.056	34995
519.127	50438
519.197	72287
519.268	134632
519.338	110935
519.408	31848
519.479	35125
519.549	30476
519.620	20312
519.690	17835
519.760	18601
519.831	18574
519.901	18445
519.971	16254
520.042	17597
520.112	19529
520.182	21512
520.253	24840
520.323	20244
520.393	24564
520.463	40133
520.534	30669
520.604	50010
520.674	29201
520.744	24745
520.814	52385
520.885	59167
520.955	47101
521.025	144267
521.095	87431
521.165	17604
521.235	16042
521.305	16195
521.375	15058
521.445	16498
521.515	20679
521.585	23271
521.655	25442
521.725	19562
521.795	19771
521.865	15901
521.935	19570
522.005	21621
522.075	14245
522.145	14380
522.215	16740
522.285	20410
522.355	26223
522.424	43232
522.494	43506
522.564	28560
522.634	42434
522.704	112519
522.774	63981
522.843	16508
522.913	15052
522.983	18404
523.053	16366
523.122	15587
523.192	21984
523.262	55531
523.331	70606
523.401	18781
523.471	13142
523.540	13966
523.610	12230
523.680	12330
523.749	13863
523.819	15085
523.888	17441
523.958	13550
524.027	14266
524.097	15259
524.166	13968
524.236	14609
524.305	15429
524.375	13202
524.444	12423
524.514	14267
524.583	15134
524.653	17425
524.722	18764
524.791	14747
524.861	13371
524.930	13845
524.999	14453
525.069	17494
525.138	16879
525.207	17132
525.277	16371
525.346	14481
525.415	13087
525.484	14585
525.554	16039
525.623	16422
525.692	15104
525.761	15585
525.830	15104
525.900	17832
525.969	26294
526.038	44180
526.107	78508
526.176	216240
526.245	220255
526.314	75155
526.383	110436
526.452	188607
526.522	232308
526.591	310969
526.660	85282
526.729	42897
526.797	46457
526.867	98424
526.935	331535
527.004	585912
527.073	412398
527.142	45245
527.211	20467
527.280	18038
527.349	19210
527.418	14712
527.487	12925
527.555	12320
527.624	11764
527.693	11336
527.762	12469
527.831	11743
527.899	11608
527.968	12098
528.037	12961
528.106	14431
528.174	23041
528.243	21521
528.312	22668
528.380	34082
528.449	15322
528.518	11513
528.586	11180
528.655	10518
528.723	10645
528.792	11242
528.861	11627
528.929	11155
528.998	10347
529.066	10350
529.135	10274
529.203	10849
529.272	10901
529.340	12055
529.409	11828
529.477	12083
529.545	14260
529.614	16051
529.682	16377
529.751	19672
529.819	18545
529.887	16407
529.956	12663
530.024	12621
530.092	12746
530.161	13410
530.229	19142
530.297	15044
530.365	12027
530.434	10584
530.502	11889
530.570	11981
530.638	11553
530.707	12420
530.775	14845
530.843	11321
530.911	12405
530.979	12434
531.047	12079
531.115	13291
531.183	12312
531.252	12596
531.320	12000
531.388	11976
531.456	12599
531.524	11998
531.592	12705
531.660	12801
531.728	12955
531.796	11534
531.864	11979
531.932	12692
532.000	12541
532.067	13210
532.135	13051
532.203	14031
532.271	16712
532.339	22536
532.407	46237
532.475	37027
532.542	17632
532.610	19354
532.678	32516
532.746	80815
532.814	234333
532.881	85468
532.949	18415
533.017	14622
533.084	13313
533.152	12690
533.220	13025
533.287	15591
533.355	13998
533.423	12979
533.490	12821
533.558	13313
533.625	13289
533.693	15328
533.761	14800
533.828	14687
533.896	15090
533.963	21715
534.031	27424
534.098	36555
534.166	25339
534.233	14675
534.300	14497
534.368	14738
534.435	13920
534.503	14529
534.570	17147
534.637	17255
534.705	17681
534.772	21830
534.840	33866
534.907	91570
534.974	162860
535.041	32165
535.109	17668
535.176	14905
535.243	14187
535.310	14304
535.378	14050
535.445	12849
535.512	12649
535.579	12889
535.646	13486
535.714	14419
535.781	17534
535.848	16583
535.915	15979
535.982	15254
536.049	15519
536.116	15553
536.183	14882
536.250	14425
536.317	15223
536.384	16155
536.451	21130
536.518	21047
536.585	18432
536.652	19367
536.719	24274
536.786	23318
536.853	19387
536.920	24204
536.987	36155
537.053	41327
537.120	104985
537.187	133122
537.254	21831
537.321	15119
537.388	15820
537.454	14716
537.521	14746
537.588	14754
537.654	16948
537.721	19446
537.788	18954
537.855	17393
537.921	16339
537.988	16110
538.055	16779
538.121	14457
538.188	16767
538.254	19748
538.321	33362
538.388	27360
538.454	17329
538.521	16772
538.587	15547
538.654	16069
538.720	14960
538.787	15768
538.853	16202
538.920	18527
538.986	19005
539.053	17344
539.119	16308
539.185	16572
539.252	17714
539.318	24373
539.385	22257
539.451	22056
539.517	22390
539.583	24102
539.650	39739
539.716	100459
539.782	46653
539.849	18199
539.915	17567
539.981	17524
540.047	20413
540.114	18318
540.180	17402
540.246	19047
540.312	22951
540.378	33817
540.444	40575
540.510	41036
540.576	106263
540.643	57277
540.709	17950
540.775	17405
540.841	18647
540.907	21556
540.973	31287
541.039	27863
541.105	26321
541.171	19797
541.237	18489
541.303	18804
541.369	19554
541.435	22123
541.500	31172
541.566	26213
541.632	17138
541.698	15788
541.764	17319
541.830	16435
541.896	16094
541.961	16531
542.027	18444
542.093	17772
542.159	18266
542.224	19850
542.290	25098
542.356	30902
542.421	37384
542.487	21592
542.553	17411
542.618	19746
542.684	19224
542.750	19229
542.815	23105
542.881	34134
542.947	84436
543.012	94141
543.078	20185
543.143	17752
543.209	18996
543.274	21331
543.340	23996
543.405	36488
543.471	71133
543.536	27016
543.602	18999
543.667	17696
543.732	17402
543.798	17974
543.863	18728
543.928	17518
543.994	16493
544.059	16434
544.124	16992
544.190	17474
544.255	17893
544.320	18612
544.386	18905
544.451	22144
544.516	26243
544.581	30130
544.646	54193
544.712	109846
544.777	35072
544.842	22548
544.907	22760
544.972	20618
545.037	20791
545.102	22573
545.168	22170
545.233	23463
545.298	24056
545.363	27296
545.428	30727
545.493	40042
545.558	79390
545.623	51869
545.688	24119
545.753	22186
545.818	22431
545.883	23493
545.947	24021
546.012	24801
546.077	25643
546.142	25379
546.207	24586
546.272	27753
546.337	30784
546.401	27184
546.466	27047
546.531	26487
546.596	27390
546.661	28386
546.725	27511
546.790	26906
546.855	28378
546.919	29244
546.984	31788
547.049	33542
547.113	36791
547.178	37856
547.243	42176
547.307	46110
547.372	51093
547.436	54238
547.501	49638
547.565	53148
547.630	53733
547.695	52026
547.759	52987
547.823	52060
547.888	48686
547.952	50361
548.017	50480
548.081	54997
548.146	57872
548.210	58436
548.274	56446
548.339	55385
548.403	51784
548.468	49106
548.532	48881
548.596	48898
548.660	49802
548.725	53003
548.789	58177
548.853	60968
548.917	55398
548.982	56773
549.046	57887
549.110	47052
549.174	45499
549.238	49983
549.303	54576
549.367	55044
549.431	55222
549.495	52399
549.559	52179
549.623	56468
549.687	65235
549.751	71027
549.815	73738
549.879	72640
549.943	71070
550.007	71606
550.071	72614
550.135	71862
550.199	66453
550.263	63230
550.327	60649
550.391	64332
550.455	67343
550.519	69362
550.582	73126
550.646	83452
550.710	93630
550.774	80115
550.838	79497
550.901	82377
550.965	85645
551.029	89364
551.093	97726
551.156	107526
551.220	128414
551.284	153965
551.347	114147
551.411	114174
551.475	131668
551.538	91104
551.602	83057
551.666	75706
551.729	72207
551.793	71187
551.856	70601
551.920	67717
551.983	68868
552.047	69243
552.110	68534
552.174	67777
552.237	70159
552.301	66959
552.364	63358
552.428	63039
552.491	62931
552.554	66491
552.618	65784
552.681	66959
552.745	70129
552.808	79420
552.871	99823
552.934	83397
552.998	69905
553.061	66186
553.124	63937
553.187	62544
553.251	63509
553.314	64716
553.377	63455
553.440	66614
553.503	70809
553.567	76865
553.630	68314
553.693	67403
553.756	67223
553.819	64870
553.882	63216
553.945	62457
554.008	63819
554.071	62222
554.134	64528
554.197	61626
554.260	60012
554.323	61346
554.386	63375
554.449	63339
554.512	64006
554.575	62103
554.638	61455
554.701	61031
554.764	60923
554.827	57943
554.889	56361
554.952	54286
555.015	51606
555.078	53686
555.141	54366
555.203	54114
555.266	53467
555.329	52920
555.391	52327
555.454	51502
555.517	51115
555.580	48791
555.642	47432
555.705	46580
555.768	47359
555.830	45849
555.893	43744
555.955	42838
556.018	42568
556.080	43515
556.143	43492
556.206	43864
556.268	43612
556.330	42525
556.393	41667
556.455	41037
556.518	44122
556.580	47284
556.643	40031
556.705	37858
556.767	38083
556.830	38443
556.892	39075
556.955	43442
557.017	42260
557.079	37785
557.142	36956
557.204	37801
557.266	46424
557.328	49671
557.391	33251
557.453	32895
557.515	32508
557.577	33236
557.639	37207
557.701	31493
557.764	30145
557.826	30823
557.888	33063
557.950	34805
558.012	37708
558.074	47294
558.136	71089
558.198	172368
558.260	106797
558.322	35469
558.384	32699
558.446	36438
558.508	39364
558.570	48553
558.632	66787
558.694	109369
558.756	136020
558.818	248259
558.880	699801
558.942	375599
559.003	176774
559.065	133917
559.127	45217
559.189	45770
559.251	57320
559.312	83126
559.374	142571
559.436	413637
559.498	359202
559.559	58986
559.621	47923
559.683	59116
559.744	89825
559.806	185627
559.868	394047
559.929	125714
559.991	55509
560.052	70249
560.114	156911
560.176	164624
560.237	89676
560.299	178557
560.360	73605
560.422	29228
560.483	28098
560.545	26272
560.606	25391
560.667	25569
560.729	25197
560.790	24407
560.852	23456
560.913	23943
560.974	23568
561.036	22660
561.097	23859
561.158	23872
561.220	23051
561.281	23711
561.342	24310
561.403	27930
561.465	31205
561.526	44055
561.587	67381
561.648	33602
561.709	24485
561.771	23752
561.832	23701
561.893	23887
561.954	23865
562.015	23105
562.076	23079
562.137	23954
562.198	23643
562.259	24950
562.320	24679
562.381	26210
562.442	28812
562.503	28502
562.564	23651
562.625	21996
562.686	21996
562.747	23923
562.808	24764
562.869	23831
562.930	26589
562.991	26393
563.051	25052
563.112	23867
563.173	24595
563.234	22706
563.294	23387
563.355	23312
563.416	22942
563.477	21889
563.537	22866
563.598	23699
563.659	23597
563.720	23401
563.780	23236
563.841	24841
563.901	23363
563.962	22792
564.023	22982
564.083	23240
564.144	22184
564.204	23481
564.265	23910
564.325	25891
564.386	32793
564.446	37588
564.507	24444
564.567	22680
564.628	23148
564.688	23705
564.749	23988
564.809	25344
564.869	26982
564.930	24293
564.990	23388
565.050	22977
565.111	22973
565.171	22630
565.231	22600
565.292	22392
565.352	22941
565.412	23039
565.472	23534
565.532	24475
565.593	24360
565.653	22377
565.713	24248
565.773	25128
565.833	26353
565.893	30635
565.953	26128
566.013	25087
566.074	25774
566.134	27966
566.194	34623
566.254	39229
566.314	30952
566.374	26781
566.434	27592
566.494	27458
566.554	28223
566.614	29549
566.673	28807
566.733	30491
566.793	31382
566.853	32628
566.913	32189
566.973	34283
567.033	34283
567.092	33620
567.152	33378
567.212	34783
567.272	33556
567.331	35556
567.391	35987
567.451	37298
567.511	40678
567.570	44307
567.630	36016
567.690	33336
567.749	34085
567.809	35236
567.868	38668
567.928	42147
567.988	48435
568.047	57508
568.107	72881
568.166	95279
568.226	138754
568.285	206241
568.345	186379
568.404	138721
568.464	115405
568.523	108784
568.582	109676
568.642	124554
568.701	154350
568.761	208240
568.820	327986
568.879	357150
568.939	257714
568.998	188248
569.057	140626
569.116	110050
569.176	89900
569.235	74294
569.294	64955
569.353	57624
569.413	51354
569.472	46838
569.531	43224
569.590	39244
569.649	37146
569.708	35963
569.767	34082
569.827	35221
569.886	33419
569.945	30247
570.004	29486
570.063	28890
570.122	29068
570.181	29244
570.240	29304
570.299	29622
570.358	29254
570.417	26540
570.475	25174
570.534	24234
570.593	25709
570.652	25098
570.711	26766
570.770	23479
570.829	25118
570.887	24830
570.946	24884
571.005	24353
571.064	23338
571.122	23665
571.181	24470
571.240	23587
571.299	22109
571.357	22025
571.416	22029
571.475	22880
571.533	25272
571.592	22400
571.650	22366
571.709	21864
571.768	21272
571.826	22306
571.885	21381
571.943	20802
572.002	20932
572.060	21168
572.119	19666
572.177	20520
572.236	19309
572.294	18887
572.352	19422
572.411	19551
572.469	19897
572.528	20071
572.586	19688
572.644	20155
572.703	25372
572.761	21739
572.819	20683
572.877	19495
572.936	19216
572.994	19120
573.052	17958
573.110	18576
573.169	19735
573.227	18984
573.285	18278
573.343	18047
573.401	18544
573.459	17820
573.517	18665
573.576	18569
573.634	18614
573.692	19228
573.750	18564
573.808	18977
573.866	18765
573.924	20526
573.982	21751
574.040	19233
574.098	18074
574.155	17821
574.213	18473
574.271	17369
574.329	18329
574.387	17404
574.445	17479
574.503	17132
574.560	16200
574.618	16568
574.676	16842
574.734	17276
574.792	17850
574.849	16969
574.907	16580
574.965	16111
575.022	16389
575.080	16081
575.138	16799
575.195	16618
575.253	17030
575.311	16928
575.368	16874
575.426	16032
575.483	16210
575.541	15989
575.598	16372
575.656	16893
575.713	16824
575.771	16811
575.828	16426
575.886	16393
575.943	17088
576.001	16896
576.058	17208
576.115	17725
576.173	18416
576.230	21327
576.287	21320
576.345	19499
576.402	18090
576.459	17779
576.517	17809
576.574	19171
576.631	19646
576.688	17904
576.746	16962
576.803	17213
576.860	17424
576.917	17717
576.974	17335
577.031	17343
577.089	16807
577.146	17053
577.203	18083
577.260	17562
577.317	18057
577.374	19027
577.431	19124
577.488	17985
577.545	17233
577.602	17317
577.659	17163
577.716	16643
577.773	17124
577.830	16787
577.886	16321
577.943	16069
578.000	16789
578.057	17753
578.114	17418
578.171	17231
578.227	17994
578.284	16625
578.341	17642
578.398	17310
578.454	18212
578.511	17839
578.568	19474
578.625	18802
578.681	17630
578.738	17898
578.794	17472
578.851	17833
578.908	17708
578.964	19974
579.021	19963
579.077	19626
579.134	18902
579.190	17783
579.247	18810
579.303	18230
579.360	18301
579.416	17684
579.473	17715
579.529	16995
579.586	17827
579.642	17702
579.698	17821
579.755	17765
579.811	17192
579.867	17894
579.924	18077
579.980	17140
580.036	17702
580.093	18623
580.149	18254
580.205	19068
580.261	19430
580.317	18746
580.374	19080
580.430	20454
580.486	20302
580.542	18566
580.598	19774
580.619	19574
580.654	19243
580.692	19317
580.710	19373
580.765	18889
580.767	18884
580.823	19262
580.838	19282
580.879	19365
580.911	19460
580.935	19565
580.984	19634
580.991	19651
581.047	19346
581.057	19340
581.103	19363
581.130	19537
581.159	19748
581.203	19837
581.215	19864
581.270	20116
581.276	20085
581.326	19848
581.349	19956
581.382	20166
581.422	20357
581.438	20421
581.494	21158
581.494	21141
581.550	20169
581.567	20413
581.606	20883
581.640	20733
581.661	20669
581.713	20955
581.717	20975
581.773	21112
581.786	21214
581.829	21633
581.859	21497
581.885	21341
581.932	22246
581.940	22429
581.996	21782
582.004	21960
582.052	22865
582.077	22552
582.107	22228
582.150	22860
582.163	23040
582.219	22797
582.223	22797
582.274	22932
582.296	22743
582.330	22328
582.368	22593
582.386	22774
582.441	23363
582.441	23363
582.497	22963
582.514	23136
582.552	23441
582.587	23202
582.608	23101
582.659	23665
582.663	23696
582.719	23844
582.732	23893
582.774	24214
582.805	24181
582.830	24131
582.877	24776
582.885	24856
582.941	23983
582.950	24059
582.996	24643
583.023	25130
583.052	25671
583.095	25857
583.107	25889
583.162	25820
583.168	25854
583.218	26031
583.240	25908
583.273	25864
583.313	25745
583.328	25580
583.384	26646
583.385	26613
583.439	26205
583.458	26315
583.494	26346
583.531	26205
583.549	26144
583.603	27193
583.605	27229
583.660	27910
583.676	27966
583.715	28191
583.748	28182
583.770	28073
583.820	28743
583.825	28835
583.881	29390
583.893	29402
583.936	29405
583.965	29099
583.991	28812
584.038	29882
584.046	30066
584.101	29888
584.110	29939
584.156	30396
584.183	30727
584.211	30965
584.255	30985
584.266	31090
584.321	31799
584.328	31923
584.376	32685
584.400	32742
584.431	32997
584.472	33284
584.486	33414
584.541	34449
584.545	34435
584.596	33893
584.617	33915
584.651	34434
584.689	35271
584.706	35569
584.761	36365
584.762	36352
584.816	37289
584.834	37784
584.871	38561
584.906	38699
584.926	38886
584.978	40131
584.980	40197
585.035	40467
585.051	40749
585.090	41997
585.123	43299
585.145	44202
585.195	45204
585.200	45332
585.254	47127
585.267	47437
585.309	48787
585.340	50948
585.364	52793
585.412	55656
585.419	56222
585.473	62929
585.484	64748
585.528	72863
585.556	79129
585.583	87527
585.628	103552
585.637	111403
585.692	176022
585.700	193805
585.747	340331
585.772	363333
585.801	313861
585.845	216457
585.856	184910
585.910	89137
585.917	78601
585.965	70270
585.989	66247
586.019	64362
586.061	62986
586.074	63344
586.128	64241
586.133	64306
586.183	65229
586.205	65264
586.237	66024
586.277	67651
586.292	68353
586.346	69097
586.349	69115
586.401	70969
586.421	71891
586.455	73962
586.493	75264
586.509	76240
586.564	80534
586.565	80608
586.618	93570
586.637	97467
586.672	103699
586.709	103537
586.727	98779
586.781	90812
586.781	90941
586.835	92640
586.853	92991
586.889	93031
586.925	93217
586.944	94084
586.996	96155
586.998	96376
587.052	100068
587.068	101202
587.106	105471
587.140	108344
587.161	109665
587.212	112571
587.215	112987
587.269	118897
587.284	120224
587.323	124539
587.356	127755
587.377	130122
587.427	135508
587.431	136219
587.485	143573
587.499	145418
587.539	151731
587.571	155815
587.593	159705
587.643	167890
587.648	169029
587.702	179826
587.715	182140
587.755	192454
587.786	199959
587.810	206423
587.858	219102
587.864	221167
587.917	238771
587.930	242351
587.971	259706
588.001	272421
588.025	284400
588.073	307426
588.079	311292
588.133	342357
588.145	348913
588.187	378901
588.217	399515
588.241	421375
588.288	464625
588.295	472270
588.348	532634
588.360	545151
588.402	607496
588.431	650917
588.456	697418
588.503	788965
588.510	806264
588.564	941329
588.575	969660
588.617	1120705
588.646	1224043
588.671	1343904
588.718	1570190
588.725	1613796
588.778	1934824
588.789	1996216
588.832	2219551
588.861	2351760
588.886	2327758
588.932	2214523
588.939	2152256
588.993	1579527
589.004	1488944
589.047	1665566
589.075	1793222
589.100	2068626
589.147	2501171
589.154	2497123
589.207	2393472
589.218	2368910
589.261	2175290
589.290	2043480
589.314	2004807
589.361	1933962
589.368	1952122
589.421	2083007
589.433	2108418
589.475	2274291
589.504	2368431
589.528	2293952
589.576	2064729
589.582	2030930
589.635	1761129
589.647	1705627
589.689	2096128
589.718	2324194
589.742	2223500
589.790	1990806
589.795	1951318
589.849	1537124
589.861	1439336
589.902	1231932
589.932	1075480
589.955	1000066
590.004	836636
590.009	827264
590.062	703484
590.075	671920
590.115	611618
590.146	562688
590.168	538583
590.218	481134
590.222	478792
590.275	432306
590.289	419224
590.328	395998
590.360	375132
590.381	364218
590.431	335441
590.435	334853
590.488	309814
590.503	301998
590.541	291380
590.574	280527
590.594	274756
590.645	257962
590.647	258126
590.700	242948
590.716	237819
590.753	230902
590.787	223222
590.806	220331
590.859	210028
590.859	210493
590.912	202091
590.930	198707
590.965	194752
591.001	190032
591.018	188444
591.071	181729
591.072	181133
591.124	176895
591.143	174749
591.177	171888
591.214	167557
591.230	166734
591.283	162533
591.285	161882
591.336	159448
591.356	157730
591.389	155280
591.427	151475
591.442	150693
591.495	145966
591.498	145178
591.547	142171
591.569	140179
591.600	138289
591.640	134880
591.653	134830
591.706	132781
591.711	132162
591.759	130935
591.782	129730
591.811	130627
591.853	131058
591.864	131342
591.917	130461
591.924	129921
591.969	125773
591.995	122852
592.022	122805
592.066	121690
592.075	121858
592.127	120529
592.137	119915
592.180	122428
592.208	123463
592.233	123554
592.279	122404
592.285	122127
592.338	116543
592.350	114888
592.390	113046
592.421	111046
592.443	111142
592.491	110224
592.495	110528
592.548	109850
592.562	109309
592.600	109580
592.633	109152
592.653	108566
592.704	105511
592.705	106111
592.775	105597
592.846	104541
592.916	104847
592.987	105105
593.058	103871
593.128	99510
593.199	97471
593.270	97591
593.341	96289
593.411	93270
593.482	95546
593.553	95794
593.623	94567
593.694	92292
593.764	94574
593.835	94322
593.906	91477
593.976	90521
594.047	91154
594.117	93035
594.188	97935
594.258	95113
594.329	88854
594.399	87853
594.470	90026
594.540	88726
594.611	89264
594.681	88243
594.751	89108
594.822	87888
594.892	91193
594.963	91959
595.033	91239
595.103	92761
595.174	93633
595.244	97566
595.314	111372
595.384	109407
595.455	93541
595.525	93097
595.595	95198
595.665	95860
595.736	94918
595.806	94359
595.876	94371
595.946	94596
596.016	93429
596.087	96156
596.157	97183
596.227	97093
596.297	98652
596.367	100320
596.437	106086
596.507	109539
596.577	119569
596.647	119782
596.717	107948
596.787	111437
596.857	109735
596.927	110076
596.997	110763
597.067	110085
597.137	109927
597.207	113035
597.277	113113
597.347	113249
597.417	109851
597.487	106746
597.557	109678
597.626	110995
597.696	111715
597.766	116256
597.836	120194
597.906	118617
597.975	103957
598.045	100703
598.115	103393
598.185	105882
598.254	111567
598.324	120344
598.394	126305
598.464	126860
598.533	123266
598.603	118700
598.672	113239
598.742	112916
598.812	114382
598.881	112788
598.951	115554
599.020	114733
599.090	115405
599.159	117950
599.229	117731
599.299	113124
599.368	111615
599.437	116118
599.507	110795
599.576	108285
599.646	106054
599.715	104345
599.785	102126
599.854	102637
599.924	102923
599.993	103677
600.062	100290
600.132	101133
600.201	102869
600.270	110168
600.340	122868
600.409	123175
600.478	119354
600.547	119423
600.617	122023
600.686	107588
600.755	97472
600.824	93233
600.894	91981
600.963	88197
601.032	85819
601.101	84942
601.170	85530
601.239	82790
601.308	82463
601.378	83697
601.447	83196
601.516	81383
601.585	81797
601.654	85004
601.723	88766
601.792	83748
601.861	85917
601.930	87458
601.999	90588
602.068	94085
602.137	90196
602.206	97066
602.275	93743
602.343	93842
602.412	99611
602.481	96265
602.550	92366
602.619	92573
602.688	95301
602.756	96735
602.825	95385
602.894	95065
602.963	98028
603.032	97192
603.100	98920
603.169	97664
603.238	97531
603.307	99919
603.375	98283
603.444	100036
603.513	101712
603.581	101438
603.650	102868
603.719	102828
603.787	100418
603.856	102814
603.924	104481
603.993	108160
604.061	109132
604.130	111034
604.198	114564
604.267	117993
604.335	119630
604.404	119682
604.472	121359
604.541	120719
604.609	122985
604.678	123918
604.746	124179
604.815	125949
604.883	128989
604.951	129271
605.020	128635
605.088	131197
605.156	131636
605.225	134292
605.293	134734
605.361	134772
605.429	135527
605.498	136880
605.566	138888
605.634	144135
605.702	149286
605.771	150481
605.839	154798
605.907	154210
605.975	147760
606.043	144935
606.111	144037
606.180	143031
606.248	145102
606.316	139814
606.384	142041
606.452	146284
606.520	148096
606.588	153658
606.656	145793
606.724	143385
606.792	140061
606.860	131894
606.928	120155
606.996	111662
607.064	106136
607.132	107776
607.200	112012
607.267	116965
607.335	118589
607.403	122270
607.471	123177
607.539	118121
607.607	118365
607.674	113931
607.742	105211
607.810	106435
607.878	107942
607.946	105110
608.013	109238
608.081	113275
608.149	114407
608.216	114669
608.284	118325
608.352	119185
608.419	120594
608.487	120919
608.555	124776
608.622	117681
608.690	118480
608.757	125149
608.825	137077
608.893	137578
608.960	136450
609.028	136064
609.095	132957
609.163	132360
609.230	121930
609.298	110916
609.365	106641
609.432	111929
609.500	118357
609.567	129737
609.635	146503
609.702	163299
609.769	166266
609.837	159232
609.904	127025
609.971	120384
610.039	131081
610.106	152619
610.173	222907
610.241	447661
610.308	920830
610.375	660026
610.442	314741
610.509	156793
610.577	128573
610.644	123832
610.711	122244
610.778	123135
610.845	126927
610.912	128925
610.980	136701
611.047	138582
611.114	139944
611.181	135890
611.248	131581
611.315	132227
611.382	137156
611.449	139826
611.516	144091
611.583	145456
611.650	145695
611.717	147852
611.784	148613
611.851	152559
611.918	164416
611.984	179757
612.051	215889
612.118	327477
612.185	684555
612.252	1481978
612.319	615955
612.386	221457
612.452	189146
612.519	173979
612.586	169213
612.653	172205
612.719	166871
612.786	169781
612.853	158874
612.919	150767
612.986	148682
613.053	147432
613.120	138935
613.186	130949
613.253	128323
613.319	128502
613.386	131224
613.453	130374
613.519	136174
613.586	138769
613.652	147594
613.719	156021
613.785	146794
613.852	139950
613.918	134574
613.985	132438
614.051	134310
614.118	140471
614.184	139848
614.250	132040
614.317	133407
614.383	134080
614.449	133213
614.516	135280
614.582	134614
614.648	136079
614.715	133693
614.781	131195
614.847	130071
614.914	133303
614.980	133184
615.046	130339
615.112	127408
615.179	134271
615.245	137811
615.311	147536
615.377	168991
615.443	230144
615.509	215584
615.575	164939
615.642	151552
615.708	147440
615.774	153814
615.840	163756
615.906	182295
615.972	219395
616.038	317822
616.104	570252
616.170	930941
616.236	1849095
616.302	1053558
616.368	313934
616.434	241429
616.500	183744
616.565	174119
616.631	192567
616.697	222048
616.763	186312
616.829	202248
616.895	305843
616.961	493986
617.026	403972
617.092	187926
617.158	150278
617.224	140893
617.289	136126
617.355	127719
617.421	123959
617.487	124114
617.552	122459
617.618	116096
617.684	117175
617.749	115968
617.815	114765
617.880	110278
617.946	109032
618.012	108837
618.077	113776
618.143	114228
618.208	108583
618.274	111719
618.339	119405
618.405	116852
618.470	101302
618.536	101855
618.601	103304
618.667	103775
618.732	96302
618.798	93229
618.863	90472
618.928	91160
618.994	91008
619.059	93435
619.124	99891
619.190	110353
619.255	93571
619.320	90713
619.386	88910
619.451	90680
619.516	89122
619.581	86524
619.647	88740
619.712	91133
619.777	90215
619.842	86247
619.907	88795
619.972	90750
620.038	92440
620.103	89529
620.168	87735
620.233	87193
620.298	86255
620.363	87714
620.428	88565
620.493	91147
620.558	92667
620.623	91661
620.688	94034
620.753	91114
620.818	92701
620.883	94815
620.948	94739
621.013	94132
621.078	95404
621.143	93105
621.207	95999
621.272	95657
621.337	94832
621.402	96391
621.467	95323
621.532	102142
621.596	100793
621.661	97723
621.726	90448
621.791	91123
621.855	91974
621.920	94660
621.985	94649
622.049	96908
622.114	96891
622.179	98035
622.243	96012
622.308	100603
622.373	100767
622.437	104251
622.502	101879
622.566	95862
622.631	95505
622.695	96871
622.760	96059
622.824	97174
622.889	97660
622.953	100588
623.018	104800
623.082	126120
623.147	113754
623.211	102376
623.276	99951
623.340	102170
623.404	94564
623.469	92850
623.533	93011
623.597	93440
623.662	91324
623.726	91110
623.790	84946
623.854	81603
623.919	83906
623.983	83405
624.047	85070
624.111	85670
624.176	85179
624.240	87507
624.304	91697
624.368	92567
624.432	86454
624.496	85126
624.560	89532
624.625	95530
624.689	96925
624.753	90282
624.817	94308
624.881	89767
624.945	87345
625.009	80598
625.073	81150
625.137	82237
625.201	89888
625.265	98557
625.329	91052
625.393	84697
625.456	86497
625.520	85402
625.584	88342
625.648	93453
625.712	99853
625.776	120824
625.839	174451
625.903	168193
625.967	89509
626.031	80290
626.095	102765
626.158	123704
626.222	80938
626.286	65902
626.349	63427
626.413	61766
626.477	60849
626.540	61198
626.604	60272
626.668	60791
626.731	58693
626.795	58011
626.858	58966
626.922	59838
626.986	58423
627.049	57230
627.113	57427
627.176	58102
627.240	56188
627.303	55708
627.366	55907
627.430	56977
627.493	57298
627.557	57125
627.620	55660
627.684	55961
627.747	58197
627.810	57298
627.874	54501
627.937	50127
628.000	51174
628.064	52112
628.127	49963
628.190	46329
628.253	46077
628.317	46417
628.380	44084
628.443	42814
628.506	43517
628.569	44023
628.632	39732
628.696	40453
628.759	39297
628.822	40141
628.885	38824
628.948	38868
629.011	38169
629.074	38745
629.137	38222
629.200	37210
629.263	37478
629.326	38300
629.389	36574
629.452	37043
629.515	35454
629.578	36255
629.641	36815
629.704	36756
629.767	37161
629.830	37583
629.892	34596
629.955	34787
630.018	34630
630.081	36420
630.144	38682
630.207	41259
630.269	37353
630.332	36515
630.395	37246
630.458	34521
630.520	33318
630.583	34207
630.646	31553
630.708	32584
630.771	32502
630.834	33391
630.896	33420
630.959	32599
631.021	32342
631.084	32622
631.146	32858
631.209	34738
631.272	34916
631.334	32970
631.397	32861
631.459	31912
631.522	34067
631.584	34709
631.646	34191
631.709	35913
631.771	38281
631.834	42560
631.896	36699
631.958	33913
632.021	32028
632.083	31462
632.145	31277
632.208	31852
632.270	30992
632.332	31183
632.395	29513
632.457	30316
632.519	30993
632.581	31220
632.643	29074
632.706	30450
632.768	29687
632.830	29402
632.892	29463
632.954	30028
633.016	30669
633.078	29682
633.141	29848
633.203	29701
633.265	29366
633.327	29968
633.389	28678
633.451	29699
633.513	31712
633.575	35924
633.637	33450
633.698	34330
633.760	32737
633.822	31276
633.884	31214
633.946	30731
634.008	30278
634.070	32007
634.132	31383
634.193	32978
634.255	35193
634.317	35955
634.379	37205
634.441	35095
634.502	34360
634.564	31394
634.626	30328
634.687	28724
634.749	28901
634.811	27899
634.873	27648
634.934	27650
634.996	27163
635.057	27502
635.119	27955
635.181	28234
635.242	28228
635.304	28258
635.365	27828
635.427	28593
635.488	27746
635.550	28342
635.611	26620
635.673	27622
635.734	28141
635.796	29346
635.857	30665
635.918	32213
635.980	32719
636.041	33954
636.102	35173
636.164	37497
636.225	36554
636.286	36287
636.348	32538
636.409	30004
636.470	27327
636.531	27109
636.593	27074
636.654	29509
636.715	27082
636.776	25197
636.838	25064
636.899	25262
636.960	25079
637.021	24498
637.082	23651
637.143	24002
637.204	23895
637.265	23024
637.326	23307
637.387	23399
637.448	23168
637.509	23386
637.570	23858
637.631	22616
637.692	23151
637.753	21934
637.814	21970
637.875	21711
637.936	22276
637.997	22134
638.058	22211
638.119	23099
638.179	22657
638.240	22334
638.301	21644
638.362	22178
638.423	22251
638.483	22065
638.544	21265
638.605	20727
638.666	20537
638.726	21560
638.787	21250
638.848	20453
638.908	20967
638.969	20656
639.030	20159
639.090	20756
639.151	19376
639.211	20422
639.272	22652
639.332	26656
639.393	34950
639.453	23409
639.514	21229
639.574	21175
639.635	19175
639.695	19333
639.756	19657
639.816	20195
639.877	20823
639.937	23672
639.997	31306
640.058	35045
640.118	21907
640.178	19008
640.239	18193
640.299	19250
640.359	17948
640.420	19135
640.480	19022
640.540	20955
640.600	22180
640.661	22266
640.721	21062
640.781	22839
640.841	23149
640.901	20905
640.961	19052
641.021	19408
641.082	20668
641.142	24264
641.202	26654
641.262	20493
641.322	18371
641.382	18722
641.442	18275
641.502	17646
641.562	18368
641.622	18659
641.682	17642
641.742	18896
641.802	21028
641.861	19501
641.921	18841
641.981	19370
642.041	19365
642.101	20819
642.161	23601
642.221	18599
642.280	17551
642.340	16893
642.400	17287
642.460	17784
642.519	17242
642.579	17299
642.639	17507
642.698	18402
642.758	18272
642.818	17407
642.877	16836
642.937	17566
642.997	19048
643.056	21174
643.116	25849
643.175	20563
643.235	18061
643.294	19118
643.354	18802
643.414	19294
643.473	21399
643.532	24458
643.592	29230
643.651	39852
643.711	60070
643.770	100831
643.830	197199
643.889	461622
643.948	857565
644.008	179082
644.067	42963
644.126	30052
644.186	25428
644.245	22042
644.304	19223
644.363	18440
644.423	17455
644.482	18603
644.541	18015
644.600	17737
644.659	19839
644.719	22619
644.778	27515
644.837	38408
644.896	60186
644.955	118107
645.014	246054
645.073	73401
645.132	24081
645.191	20508
645.250	18588
645.309	18039
645.368	18339
645.427	20541
645.486	23934
645.545	37287
645.604	53369
645.663	21380
645.722	17423
645.781	18204
645.840	18403
645.898	21282
645.957	25690
646.016	35068
646.075	54288
646.134	95135
646.192	177719
646.251	465864
646.310	600504
646.369	86303
646.427	32302
646.486	27932
646.545	21497
646.603	19288
646.662	17115
646.721	15675
646.779	16213
646.838	15842
646.896	17520
646.955	21116
647.014	25056
647.072	37617
647.131	64605
647.189	165085
647.248	70716
647.306	19201
647.365	15358
647.423	14649
647.481	14851
647.540	13262
647.598	14355
647.657	13036
647.715	13040
647.773	14160
647.832	12720
647.890	13030
647.948	12961
648.007	12872
648.065	12563
648.123	12263
648.181	12819
648.240	12861
648.298	12968
648.356	12701
648.414	12245
648.472	12507
648.531	12513
648.589	11906
648.647	12513
648.705	11689
648.763	12044
648.821	12046
648.879	13314
648.937	13381
648.995	14554
649.053	16353
649.111	21162
649.169	29172
649.227	46211
649.285	76914
649.343	151597
649.401	418888
649.459	182075
649.516	49790
649.574	29087
649.632	18602
649.690	19398
649.748	19479
649.806	20672
649.863	28389
649.921	44336
649.979	116536
650.037	71938
650.094	16607
650.152	13205
650.210	12579
650.268	11486
650.325	11937
650.383	11817
650.440	11850
650.498	11212
650.556	10738
650.613	10611
650.671	10689
650.728	10561
650.786	10261
650.843	11359
650.901	12207
650.958	11476
651.016	9634
651.073	10378
651.131	9813
651.188	9237
651.246	9682
651.303	10115
651.360	10059
651.418	9103
651.475	9409
651.532	9517
651.590	9638
651.647	8408
651.704	9874
651.762	10323
651.819	10103
651.876	9703
651.933	9281
651.990	8967
652.048	9044
652.105	9392
652.162	9006
652.219	9379
652.276	8833
652.333	8663
652.390	9055
652.448	9049
652.505	8988
652.562	9310
652.619	9188
652.676	8429
652.733	9714
652.790	9326
652.847	8889
652.904	8799
652.961	8537
653.017	8909
653.074	8427
653.131	9313
653.188	8792
653.245	9194
653.302	8765
653.359	8509
653.415	9549
653.472	8581
653.529	9361
653.586	8147
653.642	8306
653.699	7748
653.756	8139
653.813	8745
653.869	9069
653.926	8737
653.983	7848
654.039	8470
654.096	8542
654.152	8107
654.209	7593
654.266	8704
654.322	9008
654.379	8996
654.435	9001
654.492	9171
654.548	10338
654.605	11921
654.661	16967
654.717	10178
654.774	8772
654.830	9025
654.887	9319
654.943	8183
655.000	8488
655.056	8787
655.112	8869
655.168	7970
655.225	9105
655.281	9041
655.337	9187
655.394	11079
655.450	14777
655.506	11382
655.562	11029
655.618	14775
655.675	12027
655.731	7985
655.787	8278
655.843	8312
655.899	8784
655.955	8644
656.011	8071
656.067	7753
656.123	8575
656.179	8137
656.235	8934
656.291	8430
656.347	9034
656.403	8944
656.459	9944
656.515	8670
656.571	9669
656.627	9324
656.683	8998
656.739	8735
656.795	8916
656.850	8564
656.906	9763
656.962	9828
657.018	8477
657.074	8499
657.129	9175
657.185	10642
657.241	12015
657.297	19645
657.352	14693
657.408	8434
657.464	8843
657.519	8165
657.575	8471
657.630	7840
657.686	8620
657.742	7500
657.797	7379
657.853	7710
657.908	9090
657.964	8082
658.019	8186
658.075	8152
658.130	7858
658.186	7582
658.241	8071
658.297	8146
658.352	7617
658.407	8765
658.463	8108
658.518	7188
658.573	8417
658.629	7381
658.684	8402
658.739	7088
658.795	7923
658.850	6879
658.905	8161
658.960	8075
659.016	7821
659.071	7564
659.126	8234
659.181	8023
659.236	9032
659.291	11538
659.346	12624
659.401	9312
659.457	8981
659.512	7426
659.567	8091
659.622	7222
659.677	7834
659.732	8313
659.787	8318
659.842	8083
659.897	8922
659.952	9845
660.007	7878
660.061	7539
660.116	7253
660.171	7434
660.226	7890
660.281	8201
660.336	6989
660.391	7476
660.445	7160
660.500	7440
660.555	7491
660.610	7296
660.664	8227
660.719	7476
660.774	7521
660.828	7231
660.883	7582
660.938	7480
660.992	8022
661.047	8799
661.101	7743
661.156	7295
661.211	7077
661.265	7383
661.320	7354
661.374	7732
661.429	7867
661.483	7500
661.538	7505
661.592	7324
661.647	7703
661.701	8043
661.755	7217
661.810	7822
661.864	7537
661.919	7097
661.973	7837
662.027	6862
662.081	7248
662.136	7291
662.190	7073
662.244	8065
662.299	7617
662.353	7455
662.407	7438
662.461	7922
662.515	7765
662.569	7781
662.624	8316
662.678	7320
662.732	8385
662.786	7265
662.840	7407
662.894	7506
662.948	8055
663.002	6809
663.056	6836
663.110	6858
663.164	6913
663.218	7173
663.272	7425
663.326	7574
663.380	7477
663.434	8549
663.488	7344
663.542	7916
663.595	7639
663.649	6441
663.703	7842
663.757	7545
663.811	7212
663.864	7671
663.918	7548
663.972	6937
664.026	7803
664.079	7531
664.133	7642
664.187	6988
664.240	7136
664.294	6259
664.348	7182
664.401	7793
664.455	6941
664.508	6315
664.562	7572
664.615	7482
664.669	7184
664.722	7563
664.776	6464
664.829	6619
664.883	7700
664.936	6682
664.990	7107
665.043	7631
665.097	7291
665.150	7041
665.203	8192
665.257	7343
665.310	7821
665.363	6951
665.417	7943
665.470	7229
665.523	8130
665.576	8255
665.630	7928
665.683	7087
665.736	7761
665.789	8077
665.842	7023
665.895	6475
665.949	7470
666.002	7123
666.055	8673
666.108	7658
666.161	7948
666.214	7289
666.267	8543
666.320	7948
666.373	9253
666.426	8590
666.479	7248
666.532	7665
666.585	8154
666.638	9044
666.691	9049
666.744	8864
666.796	7967
666.849	9005
666.902	8930
666.955	7575
667.008	8032
667.060	7276
667.113	7639
667.166	7396
667.219	7318
667.271	7824
667.324	7477
667.377	7520
667.430	7363
667.482	6696
667.535	7852
667.587	7663
667.640	8244
667.693	8774
667.745	9272
667.798	11494
667.850	13710
667.903	8066
667.955	8785
668.008	7476
668.060	7714
668.113	8446
668.165	8847
668.218	8584
668.270	8916
668.322	8082
668.375	7846
668.427	7847
668.479	7751
668.532	8186
668.584	8147
668.636	7759
668.689	8840
668.741	7292
668.793	9226
668.845	8058
668.898	7999
668.950	7498
669.002	7784
669.054	7790
669.106	7985
669.158	9046
669.211	8870
669.263	7907
669.315	8225
669.367	8240
669.419	8196
669.471	9271
669.523	9354
669.575	10439
669.627	11781
669.679	11068
669.731	10152
669.783	8974
669.835	9700
669.886	10087
669.938	10417
669.990	10424
670.042	11169
670.094	10468
670.146	11836
670.197	13601
670.249	15029
670.301	17872
670.353	22984
670.404	29476
670.456	40995
670.508	57312
670.560	85139
670.611	127718
670.663	201418
670.715	327689
670.766	610410
670.818	901406
670.869	546255
670.921	150531
670.972	66000
671.024	43005
671.075	30103
671.127	23696
671.178	19832
671.230	17419
671.281	15860
671.333	13826
671.384	12635
671.436	13288
671.487	14543
671.538	14543
671.590	16175
671.641	19380
671.692	26089
671.744	38123
671.795	68688
671.846	56660
671.897	23660
671.949	14996
672.000	12226
672.051	10579
672.102	9852
672.153	8582
672.204	9664
672.256	9000
672.307	8333
672.358	8550
672.409	8844
672.460	8598
672.511	8118
672.562	7278
672.613	8163
672.664	8254
672.715	8027
672.766	6379
672.817	7766
672.868	7378
672.919	7152
672.970	7209
673.021	7735
673.071	6446
673.122	7934
673.173	7005
673.224	6966
673.275	7218
673.326	6965
673.376	7226
673.427	6645
673.478	6424
673.528	6982
673.579	7023
673.630	7256
673.680	6686
673.731	7673
673.782	6396
673.832	7225
673.883	6980
673.934	7568
673.984	6653
674.035	6379
674.085	6255
674.136	6861
674.186	6400
674.237	7619
674.287	7794
674.338	10056
674.388	7974
674.438	7160
674.489	6478
674.539	6923
674.589	6711
674.640	6954
674.690	6714
674.740	6868
674.791	7196
674.841	7362
674.891	6760
674.942	7203
674.992	6209
675.042	7034
675.092	6260
675.142	6417
675.193	6369
675.243	6174
675.293	6687
675.343	6466
675.393	6045
675.443	6564
675.493	7175
675.543	6628
675.593	5894
675.643	6937
675.693	6479
675.743	6574
675.793	5535
675.843	5939
675.893	6630
675.943	5668
675.993	5402
676.043	5773
676.093	6637
676.142	5890
676.192	5141
676.242	5974
676.292	5991
676.341	5088
676.391	5850
676.441	6521
676.491	5885
676.540	5275
676.590	5265
676.640	5029
676.689	5638
676.739	5200
676.789	5617
676.838	5252
676.888	5342
676.937	5020
676.987	5218
677.037	5305
677.086	4465
677.136	5093
677.185	5957
677.235	5424
677.284	5084
677.333	4645
677.383	4491
677.432	5411
677.482	5298
677.531	5364
677.580	4141
677.630	5637
677.679	4674
677.728	5414
677.778	4073
677.827	5407
677.876	5142
677.925	4552
677.975	4946
678.024	5163
678.073	5288
678.122	5103
678.171	5743
678.220	5777
678.269	5262
678.319	6005
678.368	6147
678.417	5858
678.466	6165
678.515	5297
678.564	5271
678.613	6363
678.662	6040
678.711	5589
678.760	5168
678.809	5435
678.857	4982
678.906	5693
678.955	5458
679.004	5901
679.053	6085
679.102	5269
679.151	5320
679.199	5091
679.248	4834
679.297	5425
679.346	4659
679.394	5116
679.443	5604
679.492	5300
679.540	4262
679.589	4884
679.638	5585
679.686	5458
679.735	4961
679.784	4612
679.832	5201
679.881	6045
679.929	5399
679.978	4195
680.026	4363
680.075	5339
680.123	4686
680.172	5015
680.220	4295
680.268	3674
680.317	4201
680.365	4647
680.414	4776
680.462	4660
680.510	4497
680.559	4935
680.607	4022
680.655	4736
680.703	4393
680.752	4576
680.800	4631
680.848	5003
680.896	3783
680.945	3518
680.993	5217
681.041	4764
681.089	4508
681.137	4842
681.185	3729
681.233	4774
681.258	4364
681.281	3950
681.329	3799
681.377	4522
681.380	4565
681.425	4900
681.473	5123
681.502	4774
681.521	4485
681.569	5389
681.617	4476
681.624	4549
681.665	4850
681.713	5471
681.745	4920
681.761	4611
681.809	4884
681.857	4803
681.867	5008
681.904	5642
681.952	5313
681.989	5031
682.000	4914
682.048	5618
682.096	6016
682.111	5661
682.143	4836
682.191	4955
682.233	5761
682.239	5847
682.286	5394
682.334	6165
682.354	5904
682.382	5539
682.430	4723
682.476	5690
682.477	5686
682.525	5786
682.572	5619
682.598	5540
682.620	5462
682.667	5486
682.715	6398
682.720	6396
682.763	6041
682.810	5524
682.841	6278
682.857	6699
682.905	5997
682.952	6051
682.963	6101
683.000	6069
683.047	5617
683.085	6246
683.095	6409
683.142	6044
683.190	6357
683.206	6132
683.237	5575
683.284	6843
683.328	6484
683.332	6449
683.379	5739
683.426	6550
683.449	6452
683.473	6272
683.521	7306
683.568	6564
683.571	6576
683.615	6539
683.662	6782
683.693	6674
683.709	6573
683.757	6347
683.804	6574
683.814	6413
683.851	5784
683.898	7093
683.936	7195
683.945	7184
683.992	6989
684.039	6753
684.057	6769
684.086	6848
684.133	7093
684.179	7106
684.180	7088
684.227	7134
684.274	7691
684.300	7700
684.321	7624
684.368	7563
684.415	7557
684.422	7551
684.462	7400
684.509	7096
684.543	7148
684.556	7162
684.603	7493
684.649	7335
684.665	7376
684.696	7418
684.743	7160
684.786	7260
684.790	7269
684.837	8107
684.883	8416
684.908	8294
684.930	8120
684.977	8594
685.023	9032
685.029	9004
685.070	8738
685.117	8872
685.150	8820
685.164	8713
685.210	8813
685.257	8618
685.272	8754
685.303	9184
685.350	8891
685.393	8992
685.396	8983
685.443	8852
685.490	9611
685.514	9564
685.536	9502
685.583	9948
685.629	9378
685.636	9465
685.675	9821
685.722	9244
685.757	9441
685.768	9481
685.815	9361
685.861	8692
685.878	8856
685.908	9256
685.954	9323
686.000	9731
686.000	9729
686.047	9236
686.093	9734
686.121	10024
686.139	10293
686.185	10863
686.232	10411
686.242	10427
686.278	10216
686.324	10413
686.363	10477
686.370	10449
686.416	10232
686.463	9600
686.484	9488
686.509	9500
686.555	9121
686.601	10052
686.606	10017
686.647	9647
686.693	9497
686.727	9571
686.739	9611
686.785	10064
686.831	9648
686.848	9650
686.877	9613
686.923	9466
686.969	9342
686.969	9341
687.015	9512
687.061	10041
687.090	10056
687.107	10026
687.153	10547
687.199	10252
687.211	10126
687.245	9902
687.291	10028
687.332	10084
687.336	10058
687.382	10240
687.428	9789
687.453	9742
687.474	9998
687.520	10444
687.565	10568
687.574	10750
687.611	10851
687.657	10262
687.695	9982
687.702	10025
687.748	10290
687.794	10830
687.816	10912
687.839	10935
687.885	10965
687.931	10797
687.937	10829
687.976	10958
688.022	11417
688.058	11124
688.067	11025
688.113	10683
688.158	10699
688.179	10501
688.204	10485
688.249	11072
688.295	10759
688.300	10857
688.340	11280
688.386	10598
688.421	10731
688.431	10896
688.477	11034
688.522	11469
688.542	11846
688.567	11983
688.613	11715
688.658	11291
688.663	11265
688.703	11460
688.749	11608
688.784	11686
688.794	11676
688.839	11663
688.884	11914
688.905	11698
688.930	11499
688.975	11953
689.020	11621
689.026	11679
689.065	12000
689.110	11490
689.146	11200
689.155	11196
689.201	11423
689.246	12156
689.267	12116
689.291	11907
689.336	11640
689.381	11564
689.388	11530
689.426	11660
689.471	11670
689.509	11763
689.516	11784
689.561	11169
689.606	12008
689.630	11872
689.651	11712
689.696	11367
689.741	11691
689.750	11678
689.785	11894
689.830	11846
689.871	11956
689.875	11973
689.920	12056
689.965	12280
689.992	12412
690.010	12331
690.054	11878
690.099	10919
690.112	10973
690.144	11619
690.189	11860
690.233	11988
690.233	12000
690.278	11799
690.323	11699
690.354	11323
690.367	11264
690.412	11638
690.457	11984
690.474	11916
690.501	11826
690.546	11766
690.590	12209
690.595	12187
690.635	12087
690.680	11903
690.716	11883
690.724	11866
690.769	11752
690.813	11585
690.836	11539
690.857	11743
690.902	12094
690.946	12448
690.957	12524
690.991	12532
691.035	12177
691.077	12300
691.080	12367
691.124	13264
691.168	13898
691.198	14222
691.213	14173
691.257	14017
691.301	14206
691.318	14094
691.346	13891
691.390	13860
691.434	13674
691.439	13643
691.478	13185
691.522	12393
691.559	12050
691.567	12172
691.611	12995
691.655	12970
691.680	13270
691.699	13345
691.743	13282
691.787	13498
691.800	13520
691.831	13658
691.875	13420
691.919	13718
691.921	13699
691.964	13649
692.008	13659
692.041	13342
692.052	13389
692.096	14007
692.139	14404
692.162	14480
692.183	14270
692.227	13988
692.271	13655
692.282	13510
692.315	13509
692.359	13982
692.402	13963
692.403	13985
692.447	13923
692.490	13605
692.523	13780
692.534	13930
692.578	14051
692.622	14501
692.643	14266
692.666	14009
692.709	14279
692.753	14165
692.763	14160
692.797	14386
692.840	14475
692.884	14826
692.884	14850
692.928	14254
692.971	14360
693.004	13877
693.015	13848
693.059	13949
693.102	14215
693.124	14084
693.146	13898
693.189	13823
693.233	13790
693.245	13723
693.276	13698
693.320	13699
693.363	13399
693.365	13375
693.407	14099
693.450	14777
693.485	15184
693.493	15194
693.537	15135
693.580	15139
693.605	15118
693.624	15103
693.667	15084
693.710	14947
693.725	14877
693.753	15011
693.797	15141
693.840	15489
693.845	15503
693.883	16712
693.926	17586
693.966	18576
693.970	18595
694.013	18462
694.056	18139
694.086	18014
694.099	17601
694.142	16086
694.185	14873
694.206	14112
694.229	14336
694.272	14955
694.315	15158
694.326	15235
694.358	15042
694.401	14896
694.444	14755
694.446	14706
694.487	14925
694.530	15433
694.566	15678
694.573	15727
694.616	15943
694.659	15746
694.686	15852
694.702	15768
694.745	15225
694.787	15028
694.806	14752
694.830	14472
694.873	14113
694.916	13738
694.926	13615
694.959	13980
695.002	14257
695.044	14816
695.046	14804
695.087	14656
695.130	14390
695.166	14005
695.172	14117
695.215	14919
695.258	15661
695.286	16088
695.301	16039
695.343	15811
695.386	15784
695.406	15512
695.428	15437
695.471	15611
695.514	15556
695.526	15559
695.556	15393
695.599	15127
695.641	14740
695.646	14675
695.684	15153
695.726	15553
695.766	15754
695.769	15756
695.811	15616
695.854	15214
695.886	15002
695.896	15143
695.938	15372
695.981	15872
696.005	15991
696.023	15702
696.065	15011
696.108	14291
696.125	13986
696.150	14517
696.192	15234
696.235	16192
696.245	16325
696.277	16071
696.319	15772
696.361	15510
696.365	15453
696.404	15656
696.446	15896
696.485	15937
696.488	15963
696.530	15897
696.572	15781
696.604	15636
696.614	15735
696.656	16130
696.698	16463
696.724	16627
696.740	16593
696.783	16342
696.825	16165
696.844	16025
696.867	15928
696.909	15728
696.951	15465
696.964	15377
696.992	15476
697.034	15487
697.076	15464
697.083	15424
697.118	15755
697.160	16151
697.202	16612
697.203	16583
697.244	16220
697.286	15793
697.323	15402
697.327	15523
697.369	16295
697.411	17109
697.442	17586
697.453	17479
697.494	16945
697.536	16395
697.562	16041
697.578	16170
697.620	16344
697.661	16547
697.682	16572
697.703	16558
697.744	16570
697.786	16470
697.801	16440
697.828	16916
697.869	17528
697.911	18158
697.921	18253
697.952	18446
697.994	18687
698.035	18968
698.040	18951
698.077	18307
698.118	17502
698.160	16756
698.160	16710
698.201	16722
698.243	16729
698.279	16663
698.284	16734
698.325	17019
698.367	17327
698.399	17517
698.408	17525
698.449	17352
698.491	17196
698.518	17030
698.532	17059
698.573	17048
698.614	17016
698.638	16968
698.656	16983
698.697	16918
698.738	16834
698.757	16749
698.779	16872
698.820	17052
698.862	17214
698.877	17232
698.903	17483
698.944	17822
698.985	18159
698.996	18209
699.026	18105
699.067	17899
699.116	17611
699.235	17842
699.354	18073
699.474	17129
699.593	18270
699.713	18105
699.832	18619
699.951	16591
700.070	19405
700.190	17159
700.309	17153
700.428	16471
700.547	17729
700.667	16484
700.786	17380
700.905	17213
701.024	17047
701.143	17005
701.262	17342
701.381	16353
701.500	16738
701.619	16415
701.738	18134
701.857	16708
701.976	16366
702.095	15616
702.214	15650
702.333	16806
702.452	17762
702.571	16623
702.690	16432
702.809	15466
702.928	16334
703.047	15272
703.165	15608
703.284	14717
703.403	15195
703.522	14760
703.640	16015
703.759	15649
703.878	16461
703.997	19660
704.115	15735
704.234	14703
704.353	14817
704.471	13882
704.590	14883
704.708	14524
704.827	14978
704.946	13296
705.064	15562
705.183	14909
705.301	15106
705.420	16616
705.538	21877
705.656	19856
705.775	17620
705.893	16043
706.012	17483
706.130	18632
706.249	18620
706.367	17594
706.485	17823
706.604	18109
706.722	17978
706.840	18054
706.958	21089
707.077	20567
707.195	18716
707.313	17189
707.431	17520
707.549	16245
707.668	16678
707.786	16333
707.904	17102
708.022	16350
708.140	16148
708.258	15692
708.376	16574
708.494	16052
708.612	15859
708.730	17060
708.848	21769
708.966	21339
709.084	20849
709.202	18967
709.320	19406
709.438	18933
709.556	19458
709.674	19271
709.791	19082
709.909	19028
710.027	18613
710.145	18625
710.263	18363
710.380	17739
710.498	18365
710.616	17690
710.733	18323
710.851	17804
710.969	18706
711.086	18960
711.204	18015
711.322	17208
711.439	17857
711.557	17324
711.674	17687
711.792	16220
711.909	17935
712.027	15836
712.144	17889
712.262	16197
712.379	16891
712.497	16854
712.614	22876
712.732	24221
712.849	21573
712.966	19378
713.084	20332
713.201	23195
713.318	22540
713.436	21497
713.553	20892
713.670	20781
713.787	21077
713.905	21014
714.022	22067
714.139	19969
714.256	20313
714.373	21913
714.490	25255
714.608	34533
714.725	64429
714.842	260164
714.959	434489
715.076	46407
715.193	23897
715.310	20944
715.427	20557
715.544	17700
715.661	19435
715.778	17406
715.895	18286
716.011	19703
716.128	19467
716.245	17467
716.362	18106
716.479	18044
716.596	21154
716.713	17336
716.829	17465
716.946	16898
717.063	18058
717.180	15726
717.296	17004
717.413	14983
717.530	16988
717.646	15662
717.763	17001
717.880	16001
717.996	16030
718.113	14973
718.229	17565
718.346	14185
718.462	14914
718.579	15126
718.695	17643
718.812	22889
718.928	21799
719.045	18685
719.161	16915
719.277	14344
719.394	15179
719.510	14448
719.626	15090
719.743	15215
719.859	18838
719.975	19189
720.092	28600
720.208	74588
720.324	225720
720.440	49921
720.557	17174
720.673	16816
720.789	20808
720.905	24995
721.021	39943
721.137	23843
721.253	14662
721.369	13799
721.486	14533
721.602	15150
721.718	18370
721.834	13943
721.950	13876
722.066	13623
722.181	13734
722.297	12764
722.413	13716
722.529	12809
722.645	13373
722.761	12476
722.877	12281
722.993	12385
723.108	12636
723.224	12824
723.340	13125
723.456	12473
723.571	12289
723.687	11783
723.803	12081
723.918	10990
724.034	12242
724.150	12184
724.265	12789
724.381	11546
724.497	18316
724.612	25593
724.728	12583
724.843	10830
724.959	11879
725.074	11259
725.190	16447
725.305	22738
725.421	11778
725.536	11760
725.651	11140
725.767	9717
725.882	11850
725.997	9771
726.113	11517
726.228	10134
726.343	10384
726.459	10625
726.574	9919
726.689	9765
726.804	10617
726.920	9668
727.035	11142
727.150	10238
727.265	11267
727.380	9718
727.495	10690
727.610	10056
727.725	10443
727.841	9211
727.956	10973
728.071	10071
728.186	10066
728.301	9379
728.416	8962
728.531	9207
728.645	10592
728.760	9288
728.875	10093
728.990	9572
729.105	10831
729.220	9577
729.335	10664
729.449	9513
729.564	9817
729.679	8773
729.794	8987
729.908	9194
730.023	9696
730.138	10053
730.253	9529
730.367	8535
730.482	9141
730.596	7706
730.711	9449
730.826	9834
730.940	10011
731.055	9553
731.169	9721
731.284	9696
731.398	9108
731.513	9088
731.627	9591
731.742	9304
731.856	10598
731.970	11832
732.085	10534
732.199	10533
732.313	13198
732.428	17021
732.542	32693
732.656	98558
732.771	93159
732.885	19117
732.999	12646
733.113	11259
733.227	11992
733.342	10729
733.456	10229
733.570	9680
733.684	10829
733.798	9577
733.912	9809
734.026	9873
734.140	10775
734.254	9520
734.368	9904
734.482	12949
734.596	16344
734.710	9821
734.824	9460
734.938	8871
735.052	10172
735.166	9120
735.280	11042
735.393	9520
735.507	9310
735.621	8564
735.735	11113
735.849	13947
735.962	11302
736.076	8002
736.190	9644
736.303	9404
736.417	10865
736.531	12972
736.644	9134
736.758	7649
736.872	8525
736.985	8808
737.099	9252
737.212	7529
737.326	8227
737.439	8393
737.553	8953
737.666	8938
737.780	8669
737.893	7486
738.007	8056
738.120	7294
738.233	9205
738.347	7257
738.460	8844
738.573	7629
738.687	8265
738.800	7890
738.913	8481
739.026	9490
739.140	9080
739.253	6866
739.366	8071
739.479	7108
739.592	7809
739.705	6600
739.818	8215
739.932	7711
740.045	7850
740.158	7239
740.271	8888
740.384	7289
740.497	8498
740.610	6933
740.723	7633
740.836	7279
740.949	8114
741.062	8264
741.174	9768
741.287	9474
741.400	6934
741.513	6995
741.626	7716
741.739	6881
741.851	7379
741.964	7116
742.077	8313
742.189	7079
742.302	7433
742.415	7162
742.527	7968
742.640	7094
742.753	8197
742.865	6555
742.978	7461
743.090	6883
743.203	7468
743.316	6411
743.428	7267
743.541	6849
743.653	7197
743.766	5102
743.878	7554
743.990	6745
744.103	8382
744.215	7451
744.327	8098
744.440	6880
744.552	8106
744.664	9318
744.777	8181
744.889	5997
745.001	6739
745.113	6171
745.226	6409
745.338	5977
745.450	6535
745.562	6460
745.674	6803
745.786	5588
745.898	6778
746.010	6613
746.122	6868
746.234	7395
746.347	7011
746.459	6388
746.570	7452
746.682	5149
746.794	6759
746.906	6468
747.018	6591
747.130	6420
747.242	6647
747.354	5737
747.466	6501
747.577	6044
747.689	6970
747.801	5916
747.913	6586
748.024	5865
748.136	6222
748.248	5623
748.359	6584
748.471	5102
748.583	5732
748.694	5755
748.806	6176
748.918	5778
749.029	7939
749.141	5302
749.252	6951
749.364	5606
749.475	6132
749.587	9771
749.698	9929
749.809	5198
749.921	5871
750.032	5249
750.144	5547
750.255	5827
750.366	5364
750.478	5395
750.589	5978
750.700	5495
750.811	6051
750.923	4840
751.034	6071
751.145	9271
751.256	11956
751.367	6164
751.479	5430
751.590	4698
751.701	5809
751.812	5895
751.923	5868
752.034	5314
752.145	5879
752.256	4762
752.367	5816
752.478	4406
752.589	4943
752.700	4716
752.811	4555
752.922	4582
753.032	5959
753.143	5137
753.254	6516
753.365	4452
753.476	5662
753.586	5412
753.697	5722
753.808	5049
753.919	5267
754.029	4686
754.140	5883
754.251	4913
754.361	4550
754.472	5601
754.582	4282
754.693	4804
754.804	5550
754.914	5279
755.025	5145
755.135	4314
755.246	5425
755.356	4267
755.466	5703
755.577	4876
755.687	5378
755.798	4009
755.908	5501
756.018	4356
756.129	5226
756.239	4713
756.349	5755
756.460	5044
756.570	6454
756.680	4274
756.790	5466
756.900	4668
757.011	5843
757.121	4898
757.231	4611
757.341	4679
757.451	4575
757.561	3820
757.671	4734
757.781	4130
757.891	4783
758.001	4037
758.111	5743
758.221	4036
758.331	5039
758.441	4342
758.551	5955
758.661	4826
758.771	7087
758.880	4866
758.990	5641
759.100	4817
759.210	4914
759.320	4804
759.429	5497
759.539	4530
759.649	4965
759.758	5198
759.868	6253
759.978	5453
760.087	5651
760.197	4737
760.307	5895
760.416	5571
760.526	5245
760.635	5259
760.745	5268
760.854	4931
760.964	5619
761.073	5707
761.182	6291
761.292	5197
761.401	5997
761.511	4764
761.620	5182
761.729	4665
761.839	4964
761.948	5332
762.057	4715
762.166	5755
762.276	5613
762.385	5376
762.494	4701
762.603	4694
762.712	4754
762.822	5258
762.931	5280
763.040	4326
763.149	5169
763.258	5172
763.367	5562
763.476	5055
763.585	5506
763.694	4294
763.803	4960
763.912	4763
764.021	5857
764.130	4478
764.238	5586
764.347	4718
764.456	5534
764.565	5577
764.674	5199
764.783	5331
764.891	6164
765.000	5531
765.109	6550
765.217	5853
765.326	5984
765.435	6324
765.543	8885
765.652	8398
765.761	9388
765.869	9572
765.978	14352
766.086	20246
766.195	33931
766.303	69397
766.412	174875
766.520	514534
766.629	552235
766.737	142539
766.846	45198
766.954	25689
767.062	20059
767.171	15011
767.279	12923
767.387	9742
767.496	9657
767.604	7987
767.712	7509
767.820	6204
767.928	7816
768.037	6378
768.145	7008
768.253	6281
768.361	7020
768.469	6090
768.577	6067
768.685	6201
768.793	6795
768.901	6823
769.009	7720
769.117	6668
769.225	8012
769.333	8632
769.441	12130
769.549	15533
769.657	30252
769.765	65121
769.873	198436
769.981	500222
770.088	211899
770.196	39311
770.304	19549
770.412	14177
770.519	11854
770.627	8887
770.735	8814
770.842	7378
770.950	7388
771.058	6569
771.165	7251
771.273	6766
771.380	7339
771.488	5571
771.595	6015
771.703	6796
771.810	6512
771.918	6113
772.025	6388
772.133	6119
772.240	7109
772.348	6534
772.455	7498
772.562	5985
772.670	7265
772.777	6090
772.884	7261
772.991	5582
773.099	5947
773.206	5948
773.313	6199
773.420	5489
773.528	5817
773.635	4980
773.742	6128
773.849	5978
773.956	5703
774.063	5497
774.170	6209
774.277	5878
774.384	6106
774.491	5201
774.598	6190
774.705	5412
774.812	5879
774.919	6320
775.026	6327
775.133	5564
775.239	6292
775.346	5333
775.453	5967
775.560	5253
775.667	6245
775.773	5018
775.880	6499
775.987	4559
776.093	6015
776.200	5167
776.307	6175
776.413	4615
776.520	5455
776.627	5597
776.733	6391
776.840	5170
776.946	5758
777.053	5636
777.159	5906
777.266	5872
777.372	6003
777.478	5187
777.585	6284
777.691	6396
777.798	5543
777.904	5209
778.010	5704
778.117	5241
778.223	7330
778.329	4878
778.435	5539
778.542	5256
778.648	5302
778.754	4120
778.860	4652
778.966	4508
779.072	5340
779.178	4349
779.284	4707
779.391	4107
779.497	4350
779.603	4846
779.708	5353
779.815	5605
779.920	6794
780.026	10541
780.132	21042
780.238	6739
780.344	4620
780.450	4452
780.556	5231
780.661	3880
780.767	4862
780.873	4126
780.979	4574
781.085	3735
781.190	4344
781.296	4482
781.402	4024
781.507	3471
781.613	4405
781.719	3221
781.824	4095
781.930	4031
782.035	4018
782.141	4043
782.246	4126
782.352	4850
782.457	4481
782.563	3299
782.668	4517
782.773	3758
782.879	4060
782.984	4286
783.090	4560
783.195	3903
783.300	5408
783.405	5493
783.511	4638
783.616	4498
783.721	4979
783.826	4715
783.932	3933
784.037	3929
784.142	4838
784.247	4180
784.352	5131
784.457	4216
784.562	4265
784.667	3670
784.772	4338
784.877	2981
784.982	5025
785.087	3391
785.192	5575
785.297	3605
785.402	4142
785.507	3485
785.611	4466
785.716	3153
785.821	4227
785.926	3786
786.031	3734
786.135	3065
786.240	3821
786.345	3358
786.450	3811
786.554	3581
786.659	3904
786.763	3160
786.868	3995
786.973	3601
787.077	4496
787.182	3974
787.286	4237
787.391	2997
787.495	3794
787.600	3174
787.704	2529
787.809	3252
787.913	3507
788.017	3549
788.122	4864
788.226	3156
788.330	3565
788.435	2692
788.539	3435
788.643	3090
788.747	3674
788.852	2848
788.956	3358
789.060	2751
789.164	4134
789.268	2759
789.372	2816
789.476	2521
789.580	3196
789.684	2501
789.788	3168
789.892	2789
789.996	3520
790.100	2376
790.204	3183
790.308	3128
790.412	4060
790.516	3629
790.620	3500
790.724	2986
790.828	4087
790.931	2973
791.035	3372
791.139	3391
791.242	3344
791.346	2463
791.450	2972
791.554	3281
791.657	3801
791.761	2743
791.864	2647
791.968	2559
792.072	3811
792.175	3373
792.279	3615
792.382	2848
792.486	3032
792.589	2894
792.693	3004
792.796	2402
792.899	2972
793.003	2374
793.106	3276
793.209	2507
793.313	2852
793.416	1932
793.519	3627
793.623	3097
793.726	3607
793.829	4539
793.932	3454
794.035	2525
794.138	2828
794.242	2458
794.345	3532
794.448	2760
794.551	3596
794.654	5335
794.757	7725
794.860	8831
794.963	4988
795.066	3218
795.169	2934
795.272	2730
795.375	3318
795.477	2035
795.580	3466
795.683	2030
795.786	2778
795.889	2709
795.991	3099
796.094	1722
796.197	2687
796.300	2670
796.402	3173
796.505	2492
796.608	2207
796.710	1684
796.813	2920
796.915	2291
797.018	2339
797.120	2399
797.223	2447
797.326	2199
797.428	3251
797.530	1976
797.633	2700
797.735	2189
797.838	3280
797.940	4036
798.042	4189
798.145	1757
798.247	2791
798.349	2508
798.452	2976
798.554	1631
798.656	2299
798.758	2777
798.860	2363
798.962	1657
799.065	2300
799.167	2018
799.269	2799
799.371	1877
799.473	2904
799.575	2770
799.677	2566
799.779	3493
799.881	2969
799.983	3810
800.085	3494
800.187	2492
800.289	1960
800.390	2155
800.492	3309
800.594	2145
800.696	2779
800.798	1344
800.899	1287
801.001	1681
801.103	2392
801.205	2152
801.306	2561
801.408	1879
801.509	2134
801.611	2017
801.713	2310
801.814	1955
801.916	2147
802.017	1029
802.119	1913
802.220	906
802.322	1801
802.423	1265
802.525	2636
802.626	2027
802.727	2361
802.829	1977
802.930	2464
803.031	2325
803.133	2488
803.234	1780
803.335	2422
803.436	857
803.538	2162
803.639	1451
803.740	2318
803.841	1464
803.942	2335
804.043	1737
804.144	2408
804.245	1497
804.346	2584
804.447	1485
804.548	2220
804.649	2118
804.750	3418
804.851	1918
804.952	1984
805.053	1139
805.154	2393
805.255	1126
805.355	1565
805.456	1058
805.557	1575
805.658	1047
805.758	2654
805.859	945
805.960	1617
806.061	1356
806.161	2080
806.262	1627
806.362	1636
806.463	1482
806.564	2227
806.664	1297
806.765	2381
806.865	2154
806.966	2691
807.066	1386
807.166	2234
807.267	843
807.367	2259
807.468	1128
807.568	1586
807.668	1229
807.769	2131
807.869	892
807.969	1968
808.069	1250
808.170	1534
808.270	492
808.370	2053
808.470	1138
808.570	2544
808.670	2118
808.770	2024
808.870	1093
808.970	1925
809.070	925
809.170	1850
809.271	925
809.370	2614
809.470	1446
809.570	2023
809.670	864
809.770	1973
809.870	758
809.970	2173
810.070	844
810.169	1723
810.269	1335
810.369	1508
810.469	1148
810.568	1347
810.668	1330
810.768	1634
810.867	925
810.967	1694
811.066	1751
811.166	1727
811.265	1493
811.365	1861
811.464	1530
811.564	1673
811.663	1118
811.763	1916
811.862	1390
811.962	2169
812.061	821
812.160	2267
812.260	1325
812.359	2105
812.458	1784
812.557	4710
812.657	9837
812.756	21208
812.855	8762
812.954	2894
813.053	2082
813.153	2532
813.252	2049
813.351	2416
813.450	1095
813.549	2818
813.648	957
813.747	1764
813.846	759
813.945	2164
814.044	1157
814.143	3043
814.242	1983
814.341	2621
814.439	2086
814.538	2272
814.637	1677
814.736	1861
814.835	2228
814.933	2186
815.032	2408
815.131	3441
815.229	2406
815.328	3422
815.427	3667
815.525	3812
815.624	3027
815.722	3617
815.821	3107
815.919	3415
816.018	3233
816.116	3361
816.215	3695
816.313	4216
816.412	3693
816.510	4400
816.609	4929
816.707	5257
816.805	4810
816.904	5571
817.002	4102
817.100	5649
817.198	6007
817.296	7255
817.395	6626
817.493	9526
817.591	8458
817.689	11732
817.787	12999
817.885	20262
817.983	28885
818.081	49178
818.179	94230
818.277	199660
818.375	428242
818.473	479699
818.571	209588
818.669	82149
818.767	47603
818.865	39564
818.963	37266
819.061	42820
819.158	57669
819.256	90805
819.354	167262
819.452	330715
819.549	597285
819.647	533841
819.745	250997
819.842	113044
819.940	63293
820.038	43788
820.135	30065
820.233	23909
820.330	18636
820.428	15387
820.525	12430
820.623	11967
820.720	9476
820.818	9161
820.915	7578
821.012	7376
821.110	6131
821.207	6469
821.304	5587
821.402	5399
821.499	6196
821.596	6008
821.693	4954
821.791	5567
821.888	3236
821.985	5195
822.082	6046
822.179	7207
822.276	3949
822.373	4050
822.470	3078
822.567	3994
822.664	2471
822.761	3747
822.858	2603
822.955	3053
823.052	2485
823.149	3202
823.246	2588
823.343	3539
823.440	2011
823.536	3050
823.633	1875
823.730	3107
823.827	2205
823.923	2779
824.020	2284
824.117	2329
824.213	1813
824.310	2935
824.407	1612
824.503	2584
824.600	1449
824.696	2463
824.793	1171
824.889	2401
824.986	1675
825.082	2402
825.179	1416
825.275	1811
825.371	1989
825.468	3108
825.564	1477
825.660	1624
825.757	2208
825.853	2462
825.949	1387
826.045	1782
826.142	1139
826.238	2074
826.334	2154
826.430	1961
826.526	945
826.622	2013
826.718	958
826.814	1625
826.910	1415
827.006	1942
827.102	500
827.198	1349
827.294	1237
827.390	1860
827.486	1097
827.582	1514
827.678	522
827.774	2035
827.869	1472
827.965	1597
828.061	857
828.157	1328
828.252	1563
828.348	1019
828.444	636
828.539	1226
828.635	657
828.731	1255
828.826	863
828.922	1272
829.017	1050
829.113	1812
829.208	337
829.304	1366
829.399	703
829.495	2308
829.590	986
829.685	1411
829.781	358
829.876	1954
829.971	1460
830.066	927
830.162	922
830.257	1352
830.352	548
830.447	1560
830.543	222
830.638	1801
830.733	1240
830.828	2041
830.923	291
831.018	1143
831.113	335
831.208	2131
831.303	913
831.398	880
831.493	739
831.588	921
831.683	678
831.778	1220
831.873	-200
831.967	1468
832.062	527
832.157	1045
832.252	634
832.346	1276
832.441	595
832.536	1712
832.631	1880
832.725	3733
832.820	4298
832.914	2429
833.009	250
833.104	725
833.198	1324
833.293	2138
833.387	792
833.482	1539
833.576	984
833.670	1796
833.765	556
833.859	1307
833.954	1015
834.048	1564
834.142	399
834.237	1087
834.331	1302
834.425	1269
834.519	-34
834.613	1406
834.708	434
834.802	922
834.896	188
834.990	1605
835.084	757
835.178	1525
835.272	667
835.366	1456
835.460	869
835.554	945
835.648	584
835.742	382
835.836	413
835.930	401
836.024	449
836.117	1390
836.211	576
836.305	1652
836.399	594
836.493	1048
836.586	1561
836.680	1730
836.774	843
836.867	1200
836.961	240
837.055	693
837.148	555
837.242	1047
837.335	638
837.429	1095
837.522	410
837.616	946
837.709	1092
837.803	2461
837.896	1420
837.989	1783
838.083	1011
838.176	1603
838.269	1605
838.363	3089
838.456	1510
838.549	2070
838.642	721
838.735	2508
838.829	4489
838.922	3721
839.015	480
839.108	560
839.201	997
839.294	1471
839.387	929
839.480	1334
839.573	901
839.666	980
839.759	1741
839.852	1231
839.945	-16
840.038	721
840.131	604
840.223	1017
840.316	226
840.409	224
840.502	601
840.594	1349
840.687	70
840.780	590
840.873	195
840.965	722
841.058	-116
841.150	905
841.243	1042
841.336	2437
841.428	21
841.521	455
841.613	762
841.706	489
841.798	495
841.890	464
841.983	-116
842.075	1236
842.167	419
842.260	665
842.352	293
842.444	980
842.537	386
842.629	2559
842.721	3196
842.813	2177
842.905	292
842.997	826
843.090	142
843.182	1102
843.274	1012
843.366	2489
843.458	4712
843.550	9175
843.642	9361
843.734	2894
843.826	-120
843.918	896
844.009	441
844.101	1087
844.193	419
844.285	549
844.377	159
844.469	1351
844.560	193
844.652	798
844.744	552
844.835	1613
844.927	389
845.019	568
845.110	583
845.202	1756
845.293	252
845.385	955
845.476	568
845.568	1321
845.659	-306
845.751	928
845.842	123
845.934	821
846.025	299
846.116	517
846.208	-553
846.299	1022
846.390	104
846.482	840
846.573	330
846.664	1011
846.755	607
846.846	1912
846.937	1945
847.029	1486
847.120	284
847.211	221
847.302	1028
847.393	1026
847.484	-212
847.575	471
847.666	405
847.757	554
847.847	206
847.938	1013
848.029	211
848.120	804
848.211	-192
848.302	1545
848.392	-253
848.483	515
848.574	252
848.664	683
848.755	597
848.846	524
848.936	-194
849.027	939
849.118	-804
849.208	960
849.299	90
849.389	742
849.480	977
849.570	2181
849.661	3651
849.751	9118
849.841	16415
849.932	11874
850.022	859
850.112	1206
850.203	353
850.293	318
850.383	115
850.474	955
850.564	-829
850.654	590
850.744	130
850.834	172
850.924	-27
851.014	558
851.104	-470
851.194	1228
851.284	-161
851.374	1052
851.464	169
851.554	523
851.644	105
851.734	1469
851.824	1108
851.914	659
852.004	-637
852.094	391
852.183	395
852.273	379
852.363	-567
852.452	1090
852.542	-17
852.632	-121
852.721	99
852.811	663
852.901	-131
852.990	688
853.080	22
853.169	127
853.259	1229
853.348	352
853.438	527
853.527	808
853.617	437
853.706	1876
853.795	2711
853.885	5974
853.974	13788
854.063	31159
854.152	48168
854.242	101710
854.331	67296
854.420	10847
854.509	1984
854.598	1416
854.687	1237
854.777	1646
854.866	612
854.955	1171
855.044	143
855.133	394
855.222	-231
855.311	718
855.400	-384
855.488	197
855.577	-147
855.666	1153
855.755	489
855.844	227
855.933	-252
856.021	552
856.110	-404
856.199	436
856.288	-213
856.376	633
856.465	-322
856.554	174
856.642	-392
856.731	718
856.819	-60
856.908	624
856.996	477
857.085	118
857.173	-172
857.262	-35
857.350	-284
857.438	792
857.527	29
857.615	781
857.703	-36
857.792	20
857.880	-227
857.968	585
858.056	-377
858.145	510
858.233	11
858.321	117
858.409	-442
858.497	615
858.585	-963
858.673	616
858.761	-724
858.849	460
858.937	141
859.025	564
859.113	-126
859.201	506
859.289	-608
859.377	628
859.465	510
859.552	1105
859.640	-246
859.728	785
859.816	-578
859.903	677
859.991	-651
860.079	-3
860.166	-290
860.254	-44
860.342	-22
860.429	-118
860.517	-362
860.604	130
860.692	-499
860.779	-361
860.867	-237
860.954	84
861.042	284
861.129	393
861.216	-682
861.304	514
861.391	98
861.478	579
861.565	-800
861.653	581
861.740	-517
861.827	441
861.914	-420
862.001	511
862.089	-105
862.176	315
862.263	-127
862.350	828
862.437	-176
862.524	354
862.611	229
862.698	111
862.785	-321
862.871	231
862.958	-649
863.045	-792
863.132	222
863.219	308
863.306	-119
863.392	631
863.479	478
863.566	391
863.652	24
863.739	551
863.826	-471
863.912	492
863.999	-74
864.086	181
864.172	-122
864.259	933
864.345	241
864.432	593
864.518	5
864.604	219
864.691	-811
864.777	1224
864.863	350
864.950	1249
865.036	261
865.122	1255
865.209	1409
865.295	2111
865.381	1056
865.467	1680
865.553	855
865.639	1547
865.726	1724
865.812	3942
865.898	7291
865.984	15060
866.070	22894
866.156	36295
866.242	63604
866.328	27005
866.414	4920
866.499	2914
866.585	1444
866.671	2035
866.757	845
866.843	1738
866.928	543
867.014	827
867.100	550
867.186	1444
867.271	837
867.357	1027
867.442	1488
867.528	2471
867.614	836
867.699	1483
867.785	656
867.870	646
867.956	434
868.041	1502
868.127	218
868.212	1117
868.297	1239
868.383	1620
868.468	1187
868.553	1781
868.639	1793
868.724	2980
868.809	4782
868.894	6406
868.979	1456
869.065	1631
869.150	6
869.235	443
869.320	804
869.405	530
869.490	-507
869.575	581
869.660	503
869.745	146
869.830	175
869.915	806
870.000	-170
870.085	1385
870.169	97
870.254	214
870.339	258
870.424	698
870.509	-19
870.593	905
870.678	599
870.763	599
870.847	4
870.932	791
871.016	712
871.101	859
871.186	149
871.270	662
871.355	692
871.439	877
871.523	-899
871.608	811
871.692	-46
871.777	1005
871.861	284
871.945	788
872.030	229
872.114	616
872.198	259
872.282	983
872.367	237
872.451	565
872.535	117
872.619	-194
872.703	-231
872.787	580
872.871	-889
872.955	709
873.039	-546
873.123	508
873.207	257
873.291	314
873.375	-483
873.459	687
873.543	67
873.627	430
873.711	171
873.794	302
873.878	-314
873.962	770
874.045	-637
874.129	14
874.137	3
874.213	-105
874.245	6
874.296	190
874.352	-417
874.380	-719
874.460	104
874.464	137
874.547	-127
874.568	73
874.631	662
874.676	-26
874.714	-622
874.784	82
874.798	227
874.881	853
874.892	782
874.965	287
874.999	286
875.048	298
875.107	827
875.131	1021
875.215	-605
875.215	-604
875.298	761
875.323	384
875.381	-531
875.430	120
875.465	578
875.538	134
875.548	72
875.631	449
875.646	326
875.714	-264
875.753	-104
875.798	79
875.861	-282
875.881	-384
875.964	188
875.968	190
876.047	103
876.076	155
876.130	409
876.183	9
876.213	-265
876.291	941
876.296	1022
876.379	524
876.398	502
876.462	406
876.506	103
876.545	-164
876.613	603
876.628	787
876.711	-41
876.721	10
876.794	369
876.828	275
876.877	89
876.935	540
876.960	781
877.043	344
877.043	344
877.125	122
877.150	47
877.208	114
877.258	616
877.291	829
877.365	319
877.374	281
877.456	1045
877.472	915
877.539	184
877.579	518
877.622	1022
877.687	586
877.704	446
877.787	599
877.794	572
877.869	320
877.901	465
877.952	583
878.008	536
878.034	578
878.115	970
878.117	976
878.199	67
878.222	151
878.282	492
878.329	265
878.364	67
878.437	991
878.447	1116
878.529	-188
878.544	-55
878.611	689
878.651	617
878.694	495
878.758	312
878.776	259
878.858	298
878.865	329
878.941	679
878.972	564
879.023	412
879.078	433
879.105	424
879.185	137
879.187	133
879.269	589
879.292	570
879.351	571
879.399	769
879.433	874
879.506	141
879.516	74
879.598	742
879.613	708
879.680	432
879.720	614
879.762	901
879.827	796
879.844	685
879.926	964
879.933	854
880.007	316
880.040	671
880.089	919
880.147	450
880.171	356
880.253	1448
880.254	1450
880.335	1918
880.360	2349
880.417	3477
880.467	3682
880.499	4105
880.574	6659
880.580	6840
880.662	10046
880.680	9420
880.744	5433
880.787	2850
880.825	1268
880.893	668
880.907	581
880.989	208
881.000	225
881.070	475
881.106	585
881.152	716
881.213	446
881.233	361
881.315	216
881.319	234
881.396	549
881.426	335
881.478	108
881.532	719
881.559	940
881.639	868
881.641	869
881.722	329
881.745	280
881.803	225
881.852	539
881.885	773
881.958	700
881.966	664
882.047	761
882.064	652
882.129	619
882.171	1108
882.210	1364
882.277	915
882.291	954
882.372	2111
882.383	2131
882.454	1363
882.489	1080
882.535	1072
882.596	887
882.616	754
882.697	753
882.702	712
882.778	404
882.808	544
882.859	694
882.914	652
882.940	739
883.020	1379
883.021	1383
883.102	455
883.127	552
883.183	1025
883.233	861
883.264	681
883.339	835
883.345	839
883.426	95
883.445	103
883.507	391
883.551	254
883.587	96
883.657	428
883.668	521
883.749	572
883.763	689
883.830	1268
883.869	1207
883.910	864
883.975	765
883.991	813
884.072	369
884.081	397
884.152	571
884.187	511
884.233	520
884.292	674
884.314	679
884.394	53
884.398	54
884.475	853
884.504	974
884.555	683
884.610	879
884.636	946
884.716	436
884.716	441
884.797	1334
884.821	1328
884.877	732
884.927	630
884.958	648
885.033	200
885.038	206
885.118	887
885.139	917
885.199	767
885.244	870
885.279	965
885.350	796
885.359	772
885.439	925
885.456	854
885.520	876
885.561	1166
885.600	1247
885.667	1106
885.680	1110
885.760	1098
885.773	1100
885.840	1296
885.878	1410
885.920	1189
885.984	767
886.000	684
886.080	213
886.089	174
886.160	565
886.195	811
886.240	1014
886.300	913
886.320	860
886.400	1159
886.406	1146
886.480	1019
886.511	1097
886.560	1493
886.616	1769
886.640	1701
886.720	1544
886.722	1533
886.800	1493
886.827	1424
886.879	1059
886.932	787
886.959	746
887.038	731
887.039	744
887.119	1244
887.143	1517
887.198	1260
887.248	746
887.278	764
887.354	1124
887.358	1147
887.437	1401
887.459	1472
887.517	1362
887.564	1155
887.596	1041
887.669	1020
887.676	1005
887.755	597
887.774	492
887.835	758
887.880	927
887.914	928
887.985	1113
887.994	1164
888.073	1374
888.090	1441
888.153	1419
888.195	1330
888.232	1349
888.300	1401
888.311	1331
888.391	693
888.405	607
888.470	903
888.510	1003
888.549	1027
888.615	1138
888.628	1163
888.708	1221
888.720	1238
888.787	1025
888.825	829
888.866	868
888.930	975
888.945	970
889.024	910
889.035	904
889.103	1294
889.140	1458
889.182	1501
889.245	1591
889.261	1536
889.340	1221
889.349	1185
889.419	1035
889.454	932
889.498	1271
889.559	1768
889.577	1658
889.656	1137
889.664	1084
889.735	1332
889.768	1439
889.814	1534
889.873	1653
889.978	1093
890.083	1307
890.187	1682
890.292	1706
890.397	1826
890.501	1300
890.606	1158
890.710	1107
890.815	1761
890.919	1553
891.024	1023
891.128	1323
891.233	1442
891.337	1500
891.442	1264
891.546	1657
891.650	884
891.755	528
891.859	1212
891.963	1281
892.068	1313
892.172	1376
892.276	1150
892.380	672
892.484	1519
892.589	1272
892.693	1331
892.797	1311
892.901	1624
893.005	946
893.109	2035
893.213	1510
893.317	872
893.421	817
893.525	1231
893.629	1388
893.733	1395
893.837	1144
893.941	1658
894.045	2027
894.148	597
894.252	738
894.356	1401
894.460	1225
894.564	1841
894.667	342
894.771	1515
894.875	1279
894.978	1639
895.082	901
895.186	1872
895.289	1782
895.393	692
895.496	473
895.600	1428
895.703	791
895.807	887
895.910	1501
896.014	1380
896.117	796
896.221	1310
896.324	885
896.427	951
896.531	639
896.634	1344
896.737	337
896.840	1183
896.944	822
897.047	2130
897.150	851
897.253	1393
897.356	547
897.460	845
897.563	1678
897.666	785
897.769	1078
897.872	1044
897.975	770
898.078	1304
898.181	78
898.284	915
898.387	1150
898.490	1239
898.593	1734
898.695	1151
898.798	260
898.901	899
899.004	987
899.107	968
899.209	989
899.312	2003
899.415	1179
899.518	741
899.620	318
899.723	1106
899.826	1104
899.928	1264
900.031	1646
900.133	1684
900.236	1062
900.338	1064
900.441	531
900.543	1153
900.646	1081
900.748	1371
900.851	826
900.953	1071
901.055	738
901.158	1307
901.260	1201
901.362	604
901.465	1265
901.567	1208
901.669	1768
901.771	1288
901.873	572
901.976	797
902.078	1100
902.180	780
902.282	435
902.384	1236
902.486	1181
902.588	1454
902.690	824
902.792	1829
902.894	1926
902.996	1852
903.098	724
903.200	726
903.302	992
903.404	1659
903.505	891
903.607	786
903.709	997
903.811	1643
903.913	1249
904.014	1467
904.116	795
904.218	1199
904.319	1257
904.421	1612
904.523	1659
904.624	1528
904.726	370
904.827	569
904.929	1093
905.030	494
905.132	1437
905.233	1046
905.335	1024
905.436	930
905.537	1269
905.639	903
905.740	606
905.841	1192
905.943	567
906.044	506
906.145	464
906.247	1570
906.348	751
906.449	1138
906.550	823
906.651	853
906.752	1443
906.854	1117
906.955	827
907.056	1044
907.157	1656
907.258	960
907.359	1425
907.460	1449
907.561	525
907.662	1085
907.762	424
907.863	1345
907.964	1397
908.065	1049
908.166	703
908.267	1112
908.367	691
908.468	775
908.569	1056
908.670	1734
908.770	712
908.871	1282
908.971	1322
909.072	1484
909.173	765
909.273	1257
909.374	60
909.474	1173
909.575	912
909.675	281
909.776	1068
909.876	1008
909.977	268
910.077	1160
910.177	943
910.278	1129
910.378	965
910.478	679
910.579	1963
910.679	1160
910.779	1101
910.879	1529
910.980	1468
911.080	658
911.180	1667
911.280	850
911.380	580
911.480	383
911.580	943
911.680	808
911.780	826
911.880	1187
911.980	1388
912.080	872
912.180	1248
912.280	1876
912.380	438
912.480	1185
912.580	1388
912.679	606
912.779	421
912.879	839
912.979	1125
913.078	972
913.178	1091
913.278	1039
913.377	453
913.477	774
913.577	883
913.676	1746
913.776	894
913.875	1290
913.975	384
914.074	778
914.174	577
914.273	682
914.373	1460
914.472	1300
914.572	-425
914.671	1159
914.770	-15
914.870	1686
914.969	1281
915.068	1447
915.167	830
915.267	1247
915.366	677
915.465	346
915.564	1164
915.663	1023
915.763	955
915.862	1137
915.961	1105
916.060	1389
916.159	705
916.258	1244
916.357	62
916.456	1328
916.555	1021
916.654	901
916.752	604
916.851	951
916.950	1076
917.049	373
917.148	903
917.247	1204
917.345	679
917.444	872
917.543	557
917.642	382
917.740	572
917.839	1166
917.937	632
918.036	1461
918.135	1503
918.233	1444
918.332	533
918.430	849
918.529	748
918.627	225
918.726	420
918.824	2093
918.923	985
919.021	1170
919.119	446
919.218	799
919.316	771
919.414	1064
919.512	579
919.611	1697
919.709	932
919.807	577
919.905	327
920.003	1355
920.102	753
920.200	1073
920.298	414
920.396	2086
920.494	927
920.592	980
920.690	1535
920.788	1122
920.886	698
920.984	1453
921.082	445
921.180	1156
921.277	1130
921.375	1170
921.473	462
921.571	1286
921.669	387
921.766	1186
921.864	1259
921.962	1234
922.060	857
922.157	1751
922.255	967
922.352	720
922.450	1096
922.548	1271
922.645	1161
922.743	1642
922.840	1468
922.938	3051
923.035	2435
923.133	2302
923.230	1544
923.327	2656
923.425	2756
923.522	2639
923.619	3295
923.717	2932
923.814	1988
923.911	2810
924.008	2250
924.106	2913
924.203	1912
924.300	2490
924.397	1716
924.494	2249
924.591	2324
924.688	2260
924.786	1440
924.883	2008
924.979	1494
925.077	2410
925.173	1856
925.270	2332
925.367	1954
925.464	2153
925.561	2597
925.658	1749
925.755	1424
925.852	2696
925.948	3054
926.045	2599
926.142	1549
926.239	2357
926.335	2377
926.432	2144
926.529	1568
926.625	2769
926.722	1971
926.818	2282
926.915	2394
927.011	3242
927.108	1887
927.204	2126
927.301	2233
927.397	1708
927.494	1713
927.590	1989
927.687	2034
927.783	1319
927.879	2164
927.976	2885
928.072	2022
928.168	1687
928.264	2296
928.361	2661
928.457	1923
928.553	2603
928.649	1810
928.745	2404
928.841	2040
928.937	1892
929.033	1554
929.129	2667
929.225	1616
929.321	1540
929.417	1082
929.513	1271
929.609	2452
929.705	1572
929.801	1219
929.897	2356
929.993	1374
930.089	1229
930.184	1212
930.280	2041
930.376	1624
930.471	2415
930.567	2045
930.663	1545
930.758	1456
930.854	2145
930.950	1226
931.045	1766
931.141	1587
931.236	1937
931.332	1873
931.427	1328
931.523	1142
931.618	1979
931.714	1779
931.809	1012
931.905	1403
932.000	1582
932.095	1145
932.191	1096
932.286	1987
932.381	1771
932.476	1422
932.572	1477
932.667	1951
932.762	1277
932.857	1170
932.952	1362
933.047	1714
933.142	1254
933.237	1725
933.332	1373
933.427	988
933.522	2249
933.617	1650
933.712	882
933.807	1806
933.902	2176
933.997	2203
934.092	917
934.187	1116
934.282	761
934.376	2070
934.471	1650
934.566	1077
934.661	1342
934.755	895
934.850	1949
934.945	1410
935.039	1003
935.134	1654
935.228	1196
935.323	1084
935.417	2119
935.512	819
935.606	1170
935.701	1214
935.795	1306
935.890	1684
935.984	1328
936.079	1224
936.173	1553
936.267	657
936.362	888
936.456	1316
936.550	1618
936.644	1111
936.738	1468
936.833	1466
936.927	1196
937.021	623
937.115	2038
937.209	1472
937.303	1568
937.397	1098
937.491	1269
937.585	928
937.679	1856
937.773	1428
937.867	1141
937.961	677
938.055	1250
938.149	1311
938.243	1649
938.337	878
938.430	1040
938.524	996
938.618	1883
938.712	2126
938.805	506
938.899	1173
938.993	1383
939.086	1580
939.180	1296
939.274	1133
939.367	913
939.461	851
939.554	1695
939.648	1529
939.741	1400
939.835	928
939.928	1401
940.022	1850
940.115	1366
940.208	1163
940.302	1140
940.395	833
940.488	1539
940.582	626
940.675	1577
940.768	511
940.861	1416
940.954	1225
941.048	843
941.141	291
941.234	901
941.327	1145
941.420	2269
941.513	1814
941.606	464
941.699	1167
941.792	991
941.885	1800
941.978	1006
942.071	1013
942.164	842
942.257	1335
942.349	1012
942.442	1248
942.535	842
942.628	915
942.721	182
942.813	1401
942.906	1338
942.999	1089
943.091	1110
943.184	1548
943.277	466
943.369	281
943.462	482
943.554	126
943.647	1107
943.739	1171
943.832	1421
943.924	1661
944.017	971
944.109	729
944.201	1638
944.294	1648
944.386	803
944.478	783
944.571	987
944.663	492
944.755	1244
944.847	680
944.940	1431
945.032	992
945.124	-173
945.216	383
945.308	941
945.400	468
945.492	1016
945.584	643
945.676	1458
945.768	690
945.860	1349
945.952	323
946.044	1796
946.136	427
946.228	319
946.320	896
946.412	1404
946.503	984
946.595	1541
946.687	1110
946.779	699
946.870	492
946.962	35
947.054	465
947.145	441
947.237	555
947.329	903
947.420	352
947.512	919
947.603	707
947.695	1362
947.786	-119
947.878	1118
947.969	-480
948.061	1190
948.152	1103
948.243	1214
948.335	215
948.426	51
948.517	140
948.609	1341
948.700	807
948.791	1041
948.882	644
948.973	493
949.065	83
949.156	587
949.247	133
949.338	1158
949.429	40
949.520	818
949.611	757
949.702	432
949.793	411
949.884	51
949.975	257
950.066	593
950.157	98
950.247	748
950.338	1334
950.429	738
950.520	525
950.611	1058
950.701	419
950.792	-63
950.883	712
950.973	-70
951.064	1223
951.155	905
951.245	1171
951.336	991
951.427	510
951.517	613
951.608	262
951.698	106
951.788	1072
951.879	918
951.969	720
952.060	554
952.150	582
952.240	1197
952.331	532
952.421	936
952.511	660
952.602	714
952.692	-66
952.782	396
952.872	583
952.962	53
953.052	-239
953.143	-259
953.233	632
953.323	736
953.413	332
953.503	840
953.593	582
953.683	776
953.773	-194
953.863	580
953.953	841
954.042	522
954.132	-243
954.222	203
954.312	1125
954.402	246
954.492	-6
954.581	-10
954.671	81
954.761	640
954.850	-246
954.940	839
955.030	268
955.119	1182
955.209	356
955.298	627
955.388	594
955.477	468
955.567	-527
955.656	804
955.746	351
955.835	48
955.925	598
956.014	-110
956.103	486
956.193	208
956.282	394
956.371	567
956.461	-318
956.550	621
956.639	-234
956.728	-366
956.817	-75
956.906	136
956.995	589
957.085	968
957.174	-64
957.263	357
957.352	289
957.441	56
957.530	485
957.619	980
957.708	-570
957.796	205
957.885	313
957.974	-237
958.063	-563
958.152	-326
958.241	13
958.329	69
958.418	355
958.507	171
958.596	1204
958.684	44
958.773	331
958.861	926
958.950	-202
959.039	257
959.127	-129
959.216	354
959.304	536
959.393	308
959.481	-187
959.570	245
959.658	-223
959.746	552
959.835	386
959.923	1109
960.011	811
960.100	583
960.188	383
960.276	256
960.365	494
960.453	-112
960.541	214
960.629	-117
960.717	139
960.805	130
960.893	-419
960.981	318
961.069	596
961.158	-46
961.245	-346
961.333	719
961.421	144
961.509	23
961.597	-474
961.685	441
961.773	648
961.861	100
961.949	488
962.036	613
962.124	541
962.212	473
962.299	540
962.387	275
962.475	-329
962.562	283
962.650	-298
962.738	238
962.825	-799
962.913	765
963.000	275
963.088	-103
963.175	-17
963.263	585
963.350	-163
963.438	601
963.525	-310
963.612	735
963.700	708
963.787	2522
963.874	3076
963.962	1555
964.049	142
964.136	25
964.223	-294
964.310	412
964.398	-101
964.485	179
964.572	-360
964.659	361
964.746	629
964.833	891
964.920	-26
965.007	558
965.094	651
965.181	-496
965.268	-449
965.355	26
965.441	80
965.528	774
965.615	820
965.702	618
965.789	330
965.875	-351
965.962	-587
966.049	599
966.136	510
966.222	-208
966.309	491
966.395	-487
966.482	131
966.569	484
966.655	-155
966.742	397
966.828	-488
966.915	91
967.001	-23
967.087	178
967.174	-286
967.260	-63
967.347	-55
967.433	-303
967.519	949
967.605	2392
967.692	925
967.778	171
967.864	28
967.950	375
968.036	-168
968.123	27
968.209	-797
968.295	387
968.381	14
968.467	-239
968.553	-627
968.639	350
968.725	-283
968.811	668
968.897	399
968.983	150
969.069	-80
969.154	212
969.240	-630
969.326	-295
969.412	345
969.497	405
969.583	-355
969.669	-130
969.755	-23
969.840	784
969.926	-744
970.012	333
970.097	267
970.183	279
970.268	-68
970.354	570
970.439	-461
970.525	1236
970.610	187
970.696	1389
970.781	-534
970.866	353
970.952	-941
971.037	-5
971.122	-331
971.208	-609
971.293	-224
971.378	427
971.463	143
971.549	-297
971.634	-89
971.719	31
971.804	-451
971.889	160
971.974	-334
972.059	615
972.144	-570
972.229	-89
972.314	-19
972.399	-306
972.484	346
972.569	-266
972.654	127
972.739	580
972.824	305
972.908	1485
972.993	-35
973.078	284
973.163	-280
973.247	346
973.332	-639
973.417	-191
973.501	-785
973.586	312
973.671	-71
973.755	-269
973.840	-422
973.924	392
974.009	-63
974.093	25
974.178	183
974.262	2
974.346	30
974.431	867
974.515	748
974.600	834
974.684	110
974.768	-62
974.852	48
974.937	275
975.021	-140
975.105	-979
975.189	-72
975.273	9
975.358	-204
975.442	53
975.526	113
975.610	-372
975.694	-291
975.778	-77
975.862	-53
975.946	-131
976.030	52
976.114	-581
976.198	-68
976.281	352
976.365	-603
976.449	-854
976.533	-1116
976.617	-176
976.700	-789
976.784	-167
976.868	-219
976.951	-431
977.035	-780
977.119	565
977.202	-426
977.286	-413
977.369	-885
977.453	-210
977.536	-171
977.620	-112
977.703	-668
977.787	130
977.870	-100
977.953	172
978.037	-432
978.120	274
978.203	-407
978.287	158
978.370	-229
978.453	849
978.536	-974
978.620	97
978.703	-12
978.786	276
978.869	578
978.952	-818
979.035	620
979.118	533
979.201	-283
979.284	-126
979.367	-503
979.450	205
979.533	-147
979.616	-205
979.699	5
979.782	-306
979.865	-63
979.948	-190
980.030	-208
980.113	-646
980.196	-618
980.279	-1132
980.361	-647
980.444	-708
980.526	-1154
980.609	-458
980.692	668
980.774	456
980.857	-937
980.939	-409
981.022	50
981.104	-36
981.187	-49
981.269	276
981.352	-466
981.434	-208
981.516	-511
981.599	25
981.681	-35
981.763	-461
981.846	-619
981.928	313
982.010	-679
982.092	-1014
982.174	-500
982.256	276
982.339	-845
982.421	-289
982.503	-1025
982.585	-244
982.667	-604
982.749	189
982.831	-1143
982.913	155
982.995	-457
983.077	-862
983.158	391
983.240	-247
983.322	-834
983.404	141
983.486	-226
983.568	280
983.649	-793
983.731	-74
983.813	-487
983.894	-623
983.976	-560
984.058	331
984.139	-232
984.221	-901
984.302	-500
984.384	-97
984.465	-378
984.547	2
984.628	-554
984.710	15
984.791	49
984.872	-803
984.954	-643
985.035	206
985.116	-1045
985.198	-86
985.279	-278
985.360	-104
985.441	-367
985.522	50
985.604	-626
985.685	-168
985.766	-451
985.847	-384
985.928	-556
986.009	-167
986.090	234
986.171	-743
986.252	-502
986.333	-318
986.414	242
986.495	57
986.576	-420
986.656	-111
986.737	-923
986.818	-51
986.899	-213
986.980	-85
987.060	-633
987.141	-511
987.222	64
987.302	-296
987.383	-449
987.464	195
987.544	-1080
987.625	192
987.705	487
987.786	-86
987.866	135
987.947	-311
988.027	-134
988.108	-80
988.188	-268
988.268	-343
988.349	-501
988.429	-499
988.509	-683
988.589	157
988.670	-847
988.750	144
988.830	-477
988.910	-162
988.990	508
989.070	-583
989.151	11
989.231	429
989.311	-907
989.391	-153
989.471	-913
989.551	12
989.631	0
989.711	652
989.791	-307
989.870	-457
989.950	260
990.030	-869
990.110	-200
990.190	-1261
990.269	-577
990.349	-534
990.429	-1039
990.509	173
990.588	-799
990.668	-401
990.747	-503
990.827	-876
990.907	-452
990.986	-803
991.066	-401
991.145	-1140
991.225	-1077
991.304	-391
991.383	-1190
991.463	-361
991.542	-790
991.622	-979
991.701	-685
991.780	-76
991.859	-548
991.939	-813
992.018	-49
992.097	-512
992.176	-685
992.256	-68
992.335	-618
992.414	40
992.493	-1077
992.572	-1131
992.651	-630
992.730	-2
992.809	-516
992.888	-42
992.967	-1373
993.046	-658
993.125	-939
993.203	-758
993.282	-618
993.361	-389
993.440	-661
993.519	-216
993.597	-712
993.676	-786
993.755	-1080
993.834	-82
993.912	-427
993.991	-171
994.069	-1203
994.148	-455
994.226	-576
994.305	109
994.384	-1367
994.462	-725
994.540	-678
994.619	-718
994.697	-686
994.776	-272
994.854	-544
994.932	-1089
995.011	-871
995.089	-504
995.167	-772
995.245	-418
995.324	-994
995.402	-635
995.480	-1123
995.558	-610
995.636	-1156
995.714	-1009
995.792	-332
995.870	12
995.948	-1422
996.026	-720
996.104	-1039
996.182	-1017
996.260	-236
996.338	-905
996.416	-928
996.494	-846
996.572	-1227
996.649	-661
996.727	-1110
996.805	-206
996.883	-890
996.960	-671
997.038	-851
997.116	-489
997.193	-738
997.271	-98
997.348	-364
997.426	118
997.504	-949
997.581	-772
997.658	-1218
997.736	-314
997.813	-1676
997.891	-367
997.968	-1177
998.046	-1092
998.123	-1394
998.200	-524
998.277	-1227
998.355	-519
998.432	-1775
998.509	-891
998.586	-1522
998.663	-889
998.741	-1676
998.818	-799
998.895	-1178
998.972	-1285
999.049	-694
999.126	-1082
999.203	-458
999.280	-1268
999.357	-1065
999.434	-709
999.511	-483
999.587	-595
999.664	-1018
999.741	-370
999.818	-870
999.895	-819
999.971	-594
1000.048	-195
1000.125	-734
1000.202	-200
1000.278	-1722
1000.355	-1066
1000.431	-692
1000.508	-653
1000.584	-548
1000.661	-803
1000.738	-1680
1000.814	-1190
1000.890	-1156
1000.967	-422
1001.043	-1582
1001.120	-871
1001.196	-868
1001.272	-1790
1001.349	-1290
1001.425	-595
1001.501	-396
1001.577	-815
1001.654	-471
1001.730	-881
1001.806	-1166
1001.882	-1416
1001.958	-1196
1002.034	-882
1002.110	-985
1002.186	-1091
1002.262	-1015
1002.338	-1309
1002.414	-872
1002.490	-968
1002.566	-2130
1002.642	-1632
1002.718	-1633
1002.794	-1813
1002.870	-1457
1002.945	-1148
1003.021	-1474
1003.097	-815
1003.173	-1713
1003.248	-1097
1003.324	-1343
1003.400	-1481
1003.475	-2138
1003.551	-945
1003.626	-1450
1003.702	-346
1003.777	-872
1003.853	-1537
1003.928	-1054
1004.004	-1478
1004.079	-1208
1004.155	-295
1004.230	-1002
1004.305	-1064
1004.381	-1488
1004.456	-1465
1004.531	-864
1004.607	-961
1004.682	-1210
1004.757	-1716
1004.832	-460
1004.907	-1469
1004.982	-1005
1005.057	-460
1005.133	-1464
1005.208	-1390
1005.283	-854
1005.358	-1330
1005.433	-1370
1005.508	-753
1005.583	-1317
1005.657	-2014
1005.732	-1736
1005.807	-1587
1005.882	-829
1005.957	-978
1006.032	-1582
1006.106	-1437
1006.181	-1497
1006.256	-1641
1006.331	-1290
1006.405	-1028
1006.480	-1350
1006.554	-1753
1006.629	-1868
1006.704	-1422
1006.778	-1392
1006.853	-1545
1006.927	-701
1007.002	-1894
1007.076	-1329
1007.150	-1003
1007.225	-954
1007.299	-508
1007.373	-2032
1007.448	-472
1007.522	-982
1007.596	-1166
1007.671	-1944
1007.745	-1182
1007.819	-2210
1007.893	-1091
1007.967	-878
1008.041	-1377
1008.115	-1574
1008.190	-1183
1008.264	-1367
1008.338	-2102
1008.412	-1372
1008.486	-931
1008.560	-1238
1008.633	-1058
1008.707	-1491
1008.781	-974
1008.855	-1061
1008.929	-1323
1009.003	-1596
1009.076	-824
1009.150	-1531
1009.224	-1558
1009.298	-883
1009.371	-1388
1009.445	-1647
1009.519	-1199
1009.592	-1285
1009.666	-1381
1009.739	-1884
1009.813	-873
1009.886	-1049
1009.960	-1946
1010.033	-1886
1010.107	-1364
1010.180	-1413
1010.253	-888
1010.327	-1491
1010.400	-432
1010.473	-1384
1010.547	-1492
1010.620	-1455
1010.693	-1219
1010.766	-1681
1010.840	-986
1010.913	-1258
1010.986	-1131
1011.059	-1400
1011.132	-1900
1011.205	-1824
1011.278	-1518
1011.351	-1584
1011.424	-630
1011.497	-1967
1011.570	-1308
1011.643	-1130
1011.716	-1543
1011.789	-1648
1011.862	-1438
1011.934	-1566
1012.007	-1651
1012.080	-837
1012.153	-1153
1012.225	-1484
1012.298	-1521
1012.371	-1466
1012.443	-1295
1012.516	-1744
1012.588	-1410
1012.661	-1383
1012.733	-2106
1012.806	-1748
1012.879	-1698
1012.951	-1315
1013.023	-720
1013.096	-1806
1013.168	-906
1013.241	-1949
1013.313	-1576
1013.385	-2129
1013.458	-1148
1013.530	-1044
1013.602	-1731
1013.674	-1010
1013.746	-1131
1013.819	-1900
1013.891	-488
1013.963	-2464
1014.035	-1923
1014.107	-1006
1014.179	-562
1014.251	-1819
1014.323	-1696
1014.395	-1825
1014.467	-1525
1014.539	-1702
1014.611	-1464
1014.683	-1425
1014.754	-883
1014.826	-2602
1014.898	-1794
1014.970	-1768
1015.042	-1307
1015.113	-1161
1015.185	-1246
1015.257	-1755
1015.328	-375
1015.400	-1426
1015.471	-1074
1015.543	-1708
1015.615	-929
1015.686	-1999
1015.757	-1744
1015.829	-653
1015.901	-1420
1015.972	-1714
1016.043	-1830
1016.115	-1291
1016.186	-1119
1016.257	-1713
1016.328	-1115
1016.400	-1273
1016.471	-1799
1016.542	-994
1016.613	-1941
1016.685	-1826
1016.756	-1428
1016.827	-1937
1016.898	-2114
1016.969	-841
1017.040	-1463
1017.111	-1946
1017.182	-1993
1017.253	-1818
1017.324	-1184
1017.395	-1667
1017.466	-533
1017.537	-1199
1017.608	-1725
1017.678	-1954
1017.749	-2037
1017.820	-1140
1017.891	-1778
1017.961	-1735
1018.032	-1114
1018.103	-888
1018.173	-1242
1018.244	-2328
1018.315	-2138
1018.385	-1445
1018.456	-1896
1018.526	-1532
1018.597	-1708
1018.667	-1817
1018.738	-1248
1018.808	-1620
1018.878	-1696
1018.949	-2363
1019.019	-2005
1019.089	-2550
1019.160	-1522
1019.230	-1484
1019.300	-1146
1019.371	-2096
1019.441	-862
1019.511	-1619
1019.581	-1324
1019.651	-1709
1019.721	-1145
1019.791	-1533
1019.861	-1668
1019.931	-1406
1020.001	-1292
1020.071	-971
1020.141	-1671
1020.211	-1416
1020.281	-1304
1020.351	-1343
1020.421	-919
1020.491	-1196
1020.560	-1323
1020.630	-951
1020.700	-1273
1020.770	-1548
1020.839	-1774
1020.909	-1429
1020.979	-1574
1021.048	-1372
1021.118	-1178
1021.187	-1726
1021.257	-1756
1021.326	-1772
1021.396	-1669
1021.465	-1340
1021.535	-1425
1021.604	-1958
1021.674	-2141
1021.743	-1379
1021.812	-1965
1021.882	-1861
1021.951	-2095
1022.020	-2057
1022.089	-1536
1022.159	-1737
1022.228	-1065
1022.297	-1508
1022.366	-2083
1022.435	-1609
1022.504	-708
1022.573	-2535
1022.642	-1143
1022.711	-2467
1022.781	-1598
1022.849	-1821
1022.918	-1913
1022.987	-1227
1023.056	-815
1023.125	-2428
1023.194	-1529
1023.263	-1347
1023.331	-1289
1023.400	-1457
1023.469	-1000
1023.538	-1775
1023.606	-1015
1023.675	-2301
1023.744	-1124
1023.812	-2595
1023.881	-1612
1023.949	-1899
1024.018	-1292
1024.086	-1523
1024.155	-994
1024.223	-1934
1024.292	-1043
1024.360	-1939
1024.429	-1336
1024.497	-2138
1024.565	-1224
1024.634	-1184
1024.702	-1524
1024.770	-1643
1024.838	-1961
1024.907	-1879
1024.975	-1477
1025.043	-1511
1025.111	-1610
1025.179	-1720
1025.247	-1111
1025.315	-1957
1025.383	-1989
1025.451	-1938
1025.519	-1397
1025.587	-2794
1025.655	-611
1025.723	-1733
1025.791	-1720
1025.859	-1342
1025.927	-1036
1025.995	-2662
1026.062	-1335
1026.130	-1365
1026.198	-1930
1026.266	-1704
1026.333	-995
1026.401	-1758
1026.469	-928
1026.536	-1241
1026.604	-1543
1026.671	-2044
1026.739	-1466
1026.806	-1432
1026.874	-1309
1026.941	-1736
1027.009	-1814
1027.076	-1976
1027.144	-1439
1027.211	-1943
1027.278	-1806
1027.345	-2264
1027.413	-1045
1027.480	-1845
1027.547	-1663
1027.614	-1970
1027.682	-1398
1027.749	-1636
1027.816	-1542
1027.883	-1177
1027.950	-1052
1028.017	-1941
1028.084	-1177
1028.151	-1453
1028.218	-2033
1028.285	-1606
1028.352	-1035
1028.419	-1553
1028.486	-1096
1028.553	-1860
1028.619	-2017
1028.686	-2556
1028.753	-1408
1028.820	-1884
1028.886	-1484
1028.953	-1472
1029.020	-1465
1029.086	-2086
1029.153	-1201
1029.220	-1408
1029.286	-1800
1029.353	-1642
1029.419	-2182
1029.486	-1660
1029.552	-1336
1029.619	-1572
1029.685	-1816
1029.751	-1900
1029.818	-1294
1029.884	-2055
1029.951	-1024
1030.017	-1808
1030.083	-1764
1030.149	-1651
1030.216	-2320
1030.282	-2268
1030.348	-1376
1030.414	-2289
1030.480	-1211
1030.546	-2299
1030.612	-1549
1030.678	-1758
1030.744	-1184
1030.810	-1634
1030.876	-1738
1030.942	-1643
1031.008	-1650
1031.074	-2217
1031.140	-1414
1031.206	-1241
1031.272	-1378
1031.337	-2272
1031.403	-1282
1031.469	-2607
1031.534	-1211
1031.600	-1784
1031.666	-2120
1031.731	-2517
1031.797	-1363
1031.863	-1594
1031.928	-1439
1031.994	-2738
1032.059	-1656
1032.125	-2068
1032.190	-1421
1032.256	-1688
1032.321	-1994
1032.386	-2242
1032.452	-1768
1032.517	-1774
1032.582	-1281
1032.647	-1852
1032.713	-1311
1032.778	-1927
1032.843	-1457
1032.908	-2192
1032.974	-1923
1033.039	-1979
1033.104	-1567
1033.169	-2173
1033.234	-1225
1033.299	-2039
1033.364	-1412
1033.429	-1538
1033.494	-1454
1033.559	-2000
1033.624	-1133
1033.688	-2045
1033.753	-1548
1033.818	-930
1033.883	-2820
1033.948	-2077
1034.013	-791
1034.077	-1759
1034.142	-1089
1034.207	-1997
1034.271	-1715
1034.336	-874
1034.400	-1136
1034.465	-751
1034.530	-855
1034.594	-1837
1034.658	-1166
1034.723	-1649
1034.787	-1587
1034.852	-1798
1034.916	-1971
1034.981	-2133
1035.045	-975
1035.109	-2496
1035.173	-1258
1035.238	-1692
1035.302	-1135
1035.366	-1446
1035.430	-1549
1035.495	-1808
1035.559	-1644
1035.623	-1541
1035.687	-1994
1035.751	-2066
1035.815	-1419
1035.879	-2067
1035.943	-2123
1036.007	-2094
1036.071	-1281
1036.135	-1959
1036.198	-1934
1036.262	-2347
1036.326	-1444
1036.390	-2581
1036.454	-1223
1036.517	-1488
1036.581	-1313
1036.645	-1556
1036.709	-1121
1036.772	-1957
1036.836	-1085
1036.900	-1946
1036.963	-2054
1037.026	-1519
1037.090	-1880
1037.154	-1565
1037.217	-2070
1037.280	-1068
1037.344	-1815
1037.407	-2056
1037.471	-1768
1037.534	-1751
1037.597	-2048
1037.661	-2271
1037.724	-1649
1037.787	-1530
1037.850	-1668
1037.913	-2273
1037.977	-1936
1038.040	-1902
1038.103	-1259
1038.166	-2145
1038.229	-2027
1038.292	-1884
1038.355	-2181
1038.418	-1717
1038.481	-1304
1038.544	-1352
1038.607	-1177
1038.670	-2263
1038.732	-2236
1038.795	-2109
1038.858	-1694
1038.921	-1777
1038.984	-1524
1039.046	-826
1039.109	-1826
1039.172	-1495
1039.234	-1615
1039.297	-1615
1039.360	-1698
1039.422	-1489
1039.485	-1626
1039.547	-1646
1039.610	-1797
1039.672	-2308
1039.734	-2142
1039.797	-2507
1039.859	-2012
1039.922	-1366
1039.984	-1530
1040.046	-1462
1040.109	-2182
1040.171	-2157
1040.233	-2183
1040.295	-2530
1040.358	-2257
1040.420	-1809
1040.482	-1863
1040.544	-1950
1040.606	-1721
1040.668	-1248
1040.730	-1651
1040.792	-1047
1040.854	-1555
1040.916	-2553
1040.978	-2100
1041.040	-1569
1041.102	-1840
1041.164	-2351
1041.225	-1624
1041.287	-2507
1041.349	-1893
1041.411	-2361
1041.472	-942
1041.534	-944
1041.596	-1143
1041.657	-1637
1041.719	-2208
1041.781	-1963
1041.842	-1829
1041.904	-2024
1041.965	-1794
1042.027	-1014
1042.088	-1563
1042.150	-1871
1042.211	-1497
1042.272	-2711
1042.334	-1563
1042.395	-2187
1042.456	-1501
1042.518	-2698
1042.579	-761
1042.640	-1240
1042.701	-2068
1042.763	-2128
1042.824	-1035
1042.885	-1686
1042.946	-2410
1043.007	-1282
1043.068	-1646
1043.129	-1203
1043.190	-1626
1043.251	-1397
1043.312	-1593
1043.373	-1560
1043.434	-1503
1043.495	-1718
1043.556	-1373
1043.616	-2295
1043.677	-1788
1043.738	-1317
1043.799	-1722
1043.859	-1458
1043.920	-1808
1043.981	-1798
1044.041	-324
1044.102	-1668
1044.162	-1667
1044.223	-1447
1044.284	-1954
1044.344	-1738
1044.405	-1350
1044.465	-1598
1044.525	-818
1044.586	-1654
1044.646	-1470
1044.707	-919
1044.767	-1908
1044.827	-1734
1044.887	-1093
1044.948	-1263
1045.008	-1126
1045.068	-1547
1045.128	-1437
1045.188	-1683
1045.249	-1365
1045.309	-1511
1045.369	-1378
1045.429	-1397
1045.489	-1371
1045.549	-1994
1045.609	-1306
1045.669	-1542
1045.729	-1717
1045.789	-1199
1045.848	-1638
1045.908	-1365
1045.968	-1468
1046.028	-1008
1046.088	-806
1046.147	-1365
1046.207	-1090
1046.267	-1146
1046.326	-1460
1046.386	-1305
1046.446	-1312
1046.505	-932
1046.565	-646
1046.624	-1401
1046.684	-1023
1046.743	-491
1046.803	-578
1046.862	-1255
1046.922	0
