'Start Wavelength	183.907
'End Wavelength	1046.922
'Gate Delay	5.000
'Gate Width (ms)	1.050
'Laser Output Level	0.000
'X Position	0.000
'Y Position	0.000
'Z Position	0.000
'Grid Point Number	1.000
'Shot Number	100.000
183.907	656.000
183.977	229.000
184.047	573
184.116	608
184.186	104
184.256	279
184.325	42
184.395	196
184.465	37
184.534	413
184.604	661
184.674	331
184.743	259
184.813	152
184.883	331
184.952	285
185.022	-405
185.092	737
185.161	477
185.231	849
185.301	923
185.370	569
185.440	-291
185.509	849
185.579	433
185.649	513
185.718	448
185.788	279
185.857	153
185.927	495
185.996	323
186.066	750
186.136	458
186.205	345
186.275	633
186.344	248
186.414	-1
186.483	1161
186.553	1274
186.622	1137
186.692	305
186.761	607
186.831	355
186.900	563
186.970	209
187.039	661
187.109	1405
187.178	343
187.248	904
187.317	425
187.387	117
187.456	308
187.526	1111
187.595	68
187.664	-222
187.734	745
187.803	344
187.873	481
187.942	551
188.012	945
188.081	829
188.150	385
188.220	1019
188.289	1090
188.358	123
188.428	349
188.497	391
188.567	329
188.636	463
188.705	469
188.775	316
188.844	919
188.913	1251
188.983	525
189.052	165
189.121	1074
189.191	-227
189.260	1359
189.329	929
189.399	510
189.468	-339
189.537	600
189.606	777
189.676	1207
189.745	1403
189.814	900
189.883	553
189.953	987
190.022	1016
190.091	2801
190.161	1807
190.230	1187
190.299	990
190.368	1187
190.437	673
190.507	1040
190.576	-99
190.645	712
190.714	725
190.783	1019
190.853	410
190.922	1204
190.991	321
191.060	1506
191.129	322
191.198	385
191.268	158
191.337	456
191.406	291
191.475	647
191.544	373
191.613	657
191.682	-315
191.752	546
191.821	182
191.890	345
191.959	413
192.028	541
192.097	391
192.166	938
192.235	448
192.304	1407
192.373	39
192.442	1164
192.511	917
192.580	1009
192.650	491
192.719	1115
192.788	283
192.857	625
192.926	487
192.995	420
193.064	2024
193.133	1969
193.202	1997
193.271	1608
193.340	1172
193.409	1589
193.478	1278
193.547	2422
193.615	2997
193.684	3028
193.753	1698
193.822	1079
193.891	816
193.960	1081
194.029	77
194.098	1333
194.167	1268
194.236	915
194.305	753
194.374	983
194.443	327
194.512	1192
194.580	1316
194.649	1503
194.718	1618
194.787	1083
194.856	440
194.925	1015
194.994	563
195.062	1083
195.131	1507
195.200	1831
195.269	1643
195.338	1249
195.407	237
195.475	1260
195.544	1751
195.613	1082
195.682	96
195.751	927
195.819	645
195.888	944
195.957	2351
196.026	1366
196.094	1108
196.163	1419
196.232	1639
196.301	1816
196.369	1298
196.438	1048
196.507	1657
196.576	942
196.644	919
196.713	1279
196.782	567
196.850	1655
196.919	901
196.988	1320
197.056	737
197.125	1076
197.194	823
197.262	-223
197.331	282
197.400	1121
197.468	957
197.537	1512
197.606	807
197.674	1995
197.743	2362
197.812	1177
197.880	2848
197.949	1526
198.017	2840
198.086	1993
198.155	900
198.223	1595
198.292	3190
198.360	1261
198.429	711
198.497	1272
198.566	3019
198.635	2852
198.703	1156
198.772	1727
198.840	4975
198.909	2723
198.977	1547
199.046	2191
199.114	1339
199.183	1743
199.251	1545
199.320	853
199.388	904
199.457	1149
199.525	672
199.594	1174
199.662	975
199.731	1446
199.799	1434
199.867	2120
199.936	1059
200.004	1119
200.073	949
200.141	738
200.210	249
200.278	1143
200.346	1070
200.415	2530
200.483	1541
200.552	1789
200.620	1775
200.688	1417
200.757	875
200.825	937
200.893	780
200.962	757
201.030	540
201.098	897
201.167	1421
201.235	1587
201.303	1609
201.372	1454
201.440	342
201.508	2310
201.577	1928
201.645	1490
201.713	1093
201.781	1471
201.850	1173
201.918	2468
201.986	635
202.055	2148
202.123	814
202.191	1309
202.259	617
202.327	1025
202.396	770
202.464	1211
202.532	2074
202.600	4540
202.669	2381
202.737	1534
202.805	579
202.873	1076
202.941	1394
203.009	1390
203.078	1171
203.146	963
203.214	418
203.282	1040
203.350	1320
203.418	1616
203.487	873
203.555	1216
203.623	1525
203.691	1501
203.759	828
203.827	1034
203.895	1564
203.963	1303
204.031	864
204.099	1681
204.168	1415
204.236	1835
204.304	1380
204.372	1438
204.440	1435
204.508	676
204.576	978
204.644	1256
204.712	917
204.780	1822
204.848	1264
204.916	1739
204.984	1560
205.052	1817
205.120	2210
205.188	1715
205.256	925
205.324	1170
205.392	1480
205.460	1980
205.528	1639
205.596	1870
205.664	1389
205.732	1964
205.799	5676
205.867	6136
205.935	2201
206.003	1827
206.071	1451
206.139	1740
206.207	1474
206.275	2065
206.343	1173
206.411	1805
206.478	1487
206.546	2124
206.614	1356
206.682	1844
206.750	2303
206.818	2687
206.885	1486
206.953	1224
207.021	2146
207.089	1933
207.157	904
207.225	1768
207.292	1343
207.360	2016
207.428	2328
207.496	1820
207.563	1196
207.631	2200
207.699	1348
207.767	1875
207.834	1446
207.902	2280
207.970	1429
208.038	1048
208.105	1206
208.173	1906
208.241	2360
208.309	3194
208.376	2491
208.444	4430
208.512	2552
208.579	1886
208.647	2361
208.715	1881
208.782	1819
208.850	2257
208.918	1791
208.985	3014
209.053	2125
209.120	2167
209.188	2139
209.256	1732
209.323	2957
209.391	2283
209.459	2387
209.526	2769
209.594	2099
209.661	2012
209.729	2007
209.796	2165
209.864	2236
209.932	1921
209.999	2259
210.067	3296
210.134	1900
210.202	2420
210.269	2856
210.337	2725
210.404	1419
210.472	2598
210.539	1805
210.607	2707
210.674	3150
210.742	2554
210.809	1835
210.877	2851
210.944	2532
211.012	2577
211.079	2645
211.146	2186
211.214	2371
211.281	4109
211.349	3217
211.416	2747
211.484	2461
211.551	2321
211.618	2954
211.686	3042
211.753	1187
211.821	2960
211.888	2480
211.955	1827
212.023	2601
212.090	2699
212.157	3107
212.225	3648
212.292	5211
212.359	10630
212.427	18381
212.494	7329
212.561	3295
212.629	3235
212.696	2935
212.763	3223
212.831	2224
212.898	2673
212.965	2259
213.032	2781
213.100	2206
213.167	3132
213.234	2849
213.301	3031
213.369	3215
213.436	3175
213.503	2584
213.570	3094
213.638	2349
213.705	2376
213.772	1089
213.839	3876
213.906	3062
213.973	3809
214.041	2580
214.108	2929
214.175	2277
214.242	3323
214.309	2284
214.376	3089
214.444	2691
214.511	3190
214.578	2526
214.645	3490
214.712	3041
214.779	3888
214.846	3290
214.913	3735
214.980	4056
215.048	4316
215.115	4641
215.182	4221
215.249	3064
215.316	3078
215.383	2445
215.450	2659
215.517	2195
215.584	2806
215.651	2779
215.718	2440
215.785	3426
215.852	2921
215.919	3683
215.986	3455
216.053	2696
216.120	3094
216.187	3214
216.254	2497
216.321	3123
216.388	3391
216.455	3273
216.522	3199
216.589	4021
216.656	6542
216.722	4801
216.789	4520
216.856	4469
216.923	4290
216.990	3008
217.057	3988
217.124	4713
217.191	4554
217.258	5293
217.324	6743
217.391	6054
217.458	5388
217.525	3724
217.592	4182
217.659	3628
217.725	3486
217.792	4784
217.859	4580
217.926	1817
217.993	2177
218.059	3377
218.126	2888
218.193	2429
218.260	2108
218.327	1606
218.393	2642
218.460	1831
218.527	1790
218.594	2858
218.660	4513
218.727	4022
218.794	2077
218.860	2937
218.927	2608
218.994	1300
219.061	2521
219.127	2801
219.194	3635
219.261	2319
219.327	2647
219.394	2280
219.461	2422
219.527	2092
219.594	2928
219.661	2447
219.727	2174
219.794	1791
219.860	2260
219.927	2238
219.994	4961
220.060	6063
220.127	4023
220.193	3803
220.260	4094
220.326	4503
220.393	8921
220.460	9830
220.526	6697
220.593	3804
220.659	4564
220.726	5367
220.792	11353
220.859	9478
220.925	14062
220.992	15230
221.058	15533
221.125	12656
221.191	9343
221.258	4484
221.324	4054
221.391	3631
221.457	3183
221.524	2796
221.590	4780
221.657	12205
221.723	7038
221.789	7799
221.856	6421
221.922	4051
221.989	3165
222.055	2722
222.121	3553
222.188	4153
222.254	2430
222.321	2341
222.387	2404
222.453	2098
222.520	1972
222.586	2029
222.652	3068
222.719	2156
222.785	3053
222.851	1767
222.918	2236
222.984	1619
223.050	2446
223.116	2171
223.183	2877
223.249	1434
223.315	1895
223.382	1910
223.448	1977
223.514	1322
223.580	1915
223.647	1935
223.713	2217
223.779	2091
223.845	1874
223.911	1619
223.978	1736
224.044	1940
224.110	1499
224.176	1573
224.242	1811
224.309	1204
224.375	1935
224.441	1969
224.507	1036
224.573	1666
224.639	2315
224.705	1001
224.772	2719
224.838	1940
224.904	2948
224.970	1426
225.036	1874
225.102	2035
225.168	2466
225.234	2493
225.300	2924
225.366	2261
225.432	1570
225.499	2403
225.565	2567
225.631	2506
225.697	2704
225.763	3552
225.829	3671
225.895	3771
225.961	5559
226.027	4214
226.093	4509
226.159	4722
226.225	7676
226.291	19242
226.357	22180
226.423	11350
226.489	7651
226.554	5032
226.620	4979
226.686	6236
226.752	10166
226.818	17070
226.884	31552
226.950	21656
227.016	10311
227.082	5933
227.148	6234
227.214	4770
227.279	4348
227.345	4224
227.411	3756
227.477	4800
227.543	9487
227.609	7962
227.674	4677
227.740	3250
227.806	2933
227.872	3065
227.938	3972
228.003	4875
228.069	2900
228.135	2612
228.201	2327
228.267	2288
228.332	3595
228.398	4295
228.464	3172
228.530	1002
228.595	2395
228.661	1816
228.727	4344
228.792	3273
228.858	2105
228.924	3265
228.990	3560
229.055	3217
229.121	4020
229.187	2222
229.252	2878
229.318	2015
229.384	2919
229.449	2645
229.515	1958
229.581	933
229.646	3069
229.712	3381
229.777	6330
229.843	4791
229.909	4669
229.974	4456
230.040	4363
230.105	3513
230.171	4491
230.236	5931
230.302	8618
230.368	4984
230.433	3260
230.499	3073
230.564	4354
230.630	3433
230.695	2962
230.761	2198
230.826	2050
230.892	4572
230.957	3710
231.023	2613
231.088	2555
231.154	2680
231.219	3030
231.284	4453
231.350	3667
231.415	3043
231.481	2471
231.546	2449
231.612	3326
231.677	2577
231.742	2902
231.808	1942
231.873	2422
231.939	2464
232.004	5383
232.069	3602
232.135	3438
232.200	2093
232.265	2058
232.331	2029
232.396	1541
232.461	1412
232.527	2360
232.592	1369
232.657	3162
232.723	6195
232.788	2718
232.853	2168
232.918	2009
232.984	2153
233.049	1966
233.114	5747
233.179	4484
233.245	9005
233.310	7094
233.375	2097
233.440	3040
233.506	1887
233.571	2423
233.636	1939
233.701	2611
233.766	6668
233.832	5461
233.897	3599
233.962	3754
234.027	3495
234.092	3859
234.157	3394
234.222	3410
234.288	7063
234.353	17173
234.418	13110
234.483	6567
234.548	5025
234.613	4208
234.678	4020
234.743	6684
234.808	18514
234.873	8070
234.938	4572
235.004	3443
235.069	3774
235.134	3149
235.199	2464
235.264	3005
235.329	2547
235.394	3103
235.459	4765
235.524	4443
235.589	3469
235.654	2730
235.719	1617
235.784	2776
235.849	4303
235.913	9457
235.978	12071
236.043	9117
236.108	4150
236.173	5010
236.238	3955
236.303	3121
236.368	3333
236.433	8542
236.498	9739
236.563	6346
236.627	15898
236.692	41278
236.757	24447
236.822	12406
236.887	9557
236.952	7907
237.017	6365
237.081	7128
237.146	9631
237.211	19112
237.276	43512
237.341	52327
237.405	24214
237.470	12107
237.535	8526
237.600	6456
237.664	4747
237.729	4944
237.794	7506
237.859	11692
237.923	9031
237.988	5430
238.053	8447
238.118	8770
238.182	24760
238.247	14623
238.312	9738
238.376	6905
238.441	5094
238.506	5024
238.570	2211
238.635	3646
238.700	3189
238.764	2931
238.829	12549
238.893	10440
238.958	5638
239.023	4659
239.087	3497
239.152	3895
239.216	2441
239.281	2734
239.346	2866
239.410	3277
239.475	5492
239.539	24920
239.604	11215
239.668	4603
239.733	3285
239.797	7162
239.862	15708
239.926	17897
239.991	5845
240.055	3821
240.120	3946
240.184	3641
240.249	2768
240.313	3386
240.378	3188
240.442	16579
240.507	15724
240.571	6202
240.635	12397
240.700	10104
240.764	3958
240.829	3103
240.893	2357
240.957	3521
241.022	15965
241.086	19272
241.151	7284
241.215	2928
241.279	7804
241.344	9677
241.408	4264
241.472	4002
241.537	4242
241.601	4301
241.665	2546
241.730	3645
241.794	4180
241.858	3768
241.922	3837
241.987	3209
242.051	2863
242.115	3005
242.179	3213
242.244	2453
242.308	3832
242.372	5016
242.436	4971
242.501	4162
242.565	3590
242.629	3138
242.693	3277
242.757	2922
242.822	2887
242.886	3589
242.950	3560
243.014	4062
243.078	3711
243.142	4500
243.206	3496
243.271	4309
243.335	3723
243.399	6886
243.463	33934
243.527	51107
243.591	14779
243.655	7195
243.719	4152
243.783	6288
243.847	10017
243.911	11719
243.975	14161
244.040	7682
244.104	4316
244.168	4469
244.232	7672
244.296	9431
244.360	9167
244.424	6252
244.488	4331
244.552	4973
244.615	2895
244.679	3877
244.743	5792
244.807	3385
244.871	3500
244.935	3407
244.999	2846
245.063	3502
245.127	3834
245.191	8174
245.255	5989
245.319	6104
245.383	4406
245.446	4288
245.510	2332
245.574	4551
245.638	4445
245.702	5408
245.766	9773
245.829	5425
245.893	5261
245.957	4267
246.021	4504
246.085	4387
246.149	7082
246.212	14877
246.276	15620
246.340	8668
246.404	6360
246.467	7887
246.531	8474
246.595	7189
246.659	5338
246.722	6037
246.786	6769
246.850	9006
246.913	7707
246.977	4836
247.041	4592
247.104	4491
247.168	5075
247.232	14915
247.295	22464
247.359	9889
247.423	6798
247.486	10067
247.550	5804
247.614	5668
247.677	6466
247.741	4889
247.804	4450
247.868	5522
247.932	14481
247.995	18958
248.059	7238
248.122	4746
248.186	6761
248.249	14057
248.313	40615
248.376	31422
248.440	19955
248.503	8333
248.567	8550
248.630	12702
248.694	16576
248.757	22355
248.821	36100
248.884	20486
248.948	24760
249.011	30587
249.075	46034
249.138	31274
249.202	14209
249.265	11627
249.328	15415
249.392	9015
249.455	6579
249.519	6286
249.582	8994
249.645	14170
249.709	9308
249.772	8296
249.835	6177
249.899	8631
249.962	6723
250.025	6142
250.089	18118
250.152	17380
250.215	9773
250.279	7801
250.342	8778
250.405	7566
250.468	6239
250.532	10001
250.595	16047
250.658	70282
250.721	67968
250.785	27395
250.848	13807
250.911	8346
250.974	8358
251.038	15486
251.101	21059
251.164	13945
251.227	13750
251.290	12208
251.354	22444
251.417	86074
251.480	54512
251.543	60990
251.606	135248
251.669	75252
251.732	34055
251.795	35716
251.859	41599
251.922	83350
251.985	35072
252.048	17102
252.111	12056
252.174	12787
252.237	27810
252.300	43109
252.363	67684
252.426	92558
252.489	36520
252.552	22862
252.615	15465
252.678	17544
252.741	36748
252.804	62869
252.867	100067
252.930	55143
252.993	28745
253.056	19219
253.119	13002
253.182	12655
253.245	21760
253.308	15400
253.371	16503
253.434	14056
253.497	13097
253.559	22852
253.622	15193
253.685	27082
253.748	18302
253.811	10949
253.874	16986
253.937	11981
254.000	9346
254.062	19747
254.125	21559
254.188	25605
254.251	15362
254.314	10404
254.376	21125
254.439	18553
254.502	16120
254.565	20387
254.628	25308
254.690	16971
254.753	10265
254.816	9355
254.878	10250
254.941	20234
255.004	13924
255.067	9668
255.129	7787
255.192	5917
255.255	4529
255.317	5234
255.380	3210
255.443	3372
255.505	3509
255.568	4006
255.631	3930
255.693	4690
255.756	3203
255.819	4578
255.881	3621
255.944	3339
256.006	4092
256.069	3810
256.132	2995
256.194	8266
256.257	18772
256.319	14580
256.382	10634
256.444	6193
256.507	4312
256.569	4374
256.632	4442
256.694	9656
256.757	30926
256.819	54054
256.882	19084
256.944	10013
257.007	8783
257.069	9044
257.132	5906
257.194	5061
257.257	5224
257.319	5605
257.381	5775
257.444	21300
257.506	78351
257.569	64925
257.631	37357
257.693	18018
257.756	9971
257.818	9216
257.880	4911
257.943	4931
258.005	4556
258.067	4237
258.130	4527
258.192	8387
258.254	14623
258.317	6534
258.379	5626
258.441	17215
258.503	9910
258.566	27757
258.628	19881
258.690	5474
258.753	7269
258.815	11667
258.877	6403
258.939	4645
259.001	4610
259.064	4688
259.126	8231
259.188	8600
259.250	6866
259.312	9989
259.375	23923
259.437	10427
259.499	4653
259.561	5484
259.623	4741
259.685	4482
259.747	4764
259.809	27721
259.872	31547
259.934	64780
259.996	33395
260.058	10745
260.120	5607
260.182	4641
260.244	3616
260.306	2867
260.368	4342
260.430	4232
260.492	11579
260.554	22781
260.616	12387
260.678	34929
260.740	28860
260.802	8640
260.864	7115
260.926	5310
260.988	4799
261.050	5778
261.112	16349
261.174	44525
261.236	20242
261.298	9107
261.359	23621
261.421	18729
261.483	5528
261.545	5025
261.607	2574
261.669	4313
261.731	16942
261.793	24121
261.854	8099
261.916	7504
261.978	6018
262.040	5881
262.102	4944
262.164	12600
262.225	6769
262.287	5915
262.349	13908
262.411	7068
262.472	3992
262.534	17711
262.596	19977
262.658	6729
262.719	4019
262.781	10648
262.843	23270
262.904	8127
262.966	7110
263.028	8742
263.090	66142
263.151	86860
263.213	26847
263.275	15271
263.336	7432
263.398	4655
263.459	3405
263.521	5215
263.583	12311
263.644	6482
263.706	3741
263.767	3152
263.829	2908
263.891	3028
263.952	2400
264.014	2116
264.075	8385
264.137	13208
264.198	5630
264.260	1827
264.321	2299
264.383	13353
264.444	19580
264.506	6211
264.567	3346
264.629	11760
264.690	14945
264.752	6151
264.813	3595
264.875	2796
264.936	4065
264.998	2950
265.059	2095
265.120	3582
265.182	7311
265.243	39854
265.305	21549
265.366	5931
265.427	4604
265.489	4115
265.550	2235
265.611	5047
265.673	3000
265.734	3184
265.795	2582
265.857	2309
265.918	3046
265.979	11821
266.040	59483
266.102	28718
266.163	10792
266.224	9048
266.286	5067
266.347	2904
266.408	3200
266.469	4670
266.530	2742
266.592	3266
266.653	10946
266.714	11183
266.775	3399
266.836	2875
266.898	2815
266.959	6714
267.020	3470
267.081	4022
267.142	2116
267.203	2940
267.264	2233
267.326	4296
267.387	2269
267.448	2001
267.509	2638
267.570	2904
267.631	1890
267.692	1903
267.753	3323
267.814	1984
267.875	10029
267.936	13851
267.997	8061
268.058	6720
268.119	3852
268.180	3524
268.241	2159
268.302	3296
268.363	2584
268.424	3256
268.485	3329
268.546	2073
268.607	1504
268.668	1763
268.729	2132
268.790	3199
268.851	3233
268.912	12650
268.972	9760
269.033	5834
269.094	2390
269.155	2849
269.216	2353
269.277	3211
269.338	2432
269.398	3248
269.459	3522
269.520	5392
269.581	7766
269.642	8311
269.702	5317
269.763	3978
269.824	3010
269.885	6462
269.945	6799
270.006	3287
270.067	1978
270.128	3072
270.188	2351
270.249	2577
270.310	1326
270.370	3504
270.431	2823
270.492	2428
270.553	3230
270.613	9862
270.674	14434
270.734	4834
270.795	4072
270.856	6759
270.916	4253
270.977	3026
271.038	4268
271.098	5255
271.159	9336
271.219	6144
271.280	2548
271.340	2816
271.401	6479
271.462	13144
271.522	5701
271.583	3764
271.643	4087
271.704	3174
271.764	4397
271.825	13539
271.885	43423
271.946	35054
272.006	13071
272.066	27563
272.127	27811
272.187	9670
272.248	5198
272.308	8253
272.369	24094
272.429	10115
272.489	13799
272.550	9823
272.610	13334
272.671	7065
272.731	13554
272.791	15587
272.852	6872
272.912	6960
272.972	3748
273.033	4868
273.093	8724
273.153	6783
273.214	4216
273.274	5082
273.334	27361
273.394	30511
273.455	13034
273.515	20016
273.575	29308
273.635	12255
273.696	25923
273.756	31068
273.816	11541
273.876	8576
273.936	34440
273.997	32427
274.057	8006
274.117	7218
274.177	12956
274.237	50157
274.297	33498
274.358	30539
274.418	29665
274.478	17376
274.538	7339
274.598	10905
274.658	41655
274.718	38800
274.778	12275
274.838	6894
274.898	32126
274.958	57150
275.018	37610
275.078	18327
275.138	9085
275.198	4938
275.258	4381
275.318	7571
275.378	13377
275.438	11475
275.498	8330
275.558	38042
275.618	45137
275.678	20746
275.738	17731
275.798	10631
275.858	5277
275.918	3361
275.978	6052
276.038	4316
276.098	3509
276.157	14126
276.217	25865
276.277	11070
276.337	7629
276.397	6354
276.457	6198
276.517	3351
276.576	3753
276.636	3289
276.696	8078
276.756	20559
276.815	9058
276.875	6594
276.935	7495
276.995	5567
277.055	3452
277.114	3645
277.174	8142
277.234	19959
277.293	7286
277.353	5150
277.413	4381
277.472	4871
277.532	4530
277.592	5566
277.651	32694
277.711	29800
277.771	15435
277.830	55433
277.890	24928
277.950	38586
278.009	63084
278.069	19141
278.128	38440
278.188	31025
278.248	17895
278.307	50390
278.367	18863
278.426	8431
278.486	5612
278.545	4352
278.605	3692
278.664	4413
278.724	4203
278.783	20904
278.843	29075
278.902	8828
278.962	7950
279.021	8603
279.081	20250
279.140	13412
279.199	8973
279.259	9638
279.318	8742
279.378	11974
279.437	26229
279.496	101660
279.556	262281
279.615	134927
279.675	44219
279.734	30033
279.793	57807
279.853	50592
279.912	17296
279.971	12076
280.031	9868
280.090	25113
280.149	28005
280.208	45724
280.268	201191
280.327	115701
280.386	35415
280.445	29805
280.505	18637
280.564	11579
280.623	8695
280.682	17260
280.742	15380
280.801	6601
280.860	5302
280.919	4795
280.978	4994
281.037	5445
281.097	4001
281.156	4550
281.215	3990
281.274	7654
281.333	28747
281.392	11680
281.451	5060
281.510	3865
281.569	3429
281.628	3217
281.688	2948
281.747	4523
281.806	4539
281.865	3841
281.924	3401
281.983	3644
282.042	2482
282.101	2651
282.160	2133
282.219	3220
282.278	4830
282.337	16164
282.396	6603
282.454	4169
282.513	7160
282.572	23584
282.631	8432
282.690	4553
282.749	3697
282.808	5421
282.867	5432
282.926	4162
282.985	2460
283.043	1553
283.102	2261
283.161	4354
283.220	16375
283.279	19748
283.338	5314
283.396	4897
283.455	4296
283.514	5513
283.573	8362
283.631	5488
283.690	3666
283.749	4598
283.808	12339
283.866	8320
283.925	4362
283.984	4684
284.043	7640
284.101	6118
284.160	4546
284.219	8164
284.277	5744
284.336	12368
284.395	33514
284.453	17243
284.512	9277
284.570	14266
284.629	10647
284.688	10121
284.746	11955
284.805	14610
284.863	20178
284.922	23043
284.981	26488
285.039	39373
285.098	73474
285.156	159043
285.215	170599
285.273	178934
285.332	119861
285.390	71501
285.449	45669
285.507	30373
285.566	21887
285.624	17025
285.683	13061
285.741	10082
285.799	9082
285.858	8391
285.916	8363
285.975	6877
286.033	5018
286.091	5358
286.150	4450
286.208	5007
286.267	6333
286.325	6388
286.383	9544
286.442	6160
286.500	4171
286.558	3681
286.616	3907
286.675	6491
286.733	4380
286.791	3975
286.850	6155
286.908	8747
286.966	10255
287.024	4748
287.083	3330
287.141	3391
287.199	3980
287.257	5814
287.315	3504
287.374	6428
287.432	13220
287.490	6736
287.548	4650
287.606	3681
287.664	3082
287.723	7478
287.781	7038
287.839	4814
287.897	5284
287.955	5895
288.013	9274
288.071	26883
288.129	150771
288.187	237178
288.245	82839
288.303	33252
288.361	20646
288.419	14953
288.477	8845
288.535	5745
288.593	5140
288.651	4221
288.709	3275
288.767	4517
288.825	3025
288.883	3614
288.941	2329
288.999	3379
289.057	3174
289.115	2881
289.173	3215
289.231	3348
289.289	2751
289.346	3478
289.404	4311
289.462	8509
289.520	6833
289.578	2826
289.636	2003
289.694	1991
289.751	1848
289.809	2284
289.867	2444
289.925	4669
289.983	3299
290.040	2436
290.098	1977
290.156	3882
290.214	3591
290.271	2165
290.329	2233
290.387	1763
290.444	1437
290.502	1239
290.560	1589
290.617	2308
290.675	2206
290.733	2313
290.790	3116
290.848	716
290.906	2591
290.963	3225
291.021	2555
291.078	1936
291.136	2332
291.194	17512
291.251	18642
291.309	4967
291.366	3335
291.424	3074
291.481	2908
291.539	3733
291.596	3262
291.654	1685
291.711	1239
291.769	4233
291.826	7355
291.884	3238
291.941	1882
291.999	2413
292.056	3193
292.114	3285
292.171	2413
292.228	2240
292.286	4134
292.343	8766
292.401	9310
292.458	4896
292.515	3685
292.573	6076
292.630	4208
292.687	4953
292.745	2724
292.802	6963
292.859	17183
292.917	25886
292.974	9583
293.031	5170
293.089	3127
293.146	3358
293.203	1932
293.260	2831
293.318	5026
293.375	4712
293.432	2541
293.489	2786
293.546	1358
293.604	5434
293.661	24371
293.718	33969
293.775	14954
293.832	8871
293.889	8255
293.947	9399
294.004	4781
294.061	5638
294.118	14523
294.175	25713
294.232	25987
294.289	9330
294.346	5932
294.403	6018
294.460	5657
294.517	3861
294.574	2533
294.631	2377
294.688	3425
294.745	17025
294.802	49075
294.859	36606
294.916	16242
294.973	10522
295.030	9125
295.087	6171
295.144	4563
295.201	3372
295.258	2537
295.315	5386
295.372	22187
295.429	23485
295.486	8950
295.542	6932
295.599	26506
295.656	26874
295.713	23774
295.770	22958
295.827	7584
295.883	5609
295.940	5057
295.997	11623
296.054	7543
296.111	4778
296.167	2764
296.224	2776
296.281	2300
296.338	2370
296.394	1866
296.451	4290
296.508	18409
296.564	19922
296.621	15046
296.678	41787
296.734	35301
296.791	13046
296.848	7736
296.904	11151
296.961	25401
297.018	33887
297.074	17565
297.131	8374
297.187	6104
297.244	9952
297.301	44405
297.357	41516
297.414	12828
297.470	7548
297.527	5625
297.583	5489
297.640	4389
297.696	3401
297.753	2790
297.809	2441
297.866	1653
297.922	2767
297.979	2304
298.035	3525
298.092	7758
298.148	21407
298.204	12070
298.261	6774
298.317	21935
298.374	37942
298.430	15832
298.486	12458
298.543	8232
298.599	7191
298.656	7621
298.712	20470
298.768	40334
298.824	18424
298.881	7060
298.937	5225
298.993	5254
299.050	5879
299.106	5067
299.162	5504
299.218	4040
299.275	3197
299.331	3282
299.387	13152
299.443	40978
299.500	29221
299.556	11991
299.612	7193
299.668	7645
299.724	13036
299.780	9545
299.837	4820
299.893	11696
299.949	39711
300.005	28604
300.061	37582
300.117	44163
300.173	17104
300.229	10781
300.285	16816
300.341	13347
300.397	7411
300.453	4110
300.510	3969
300.566	3769
300.622	6755
300.678	28908
300.734	34710
300.790	31342
300.845	28596
300.901	26373
300.957	37200
301.013	18453
301.069	8244
301.125	7435
301.181	8443
301.237	5127
301.293	2795
301.349	3227
301.405	2635
301.461	3094
301.516	4128
301.572	5350
301.628	10459
301.684	7283
301.740	17339
301.796	16977
301.851	15254
301.907	24026
301.963	18302
302.019	48398
302.074	99509
302.130	70142
302.186	29911
302.242	14042
302.297	9654
302.353	12078
302.409	21185
302.464	12716
302.520	17263
302.576	41513
302.631	34623
302.687	18134
302.743	9444
302.798	5816
302.854	5004
302.910	4482
302.965	8020
303.021	12869
303.076	12118
303.132	18076
303.187	16260
303.243	7399
303.299	5296
303.354	4355
303.410	3654
303.465	3392
303.521	3777
303.576	3924
303.632	4926
303.687	13963
303.743	31550
303.798	17627
303.853	8498
303.909	5298
303.964	5270
304.020	11340
304.075	12587
304.130	14071
304.186	24701
304.241	21992
304.297	16199
304.352	8587
304.358	8358
304.407	6502
304.449	6603
304.463	6646
304.518	5823
304.539	5390
304.573	4674
304.629	5165
304.630	5252
304.684	9423
304.720	23691
304.739	30985
304.794	27547
304.811	23512
304.850	13482
304.902	7302
304.905	6929
304.960	6461
304.992	6238
305.015	6084
305.071	5753
305.083	5417
305.126	4131
305.173	3488
305.181	3400
305.236	2927
305.264	3671
305.292	4427
305.347	4536
305.354	4612
305.402	5152
305.445	6448
305.457	6814
305.512	8191
305.535	7500
305.567	6413
305.622	6629
305.626	7109
305.678	16554
305.716	32602
305.733	38897
305.788	30518
305.807	28228
305.843	23375
305.897	32038
305.898	32160
305.953	23785
305.988	17060
306.008	13082
306.063	10152
306.078	8864
306.118	5978
306.168	4466
306.173	4347
306.228	3306
306.259	3279
306.283	3345
306.338	3297
306.349	3549
306.393	4694
306.440	4809
306.448	4786
306.503	4120
306.530	5358
306.558	7732
306.613	18463
306.620	19593
306.668	26921
306.711	34196
306.723	35099
306.778	22478
306.801	18142
306.833	12522
306.888	6693
306.892	6422
306.943	5064
306.982	4527
306.997	4415
307.052	4231
307.072	4216
307.107	4318
307.162	6478
307.163	6517
307.217	11014
307.253	13378
307.272	14061
307.327	13486
307.343	12474
307.381	9665
307.434	8404
307.436	8604
307.491	21306
307.524	30283
307.546	34181
307.600	29030
307.614	26506
307.655	14980
307.704	7423
307.710	7301
307.765	9184
307.795	13481
307.819	18010
307.874	25493
307.885	25198
307.929	17776
307.975	12225
307.984	12179
308.038	15427
308.065	19925
308.093	32230
308.148	78174
308.156	87720
308.202	152022
308.246	169291
308.257	159635
308.312	85433
308.336	60935
308.366	49194
308.421	30503
308.426	29072
308.475	18698
308.517	12530
308.530	11602
308.585	9947
308.607	9103
308.639	8917
308.694	10800
308.697	11145
308.748	21715
308.787	30605
308.803	31429
308.857	23032
308.877	20889
308.912	17465
308.967	14539
308.967	14520
309.021	19904
309.058	25320
309.076	31433
309.130	55510
309.148	66268
309.185	110212
309.238	193833
309.239	194940
309.293	223829
309.328	216505
309.348	183218
309.402	90070
309.418	67076
309.457	48256
309.508	29326
309.511	28923
309.566	27174
309.598	28154
309.620	34137
309.674	54299
309.688	58464
309.729	56927
309.778	48158
309.783	46659
309.837	30263
309.868	22158
309.892	23536
309.946	33067
309.959	35900
310.001	50664
310.049	60892
310.055	58599
310.109	34336
310.139	21662
310.163	17069
310.218	10081
310.229	8796
310.272	7377
310.319	6305
310.326	6140
310.381	4974
310.409	4580
310.435	4432
310.489	4100
310.499	4105
310.543	4632
310.589	5123
310.598	5191
310.652	5620
310.679	5653
310.706	5009
310.760	3807
310.769	3640
310.814	3297
310.859	3019
310.868	3012
310.923	2918
310.948	3012
310.977	3568
311.031	4513
311.038	4651
311.085	4564
311.128	4276
311.139	4272
311.193	4438
311.218	4427
311.247	4112
311.301	3664
311.308	3608
311.356	3756
311.398	3887
311.410	3772
311.464	3164
311.488	2903
311.518	3007
311.572	3248
311.578	3285
311.626	4833
311.668	6129
311.680	6125
311.734	6110
311.758	6069
311.788	5820
311.842	5377
311.847	5329
311.896	6296
311.937	7269
311.950	7406
312.004	7888
312.027	8098
312.058	6946
312.112	4900
312.117	4696
312.165	4370
312.207	4095
312.297	4933
312.386	5465
312.476	4818
312.566	10197
312.656	6477
312.745	3278
312.835	4203
312.925	4870
313.015	3881
313.104	5186
313.194	4378
313.284	4212
313.374	5477
313.463	5424
313.553	4139
313.643	3040
313.732	2938
313.822	3300
313.912	4124
314.001	5399
314.091	5564
314.180	7183
314.270	6325
314.360	6938
314.449	6405
314.539	4154
314.628	3960
314.718	4426
314.808	6170
314.897	3659
314.987	3775
315.076	5405
315.166	7100
315.255	6823
315.345	6395
315.434	6088
315.524	5755
315.613	7431
315.703	9434
315.792	14741
315.881	44454
315.971	21777
316.060	12086
316.150	16737
316.239	18926
316.328	7822
316.418	4360
316.507	4177
316.597	5744
316.686	5441
316.775	8142
316.865	18577
316.954	5927
317.043	3195
317.133	3739
317.222	3276
317.311	3918
317.400	3650
317.490	5186
317.579	6990
317.668	5348
317.757	8038
317.847	22795
317.936	77533
318.025	37545
318.114	17135
318.203	11945
318.293	9524
318.382	19157
318.471	16995
318.560	22734
318.649	40975
318.738	13053
318.828	6343
318.917	6318
319.006	6349
319.095	21684
319.184	49779
319.273	35453
319.362	18977
319.451	5466
319.540	4852
319.629	11896
319.718	22176
319.807	7623
319.896	17115
319.985	63237
320.074	31952
320.163	6980
320.252	11023
320.341	8886
320.430	8972
320.519	9640
320.608	7708
320.697	5632
320.786	5239
320.875	7119
320.964	9490
321.053	13331
321.142	20073
321.230	24062
321.319	14785
321.408	36951
321.497	20179
321.586	15203
321.675	17232
321.764	19075
321.852	10631
321.941	19279
322.030	15443
322.119	13611
322.207	39356
322.296	30206
322.385	14002
322.474	15861
322.562	44004
322.651	31576
322.740	15455
322.829	26225
322.917	25490
323.006	16610
323.095	12202
323.183	9576
323.272	12476
323.361	23642
323.449	73225
323.538	30884
323.626	47215
323.715	40612
323.804	11592
323.892	43963
323.981	32240
324.069	8034
324.158	21635
324.246	29345
324.335	8955
324.424	14119
324.512	6216
324.601	7370
324.689	17482
324.778	45945
324.866	23060
324.954	6389
325.043	4685
325.131	10804
325.220	19386
325.308	24148
325.397	15557
325.485	12128
325.574	3435
325.662	4363
325.750	4026
325.839	4006
325.927	3310
326.015	4830
326.104	6740
326.192	13485
326.280	3703
326.369	3414
326.457	5755
326.545	11197
326.634	6381
326.722	2579
326.810	2782
326.898	3811
326.987	3794
327.075	9324
327.163	11333
327.251	5563
327.340	13587
327.428	31096
327.516	5307
327.604	3792
327.692	3648
327.781	4333
327.869	8781
327.957	6318
328.045	5334
328.133	2839
328.221	4737
328.309	4404
328.397	2898
328.485	4336
328.574	5855
328.662	23254
328.750	16921
328.838	6288
328.926	3381
329.014	3060
329.102	4990
329.190	12255
329.278	11233
329.366	3409
329.454	2288
329.542	3033
329.630	2400
329.718	3124
329.806	4369
329.893	3972
329.981	3437
330.069	3550
330.157	14629
330.245	54522
330.333	38025
330.421	6225
330.509	6011
330.597	27258
330.684	23527
330.772	6265
330.860	8453
330.948	10711
331.036	5902
331.123	2122
331.211	2523
331.299	3469
331.387	6911
331.475	17780
331.562	6459
331.650	3008
331.738	3268
331.825	6124
331.913	3277
332.001	2649
332.089	3005
332.176	8663
332.264	20615
332.352	22848
332.439	5337
332.527	3807
332.614	2648
332.702	5214
332.790	3337
332.877	9088
332.965	25107
333.052	8571
333.140	5930
333.228	19729
333.315	6929
333.403	3809
333.490	11974
333.578	15143
333.665	23000
333.753	13703
333.840	3733
333.928	4463
334.015	13015
334.103	19966
334.190	67920
334.278	26023
334.365	8532
334.452	7888
334.540	4530
334.627	5373
334.715	7350
334.802	12954
334.889	75693
334.977	110216
335.064	17478
335.151	6944
335.239	5184
335.326	6631
335.413	26039
335.501	54706
335.588	7275
335.675	5061
335.762	5978
335.850	11119
335.937	7600
336.024	19891
336.111	91709
336.199	58784
336.286	12270
336.373	5584
336.460	3551
336.547	3415
336.635	4296
336.722	4758
336.809	3090
336.896	5446
336.983	16014
337.070	46611
337.157	72720
337.245	54857
337.332	50749
337.419	5912
337.506	3244
337.593	3562
337.680	10668
337.767	47378
337.854	16123
337.941	14889
338.028	19516
338.115	8332
338.202	6803
338.289	12633
338.376	54199
338.463	23405
338.550	21552
338.637	35525
338.724	8707
338.811	19300
338.898	4110
338.984	2591
339.071	3676
339.158	4705
339.245	12072
339.332	11056
339.419	9577
339.506	13871
339.593	2360
339.679	2282
339.766	2069
339.853	3257
339.940	10682
340.027	4743
340.113	2664
340.200	5297
340.287	3917
340.374	4502
340.460	9013
340.547	3988
340.634	5028
340.720	24238
340.807	22329
340.894	2334
340.980	3284
341.067	2993
341.154	3371
341.240	5012
341.327	14810
341.414	5583
341.500	5444
341.587	3663
341.674	2494
341.760	7891
341.847	12220
341.933	4412
342.020	1251
342.106	2029
342.193	2880
342.279	7354
342.366	4454
342.452	10385
342.539	4900
342.625	9363
342.712	31421
342.798	15158
342.885	6218
342.971	2122
343.058	1327
343.144	2880
343.230	2227
343.317	2698
343.403	2172
343.490	2423
343.576	2003
343.662	1903
343.749	4437
343.835	4264
343.921	5314
344.008	35427
344.094	113594
344.180	35065
344.267	8327
344.353	26241
344.439	42318
344.525	15937
344.612	6766
344.698	3884
344.784	3565
344.870	1993
344.957	1893
345.043	5550
345.129	3409
345.215	8609
345.301	5844
345.387	3652
345.474	1113
345.560	1705
345.646	2702
345.732	2517
345.818	3007
345.904	3822
345.990	3818
346.076	3073
346.162	7802
346.249	4885
346.335	2407
346.421	2446
346.507	8693
346.593	46000
346.679	16754
346.765	3785
346.851	3227
346.937	3953
347.023	2332
347.108	2682
347.194	3248
347.280	2705
347.366	3530
347.452	10715
347.538	49972
347.624	42720
347.710	39842
347.796	7838
347.882	3063
347.967	2638
348.053	3662
348.139	2675
348.225	2708
348.311	2766
348.397	2268
348.482	3087
348.568	4262
348.654	2306
348.740	3961
348.825	5673
348.911	4601
348.997	18641
349.083	53433
349.168	12439
349.254	3158
349.340	4023
349.425	1483
349.511	3672
349.597	4981
349.682	7906
349.768	30477
349.854	21964
349.939	2990
350.025	2856
350.110	1538
350.196	2060
350.282	2617
350.367	1791
350.453	4304
350.538	6012
350.624	3888
350.709	4765
350.795	1441
350.880	2872
350.966	2882
351.051	5064
351.137	4771
351.222	3270
351.308	7498
351.393	31182
351.479	10906
351.564	3275
351.649	2237
351.735	2269
351.820	1344
351.906	2051
351.991	3070
352.076	13756
352.162	32733
352.247	8151
352.332	2660
352.418	7571
352.503	8715
352.588	34321
352.673	44547
352.759	8594
352.844	4249
352.929	3825
353.014	5967
353.100	4190
353.185	7014
353.270	11025
353.355	12174
353.441	3545
353.526	3981
353.611	7455
353.696	13801
353.781	6622
353.866	3237
353.952	3260
354.037	7074
354.122	20657
354.207	19912
354.292	9812
354.377	3430
354.462	2753
354.547	3694
354.632	3781
354.717	4800
354.802	9580
354.887	4351
354.972	1577
355.057	1623
355.142	1736
355.227	2858
355.312	5141
355.397	11994
355.482	32937
355.567	22684
355.652	10109
355.737	13074
355.822	31131
355.907	43952
355.991	6076
356.076	2352
356.161	2802
356.246	2609
356.331	2741
356.416	6234
356.501	45839
356.585	77905
356.670	12394
356.755	5922
356.840	7081
356.924	30201
357.009	139033
357.094	79311
357.179	13208
357.263	9042
357.348	6897
357.433	8397
357.517	7805
357.602	6529
357.687	4217
357.771	6023
357.856	13622
357.941	11861
358.025	19834
358.110	119907
358.195	86295
358.279	11684
358.364	6972
358.448	19642
358.533	68654
358.617	61411
358.702	52942
358.787	26485
358.871	10181
358.956	10034
359.040	3903
359.125	2287
359.209	1928
359.294	4623
359.378	12681
359.462	7664
359.547	6780
359.631	3972
359.716	2459
359.800	2420
359.885	4695
359.969	3973
360.053	2962
360.138	3536
360.222	4905
360.306	9701
360.391	8998
360.475	8191
360.559	24526
360.644	25069
360.728	26488
360.812	22202
360.896	89214
360.981	45010
361.065	25214
361.149	5810
361.233	5260
361.318	3856
361.402	5257
361.486	4709
361.570	3733
361.654	4418
361.739	10201
361.823	45240
361.907	101098
361.991	24147
362.075	8316
362.159	20285
362.243	17760
362.327	14560
362.411	23553
362.495	13711
362.580	6469
362.664	4172
362.748	3731
362.832	5036
362.916	7744
363.000	27168
363.084	82038
363.168	124924
363.252	38317
363.336	10013
363.420	10867
363.503	37207
363.587	65502
363.671	13067
363.755	6748
363.839	10336
363.923	6078
364.007	8537
364.091	14493
364.175	14458
364.258	67230
364.342	67007
364.426	76877
364.510	56499
364.594	19014
364.677	14881
364.761	65808
364.845	73495
364.929	18394
365.013	17154
365.096	11143
365.180	17273
365.264	14061
365.347	67750
365.431	43693
365.515	8482
365.598	4743
365.682	3480
365.766	5619
365.849	10729
365.933	5223
366.017	6628
366.100	5417
366.184	2100
366.267	3251
366.351	2617
366.435	2441
366.518	1724
366.602	2851
366.685	2805
366.769	3373
366.852	5220
366.936	11938
367.019	8215
367.103	4611
367.186	10861
367.270	4730
367.353	2327
367.436	3241
367.520	2561
367.603	4035
367.687	5316
367.770	12803
367.853	7749
367.937	16736
368.020	43167
368.104	13795
368.187	7906
368.270	12555
368.353	12097
368.437	13922
368.520	34660
368.603	26887
368.687	21633
368.770	57215
368.853	18756
368.936	10379
369.020	12641
369.103	5721
369.186	2754
369.269	3774
369.352	6517
369.436	12452
369.519	7475
369.602	4116
369.685	3370
369.768	4718
369.851	3366
369.934	2798
370.018	3292
370.101	9150
370.184	9530
370.267	5300
370.350	8067
370.433	15018
370.516	33299
370.599	63955
370.682	23993
370.765	25740
370.848	33402
370.931	62563
371.014	35561
371.097	6567
371.180	4128
371.263	2350
371.346	2029
371.429	2769
371.511	3246
371.594	6407
371.677	10022
371.760	12426
371.843	9652
371.926	31636
372.009	108244
372.091	48628
372.174	20675
372.257	55312
372.340	32253
372.423	15072
372.505	21107
372.588	10007
372.671	14063
372.754	58974
372.836	44677
372.919	17175
373.002	44919
373.085	19487
373.167	9870
373.250	21789
373.332	56104
373.415	63580
373.498	149523
373.580	76668
373.663	61077
373.746	118042
373.828	33578
373.911	10532
373.993	9539
374.076	33972
374.159	48373
374.241	16887
374.324	46615
374.406	46056
374.489	30655
374.571	113851
374.654	71532
374.736	20998
374.819	64449
374.901	96656
374.983	128207
375.066	31544
375.148	8217
375.231	25058
375.313	69300
375.395	33118
375.478	8517
375.560	4457
375.643	6818
375.725	17797
375.807	80345
375.890	93818
375.972	41467
376.054	19272
376.136	29985
376.219	18007
376.301	19284
376.383	80880
376.465	46980
376.548	19659
376.630	22148
376.712	65138
376.794	49661
376.877	5913
376.959	2505
377.041	3845
377.123	6926
377.205	10875
377.287	3509
377.369	2153
377.452	2858
377.534	2980
377.616	2310
377.698	2598
377.780	2438
377.862	2983
377.944	3293
378.026	1968
378.108	1754
378.190	2061
378.272	2531
378.354	1609
378.436	1488
378.518	3460
378.600	16556
378.682	17577
378.764	30503
378.846	38636
378.928	9145
379.010	11224
379.091	8338
379.173	3681
379.255	2479
379.337	3755
379.419	12979
379.501	49682
379.583	31940
379.664	5387
379.746	10905
379.828	31138
379.910	50185
379.991	51900
380.073	12899
380.155	4599
380.237	3699
380.318	2437
380.400	3557
380.482	6107
380.564	13893
380.645	12212
380.727	13730
380.809	7191
380.890	5070
380.972	4128
381.053	4015
381.135	4881
381.217	9062
381.298	35585
381.380	26571
381.461	13880
381.543	54667
381.624	105694
381.706	27094
381.787	8469
381.869	9647
381.951	21072
382.032	98727
382.113	95336
382.195	22348
382.276	11778
382.358	19056
382.439	58821
382.521	67261
382.602	112180
382.684	63206
382.765	80966
382.846	115578
382.928	173849
383.009	134780
383.090	57106
383.172	182600
383.253	405268
383.334	168778
383.416	104099
383.497	76628
383.578	30794
383.659	46875
383.741	147226
383.822	479412
383.903	364605
383.984	95568
384.066	123189
384.147	103526
384.228	26831
384.309	14043
384.390	13064
384.471	9189
384.553	9001
384.634	10836
384.715	12815
384.796	7750
384.877	8208
384.958	25987
385.039	49652
385.120	21202
385.201	8173
385.282	8302
385.363	9372
385.444	8602
385.525	11422
385.606	39478
385.687	53816
385.768	12842
385.849	11797
385.930	37111
386.011	91323
386.092	36508
386.173	8236
386.254	5450
386.335	5668
386.416	5248
386.496	17110
386.577	40883
386.658	18822
386.739	8288
386.820	8166
386.901	6588
386.981	6254
387.062	4084
387.143	7940
387.224	29497
387.304	42944
387.385	15616
387.466	8598
387.547	9984
387.627	8027
387.708	11171
387.789	48653
387.869	86153
387.950	31895
388.031	4971
388.111	3752
388.192	8998
388.273	16432
388.353	12331
388.434	6410
388.514	9756
388.595	41389
388.676	78696
388.756	45888
388.837	31214
388.917	29496
388.998	5691
389.078	4316
389.159	4122
389.239	3973
389.320	6110
389.400	6625
389.480	9993
389.561	34675
389.641	27418
389.722	6444
389.802	10398
389.883	14231
389.963	39387
390.043	37421
390.124	11409
390.204	10346
390.284	35984
390.365	36040
390.445	23186
390.525	67164
390.605	82375
390.686	30206
390.766	10153
390.846	5008
390.927	2920
391.007	3682
391.087	3996
391.167	5791
391.247	4200
391.328	6291
391.408	9899
391.488	8293
391.568	3763
391.648	4583
391.728	8479
391.808	7757
391.888	8552
391.969	15803
392.049	36677
392.129	20301
392.209	13372
392.289	39746
392.369	31781
392.449	18786
392.529	15595
392.609	11731
392.689	12504
392.769	35867
392.849	48056
392.929	24531
393.009	55736
393.089	63461
393.169	47486
393.248	123391
393.328	473030
393.408	692804
393.488	260038
393.568	66062
393.648	30601
393.728	19374
393.807	13268
393.887	11695
393.967	10519
394.047	10795
394.127	12424
394.206	17032
394.286	42649
394.366	200110
394.446	322502
394.525	99894
394.605	21457
394.685	13149
394.764	23409
394.844	42397
394.924	42955
395.003	14413
395.083	8395
395.163	8656
395.242	6595
395.322	7750
395.402	4999
395.481	7178
395.561	13526
395.640	47812
395.720	50245
395.799	52501
395.879	54647
395.958	26411
396.038	62170
396.117	268914
396.197	423534
396.276	156451
396.356	44449
396.435	28025
396.515	22691
396.594	23210
396.673	40438
396.753	124414
396.832	456508
396.912	482911
396.991	142358
397.070	34863
397.150	17467
397.229	12703
397.308	13282
397.388	26279
397.467	17841
397.546	6857
397.625	4001
397.705	7398
397.784	7061
397.863	4991
397.942	3161
398.022	3925
398.101	9655
398.180	41635
398.259	32794
398.338	8311
398.417	4637
398.497	3441
398.576	3414
398.655	3311
398.734	2114
398.813	2171
398.892	8490
398.971	43147
399.050	36355
399.129	4284
399.208	1848
399.287	2473
399.366	1214
399.445	1317
399.524	1982
399.603	1506
399.682	4287
399.761	13020
399.840	43740
399.919	53846
399.998	9649
400.077	1538
400.156	-6
400.235	2541
400.313	1499
400.392	2112
400.471	12005
400.550	34147
400.629	13091
400.708	3843
400.786	2808
400.865	7138
400.944	11445
401.023	8338
401.102	628
401.180	463
401.259	909
401.338	1704
401.416	3120
401.495	3498
401.574	2346
401.652	1011
401.731	2615
401.810	2988
401.888	1292
401.967	1164
402.046	1153
402.124	2470
402.203	4462
402.281	3232
402.360	3091
402.438	9732
402.517	11411
402.596	2771
402.674	2354
402.753	1464
402.831	1264
402.910	1522
402.988	7807
403.066	41110
403.145	38653
403.223	11503
403.302	33082
403.380	33407
403.459	27969
403.537	16528
403.615	4689
403.694	583
403.772	975
403.850	804
403.929	734
404.007	1235
404.085	3655
404.164	6978
404.242	1877
404.320	2262
404.398	3248
404.477	10423
404.555	67419
404.633	99686
404.711	19707
404.789	2830
404.868	1913
404.946	1272
405.024	752
405.102	424
405.180	764
405.258	358
405.336	1048
405.415	874
405.493	3867
405.571	4557
405.649	763
405.727	106
405.805	2831
405.883	2762
405.961	2456
406.039	3803
406.117	1638
406.195	2664
406.273	11005
406.351	66290
406.429	65642
406.507	10509
406.585	2811
406.663	1821
406.740	3400
406.818	3199
406.896	1198
406.974	1834
407.052	2728
407.130	30318
407.208	73057
407.285	23085
407.363	2389
407.441	1721
407.519	1086
407.596	1695
407.674	4462
407.752	15176
407.830	21444
407.907	10212
407.985	3288
408.063	1356
408.141	556
408.218	2784
408.296	3085
408.373	2513
408.451	2909
408.529	2580
408.606	697
408.684	-34
408.762	-43
408.839	306
408.917	-463
408.994	1061
409.072	-225
409.149	1206
409.227	1359
409.304	4180
409.382	3113
409.459	3972
409.537	5931
409.614	5676
409.692	3128
409.769	2286
409.846	5730
409.924	8720
410.001	6527
410.079	3895
410.156	2857
410.233	2357
410.311	1368
410.388	879
410.465	1193
410.543	2131
410.620	1441
410.697	812
410.775	2817
410.852	515
410.929	1496
411.006	4423
411.083	1305
411.161	3517
411.238	6121
411.315	3585
411.392	912
411.469	2095
411.547	2398
411.624	680
411.701	855
411.778	883
411.855	4613
411.932	3680
412.009	1233
412.086	1130
412.163	1528
412.240	1787
412.317	2056
412.394	1579
412.471	1046
412.548	846
412.625	-362
412.702	1186
412.779	3406
412.856	3259
412.933	186
413.010	374
413.087	2025
413.164	10054
413.241	28115
413.318	9698
413.395	2944
413.471	4505
413.548	2533
413.625	935
413.702	926
413.779	1561
413.855	220
413.932	-352
414.009	-610
414.086	-477
414.162	-495
414.239	1562
414.316	9497
414.393	37038
414.469	22204
414.546	1557
414.623	642
414.699	704
414.776	1436
414.853	472
414.929	677
415.006	589
415.082	826
415.159	1202
415.236	277
415.312	667
415.389	2289
415.465	5344
415.542	3231
415.618	378
415.695	3231
415.771	1769
415.848	987
415.924	1582
416.000	1202
416.077	657
416.153	-378
416.230	-426
416.306	-434
416.383	100
416.459	195
416.535	-868
416.612	-287
416.688	-153
416.764	448
416.841	479
416.917	434
416.993	791
417.069	365
417.146	1363
417.222	2194
417.298	1767
417.374	-133
417.451	502
417.527	289
417.603	2097
417.679	1187
417.755	1114
417.831	-220
417.908	-84
417.984	-573
418.060	-22
418.136	2395
418.212	6082
418.288	2389
418.364	182
418.440	-2
418.516	2372
418.592	2439
418.668	5945
418.744	11068
418.820	10539
418.896	2829
418.972	-308
419.048	-448
419.124	3648
419.200	4182
419.276	774
419.352	-177
419.428	23
419.504	41
419.579	2185
419.655	989
419.731	382
419.807	4289
419.883	11753
419.959	11911
420.034	3231
420.110	3140
420.186	17533
420.262	26021
420.337	5461
420.413	1696
420.489	1156
420.565	1012
420.640	214
420.716	1303
420.792	99
420.867	1476
420.943	958
421.019	2235
421.094	3771
421.170	1983
421.245	968
421.321	854
421.397	1295
421.472	3200
421.548	7378
421.623	9933
421.699	4610
421.774	3675
421.850	2544
421.925	4744
422.001	6347
422.076	4595
422.152	5781
422.227	9291
422.302	11816
422.378	15827
422.453	29745
422.529	61948
422.604	171097
422.679	311640
422.755	272653
422.830	128255
422.905	48585
422.981	24565
423.056	15146
423.131	11496
423.207	8070
423.282	5978
423.357	9696
423.432	8857
423.508	6011
423.583	10402
423.658	13464
423.733	4415
423.808	3663
423.883	4900
423.959	4755
424.034	3686
424.109	2988
424.184	1660
424.259	1672
424.334	1759
424.409	1257
424.484	378
424.559	1271
424.634	1020
424.709	1891
424.784	3147
424.859	2341
424.934	1756
425.009	10620
425.084	27989
425.159	17357
425.234	1864
425.309	173
425.384	908
425.459	3801
425.534	1950
425.609	1002
425.683	411
425.758	354
425.833	375
425.908	1342
425.983	4617
426.058	25401
426.132	19904
426.207	3150
426.282	2085
426.357	3291
426.431	708
426.506	721
426.581	577
426.655	807
426.730	1204
426.805	675
426.879	1014
426.954	714
427.029	2353
427.103	15643
427.178	60921
427.253	48860
427.327	5414
427.402	1480
427.476	5543
427.551	4671
427.625	1723
427.700	2192
427.774	-86
427.849	1733
427.923	-64
427.998	879
428.072	1194
428.147	3186
428.221	14520
428.296	60673
428.370	59601
428.444	8456
428.519	4587
428.593	8208
428.667	9168
428.742	8375
428.816	10611
428.890	27881
428.965	76485
429.039	34327
429.113	11625
429.188	6487
429.262	1727
429.336	2843
429.410	9997
429.485	11674
429.559	6728
429.633	8523
429.707	3215
429.781	4428
429.855	30117
429.930	80695
430.004	43157
430.078	40942
430.152	47938
430.226	68637
430.300	115310
430.374	30610
430.448	5795
430.522	8163
430.596	37556
430.670	38286
430.744	49970
430.818	127322
430.892	45640
430.966	4784
431.040	1900
431.114	723
431.188	-339
431.262	974
431.336	477
431.410	3008
431.484	9810
431.557	12672
431.631	1991
431.705	1267
431.779	6091
431.853	46478
431.927	64290
432.000	11404
432.074	686
432.148	1443
432.222	746
432.295	-203
432.369	403
432.443	1538
432.516	13230
432.590	62036
432.664	42734
432.737	4509
432.811	199
432.885	-238
432.958	188
433.032	-445
433.106	-746
433.179	169
433.253	-1243
433.326	-705
433.400	-985
433.473	-211
433.547	-389
433.620	-115
433.694	892
433.767	2693
433.841	794
433.914	29
433.988	-802
434.061	568
434.134	-535
434.208	193
434.281	-1402
434.355	-695
434.428	-407
434.501	-708
434.575	-85
434.648	146
434.721	-1094
434.795	-251
434.868	-1056
434.941	-281
435.014	-26
435.088	-98
435.161	634
435.234	1906
435.307	4355
435.381	1758
435.454	547
435.527	2177
435.600	3265
435.673	2066
435.746	1162
435.819	449
435.892	228
435.966	392
436.039	-596
436.112	764
436.185	-450
436.258	-41
436.331	-996
436.404	-1068
436.477	-502
436.550	-649
436.623	-581
436.696	-454
436.769	-425
436.842	134
436.915	-599
436.987	716
437.060	43
437.133	-350
437.206	-589
437.279	289
437.352	-383
437.425	-552
437.498	464
437.570	1974
437.643	4209
437.716	1074
437.789	-110
437.861	593
437.934	5276
438.007	5516
438.080	201
438.152	755
438.225	1807
438.298	16242
438.370	82410
438.443	62565
438.516	11913
438.588	2173
438.661	-641
438.734	395
438.806	-421
438.879	1116
438.951	1005
439.024	3567
439.096	1731
439.169	-263
439.241	-41
439.314	-438
439.386	536
439.459	3000
439.531	4016
439.604	2398
439.676	320
439.749	289
439.821	-257
439.893	-433
439.966	-627
440.038	234
440.110	665
440.183	1095
440.255	-182
440.327	1232
440.400	5952
440.472	42169
440.544	58058
440.617	9670
440.689	3055
440.761	3542
440.833	4928
440.905	5503
440.978	1567
441.050	-225
441.122	50
441.194	-896
441.266	136
441.338	193
441.411	213
441.483	9545
441.555	30056
441.627	12247
441.699	2312
441.771	2384
441.843	1350
441.915	35
441.987	-649
442.059	277
442.131	670
442.203	2078
442.275	2308
442.347	3398
442.419	3006
442.491	16204
442.563	72605
442.635	58411
442.706	15825
442.778	14705
442.850	4167
442.922	1315
442.994	1685
443.066	1831
443.137	3161
443.209	2176
443.281	2727
443.353	6624
443.425	21069
443.496	103799
443.568	167133
443.640	83165
443.711	17437
443.783	4109
443.855	2207
443.926	1494
443.998	1080
444.070	1838
444.141	1465
444.213	2873
444.285	3409
444.356	3062
444.428	3300
444.499	1442
444.571	-94
444.642	526
444.714	152
444.785	2307
444.857	3936
444.928	6415
445.000	6905
445.071	4338
445.143	8149
445.214	5090
445.285	5912
445.357	18336
445.428	54336
445.500	187327
445.571	168909
445.642	94431
445.714	35947
445.785	21241
445.856	9585
445.928	4259
445.999	4793
446.070	3917
446.141	2950
446.213	4618
446.284	3152
446.355	1531
446.426	1564
446.497	1039
446.569	1384
446.640	4002
446.711	4652
446.782	1887
446.853	1468
446.924	2293
446.995	1170
447.066	363
447.138	2461
447.209	1981
447.280	-218
447.351	106
447.422	-164
447.493	310
447.564	992
447.635	2676
447.706	2039
447.777	-503
447.847	-695
447.918	-77
447.989	114
448.060	955
448.131	4209
448.202	5916
448.273	4205
448.344	2989
448.414	194
448.485	265
448.556	-547
448.627	-601
448.698	-210
448.768	-801
448.839	-609
448.910	1073
448.981	3247
449.051	378
449.122	76
449.193	-256
449.263	-845
449.334	-125
449.405	469
449.475	3316
449.546	4497
449.616	2866
449.687	3582
449.758	318
449.828	242
449.899	124
449.969	-798
450.040	168
450.110	-170
450.181	1321
450.251	229
450.322	402
450.392	224
450.463	-33
450.533	-256
450.604	-79
450.674	-101
450.744	763
450.815	49
450.885	639
450.955	565
451.026	325
451.096	-8
451.166	483
451.237	1352
451.307	7923
451.377	5962
451.447	574
451.518	-60
451.588	-62
451.658	-498
451.728	645
451.799	5595
451.869	13622
451.939	4211
452.009	510
452.079	-130
452.149	503
452.219	1094
452.289	7463
452.360	12248
452.430	3044
452.500	834
452.570	1320
452.640	2557
452.710	7216
452.780	16649
452.850	12025
452.920	11497
452.990	5888
453.060	1365
453.129	1800
453.199	3170
453.269	6205
453.339	31896
453.409	57634
453.479	34390
453.549	58949
453.619	70682
453.688	44442
453.758	8368
453.828	1801
453.898	989
453.968	430
454.037	455
454.087	59
454.107	-125
454.168	-334
454.177	-389
454.247	-318
454.249	-286
454.316	-172
454.330	-74
454.386	134
454.411	1268
454.456	2826
454.492	6104
454.525	8974
454.574	5922
454.595	4639
454.655	1215
454.665	661
454.734	1147
454.736	1225
454.804	2149
454.817	3292
454.873	7019
454.898	9681
454.943	14194
454.979	10367
455.013	7121
455.060	3790
455.082	2427
455.141	2012
455.152	1852
455.221	4856
455.222	5055
455.291	12638
455.303	11811
455.360	8800
455.384	7065
455.430	3954
455.465	4214
455.499	4262
455.546	7262
455.569	8108
455.627	9328
455.638	9748
455.707	2565
455.708	2578
455.777	1138
455.789	1025
455.846	466
455.869	838
455.916	1463
455.950	1244
455.985	895
456.031	866
456.054	925
456.112	705
456.124	611
456.193	755
456.193	736
456.262	1295
456.274	1501
456.332	2172
456.355	2063
456.401	1535
456.436	1504
456.470	1459
456.516	960
456.540	735
456.597	1168
456.609	1263
456.678	737
456.678	716
456.747	1076
456.759	1102
456.817	1190
456.840	1216
456.886	1239
456.920	1094
456.955	930
457.001	1661
457.024	2178
457.082	2372
457.093	2329
457.162	2521
457.163	2552
457.232	3639
457.243	3522
457.301	2430
457.324	1823
457.370	1315
457.405	1572
457.439	1829
457.485	2019
457.508	2062
457.566	2450
457.577	2572
457.646	3676
457.647	3709
457.715	6402
457.727	6958
457.784	11004
457.808	13444
457.853	15368
457.889	19179
457.922	19807
457.969	14606
457.991	15449
458.050	17469
458.060	18017
458.129	27780
458.130	28211
458.198	27285
458.211	25120
458.267	18233
458.292	12911
458.336	8225
458.372	7798
458.405	9972
458.453	14219
458.474	17747
458.533	29789
458.543	30405
458.611	43864
458.614	44418
458.680	32331
458.694	25768
458.749	13985
458.775	10251
458.818	6182
458.855	5153
458.887	4063
458.936	3359
458.955	3438
459.016	3600
459.024	3526
459.093	3494
459.097	3491
459.162	3721
459.177	3707
459.230	3614
459.257	4151
459.299	4740
459.338	4729
459.368	4707
459.418	4935
459.437	4705
459.499	3927
459.505	3934
459.574	3693
459.579	3703
459.643	3612
459.659	3517
459.711	3415
459.740	3819
459.780	4412
459.820	4313
459.849	4049
459.900	4479
459.917	4666
459.981	4580
459.986	4530
460.054	3854
460.061	3843
460.123	4631
460.141	4878
460.191	5764
460.222	6534
460.260	7266
460.302	7956
460.328	7296
460.382	5906
460.397	6035
460.462	6040
460.465	6124
460.534	8300
460.543	8617
460.602	17577
460.623	21025
460.671	34192
460.703	44211
460.739	36358
460.783	28543
460.808	25488
460.864	9429
460.876	8510
460.944	4581
460.945	4529
461.013	4499
461.024	4507
461.081	4990
461.104	5231
461.150	4767
461.184	4322
461.218	4304
461.264	4339
461.286	4423
461.345	4375
461.355	4334
461.423	4971
461.425	4963
461.491	4883
461.505	5056
461.559	8509
461.585	9864
461.628	14133
461.665	18368
461.696	19810
461.745	23963
461.764	21137
461.825	9581
461.832	9548
461.901	5775
461.905	5703
461.969	5309
461.985	5267
462.037	5221
462.065	5365
462.105	6127
462.145	6645
462.173	8192
462.225	11513
462.241	12613
462.305	16792
462.310	16275
462.378	9680
462.385	8668
462.446	7133
462.465	6554
462.514	5637
462.545	5629
462.582	5574
462.625	5362
462.650	5379
462.705	5457
462.718	5477
462.785	5655
462.786	5691
462.854	7570
462.865	7918
462.922	9282
462.945	9932
462.990	8002
463.025	6197
463.058	5955
463.104	5421
463.126	5286
463.184	5097
463.194	5202
463.262	5922
463.264	5950
463.330	5434
463.344	5281
463.398	5847
463.424	6066
463.466	6243
463.504	6646
463.533	6554
463.583	6245
463.601	6495
463.663	6875
463.669	7024
463.737	9216
463.743	9415
463.805	12659
463.823	13594
463.873	20278
463.903	24281
463.940	24480
463.982	25374
464.008	20732
464.062	10045
464.076	9720
464.142	6362
464.144	6329
464.211	6091
464.221	6107
464.279	6254
464.301	6268
464.347	6632
464.381	7027
464.414	7970
464.461	9084
464.482	9123
464.540	9500
464.550	9321
464.617	7657
464.620	7590
464.685	9087
464.699	9385
464.753	12260
464.779	13805
464.820	14525
464.859	15035
464.888	14321
464.938	13209
464.956	13297
465.018	13078
465.023	12972
465.091	11747
465.098	11570
465.158	11174
465.177	11068
465.226	11568
465.257	11857
465.293	12128
465.336	12362
465.361	12911
465.416	14244
465.428	15105
465.495	19593
465.496	19679
465.563	28167
465.575	29583
465.631	33890
465.654	35901
465.698	24159
465.734	14060
465.765	12918
465.813	10551
465.833	10454
465.893	10688
465.900	10741
465.968	11223
465.972	11235
466.035	11925
466.052	12091
466.102	11680
466.131	11413
466.170	11816
466.210	12129
466.237	12442
466.290	13054
466.304	13184
466.369	13606
466.372	13669
466.439	14838
466.449	14962
466.506	16469
466.528	17030
466.573	20731
466.607	23423
466.641	31981
466.687	43848
466.708	47231
466.766	56296
466.775	52546
466.842	23924
466.845	22510
466.909	19338
466.925	18570
466.977	17748
467.004	17362
467.044	17700
467.083	17994
467.111	19800
467.163	23076
467.178	23382
467.242	24438
467.245	24337
467.312	21246
467.321	20796
467.379	20375
467.400	20161
467.446	20259
467.480	20261
467.559	19704
467.638	17051
467.717	16874
467.796	18664
467.875	18789
467.955	18501
468.034	25256
468.113	47636
468.192	66699
468.271	22552
468.350	18885
468.429	21363
468.508	22315
468.588	18683
468.667	15383
468.746	16243
468.825	14865
468.904	14675
468.983	16322
469.062	22483
469.141	23851
469.220	14486
469.299	13720
469.378	17355
469.456	20069
469.535	17505
469.614	16556
469.693	16934
469.772	20268
469.851	25026
469.930	18436
470.009	16873
470.088	17157
470.166	19713
470.245	26223
470.324	30215
470.403	21762
470.482	17351
470.560	15312
470.639	15465
470.718	18351
470.797	15579
470.875	17222
470.954	21865
471.033	21921
471.111	12597
471.190	12461
471.269	11538
471.347	13363
471.426	14402
471.505	16637
471.583	17131
471.662	16568
471.740	14506
471.819	14751
471.898	13650
471.976	13410
472.055	13683
472.133	15179
472.212	18465
472.290	18411
472.369	13748
472.447	13710
472.526	12318
472.604	13187
472.683	14609
472.761	13602
472.839	13484
472.918	12790
472.996	13356
473.075	14446
473.153	14298
473.231	12515
473.310	15533
473.388	14062
473.466	14140
473.545	16518
473.623	20911
473.701	18688
473.780	13839
473.858	12933
473.936	14390
474.014	13760
474.093	14716
474.171	18567
474.249	24432
474.327	16677
474.405	12462
474.484	11786
474.562	13588
474.640	12777
474.718	14053
474.796	14718
474.874	12803
474.952	11679
475.030	12482
475.108	13374
475.187	15796
475.265	15235
475.343	19580
475.421	21426
475.499	13158
475.577	12882
475.655	15601
475.733	26081
475.811	42026
475.889	37387
475.966	25195
476.044	13161
476.122	16028
476.200	19342
476.278	15498
476.356	12501
476.434	13990
476.512	15306
476.590	20163
476.667	16880
476.745	11867
476.823	13259
476.901	11688
476.979	12307
477.056	12153
477.134	13636
477.212	13298
477.290	12258
477.367	10486
477.445	10459
477.523	10539
477.601	11696
477.678	11575
477.756	12965
477.834	14096
477.911	10875
477.989	11494
478.066	9987
478.144	13077
478.222	14894
478.299	22287
478.377	19030
478.454	10512
478.532	9822
478.609	11017
478.687	12390
478.764	11053
478.842	10618
478.919	12038
478.997	11739
479.074	10421
479.152	11777
479.229	13790
479.307	10016
479.384	10539
479.461	9038
479.539	9593
479.616	11780
479.694	10084
479.771	11081
479.848	11865
479.926	13856
480.003	15337
480.080	9653
480.157	9123
480.235	8865
480.312	9472
480.389	11536
480.467	15846
480.544	18721
480.621	12063
480.698	10646
480.775	12318
480.853	12139
480.930	10812
481.007	10281
481.084	11551
481.161	13464
481.238	12058
481.315	8761
481.392	10101
481.470	9884
481.547	10284
481.624	9550
481.701	9809
481.778	9342
481.855	11644
481.932	15912
482.009	24208
482.086	16851
482.163	10374
482.240	16373
482.317	27326
482.393	20738
482.470	11058
482.547	11108
482.624	11583
482.701	10593
482.778	9113
482.855	8938
482.932	9414
483.009	9464
483.085	10492
483.162	12250
483.239	13590
483.316	10289
483.393	10486
483.469	9966
483.546	11249
483.623	11555
483.699	9687
483.776	9229
483.853	10527
483.930	15999
484.006	36440
484.083	62270
484.160	42480
484.236	65010
484.313	47310
484.389	36789
484.466	32806
484.543	30221
484.619	31844
484.696	33199
484.772	33205
484.849	33590
484.925	29491
485.002	28493
485.078	29701
485.155	30006
485.231	27993
485.308	27517
485.384	28148
485.461	32558
485.537	44875
485.614	49628
485.690	28354
485.766	26653
485.843	27294
485.919	34746
485.995	35871
486.072	24049
486.148	24221
486.224	23877
486.301	24452
486.377	26675
486.453	27965
486.530	28236
486.606	37297
486.682	40856
486.758	42926
486.835	45573
486.911	39165
486.987	55620
487.063	60669
487.139	73557
487.215	53853
487.292	30378
487.368	28825
487.444	29596
487.520	34915
487.596	36330
487.672	57757
487.748	135195
487.824	201048
487.900	65196
487.976	31694
488.052	29672
488.128	33035
488.204	27426
488.280	24609
488.356	28885
488.432	47345
488.508	67632
488.584	29508
488.660	22518
488.736	22793
488.812	24340
488.888	31418
488.964	37909
489.039	69183
489.115	101853
489.191	59934
489.267	23405
489.343	22542
489.418	21148
489.494	19959
489.570	20027
489.646	19986
489.722	20452
489.797	21744
489.873	28616
489.949	52414
490.024	44564
490.100	19052
490.176	19627
490.251	23500
490.327	28343
490.403	19468
490.478	18514
490.554	16493
490.629	16766
490.705	16310
490.781	17861
490.856	17392
490.932	19792
491.007	19468
491.083	19428
491.158	17955
491.234	22021
491.309	38735
491.385	39531
491.460	18154
491.536	17758
491.611	16577
491.686	18464
491.762	24607
491.837	42583
491.913	72121
491.988	95497
492.063	119622
492.139	32152
492.214	22963
492.289	14538
492.365	15167
492.440	17350
492.515	16253
492.590	16272
492.666	13170
492.741	17954
492.816	23670
492.891	15253
492.967	14074
493.042	11556
493.117	12134
493.192	12889
493.267	13895
493.342	19852
493.418	18992
493.493	13660
493.568	11516
493.643	12744
493.718	15770
493.793	21591
493.868	24741
493.943	16890
494.018	12946
494.093	12979
494.168	12300
494.243	12595
494.318	11195
494.393	11045
494.468	12227
494.543	11463
494.618	13617
494.693	12398
494.768	12404
494.842	12931
494.917	10956
494.992	12636
495.067	10308
495.142	10467
495.217	12149
495.292	10556
495.366	12757
495.441	16487
495.516	19758
495.591	30632
495.665	89136
495.740	204560
495.815	79749
495.890	16917
495.964	14011
496.039	16195
496.114	14237
496.188	16252
496.263	15979
496.338	13635
496.412	15152
496.487	18396
496.561	18655
496.636	20176
496.710	16338
496.785	17551
496.860	19602
496.934	16384
497.009	16561
497.083	16340
497.158	17379
497.232	20119
497.307	23700
497.381	20782
497.455	23506
497.530	27797
497.604	22134
497.679	23534
497.753	34757
497.827	46263
497.902	44495
497.976	51404
498.050	105531
498.125	337757
498.199	348679
498.273	73712
498.348	57175
498.422	44158
498.496	39197
498.570	34036
498.645	23939
498.719	22370
498.793	25238
498.867	35370
498.941	53151
499.016	136729
499.090	357660
499.164	124291
499.238	17257
499.312	15608
499.386	20241
499.460	18907
499.534	16926
499.609	20151
499.683	27691
499.757	28666
499.831	65000
499.905	230953
499.979	216257
500.053	32493
500.127	32094
500.201	24653
500.275	16164
500.349	15959
500.422	18261
500.496	28017
500.570	60296
500.644	130357
500.718	238389
500.792	53060
500.866	15115
500.940	18354
501.013	15993
501.087	15784
501.161	28513
501.235	38352
501.309	75525
501.382	200360
501.456	178332
501.530	39500
501.603	63714
501.677	25587
501.751	12344
501.825	15638
501.898	29320
501.972	78063
502.046	49071
502.119	16039
502.193	36792
502.266	84506
502.340	43151
502.413	37400
502.487	72935
502.561	41569
502.634	15566
502.708	12737
502.781	12020
502.855	9939
502.928	9118
503.002	8031
503.075	9011
503.149	9167
503.222	9541
503.295	9679
503.369	12425
503.442	19148
503.516	57278
503.589	142741
503.662	92458
503.736	31271
503.809	66062
503.882	58241
503.956	83643
504.029	84324
504.102	77922
504.175	103662
504.249	35791
504.322	17874
504.395	15214
504.468	10013
504.542	10930
504.615	8967
504.688	9111
504.761	8707
504.834	11533
504.907	13464
504.980	21771
505.053	11929
505.127	15570
505.200	15654
505.273	14381
505.346	9261
505.419	8306
505.492	8357
505.565	6867
505.638	6380
505.711	8086
505.784	7277
505.857	5856
505.930	7384
506.003	6589
506.076	8526
506.149	9967
506.221	12185
506.294	12949
506.367	34177
506.440	106989
506.513	57629
506.586	13225
506.659	8902
506.731	8401
506.804	10139
506.877	14279
506.950	10209
507.022	7391
507.095	10160
507.168	12541
507.241	7920
507.313	6952
507.386	8314
507.459	12177
507.531	8068
507.604	6979
507.677	6640
507.749	6768
507.822	10698
507.894	21646
507.967	26302
508.040	16341
508.112	12932
508.185	11989
508.257	12267
508.330	16309
508.402	12296
508.475	11188
508.547	11786
508.620	12493
508.692	16493
508.765	12637
508.837	9785
508.909	10271
508.982	9999
509.054	10936
509.127	9946
509.199	9270
509.271	8517
509.344	9075
509.416	9027
509.488	10163
509.560	8574
509.633	9960
509.705	11602
509.777	11358
509.849	14578
509.922	11052
509.994	9163
510.066	9586
510.138	11979
510.210	23770
510.283	21139
510.355	16992
510.427	14210
510.499	14829
510.571	14276
510.643	13556
510.715	20049
510.787	17214
510.859	13501
510.931	16196
511.003	19471
511.076	18815
511.148	11515
511.219	11914
511.291	17439
511.363	20009
511.435	10966
511.507	10775
511.579	10727
511.651	10655
511.723	10897
511.795	10404
511.867	11529
511.939	12748
512.010	21676
512.082	18769
512.154	10756
512.226	13203
512.298	18792
512.369	26397
512.441	20143
512.513	19486
512.585	15625
512.656	16417
512.728	16669
512.800	13894
512.871	12896
512.943	13761
513.015	11910
513.086	13419
513.158	14470
513.230	14482
513.301	18770
513.373	21754
513.444	13990
513.516	11954
513.588	12586
513.659	13475
513.731	16138
513.802	15086
513.874	26815
513.945	43430
514.016	17234
514.088	11917
514.159	13770
514.231	18531
514.302	24037
514.374	18316
514.445	17013
514.516	25591
514.588	21214
514.659	17176
514.730	25689
514.802	22693
514.873	19115
514.944	18759
515.016	16704
515.087	17789
515.158	21136
515.229	27300
515.301	22738
515.372	26471
515.443	16180
515.514	13971
515.585	11654
515.656	13181
515.728	11640
515.799	11770
515.870	12418
515.941	12149
516.012	13818
516.083	18435
516.154	18780
516.225	22508
516.296	20726
516.367	17060
516.438	19605
516.509	26315
516.580	47331
516.651	134429
516.722	424819
516.793	191989
516.864	33437
516.935	30220
517.006	36352
517.077	59184
517.148	149747
517.219	475978
517.289	749603
517.360	182879
517.431	54471
517.502	20628
517.573	18636
517.643	18522
517.714	20927
517.785	20513
517.856	19673
517.926	22821
517.997	25163
518.068	33412
518.138	51943
518.209	102297
518.280	337864
518.350	1068341
518.421	444198
518.492	44958
518.562	26601
518.633	27952
518.703	30453
518.774	51335
518.845	119413
518.915	119857
518.986	38271
519.056	27744
519.127	42489
519.197	63430
519.268	120779
519.338	79590
519.408	22603
519.479	26961
519.549	20180
519.620	14794
519.690	12860
519.760	13095
519.831	12216
519.901	14047
519.971	10569
520.042	12219
520.112	13698
520.182	16537
520.253	17441
520.323	12505
520.393	14109
520.463	19983
520.534	14798
520.604	24022
520.674	14584
520.744	14894
520.814	26339
520.885	30128
520.955	43695
521.025	134765
521.095	57832
521.165	12900
521.235	11855
521.305	10672
521.375	9690
521.445	12294
521.515	15438
521.585	17580
521.655	16705
521.725	13615
521.795	12934
521.865	10534
521.935	15156
522.005	14289
522.075	10223
522.145	10518
522.215	11785
522.285	16457
522.355	20283
522.424	34905
522.494	31615
522.564	20007
522.634	36502
522.704	95866
522.774	40598
522.843	11653
522.913	10740
522.983	14362
523.053	11542
523.122	11561
523.192	18411
523.262	50860
523.331	51208
523.401	12060
523.471	8825
523.540	9778
523.610	7571
523.680	8229
523.749	8338
523.819	10863
523.888	10807
523.958	9401
524.027	9168
524.097	9741
524.166	10163
524.236	10552
524.305	10069
524.375	8976
524.444	8120
524.514	9857
524.583	9743
524.653	11340
524.722	13489
524.791	9569
524.861	9463
524.930	8480
524.999	9651
525.069	13039
525.138	11275
525.207	11349
525.277	9988
525.346	10083
525.415	9830
525.484	10390
525.554	10437
525.623	10921
525.692	9910
525.761	11065
525.830	11032
525.900	14648
525.969	22838
526.038	43117
526.107	86639
526.176	233129
526.245	198034
526.314	64011
526.383	120741
526.452	180854
526.522	262692
526.591	281179
526.660	64965
526.729	33269
526.797	44467
526.867	101255
526.935	344245
527.004	607835
527.073	356022
527.142	30330
527.211	14052
527.280	14373
527.349	14323
527.418	9111
527.487	8687
527.555	8510
527.624	7793
527.693	7682
527.762	8127
527.831	7393
527.899	8002
527.968	8137
528.037	8151
528.106	9931
528.174	17399
528.243	15562
528.312	18100
528.380	25271
528.449	9086
528.518	8419
528.586	5549
528.655	7056
528.723	6809
528.792	6172
528.861	7337
528.929	6102
528.998	6632
529.066	6270
529.135	6866
529.203	6532
529.272	5561
529.340	7447
529.409	7350
529.477	6611
529.545	8972
529.614	10200
529.682	10240
529.751	11528
529.819	12131
529.887	9813
529.956	6938
530.024	8208
530.092	7002
530.161	10129
530.229	13734
530.297	8892
530.365	7165
530.434	6898
530.502	6458
530.570	7432
530.638	6214
530.707	7801
530.775	9265
530.843	6776
530.911	7332
530.979	7067
531.047	6751
531.115	8165
531.183	7041
531.252	7231
531.320	6909
531.388	6852
531.456	8304
531.524	6406
531.592	7591
531.660	8626
531.728	8480
531.796	7323
531.864	6342
531.932	7823
532.000	6794
532.067	7568
532.135	8130
532.203	9890
532.271	11253
532.339	17175
532.407	39597
532.475	26095
532.542	12333
532.610	13960
532.678	26144
532.746	78771
532.814	187838
532.881	50240
532.949	10605
533.017	9330
533.084	8331
533.152	8369
533.220	8032
533.287	9033
533.355	7804
533.423	8244
533.490	7027
533.558	8277
533.625	8827
533.693	8599
533.761	8801
533.828	10050
533.896	9603
533.963	15667
534.031	19990
534.098	26176
534.166	14177
534.233	8825
534.300	9030
534.368	10109
534.435	9004
534.503	9941
534.570	9995
534.637	10297
534.705	12190
534.772	16977
534.840	31275
534.907	103969
534.974	145258
535.041	20960
535.109	12585
535.176	9559
535.243	9100
535.310	9256
535.378	9122
535.445	8185
535.512	9270
535.579	9030
535.646	8384
535.714	9566
535.781	11678
535.848	11625
535.915	11409
535.982	10102
536.049	8862
536.116	10542
536.183	8421
536.250	9319
536.317	9988
536.384	12182
536.451	14987
536.518	15884
536.585	11490
536.652	14462
536.719	18642
536.786	16428
536.853	13161
536.920	18512
536.987	30264
537.053	34303
537.120	92621
537.187	87069
537.254	12936
537.321	9942
537.388	11251
537.454	10255
537.521	8767
537.588	9866
537.654	12181
537.721	13950
537.788	11864
537.855	11034
537.921	10790
537.988	11159
538.055	9878
538.121	9848
538.188	11040
538.254	16389
538.321	27119
538.388	19733
538.454	11752
538.521	11019
538.587	10805
538.654	9644
538.720	10073
538.787	9140
538.853	10108
538.920	12272
538.986	12589
539.053	10946
539.119	11746
539.185	11698
539.252	12328
539.318	18184
539.385	14832
539.451	14462
539.517	14620
539.583	18631
539.650	31093
539.716	72990
539.782	25801
539.849	12146
539.915	11463
539.981	11851
540.047	13694
540.114	12503
540.180	12316
540.246	13566
540.312	15746
540.378	27034
540.444	32113
540.510	33171
540.576	80334
540.643	29380
540.709	11304
540.775	11699
540.841	11496
540.907	13289
540.973	18998
541.039	17508
541.105	20353
541.171	13343
541.237	11212
541.303	11676
541.369	14289
541.435	16587
541.500	24854
541.566	18117
541.632	10885
541.698	9855
541.764	10273
541.830	10813
541.896	10135
541.961	10896
542.027	11892
542.093	11780
542.159	11929
542.224	12918
542.290	17038
542.356	23964
542.421	29467
542.487	15161
542.553	11824
542.618	12824
542.684	11536
542.750	12904
542.815	15456
542.881	24700
542.947	68040
543.012	57483
543.078	11656
543.143	11098
543.209	11986
543.274	13125
543.340	17170
543.405	28736
543.471	45009
543.536	15544
543.602	11419
543.667	11033
543.732	11894
543.798	11104
543.863	11267
543.928	10526
543.994	10066
544.059	10830
544.124	10311
544.190	10445
544.255	11808
544.320	12369
544.386	12180
544.451	16500
544.516	18918
544.581	20513
544.646	43735
544.712	71034
544.777	19374
544.842	14939
544.907	14454
544.972	13579
545.037	13529
545.102	14917
545.168	14392
545.233	15160
545.298	15072
545.363	19017
545.428	20752
545.493	29966
545.558	59279
545.623	28780
545.688	15324
545.753	14247
545.818	14781
545.883	14809
545.947	15243
546.012	16424
546.077	16029
546.142	16591
546.207	15791
546.272	20231
546.337	21186
546.401	18744
546.466	18210
546.531	17488
546.596	19191
546.661	19108
546.725	19709
546.790	18532
546.855	19156
546.919	20509
546.984	22936
547.049	24627
547.113	28320
547.178	28365
547.243	32851
547.307	37730
547.372	40146
547.436	41990
547.501	40072
547.565	43255
547.630	42689
547.695	40805
547.759	42909
547.823	41268
547.888	39165
547.952	40073
548.017	42129
548.081	45091
548.146	47875
548.210	46058
548.274	46122
548.339	43451
548.403	40830
548.468	37988
548.532	37543
548.596	37982
548.660	39524
548.725	42671
548.789	48405
548.853	47554
548.917	44488
548.982	45926
549.046	43143
549.110	35518
549.174	36324
549.238	40104
549.303	42976
549.367	46721
549.431	43457
549.495	41029
549.559	41558
549.623	47332
549.687	53575
549.751	57347
549.815	60358
549.879	60127
549.943	55574
550.007	60305
550.071	59512
550.135	57731
550.199	51087
550.263	51339
550.327	48307
550.391	53788
550.455	54695
550.519	56379
550.582	60654
550.646	71830
550.710	73580
550.774	66578
550.838	66407
550.901	68504
550.965	71809
551.029	75010
551.093	81710
551.156	90618
551.220	110664
551.284	132225
551.347	95431
551.411	94908
551.475	101259
551.538	73566
551.602	67078
551.666	62898
551.729	58606
551.793	57896
551.856	57448
551.920	56581
551.983	56952
552.047	55522
552.110	56583
552.174	56519
552.237	57853
552.301	53923
552.364	51645
552.428	50582
552.491	50802
552.554	53398
552.618	54596
552.681	55694
552.745	57533
552.808	68321
552.871	82362
552.934	64100
552.998	55084
553.061	51678
553.124	50632
553.187	50457
553.251	51622
553.314	52708
553.377	51356
553.440	55299
553.503	58386
553.567	61332
553.630	55009
553.693	54181
553.756	53520
553.819	54112
553.882	51707
553.945	52548
554.008	52452
554.071	51777
554.134	53077
554.197	50704
554.260	49122
554.323	50174
554.386	50535
554.449	52709
554.512	52172
554.575	49530
554.638	50616
554.701	50015
554.764	48301
554.827	46786
554.889	44570
554.952	43527
555.015	42074
555.078	42418
555.141	43920
555.203	41202
555.266	41670
555.329	43087
555.391	40592
555.454	41651
555.517	40687
555.580	37745
555.642	36439
555.705	36810
555.768	36511
555.830	35772
555.893	32850
555.955	33432
556.018	32381
556.080	33094
556.143	33041
556.206	33795
556.268	34321
556.330	32931
556.393	32912
556.455	31529
556.518	33735
556.580	35543
556.643	28450
556.705	27942
556.767	28010
556.830	29098
556.892	29634
556.955	34326
557.017	30958
557.079	27776
557.142	26584
557.204	28182
557.266	38002
557.328	33800
557.391	23431
557.453	22751
557.515	22653
557.577	25173
557.639	25949
557.701	22525
557.764	21433
557.826	21749
557.888	25402
557.950	25792
558.012	30211
558.074	41104
558.136	67309
558.198	166977
558.260	71502
558.322	24741
558.384	23672
558.446	26703
558.508	30530
558.570	39601
558.632	60232
558.694	98385
558.756	134115
558.818	286168
558.880	744669
558.942	280239
559.003	162950
559.065	95121
559.127	32188
559.189	35961
559.251	50131
559.312	78530
559.374	145400
559.436	454263
559.498	275883
559.559	40039
559.621	37462
559.683	51361
559.744	84783
559.806	202832
559.868	356263
559.929	79914
559.991	44287
560.052	61762
560.114	155332
560.176	124259
560.237	84284
560.299	156513
560.360	43974
560.422	17417
560.483	16275
560.545	16692
560.606	15474
560.667	15913
560.729	14719
560.790	15041
560.852	14239
560.913	14760
560.974	14053
561.036	13941
561.097	13966
561.158	14707
561.220	13626
561.281	15170
561.342	14847
561.403	17652
561.465	20552
561.526	33723
561.587	48188
561.648	18152
561.709	14129
561.771	13254
561.832	13138
561.893	12941
561.954	13309
562.015	13041
562.076	13571
562.137	12660
562.198	13426
562.259	13598
562.320	13830
562.381	14941
562.442	17472
562.503	16103
562.564	12545
562.625	12921
562.686	12332
562.747	13319
562.808	13990
562.869	12905
562.930	15426
562.991	14483
563.051	13706
563.112	13827
563.173	12048
563.234	11955
563.294	12229
563.355	12776
563.416	13096
563.477	13014
563.537	11919
563.598	13360
563.659	13244
563.720	13208
563.780	12636
563.841	13724
563.901	12562
563.962	12258
564.023	12787
564.083	12729
564.144	12611
564.204	13364
564.265	13033
564.325	14020
564.386	20979
564.446	21960
564.507	12441
564.567	12014
564.628	13634
564.688	13301
564.749	11527
564.809	13112
564.869	15005
564.930	12019
564.990	12448
565.050	11956
565.111	12830
565.171	11101
565.231	11812
565.292	13337
565.352	11521
565.412	12718
565.472	12037
565.532	12704
565.593	12356
565.653	12436
565.713	12751
565.773	13658
565.833	14253
565.893	17380
565.953	13714
566.013	13191
566.074	13559
566.134	16119
566.194	20828
566.254	21997
566.314	16962
566.374	13178
566.434	12757
566.494	13166
566.554	13124
566.614	13208
566.673	14070
566.733	14155
566.793	15556
566.853	16224
566.913	14814
566.973	15174
567.033	16523
567.092	16335
567.152	15675
567.212	16536
567.272	15590
567.331	17865
567.391	17461
567.451	18604
567.511	21899
567.570	22501
567.630	17115
567.690	15651
567.749	15850
567.809	16947
567.868	18176
567.928	21400
567.988	24442
568.047	28588
568.107	37072
568.166	50927
568.226	78633
568.285	112665
568.345	87441
568.404	59592
568.464	48309
568.523	45896
568.582	47947
568.642	59175
568.701	79071
568.761	115747
568.820	188958
568.879	177217
568.939	114335
568.998	75151
569.057	53419
569.116	40901
569.176	32543
569.235	27011
569.294	24875
569.353	21899
569.413	20448
569.472	19276
569.531	16817
569.590	17076
569.649	15494
569.708	15656
569.767	14898
569.827	16564
569.886	15061
569.945	13979
570.004	13447
570.063	13443
570.122	14553
570.181	14757
570.240	13914
570.299	15502
570.358	14306
570.417	12077
570.475	11876
570.534	12781
570.593	13608
570.652	12937
570.711	13201
570.770	13324
570.829	13292
570.887	13225
570.946	14292
571.005	12910
571.064	12698
571.122	13015
571.181	13255
571.240	12594
571.299	11579
571.357	11401
571.416	11018
571.475	12981
571.533	14691
571.592	11680
571.650	11275
571.709	11338
571.768	11960
571.826	11886
571.885	11583
571.943	10260
572.002	10738
572.060	11627
572.119	9903
572.177	10475
572.236	9700
572.294	9609
572.352	11373
572.411	10064
572.469	10443
572.528	10685
572.586	10586
572.644	10857
572.703	13162
572.761	11169
572.819	10290
572.877	9849
572.936	9516
572.994	10550
573.052	9214
573.110	9598
573.169	9941
573.227	9269
573.285	9330
573.343	10455
573.401	9685
573.459	9560
573.517	9577
573.576	9979
573.634	10336
573.692	10517
573.750	9394
573.808	10355
573.866	10110
573.924	11429
573.982	11901
574.040	10048
574.098	9117
574.155	9822
574.213	9667
574.271	8981
574.329	9595
574.387	9403
574.445	8627
574.503	8684
574.560	8270
574.618	8799
574.676	8890
574.734	9115
574.792	8826
574.849	7983
574.907	7780
574.965	8783
575.022	7937
575.080	8112
575.138	8607
575.195	8866
575.253	7998
575.311	9827
575.368	8358
575.426	7444
575.483	8155
575.541	7791
575.598	8187
575.656	8481
575.713	8330
575.771	7980
575.828	8567
575.886	7633
575.943	8226
576.001	8874
576.058	8387
576.115	10154
576.173	10473
576.230	11742
576.287	12334
576.345	10481
576.402	9490
576.459	10358
576.517	8316
576.574	10597
576.631	9640
576.688	9409
576.746	8768
576.803	7932
576.860	8405
576.917	8871
576.974	8171
577.031	9122
577.089	8794
577.146	9798
577.203	9042
577.260	9696
577.317	9394
577.374	10313
577.431	9757
577.488	9220
577.545	8272
577.602	8765
577.659	9152
577.716	8553
577.773	8961
577.830	7770
577.886	9280
577.943	8544
578.000	8085
578.057	8891
578.114	9162
578.171	8370
578.227	8861
578.284	8274
578.341	8877
578.398	8556
578.454	9880
578.511	10171
578.568	9984
578.625	9318
578.681	8869
578.738	8645
578.794	7697
578.851	8899
578.908	8684
578.964	9690
579.021	10452
579.077	8941
579.134	8653
579.190	9138
579.247	8173
579.303	8180
579.360	8656
579.416	8914
579.473	8578
579.529	8035
579.586	9409
579.642	8862
579.698	8936
579.755	9205
579.811	9198
579.867	9179
579.924	8402
579.980	8272
580.036	8795
580.093	8915
580.149	9339
580.205	9126
580.261	9877
580.317	9404
580.374	9045
580.430	10583
580.486	11210
580.542	8764
580.598	9872
580.619	9982
580.654	10185
580.692	9438
580.710	9087
580.765	9270
580.767	9286
580.823	9732
580.838	9872
580.879	10286
580.911	10017
580.935	9833
580.984	10244
580.991	10315
581.047	9830
581.057	9810
581.103	9755
581.130	9928
581.159	10147
581.203	10479
581.215	10570
581.270	9674
581.276	9648
581.326	9534
581.349	9503
581.382	9472
581.422	9132
581.438	8991
581.494	10407
581.494	10399
581.550	10390
581.567	10248
581.606	9930
581.640	10357
581.661	10633
581.713	9990
581.717	9946
581.773	10500
581.786	10411
581.829	10054
581.859	10592
581.885	11174
581.932	10634
581.940	10529
581.996	10843
582.004	10851
582.052	10968
582.077	10574
582.107	10038
582.150	10739
582.163	10978
582.219	10590
582.223	10587
582.274	10694
582.296	10818
582.330	10995
582.368	10650
582.386	10504
582.441	10044
582.441	10046
582.497	10615
582.514	10532
582.552	10406
582.587	10460
582.608	10501
582.659	10432
582.663	10421
582.719	10731
582.732	10579
582.774	10323
582.805	10501
582.830	10547
582.877	10611
582.885	10640
582.941	10417
582.950	10490
582.996	10852
583.023	10888
583.052	10846
583.095	10429
583.107	10348
583.162	10505
583.168	10570
583.218	11203
583.240	10955
583.273	10615
583.313	10855
583.328	10905
583.384	10889
583.385	10887
583.439	10857
583.458	10770
583.494	10659
583.531	10796
583.549	10833
583.603	10647
583.605	10643
583.660	10896
583.676	10859
583.715	10720
583.748	10976
583.770	11163
583.820	10617
583.825	10566
583.881	11318
583.893	11176
583.936	10703
583.965	11051
583.991	11217
584.038	10693
584.046	10638
584.101	10896
584.110	10817
584.156	10177
584.183	10473
584.211	10958
584.255	11290
584.266	11329
584.321	10855
584.328	10886
584.376	11394
584.400	11799
584.431	12222
584.472	11865
584.486	11767
584.541	12388
584.545	12364
584.596	11689
584.617	11868
584.651	12274
584.689	12408
584.706	12435
584.761	12700
584.762	12704
584.816	13038
584.834	13028
584.871	12785
584.906	12826
584.926	12823
584.978	13384
584.980	13411
585.035	14236
585.051	14264
585.090	14240
585.123	14404
585.145	14575
585.195	15129
585.200	15203
585.254	16377
585.267	16787
585.309	17714
585.340	18200
585.364	18831
585.412	22214
585.419	22648
585.473	26649
585.484	28051
585.528	34153
585.556	39097
585.583	45255
585.628	57906
585.637	62478
585.692	114783
585.700	128758
585.747	210788
585.772	187162
585.801	129288
585.845	58125
585.856	44412
585.910	25399
585.917	23521
585.965	20533
585.989	19672
586.019	19206
586.061	18526
586.074	18395
586.128	19073
586.133	19101
586.183	19027
586.205	19177
586.237	19462
586.277	19537
586.292	19629
586.346	20297
586.349	20351
586.401	20937
586.421	20948
586.455	20739
586.493	21029
586.509	21497
586.564	23428
586.565	23570
586.618	30267
586.637	31087
586.672	30762
586.709	27462
586.727	25639
586.781	24822
586.781	24806
586.835	23915
586.853	23364
586.889	22534
586.925	22940
586.944	23246
586.996	23368
586.998	23364
587.052	24297
587.068	24523
587.106	24814
587.140	25647
587.161	26203
587.212	27397
587.215	27433
587.269	27550
587.284	27851
587.323	28751
587.356	29534
587.377	29968
587.427	30932
587.431	30983
587.485	32067
587.499	32518
587.539	33846
587.571	34539
587.593	34979
587.643	36974
587.648	37111
587.702	38393
587.715	38921
587.755	41290
587.786	42861
587.810	43713
587.858	45863
587.864	46129
587.917	49556
587.930	50553
587.971	54460
588.001	57255
588.025	59297
588.073	63351
588.079	63912
588.133	70679
588.145	72401
588.187	78843
588.217	83989
588.241	88270
588.288	97387
588.295	98815
588.348	113557
588.360	117396
588.402	132544
588.431	144090
588.456	154660
588.503	178208
588.510	181752
588.564	218390
588.575	227586
588.617	266751
588.646	297416
588.671	330111
588.718	399773
588.725	413714
588.778	538200
588.789	566783
588.832	730418
588.861	841428
588.886	942349
588.932	1070596
588.939	1063589
588.993	947902
589.004	953979
589.047	1033033
589.075	1055522
589.100	983679
589.147	777234
589.154	749674
589.207	550792
589.218	515725
589.261	455716
589.290	424900
589.314	423234
589.361	434560
589.368	442602
589.421	531108
589.433	554322
589.475	714816
589.504	821053
589.528	900548
589.576	987941
589.582	977384
589.635	940510
589.647	924275
589.689	768984
589.718	631858
589.742	526812
589.790	334497
589.795	322959
589.849	235245
589.861	217027
589.902	183070
589.932	160740
589.955	148026
590.004	123193
590.009	121128
590.062	102716
590.075	98705
590.115	89606
590.146	82936
590.168	79210
590.218	71967
590.222	71387
590.275	65802
590.289	64373
590.328	60404
590.360	57484
590.381	55911
590.431	52654
590.435	52375
590.488	48713
590.503	47896
590.541	45928
590.574	44162
590.594	43288
590.645	41560
590.647	41458
590.700	40052
590.716	39681
590.753	38369
590.787	37161
590.806	36721
590.859	36014
590.859	35975
590.912	35734
590.930	35573
590.965	34085
591.001	33008
591.018	32965
591.071	32829
591.072	32851
591.124	31276
591.143	30769
591.177	30532
591.214	30272
591.230	30100
591.283	30005
591.285	30012
591.336	29447
591.356	29243
591.389	28878
591.427	28697
591.442	28611
591.495	27998
591.498	27983
591.547	27200
591.569	26854
591.600	26796
591.640	26741
591.653	26631
591.706	26228
591.711	26202
591.759	25729
591.782	25526
591.811	25840
591.853	26351
591.864	26230
591.917	25564
591.924	25481
591.969	25140
591.995	25032
592.022	25135
592.066	25322
592.075	25268
592.127	24936
592.137	24922
592.180	25882
592.208	26499
592.233	26003
592.279	24987
592.285	24894
592.338	24288
592.350	24172
592.390	23705
592.421	23369
592.443	23414
592.491	23547
592.495	23514
592.548	23203
592.562	23131
592.600	23097
592.633	23093
592.653	23157
592.704	23237
592.705	23354
592.775	22583
592.846	22190
592.916	23085
592.987	23788
593.058	22827
593.128	22911
593.199	22454
593.270	22527
593.341	22281
593.411	22694
593.482	22062
593.553	23414
593.623	23577
593.694	22084
593.764	23476
593.835	22777
593.906	21965
593.976	22188
594.047	22359
594.117	24123
594.188	25796
594.258	24220
594.329	23480
594.399	23873
594.470	23951
594.540	23686
594.611	23892
594.681	23903
594.751	24303
594.822	25445
594.892	25349
594.963	26003
595.033	26268
595.103	26986
595.174	26528
595.244	29547
595.314	34275
595.384	30433
595.455	27864
595.525	28933
595.595	29771
595.665	30655
595.736	28973
595.806	30006
595.876	29814
595.946	29742
596.016	30550
596.087	30503
596.157	31324
596.227	31299
596.297	32252
596.367	32716
596.437	35361
596.507	36955
596.577	40150
596.647	37932
596.717	36934
596.787	38860
596.857	37914
596.927	37724
596.997	37916
597.067	38207
597.137	38447
597.207	38244
597.277	38445
597.347	38974
597.417	37824
597.487	37642
597.557	37599
597.626	38662
597.696	39489
597.766	40394
597.836	41770
597.906	38297
597.975	34723
598.045	34342
598.115	35989
598.185	36558
598.254	40094
598.324	44233
598.394	46165
598.464	46157
598.533	44447
598.603	42568
598.672	41192
598.742	41157
598.812	40303
598.881	41892
598.951	42695
599.020	41612
599.090	42904
599.159	43425
599.229	42262
599.299	41216
599.368	41261
599.437	42185
599.507	39456
599.576	38193
599.646	37833
599.715	37510
599.785	35493
599.854	35819
599.924	35626
599.993	36244
600.062	34967
600.132	36858
600.201	37630
600.270	42011
600.340	45528
600.409	45527
600.478	44893
600.547	44356
600.617	44065
600.686	36319
600.755	32349
600.824	31829
600.894	30257
600.963	30566
601.032	29749
601.101	28599
601.170	27439
601.239	27409
601.308	26989
601.378	27781
601.447	27065
601.516	26414
601.585	27393
601.654	29009
601.723	27971
601.792	28135
601.861	29203
601.930	30820
601.999	31369
602.068	30509
602.137	30539
602.206	31917
602.275	30878
602.343	32703
602.412	32585
602.481	32330
602.550	31027
602.619	31841
602.688	33008
602.756	33035
602.825	32535
602.894	33767
602.963	34651
603.032	33684
603.100	34255
603.169	33573
603.238	34602
603.307	34251
603.375	34811
603.444	35140
603.513	36099
603.581	35097
603.650	36816
603.719	37233
603.787	36280
603.856	37551
603.924	37713
603.993	39375
604.061	39875
604.130	42485
604.198	42033
604.267	42715
604.335	45009
604.404	44754
604.472	45265
604.541	45886
604.609	46103
604.678	46573
604.746	46721
604.815	47829
604.883	49589
604.951	50257
605.020	49083
605.088	50865
605.156	50483
605.225	52227
605.293	51538
605.361	51792
605.429	52469
605.498	53246
605.566	54605
605.634	57329
605.702	58647
605.771	61269
605.839	61395
605.907	60294
605.975	59465
606.043	58184
606.111	57310
606.180	57199
606.248	56710
606.316	55263
606.384	56063
606.452	58169
606.520	59465
606.588	60497
606.656	58199
606.724	58313
606.792	56360
606.860	51360
606.928	45885
606.996	44453
607.064	42364
607.132	43049
607.200	44328
607.267	47761
607.335	47263
607.403	49588
607.471	49223
607.539	46514
607.607	46677
607.674	42169
607.742	41389
607.810	41262
607.878	41087
607.946	41648
608.013	42865
608.081	45197
608.149	44751
608.216	45395
608.284	49000
608.352	47334
608.419	47843
608.487	48266
608.555	47415
608.622	47329
608.690	48970
608.757	52616
608.825	56597
608.893	54987
608.960	54393
609.028	50856
609.095	53014
609.163	51731
609.230	47500
609.298	42034
609.365	42027
609.432	44914
609.500	48494
609.567	54703
609.635	63698
609.702	69439
609.769	68582
609.837	59032
609.904	46807
609.971	46699
610.039	49438
610.106	58013
610.173	87389
610.241	186074
610.308	233409
610.375	113130
610.442	60002
610.509	48478
610.577	46258
610.644	46793
610.711	46653
610.778	49453
610.845	50271
610.912	52733
610.980	55233
611.047	57087
611.114	54573
611.181	54800
611.248	53008
611.315	54761
611.382	56857
611.449	58176
611.516	59383
611.583	60503
611.650	60687
611.717	60565
611.784	62035
611.851	64124
611.918	67667
611.984	77732
612.051	95121
612.118	150366
612.185	337004
612.252	443694
612.319	122737
612.386	79633
612.452	74241
612.519	69489
612.586	68687
612.653	70590
612.719	70176
612.786	69741
612.853	64420
612.919	61731
612.986	63649
613.053	59255
613.120	56850
613.186	52867
613.253	55081
613.319	54028
613.386	54707
613.453	53672
613.519	55728
613.586	56092
613.652	60511
613.719	59002
613.785	59968
613.852	57208
613.918	56592
613.985	56573
614.051	57955
614.118	57962
614.184	57004
614.250	55349
614.317	57141
614.383	55074
614.449	56411
614.516	56792
614.582	57114
614.648	56467
614.715	55251
614.781	55213
614.847	54619
614.914	56010
614.980	54869
615.046	53036
615.112	53784
615.179	55499
615.245	56931
615.311	57236
615.377	63333
615.443	70118
615.509	62090
615.575	59193
615.642	58742
615.708	59357
615.774	62944
615.840	66909
615.906	73831
615.972	85982
616.038	120759
616.104	198383
616.170	389454
616.236	632468
616.302	191313
616.368	96524
616.434	79189
616.500	68286
616.565	69671
616.631	80037
616.697	78580
616.763	74205
616.829	84625
616.895	135914
616.961	175631
617.026	102323
617.092	63359
617.158	60230
617.224	58210
617.289	54656
617.355	53093
617.421	52373
617.487	51469
617.552	50463
617.618	48839
617.684	48904
617.749	49721
617.815	47345
617.880	45984
617.946	45280
618.012	46426
618.077	46927
618.143	47033
618.208	45123
618.274	48599
618.339	50769
618.405	45751
618.470	41341
618.536	43046
618.601	42504
618.667	40754
618.732	38148
618.798	38358
618.863	37564
618.928	36252
618.994	37109
619.059	38329
619.124	40612
619.190	38993
619.255	37261
619.320	37235
619.386	37920
619.451	36944
619.516	35956
619.581	35780
619.647	35796
619.712	37095
619.777	35341
619.842	35871
619.907	36023
619.972	37122
620.038	37146
620.103	35572
620.168	35027
620.233	35501
620.298	36193
620.363	37065
620.428	36612
620.493	38672
620.558	39017
620.623	38365
620.688	40137
620.753	38030
620.818	39970
620.883	38964
620.948	39474
621.013	39865
621.078	39733
621.143	38782
621.207	40888
621.272	38656
621.337	38831
621.402	39658
621.467	40300
621.532	40810
621.596	39644
621.661	39566
621.726	37020
621.791	38273
621.855	38162
621.920	38492
621.985	38443
622.049	39886
622.114	40058
622.179	40078
622.243	41322
622.308	41162
622.373	41369
622.437	42730
622.502	40696
622.566	39709
622.631	40792
622.695	40098
622.760	40374
622.824	39053
622.889	40683
622.953	41304
623.018	43963
623.082	48799
623.147	42907
623.211	42164
623.276	40717
623.340	40359
623.404	38607
623.469	39143
623.533	38553
623.597	37636
623.662	36991
623.726	36239
623.790	34008
623.854	33187
623.919	33059
623.983	32255
624.047	34723
624.111	33855
624.176	34874
624.240	35408
624.304	36490
624.368	36177
624.432	34021
624.496	35951
624.560	37564
624.625	38420
624.689	36407
624.753	37385
624.817	38224
624.881	36953
624.945	34969
625.009	31690
625.073	33115
625.137	32525
625.201	34727
625.265	37461
625.329	34165
625.393	33516
625.456	34131
625.520	34849
625.584	35784
625.648	38410
625.712	41248
625.776	48962
625.839	59676
625.903	47858
625.967	30112
626.031	32782
626.095	41201
626.158	39666
626.222	29253
626.286	24107
626.349	24063
626.413	23489
626.477	23679
626.540	23165
626.604	22820
626.668	22673
626.731	22321
626.795	22688
626.858	22303
626.922	21791
626.986	21907
627.049	21330
627.113	22622
627.176	22037
627.240	21369
627.303	21149
627.366	20867
627.430	20979
627.493	20660
627.557	20367
627.620	20566
627.684	21045
627.747	22460
627.810	20767
627.874	19719
627.937	17457
628.000	18488
628.064	18431
628.127	16787
628.190	16283
628.253	15995
628.317	16369
628.380	14598
628.443	14216
628.506	14994
628.569	15397
628.632	13440
628.696	13658
628.759	13851
628.822	12959
628.885	12816
628.948	12781
629.011	13398
629.074	12106
629.137	13012
629.200	12294
629.263	12599
629.326	11812
629.389	12842
629.452	12781
629.515	11951
629.578	11270
629.641	11459
629.704	11979
629.767	12866
629.830	11902
629.892	11422
629.955	10652
630.018	11731
630.081	10797
630.144	12597
630.207	11584
630.269	12921
630.332	11349
630.395	10802
630.458	10669
630.520	10590
630.583	11227
630.646	10542
630.708	10413
630.771	9751
630.834	10597
630.896	10314
630.959	10545
631.021	10125
631.084	10139
631.146	9643
631.209	10624
631.272	10370
631.334	10291
631.397	9706
631.459	10078
631.522	10160
631.584	10376
631.646	11321
631.709	11305
631.771	12605
631.834	12453
631.896	10990
631.958	9902
632.021	10130
632.083	10066
632.145	10159
632.208	8774
632.270	10268
632.332	9737
632.395	8913
632.457	10364
632.519	9653
632.581	9256
632.643	9138
632.706	9749
632.768	9559
632.830	9459
632.892	9750
632.954	10763
633.016	10302
633.078	9576
633.141	9244
633.203	8637
633.265	9250
633.327	8680
633.389	9192
633.451	9111
633.513	10216
633.575	10803
633.637	10531
633.698	10685
633.760	10048
633.822	9573
633.884	9737
633.946	9918
634.008	9275
634.070	9747
634.132	9954
634.193	10600
634.255	11412
634.317	11805
634.379	12752
634.441	10899
634.502	11128
634.564	9422
634.626	9703
634.687	9225
634.749	8660
634.811	9058
634.873	9637
634.934	8818
634.996	7653
635.057	9114
635.119	8678
635.181	8403
635.242	8635
635.304	8139
635.365	8769
635.427	8741
635.488	8999
635.550	8624
635.611	9630
635.673	8174
635.734	9087
635.796	9518
635.857	9992
635.918	9185
635.980	10785
636.041	11040
636.102	11049
636.164	11746
636.225	10739
636.286	10077
636.348	9490
636.409	8836
636.470	8491
636.531	8885
636.593	8482
636.654	8686
636.715	8391
636.776	7805
636.838	7331
636.899	7860
636.960	8128
637.021	7172
637.082	7680
637.143	7501
637.204	6937
637.265	6519
637.326	7266
637.387	6963
637.448	6889
637.509	7294
637.570	7258
637.631	8085
637.692	5987
637.753	6684
637.814	6527
637.875	6498
637.936	6835
637.997	7154
638.058	7007
638.119	6778
638.179	7594
638.240	7012
638.301	6742
638.362	6586
638.423	5951
638.483	6844
638.544	5966
638.605	6496
638.666	6234
638.726	6245
638.787	6581
638.848	5951
638.908	6336
638.969	6629
639.030	6420
639.090	5989
639.151	6011
639.211	6896
639.272	6556
639.332	9000
639.393	8912
639.453	6240
639.514	6645
639.574	6070
639.635	5913
639.695	5775
639.756	5934
639.816	6751
639.877	6301
639.937	7480
639.997	9671
640.058	7720
640.118	5196
640.178	5628
640.239	4936
640.299	5013
640.359	5900
640.420	5490
640.480	6631
640.540	6071
640.600	7012
640.661	6268
640.721	6067
640.781	7583
640.841	6374
640.901	6233
640.961	6468
641.021	5537
641.082	6385
641.142	7215
641.202	7623
641.262	4893
641.322	6479
641.382	5474
641.442	5667
641.502	5504
641.562	6141
641.622	5778
641.682	5563
641.742	6129
641.802	6293
641.861	6468
641.921	5731
641.981	5566
642.041	5573
642.101	6232
642.161	5793
642.221	5235
642.280	4968
642.340	4852
642.400	5385
642.460	5166
642.519	5309
642.579	4983
642.639	4961
642.698	4382
642.758	6283
642.818	5390
642.877	5464
642.937	5166
642.997	5574
643.056	6091
643.116	6026
643.175	5732
643.235	4973
643.294	5714
643.354	6000
643.414	6980
643.473	6882
643.532	8191
643.592	12133
643.651	16484
643.711	25777
643.770	44491
643.830	84976
643.889	249625
643.948	206742
644.008	25012
644.067	10095
644.126	8018
644.186	6669
644.245	6482
644.304	5223
644.363	6378
644.423	5701
644.482	5297
644.541	5817
644.600	5387
644.659	6861
644.719	6500
644.778	10141
644.837	13594
644.896	22504
644.955	55901
645.014	60229
645.073	10621
645.132	6505
645.191	6021
645.250	5206
645.309	5841
645.368	5355
645.427	7189
645.486	7290
645.545	15416
645.604	12042
645.663	5790
645.722	5662
645.781	5337
645.840	6532
645.898	7303
645.957	10441
646.016	14600
646.075	23415
646.134	40118
646.192	80773
646.251	224227
646.310	112662
646.369	14566
646.427	8831
646.486	7687
646.545	6378
646.603	5755
646.662	4977
646.721	5208
646.779	5190
646.838	3924
646.896	6240
646.955	6459
647.014	8681
647.072	14138
647.131	31257
647.189	47254
647.248	9265
647.306	5133
647.365	4491
647.423	3816
647.481	4254
647.540	3285
647.598	3645
647.657	3744
647.715	3565
647.773	4168
647.832	4175
647.890	3281
647.948	3391
648.007	3089
648.065	3066
648.123	3204
648.181	4617
648.240	2998
648.298	2548
648.356	3253
648.414	3205
648.472	3218
648.531	4118
648.589	4027
648.647	3434
648.705	3538
648.763	3622
648.821	3517
648.879	4096
648.937	3665
648.995	4415
649.053	5384
649.111	7962
649.169	11493
649.227	18766
649.285	30813
649.343	79804
649.401	127868
649.459	24559
649.516	11907
649.574	4731
649.632	5541
649.690	5016
649.748	5351
649.806	5762
649.863	10717
649.921	19283
649.979	37729
650.037	10126
650.094	3382
650.152	2797
650.210	2740
650.268	2711
650.325	2595
650.383	3000
650.440	2285
650.498	3701
650.556	3172
650.613	2256
650.671	2155
650.728	2531
650.786	2088
650.843	3212
650.901	2009
650.958	2008
651.016	2631
651.073	2352
651.131	2320
651.188	1407
651.246	2356
651.303	1778
651.360	2274
651.418	2029
651.475	2943
651.532	948
651.590	2381
651.647	1763
651.704	2347
651.762	1739
651.819	2569
651.876	1990
651.933	2039
651.990	2594
652.048	1199
652.105	2142
652.162	2811
652.219	1437
652.276	2098
652.333	1784
652.390	1067
652.448	2623
652.505	1475
652.562	1569
652.619	2046
652.676	1856
652.733	1582
652.790	1803
652.847	1003
652.904	1675
652.961	540
653.017	1543
653.074	1597
653.131	1810
653.188	1315
653.245	2188
653.302	1658
653.359	1066
653.415	1220
653.472	2129
653.529	1537
653.586	1256
653.642	1253
653.699	1802
653.756	1246
653.813	1975
653.869	1586
653.926	1760
653.983	1356
654.039	1380
654.096	1242
654.152	1862
654.209	1530
654.266	1803
654.322	1153
654.379	2225
654.435	2023
654.492	2262
654.548	1923
654.605	2404
654.661	3057
654.717	1668
654.774	1616
654.830	1819
654.887	2045
654.943	1084
655.000	1851
655.056	1667
655.112	1959
655.168	1665
655.225	1496
655.281	1535
655.337	1765
655.394	2917
655.450	3089
655.506	1784
655.562	2154
655.618	3694
655.675	1483
655.731	1506
655.787	1535
655.843	2158
655.899	1920
655.955	2368
656.011	2079
656.067	489
656.123	2318
656.179	2747
656.235	2339
656.291	1687
656.347	2954
656.403	1385
656.459	1912
656.515	1577
656.571	2607
656.627	2912
656.683	2093
656.739	2118
656.795	2082
656.850	1422
656.906	2018
656.962	2759
657.018	1190
657.074	1600
657.129	1697
657.185	2984
657.241	2862
657.297	5728
657.352	3067
657.408	1147
657.464	2541
657.519	1742
657.575	360
657.630	1667
657.686	1154
657.742	998
657.797	927
657.853	909
657.908	2487
657.964	-72
658.019	865
658.075	1844
658.130	1953
658.186	498
658.241	891
658.297	1349
658.352	469
658.407	1889
658.463	767
658.518	808
658.573	998
658.629	518
658.684	1238
658.739	1026
658.795	136
658.850	1059
658.905	779
658.960	1991
659.016	465
659.071	1266
659.126	1302
659.181	890
659.236	1709
659.291	3056
659.346	1850
659.401	1174
659.457	1986
659.512	641
659.567	1504
659.622	927
659.677	705
659.732	580
659.787	1318
659.842	894
659.897	1413
659.952	1585
660.007	839
660.061	1412
660.116	762
660.171	970
660.226	455
660.281	2276
660.336	772
660.391	582
660.445	342
660.500	1851
660.555	1009
660.610	500
660.664	911
660.719	1414
660.774	1023
660.828	904
660.883	941
660.938	1427
660.992	936
661.047	896
661.101	1034
661.156	1156
661.211	1194
661.265	1072
661.320	-192
661.374	884
661.429	940
661.483	1221
661.538	1099
661.592	1034
661.647	933
661.701	1150
661.755	1292
661.810	1539
661.864	123
661.919	370
661.973	1070
662.027	1380
662.081	594
662.136	569
662.190	929
662.244	1680
662.299	1852
662.353	773
662.407	419
662.461	1037
662.515	1545
662.569	925
662.624	1191
662.678	622
662.732	1316
662.786	1001
662.840	1171
662.894	1744
662.948	647
663.002	1595
663.056	888
663.110	787
663.164	844
663.218	1174
663.272	1209
663.326	1710
663.380	850
663.434	1199
663.488	804
663.542	1087
663.595	1214
663.649	644
663.703	1545
663.757	1587
663.811	503
663.864	1202
663.918	1116
663.972	1173
664.026	928
664.079	267
664.133	973
664.187	1267
664.240	783
664.294	789
664.348	1324
664.401	1323
664.455	1171
664.508	1331
664.562	679
664.615	1291
664.669	597
664.722	978
664.776	1114
664.829	395
664.883	1087
664.936	684
664.990	276
665.043	1404
665.097	374
665.150	1581
665.203	431
665.257	862
665.310	1211
665.363	842
665.417	685
665.470	1295
665.523	536
665.576	1467
665.630	1027
665.683	968
665.736	597
665.789	1649
665.842	639
665.895	974
665.949	1606
666.002	1117
666.055	918
666.108	1011
666.161	1112
666.214	1152
666.267	419
666.320	1438
666.373	1380
666.426	1343
666.479	523
666.532	1080
666.585	852
666.638	1357
666.691	781
666.744	1541
666.796	1191
666.849	1345
666.902	1357
666.955	1295
667.008	1710
667.060	638
667.113	698
667.166	1249
667.219	1059
667.271	1472
667.324	1258
667.377	747
667.430	895
667.482	237
667.535	989
667.587	1425
667.640	1492
667.693	905
667.745	1794
667.798	2677
667.850	1692
667.903	328
667.955	1283
668.008	1319
668.060	1601
668.113	1287
668.165	1646
668.218	606
668.270	1336
668.322	822
668.375	428
668.427	1223
668.479	584
668.532	1119
668.584	868
668.636	1580
668.689	1383
668.741	1291
668.793	1478
668.845	523
668.898	1112
668.950	876
669.002	1250
669.054	623
669.106	933
669.158	1350
669.211	1282
669.263	775
669.315	1294
669.367	942
669.419	670
669.471	2053
669.523	1279
669.575	2468
669.627	2241
669.679	1234
669.731	1514
669.783	1397
669.835	1573
669.886	1378
669.938	1199
669.990	1443
670.042	1248
670.094	1687
670.146	2170
670.197	2194
670.249	3326
670.301	3511
670.353	5282
670.404	7331
670.456	10617
670.508	16445
670.560	24984
670.611	42132
670.663	69970
670.715	127983
670.766	306917
670.818	302238
670.869	67403
670.921	16173
670.972	9386
671.024	6483
671.075	4943
671.127	4599
671.178	3207
671.230	2261
671.281	2828
671.333	2647
671.384	2136
671.436	2694
671.487	2869
671.538	3220
671.590	3719
671.641	6240
671.692	7892
671.744	17294
671.795	25070
671.846	10650
671.897	3630
671.949	2901
672.000	2063
672.051	1441
672.102	937
672.153	461
672.204	1371
672.256	994
672.307	913
672.358	1441
672.409	1800
672.460	2221
672.511	1352
672.562	1075
672.613	909
672.664	785
672.715	892
672.766	832
672.817	937
672.868	712
672.919	909
672.970	857
673.021	637
673.071	282
673.122	960
673.173	280
673.224	659
673.275	925
673.326	1047
673.376	768
673.427	-11
673.478	845
673.528	915
673.579	483
673.630	704
673.680	1670
673.731	-67
673.782	1158
673.832	428
673.883	626
673.934	27
673.984	917
674.035	352
674.085	929
674.136	1570
674.186	1018
674.237	850
674.287	1250
674.338	1674
674.388	254
674.438	550
674.489	706
674.539	-67
674.589	1927
674.640	678
674.690	809
674.740	606
674.791	1666
674.841	589
674.891	1001
674.942	231
674.992	1002
675.042	700
675.092	-284
675.142	623
675.193	1145
675.243	520
675.293	923
675.343	334
675.393	665
675.443	589
675.493	321
675.543	417
675.593	485
675.643	944
675.693	208
675.743	605
675.793	1349
675.843	-74
675.893	471
675.943	533
675.993	220
676.043	210
676.093	1332
676.142	486
676.192	984
676.242	1062
676.292	-56
676.341	873
676.391	685
676.441	362
676.491	216
676.540	269
676.590	104
676.640	57
676.689	803
676.739	-374
676.789	404
676.838	21
676.888	0
676.937	317
676.987	39
677.037	-41
677.086	13
677.136	-458
677.185	558
677.235	221
677.284	115
677.333	-385
677.383	193
677.432	-298
677.482	270
677.531	551
677.580	-768
677.630	-81
677.679	-193
677.728	-172
677.778	613
677.827	-99
677.876	-396
677.925	-199
677.975	509
678.024	408
678.073	-475
678.122	778
678.171	-499
678.220	-10
678.269	-76
678.319	1135
678.368	514
678.417	620
678.466	1001
678.515	186
678.564	-268
678.613	283
678.662	335
678.711	194
678.760	449
678.809	25
678.857	425
678.906	-231
678.955	-233
679.004	-181
679.053	485
679.102	341
679.151	361
679.199	342
679.248	-118
679.297	98
679.346	-393
679.394	253
679.443	103
679.492	-423
679.540	47
679.589	373
679.638	233
679.686	-377
679.735	446
679.784	-433
679.832	975
679.881	31
679.929	-456
679.978	-471
680.026	-191
680.075	109
680.123	-315
680.172	-53
680.220	-579
680.268	-678
680.317	18
680.365	-272
680.414	-526
680.462	480
680.510	656
680.559	201
680.607	-375
680.655	-211
680.703	363
680.752	159
680.800	906
680.848	-567
680.896	569
680.945	-410
680.993	78
681.041	-1039
681.089	-75
681.137	576
681.185	-441
681.233	-145
681.258	98
681.281	302
681.329	319
681.377	-22
681.380	-16
681.425	-403
681.473	425
681.502	198
681.521	-10
681.569	889
681.617	-246
681.624	-185
681.665	23
681.713	722
681.745	135
681.761	-185
681.809	946
681.857	587
681.867	559
681.904	329
681.952	516
681.989	452
682.000	405
682.048	819
682.096	76
682.111	294
682.143	688
682.191	1489
682.233	1182
682.239	1106
682.286	1115
682.334	998
682.354	1008
682.382	963
682.430	1243
682.476	1102
682.477	1075
682.525	967
682.572	882
682.598	1145
682.620	1328
682.667	1508
682.715	1148
682.720	1196
682.763	1385
682.810	1453
682.841	1653
682.857	1727
682.905	2021
682.952	1758
682.963	1743
683.000	1562
683.047	2056
683.085	2343
683.095	2412
683.142	1614
683.190	1967
683.206	2011
683.237	1996
683.284	2026
683.328	2039
683.332	2018
683.379	2669
683.426	2601
683.449	2243
683.473	1860
683.521	2286
683.568	1774
683.571	1865
683.615	2785
683.662	2253
683.693	2617
683.709	2806
683.757	2588
683.804	2618
683.814	2789
683.851	3280
683.898	3183
683.936	2970
683.945	2895
683.992	2260
684.039	2837
684.057	2682
684.086	2457
684.133	2994
684.179	3039
684.180	3019
684.227	3232
684.274	3492
684.300	3669
684.321	3785
684.368	3083
684.415	3586
684.422	3505
684.462	2949
684.509	3412
684.543	3727
684.556	3808
684.603	3078
684.649	3142
684.665	3129
684.696	3116
684.743	3690
684.786	3925
684.790	3937
684.837	4172
684.883	4336
684.908	3976
684.930	3636
684.977	4830
685.023	4204
685.029	4238
685.070	4175
685.117	3478
685.150	4027
685.164	4278
685.210	4685
685.257	5176
685.272	5112
685.303	4948
685.350	4730
685.393	5414
685.396	5450
685.443	4971
685.490	5854
685.514	5451
685.536	5150
685.583	5208
685.629	6144
685.636	6078
685.675	5256
685.722	4830
685.757	5224
685.768	5423
685.815	5185
685.861	4818
685.878	5091
685.908	5538
685.954	5098
686.000	5685
686.000	5690
686.047	5213
686.093	5977
686.121	6274
686.139	6443
686.185	6243
686.232	6969
686.242	7034
686.278	6823
686.324	5743
686.363	5398
686.370	5362
686.416	5547
686.463	5988
686.484	5658
686.509	5371
686.555	5515
686.601	5792
686.606	5789
686.647	5690
686.693	5878
686.727	6046
686.739	6139
686.785	5922
686.831	6392
686.848	6332
686.877	6055
686.923	6132
686.969	6152
686.969	6151
687.015	6109
687.061	6081
687.090	6269
687.107	6397
687.153	6432
687.199	6853
687.211	6670
687.245	6110
687.291	6271
687.332	6200
687.336	6196
687.382	6709
687.428	6862
687.453	6944
687.474	6952
687.520	6456
687.565	6383
687.574	6374
687.611	6490
687.657	6400
687.695	6830
687.702	6938
687.748	6920
687.794	7547
687.816	7656
687.839	7595
687.885	7197
687.931	6880
687.937	6884
687.976	7035
688.022	7123
688.058	6890
688.067	6822
688.113	7020
688.158	7134
688.179	7036
688.204	6951
688.249	6964
688.295	7143
688.300	7136
688.340	7222
688.386	7753
688.421	7621
688.431	7560
688.477	7115
688.522	7483
688.542	7571
688.567	7778
688.613	7413
688.658	7635
688.663	7600
688.703	7500
688.749	8123
688.784	8313
688.794	8268
688.839	7768
688.884	7697
688.905	7579
688.930	7634
688.975	8221
689.020	7580
689.026	7697
689.065	8570
689.110	7861
689.146	7993
689.155	7999
689.201	7947
689.246	7949
689.267	7974
689.291	8159
689.336	7873
689.381	7850
689.388	7871
689.426	7843
689.471	8259
689.509	8199
689.516	8213
689.561	7894
689.606	8118
689.630	8147
689.651	8161
689.696	7887
689.741	8273
689.750	8196
689.785	8105
689.830	8296
689.871	8518
689.875	8520
689.920	7485
689.965	7647
689.992	7581
690.010	7693
690.054	7770
690.099	7931
690.112	7995
690.144	8196
690.189	8159
690.233	8012
690.233	8023
690.278	8174
690.323	8090
690.354	7978
690.367	8034
690.412	7996
690.457	8423
690.474	8448
690.501	8281
690.546	8283
690.590	8185
690.595	8149
690.635	8361
690.680	8011
690.716	8376
690.724	8384
690.769	7944
690.813	7686
690.836	7652
690.857	8065
690.902	8595
690.946	9424
690.957	9450
690.991	9002
691.035	9442
691.077	8994
691.080	9015
691.124	9181
691.168	10066
691.198	9929
691.213	9707
691.257	9889
691.301	9627
691.318	9580
691.346	9692
691.390	9652
691.434	9671
691.439	9644
691.478	9352
691.522	9344
691.559	9150
691.567	9201
691.611	9371
691.655	9441
691.680	9564
691.699	9563
691.743	9608
691.787	9730
691.800	9514
691.831	9376
691.875	10090
691.919	10433
691.921	10418
691.964	10235
692.008	10300
692.041	10265
692.052	10318
692.096	10476
692.139	10352
692.162	10480
692.183	10445
692.227	10162
692.271	9842
692.282	9735
692.315	9953
692.359	9993
692.402	10463
692.403	10485
692.447	10185
692.490	10138
692.523	9875
692.534	9911
692.578	10219
692.622	10439
692.643	10580
692.666	10554
692.709	10273
692.753	10044
692.763	10003
692.797	10190
692.840	9975
692.884	10352
692.884	10377
692.928	10086
692.971	10173
693.004	10153
693.015	10185
693.059	10437
693.102	10230
693.124	10290
693.146	10366
693.189	10252
693.233	10325
693.245	10272
693.276	10402
693.320	10822
693.363	11050
693.365	11036
693.407	10934
693.450	10586
693.485	10527
693.493	10633
693.537	10859
693.580	11146
693.605	11243
693.624	11215
693.667	11093
693.710	11133
693.725	11094
693.753	11089
693.797	11199
693.840	10854
693.845	10839
693.883	11429
693.926	11680
693.966	12163
693.970	12172
694.013	12111
694.056	11631
694.086	11270
694.099	11119
694.142	10691
694.185	10504
694.206	10284
694.229	10574
694.272	11213
694.315	11655
694.326	11752
694.358	11758
694.401	11794
694.444	11662
694.446	11637
694.487	11983
694.530	12043
694.566	12284
694.573	12245
694.616	11531
694.659	11278
694.686	10851
694.702	10836
694.745	10938
694.787	10767
694.806	10748
694.830	10688
694.873	10487
694.916	10374
694.926	10291
694.959	10656
695.002	11114
695.044	11612
695.046	11606
695.087	11570
695.130	11361
695.166	11272
695.172	11358
695.215	11691
695.258	11910
695.286	12033
695.301	12034
695.343	12005
695.386	12048
695.406	12052
695.428	12076
695.471	11995
695.514	12006
695.526	11859
695.556	11591
695.599	11654
695.641	11367
695.646	11320
695.684	11573
695.726	11922
695.766	12154
695.769	12167
695.811	11918
695.854	11779
695.886	11411
695.896	11531
695.938	11985
695.981	12539
696.005	12794
696.023	12639
696.065	12104
696.108	11789
696.125	11557
696.150	11820
696.192	12351
696.235	12688
696.245	12737
696.277	12485
696.319	12351
696.361	12011
696.365	11949
696.404	12049
696.446	12310
696.485	12347
696.488	12381
696.530	12439
696.572	12635
696.604	12561
696.614	12580
696.656	12586
696.698	12706
696.724	12606
696.740	12398
696.783	12001
696.825	11553
696.844	11295
696.867	11489
696.909	11751
696.951	12038
696.964	12120
696.992	12209
697.034	12100
697.076	12151
697.083	12116
697.118	12257
697.160	12416
697.202	12631
697.203	12599
697.244	12217
697.286	11821
697.323	11483
697.327	11563
697.369	11949
697.411	12337
697.442	12604
697.453	12643
697.494	12595
697.536	12634
697.562	12610
697.578	12756
697.620	12999
697.661	13309
697.682	13413
697.703	13474
697.744	13482
697.786	13575
697.801	13554
697.828	13973
697.869	14556
697.911	15191
697.921	15284
697.952	14776
697.994	14095
698.035	13452
698.040	13330
698.077	13245
698.118	13106
698.160	12987
698.160	12948
698.201	13023
698.243	13056
698.279	13026
698.284	13093
698.325	13410
698.367	13728
698.399	13900
698.408	13880
698.449	13609
698.491	13394
698.518	13180
698.532	13251
698.573	13375
698.614	13502
698.638	13537
698.656	13637
698.697	13774
698.738	13908
698.757	13935
698.779	14038
698.820	14166
698.862	14287
698.877	14294
698.903	14462
698.944	14665
698.985	14860
698.996	14876
699.026	14889
699.067	14845
699.116	14752
699.235	13755
699.354	13535
699.474	13952
699.593	13180
699.713	15047
699.832	14102
699.951	14229
700.070	13086
700.190	13458
700.309	13996
700.428	12773
700.547	13992
700.667	12827
700.786	12867
700.905	13568
701.024	13106
701.143	13509
701.262	12569
701.381	11597
701.500	12537
701.619	13161
701.738	13132
701.857	12053
701.976	11993
702.095	11302
702.214	11718
702.333	13090
702.452	12529
702.571	12163
702.690	12752
702.809	11942
702.928	11346
703.047	11819
703.165	12361
703.284	11413
703.403	11335
703.522	11498
703.640	13038
703.759	12736
703.878	15366
703.997	13687
704.115	11331
704.234	11866
704.353	11160
704.471	10956
704.590	10861
704.708	11078
704.827	10932
704.946	10109
705.064	11278
705.183	11935
705.301	11357
705.420	14143
705.538	16706
705.656	13859
705.775	12180
705.893	11573
706.012	13389
706.130	13803
706.249	14004
706.367	13157
706.485	13753
706.604	13707
706.722	14312
706.840	13980
706.958	14756
707.077	13143
707.195	12298
707.313	12134
707.431	12191
707.549	11166
707.668	12415
707.786	12703
707.904	12369
708.022	11863
708.140	12028
708.258	11760
708.376	11900
708.494	11583
708.612	12681
708.730	13425
708.848	17580
708.966	15452
709.084	14871
709.202	14027
709.320	13238
709.438	13763
709.556	14500
709.674	14363
709.791	14755
709.909	13696
710.027	13847
710.145	13796
710.263	13822
710.380	14086
710.498	13660
710.616	13534
710.733	12780
710.851	12813
710.969	13734
711.086	13323
711.204	13718
711.322	12859
711.439	12336
711.557	12931
711.674	12775
711.792	12871
711.909	13085
712.027	12460
712.144	12658
712.262	11699
712.379	12605
712.497	14660
712.614	18595
712.732	16507
712.849	15201
712.966	15151
713.084	16553
713.201	15694
713.318	16613
713.436	15201
713.553	14985
713.670	15857
713.787	16758
713.905	17081
714.022	15136
714.139	14319
714.256	16023
714.373	17959
714.490	22799
714.608	35875
714.725	106842
714.842	361104
714.959	98436
715.076	19014
715.193	16575
715.310	14734
715.427	13706
715.544	13274
715.661	13453
715.778	12703
715.895	13931
716.011	14280
716.128	14104
716.245	12658
716.362	13916
716.479	14258
716.596	13540
716.713	12353
716.829	11943
716.946	12809
717.063	12169
717.180	11638
717.296	11478
717.413	11761
717.530	12428
717.646	11816
717.763	11332
717.880	10826
717.996	11627
718.113	11157
718.229	11290
718.346	10215
718.462	11566
718.579	10891
718.695	15146
718.812	17791
718.928	13825
719.045	14100
719.161	10301
719.277	11247
719.394	11204
719.510	9833
719.626	10977
719.743	12587
719.859	14000
719.975	17484
720.092	35823
720.208	134826
720.324	103392
720.440	15746
720.557	12412
720.673	13575
720.789	17795
720.905	24784
721.021	32820
721.137	11155
721.253	10922
721.369	10289
721.486	11339
721.602	13398
721.718	13315
721.834	8970
721.950	9999
722.066	9926
722.181	9049
722.297	9779
722.413	10686
722.529	8853
722.645	9621
722.761	8470
722.877	9721
722.993	8939
723.108	9629
723.224	9519
723.340	8998
723.456	8796
723.571	8908
723.687	9294
723.803	8089
723.918	8037
724.034	8991
724.150	7892
724.265	8697
724.381	10201
724.497	21010
724.612	12049
724.728	8750
724.843	7586
724.959	8491
725.074	10470
725.190	18589
725.305	10780
725.421	8717
725.536	8152
725.651	7774
725.767	8074
725.882	8344
725.997	7549
726.113	7802
726.228	7438
726.343	7590
726.459	6673
726.574	6928
726.689	7783
726.804	7379
726.920	7872
727.035	6913
727.150	7004
727.265	7390
727.380	7860
727.495	7167
727.610	6126
727.725	6526
727.841	6177
727.956	6650
728.071	7177
728.186	7991
728.301	6205
728.416	7125
728.531	7289
728.645	6197
728.760	6696
728.875	7454
728.990	6725
729.105	7117
729.220	7315
729.335	7821
729.449	7288
729.564	7109
729.679	6627
729.794	6601
729.908	6087
730.023	6848
730.138	6728
730.253	6533
730.367	6310
730.482	6391
730.596	6331
730.711	6881
730.826	6779
730.940	6907
731.055	5768
731.169	7285
731.284	5889
731.398	6230
731.513	6078
731.627	7654
731.742	7407
731.856	8611
731.970	7059
732.085	7953
732.199	7904
732.313	11330
732.428	18794
732.542	51856
732.656	103211
732.771	26333
732.885	9756
732.999	9208
733.113	8236
733.227	7472
733.342	7592
733.456	7363
733.570	6775
733.684	7169
733.798	6646
733.912	7019
734.026	6041
734.140	6990
734.254	5859
734.368	7040
734.482	13439
734.596	7535
734.710	6283
734.824	5838
734.938	5553
735.052	6177
735.166	6923
735.280	7596
735.393	6370
735.507	5586
735.621	5957
735.735	9009
735.849	9970
735.962	6642
736.076	6355
736.190	6506
736.303	6357
736.417	9529
736.531	6808
736.644	6297
736.758	5370
736.872	5506
736.985	5715
737.099	5827
737.212	4995
737.326	6330
737.439	5640
737.553	6141
737.666	5293
737.780	5232
737.893	5371
738.007	5732
738.120	4387
738.233	5952
738.347	5356
738.460	5246
738.573	5464
738.687	6361
738.800	5799
738.913	5671
739.026	6404
739.140	4811
739.253	4257
739.366	4833
739.479	4614
739.592	4890
739.705	5007
739.818	5664
739.932	5523
740.045	4577
740.158	5465
740.271	5067
740.384	5104
740.497	5734
740.610	4835
740.723	4616
740.836	4842
740.949	5114
741.062	5408
741.174	6676
741.287	4627
741.400	4450
741.513	4685
741.626	5351
741.739	4570
741.851	5050
741.964	5085
742.077	4602
742.189	4010
742.302	6047
742.415	5817
742.527	4929
742.640	4507
742.753	4823
742.865	4717
742.978	4814
743.090	3910
743.203	4631
743.316	4780
743.428	4522
743.541	4706
743.653	4645
743.766	3965
743.878	4477
743.990	4305
744.103	6565
744.215	5116
744.327	5552
744.440	4926
744.552	6713
744.664	5898
744.777	4653
744.889	4009
745.001	4478
745.113	3872
745.226	4509
745.338	3782
745.450	4542
745.562	3943
745.674	4443
745.786	4222
745.898	4329
746.010	4079
746.122	4278
746.234	4105
746.347	3724
746.459	4096
746.570	4519
746.682	3513
746.794	5546
746.906	4855
747.018	3410
747.130	4446
747.242	3962
747.354	3866
747.466	4527
747.577	3587
747.689	4385
747.801	3952
747.913	3661
748.024	3166
748.136	3370
748.248	3116
748.359	3761
748.471	3574
748.583	3265
748.694	3604
748.806	4276
748.918	3636
749.029	5371
749.141	3549
749.252	4853
749.364	4290
749.475	5408
749.587	6956
749.698	4866
749.809	3612
749.921	3860
750.032	3147
750.144	4042
750.255	3529
750.366	4063
750.478	3449
750.589	3865
750.700	3365
750.811	4528
750.923	3822
751.034	4320
751.145	9803
751.256	5907
751.367	3697
751.479	3512
751.590	3099
751.701	3398
751.812	3503
751.923	3746
752.034	3309
752.145	4215
752.256	3472
752.367	4263
752.478	3465
752.589	3799
752.700	3173
752.811	3273
752.922	3043
753.032	4117
753.143	3944
753.254	3262
753.365	3353
753.476	4144
753.586	3937
753.697	3030
753.808	3107
753.919	3346
754.029	2900
754.140	4490
754.251	3295
754.361	2444
754.472	2755
754.582	3151
754.693	3124
754.804	3195
754.914	3070
755.025	2886
755.135	2706
755.246	3373
755.356	2586
755.466	3291
755.577	2749
755.687	3298
755.798	3004
755.908	3245
756.018	3477
756.129	3350
756.239	2921
756.349	3288
756.460	3086
756.570	3772
756.680	2883
756.790	3227
756.900	3613
757.011	2777
757.121	2558
757.231	2963
757.341	2559
757.451	3441
757.561	2341
757.671	2638
757.781	2974
757.891	3420
758.001	2314
758.111	3185
758.221	3699
758.331	4085
758.441	3747
758.551	3577
758.661	4436
758.771	4468
758.880	2802
758.990	3306
759.100	2699
759.210	3542
759.320	2899
759.429	3665
759.539	3101
759.649	3335
759.758	3056
759.868	3090
759.978	2786
760.087	3650
760.197	3307
760.307	4396
760.416	2794
760.526	3590
760.635	3461
760.745	3004
760.854	3412
760.964	5077
761.073	3423
761.182	3654
761.292	2259
761.401	3811
761.511	3239
761.620	3425
761.729	2943
761.839	3315
761.948	2447
762.057	2851
762.166	3477
762.276	2310
762.385	3415
762.494	3351
762.603	3557
762.712	2893
762.822	2544
762.931	2984
763.040	3629
763.149	3083
763.258	3070
763.367	2905
763.476	2053
763.585	2719
763.694	3156
763.803	3215
763.912	3321
764.021	3051
764.130	2766
764.238	3007
764.347	3448
764.456	3283
764.565	2850
764.674	3280
764.783	2588
764.891	3403
765.000	3253
765.109	2821
765.217	2727
765.326	3954
765.435	4132
765.543	4644
765.652	3456
765.761	3975
765.869	4270
765.978	5350
766.086	7547
766.195	13263
766.303	27556
766.412	87062
766.520	222473
766.629	86393
766.737	15829
766.846	8850
766.954	5977
767.062	5955
767.171	4633
767.279	4856
767.387	3177
767.496	4498
767.604	2890
767.712	3486
767.820	2789
767.928	3664
768.037	2678
768.145	3914
768.253	3490
768.361	3199
768.469	2896
768.577	3520
768.685	2420
768.793	3106
768.901	3040
769.009	3458
769.117	2657
769.225	3272
769.333	3250
769.441	4957
769.549	7249
769.657	12078
769.765	30148
769.873	112902
769.981	129186
770.088	19022
770.196	6783
770.304	5129
770.412	4504
770.519	4062
770.627	3814
770.735	3698
770.842	3228
770.950	3971
771.058	3381
771.165	3395
771.273	2806
771.380	4187
771.488	3625
771.595	3759
771.703	3304
771.810	4145
771.918	3145
772.025	3903
772.133	3079
772.240	3788
772.348	3778
772.455	4125
772.562	3927
772.670	4410
772.777	3982
772.884	3528
772.991	3319
773.099	4081
773.206	3464
773.313	3590
773.420	4407
773.528	3638
773.635	2569
773.742	4093
773.849	3588
773.956	3102
774.063	3229
774.170	3971
774.277	3430
774.384	3592
774.491	3358
774.598	3878
774.705	3167
774.812	3509
774.919	4077
775.026	4319
775.133	3481
775.239	3416
775.346	3585
775.453	3732
775.560	2468
775.667	3650
775.773	2928
775.880	3297
775.987	3251
776.093	3099
776.200	2396
776.307	3696
776.413	2212
776.520	3000
776.627	3338
776.733	3578
776.840	2825
776.946	3557
777.053	3401
777.159	5300
777.266	5703
777.372	5319
777.478	5008
777.585	5088
777.691	3112
777.798	3364
777.904	3980
778.010	4546
778.117	3868
778.223	3038
778.329	3105
778.435	3526
778.542	3065
778.648	3388
778.754	2461
778.860	2507
778.966	3156
779.072	3187
779.178	2955
779.284	3082
779.391	2189
779.497	2426
779.603	3530
779.708	3523
779.815	2358
779.920	3334
780.026	4211
780.132	4621
780.238	2844
780.344	2305
780.450	2566
780.556	1993
780.661	2283
780.767	1939
780.873	2179
780.979	2614
781.085	1847
781.190	2811
781.296	2656
781.402	2599
781.507	2816
781.613	2755
781.719	2008
781.824	2512
781.930	1598
782.035	1823
782.141	2420
782.246	3179
782.352	2254
782.457	2186
782.563	2194
782.668	2611
782.773	2667
782.879	2824
782.984	2712
783.090	2818
783.195	2196
783.300	4752
783.405	2386
783.511	2897
783.616	2154
783.721	2911
783.826	2099
783.932	2222
784.037	2789
784.142	2301
784.247	2903
784.352	2990
784.457	2234
784.562	2472
784.667	2707
784.772	2805
784.877	1659
784.982	2488
785.087	1723
785.192	2589
785.297	2335
785.402	1928
785.507	1914
785.611	2505
785.716	2136
785.821	2324
785.926	946
786.031	2378
786.135	2412
786.240	2149
786.345	1748
786.450	2353
786.554	1673
786.659	1708
786.763	2077
786.868	2420
786.973	2563
787.077	2220
787.182	1505
787.286	1798
787.391	1640
787.495	1501
787.600	1617
787.704	2134
787.809	1485
787.913	1983
788.017	2250
788.122	2113
788.226	1873
788.330	1295
788.435	1694
788.539	2080
788.643	2290
788.747	1602
788.852	1458
788.956	1891
789.060	1372
789.164	2076
789.268	1303
789.372	2424
789.476	1963
789.580	1646
789.684	1016
789.788	1705
789.892	1869
789.996	2455
790.100	1520
790.204	1513
790.308	1702
790.412	2689
790.516	1706
790.620	1322
790.724	1735
790.828	2278
790.931	2051
791.035	2869
791.139	1490
791.242	2230
791.346	2294
791.450	2197
791.554	1332
791.657	1275
791.761	1467
791.864	2022
791.968	1444
792.072	2133
792.175	967
792.279	1576
792.382	1251
792.486	1799
792.589	1345
792.693	2058
792.796	849
792.899	1675
793.003	1482
793.106	1085
793.209	1769
793.313	2037
793.416	1354
793.519	1410
793.623	1775
793.726	3638
793.829	2676
793.932	1548
794.035	1434
794.138	1849
794.242	1209
794.345	2253
794.448	1881
794.551	1975
794.654	3608
794.757	3369
794.860	1901
794.963	2642
795.066	1068
795.169	1643
795.272	1146
795.375	1671
795.477	1442
795.580	1184
795.683	1025
795.786	1712
795.889	326
795.991	2001
796.094	1486
796.197	1314
796.300	1184
796.402	1116
796.505	527
796.608	1264
796.710	858
796.813	1529
796.915	1939
797.018	1525
797.120	614
797.223	1407
797.326	1711
797.428	1873
797.530	916
797.633	1404
797.735	1335
797.838	1853
797.940	3564
798.042	1959
798.145	1056
798.247	1839
798.349	820
798.452	1081
798.554	1423
798.656	637
798.758	1199
798.860	1483
798.962	1182
799.065	1013
799.167	1233
799.269	1254
799.371	819
799.473	1613
799.575	872
799.677	2366
799.779	2129
799.881	1588
799.983	2348
800.085	1868
800.187	1244
800.289	1503
800.390	1067
800.492	1210
800.594	1701
800.696	1164
800.798	1008
800.899	394
801.001	854
801.103	1221
801.205	289
801.306	803
801.408	870
801.509	969
801.611	1154
801.713	1157
801.814	560
801.916	1028
802.017	1020
802.119	1179
802.220	194
802.322	954
802.423	1558
802.525	1412
802.626	827
802.727	1561
802.829	1086
802.930	852
803.031	2236
803.133	1224
803.234	196
803.335	1092
803.436	351
803.538	1462
803.639	1257
803.740	1453
803.841	1081
803.942	1632
804.043	671
804.144	845
804.245	875
804.346	1108
804.447	492
804.548	1367
804.649	2085
804.750	1517
804.851	405
804.952	1340
805.053	946
805.154	566
805.255	1135
805.355	325
805.456	1152
805.557	-505
805.658	637
805.758	873
805.859	871
805.960	447
806.061	383
806.161	388
806.262	336
806.362	713
806.463	651
806.564	1498
806.664	685
806.765	425
806.865	969
806.966	1638
807.066	158
807.166	1286
807.267	915
807.367	266
807.468	621
807.568	1016
807.668	536
807.769	447
807.869	618
807.969	260
808.069	842
808.170	875
808.270	792
808.370	1166
808.470	941
808.570	1741
808.670	1353
808.770	551
808.870	-44
808.970	1031
809.070	441
809.170	484
809.271	1053
809.370	228
809.470	1651
809.570	901
809.670	761
809.770	1478
809.870	794
809.970	1103
810.070	328
810.169	1541
810.269	-331
810.369	888
810.469	-270
810.568	463
810.668	524
810.768	958
810.867	669
810.967	629
811.066	-283
811.166	935
811.265	864
811.365	1033
811.464	448
811.564	1410
811.663	509
811.763	701
811.862	1595
811.962	1196
812.061	-77
812.160	1029
812.260	-24
812.359	1264
812.458	1640
812.557	3065
812.657	6647
812.756	7751
812.855	1406
812.954	2087
813.053	1062
813.153	1126
813.252	457
813.351	1077
813.450	83
813.549	91
813.648	857
813.747	253
813.846	790
813.945	962
814.044	257
814.143	1128
814.242	138
814.341	601
814.439	1094
814.538	1258
814.637	527
814.736	2052
814.835	975
814.933	946
815.032	1205
815.131	1219
815.229	1271
815.328	1859
815.427	1872
815.525	1394
815.624	1089
815.722	1933
815.821	1330
815.919	2801
816.018	1913
816.116	2246
816.215	1454
816.313	1985
816.412	2338
816.510	2951
816.609	2326
816.707	2863
816.805	2058
816.904	2085
817.002	2817
817.100	3496
817.198	3211
817.296	3937
817.395	3593
817.493	5623
817.591	4977
817.689	7002
817.787	7544
817.885	11766
817.983	19322
818.081	35023
818.179	72708
818.277	157503
818.375	273279
818.473	167703
818.571	61022
818.669	29838
818.767	21453
818.865	19196
818.963	20041
819.061	25074
819.158	37272
819.256	64231
819.354	126314
819.452	256965
819.549	330877
819.647	190221
819.745	80996
819.842	40812
819.940	25363
820.038	18734
820.135	13482
820.233	10318
820.330	8084
820.428	6972
820.525	6394
820.623	5582
820.720	4189
820.818	4842
820.915	3894
821.012	3425
821.110	3141
821.207	3654
821.304	2434
821.402	2721
821.499	3160
821.596	2742
821.693	2640
821.791	3200
821.888	2509
821.985	3598
822.082	4590
822.179	2939
822.276	2266
822.373	1978
822.470	1018
822.567	1283
822.664	922
822.761	1953
822.858	549
822.955	1693
823.052	1106
823.149	927
823.246	771
823.343	2049
823.440	1099
823.536	1767
823.633	792
823.730	1455
823.827	1339
823.923	333
824.020	1713
824.117	1399
824.213	1546
824.310	2257
824.407	746
824.503	915
824.600	1061
824.696	1170
824.793	1300
824.889	642
824.986	826
825.082	1004
825.179	1131
825.275	939
825.371	838
825.468	1326
825.564	376
825.660	1529
825.757	959
825.853	1125
825.949	-364
826.045	1324
826.142	186
826.238	1055
826.334	609
826.430	497
826.526	515
826.622	746
826.718	1060
826.814	649
826.910	773
827.006	654
827.102	-758
827.198	1183
827.294	815
827.390	902
827.486	1224
827.582	132
827.678	-45
827.774	1108
827.869	743
827.965	1058
828.061	-149
828.157	506
828.252	511
828.348	-568
828.444	371
828.539	154
828.635	-26
828.731	550
828.826	-359
828.922	617
829.017	655
829.113	227
829.208	-103
829.304	227
829.399	761
829.495	483
829.590	227
829.685	46
829.781	513
829.876	671
829.971	239
830.066	662
830.162	127
830.257	1148
830.352	467
830.447	1192
830.543	667
830.638	272
830.733	586
830.828	876
830.923	235
831.018	604
831.113	253
831.208	1075
831.303	520
831.398	1157
831.493	-74
831.588	1055
831.683	-368
831.778	210
831.873	124
831.967	981
832.062	-441
832.157	976
832.252	906
832.346	520
832.441	773
832.536	1186
832.631	1667
832.725	2920
832.820	644
832.914	438
833.009	489
833.104	867
833.198	1183
833.293	1339
833.387	-272
833.482	911
833.576	359
833.670	1342
833.765	-167
833.859	299
833.954	425
834.048	598
834.142	487
834.237	537
834.331	9
834.425	572
834.519	-515
834.613	763
834.708	-815
834.802	566
834.896	106
834.990	132
835.084	279
835.178	152
835.272	511
835.366	945
835.460	741
835.554	1361
835.648	92
835.742	25
835.836	-222
835.930	27
836.024	33
836.117	720
836.211	168
836.305	1133
836.399	577
836.493	1562
836.586	230
836.680	471
836.774	-121
836.867	698
836.961	-587
837.055	-60
837.148	265
837.242	349
837.335	1
837.429	665
837.522	-17
837.616	69
837.709	931
837.803	1405
837.896	-31
837.989	266
838.083	804
838.176	825
838.269	1939
838.363	1955
838.456	171
838.549	547
838.642	1097
838.735	2521
838.829	2807
838.922	805
839.015	-256
839.108	-102
839.201	-657
839.294	317
839.387	269
839.480	529
839.573	68
839.666	577
839.759	1222
839.852	511
839.945	-488
840.038	384
840.131	-421
840.223	-321
840.316	-77
840.409	-724
840.502	-654
840.594	451
840.687	-382
840.780	939
840.873	-712
840.965	235
841.058	105
841.150	520
841.243	1870
841.336	1140
841.428	-423
841.521	375
841.613	-1123
841.706	221
841.798	135
841.890	-292
841.983	-521
842.075	817
842.167	-30
842.260	36
842.352	-113
842.444	408
842.537	1027
842.629	2799
842.721	2120
842.813	162
842.905	-393
842.997	200
843.090	-518
843.182	805
843.274	389
843.366	3768
843.458	7027
843.550	9760
843.642	3809
843.734	457
843.826	320
843.918	506
844.009	436
844.101	-611
844.193	354
844.285	-478
844.377	-358
844.469	329
844.560	407
844.652	277
844.744	296
844.835	-114
844.927	-666
845.019	315
845.110	344
845.202	-89
845.293	369
845.385	-671
845.476	-664
845.568	344
845.659	27
845.751	-157
845.842	-176
845.934	-418
846.025	77
846.116	270
846.208	-108
846.299	615
846.390	-617
846.482	-162
846.573	583
846.664	390
846.755	203
846.846	2190
846.937	-581
847.029	534
847.120	-552
847.211	44
847.302	-78
847.393	-686
847.484	333
847.575	-914
847.666	-474
847.757	946
847.847	-784
847.938	608
848.029	-912
848.120	-287
848.211	-984
848.302	519
848.392	-889
848.483	-155
848.574	-982
848.664	-102
848.755	-319
848.846	-170
848.936	-379
849.027	660
849.118	-126
849.208	332
849.299	234
849.389	569
849.480	1933
849.570	2633
849.661	5962
849.751	12880
849.841	14500
849.932	2947
850.022	12
850.112	-470
850.203	-350
850.293	-574
850.383	-456
850.474	-990
850.564	-563
850.654	-334
850.744	-200
850.834	181
850.924	-901
851.014	78
851.104	20
851.194	46
851.284	-510
851.374	348
851.464	779
851.554	-10
851.644	-429
851.734	222
851.824	335
851.914	70
852.004	-374
852.094	-375
852.183	-223
852.273	397
852.363	-768
852.452	-641
852.542	-1
852.632	153
852.721	-222
852.811	-601
852.901	-339
852.990	-121
853.080	-383
853.169	-450
853.259	-58
853.348	499
853.438	433
853.527	1211
853.617	211
853.706	2968
853.795	4371
853.885	10818
853.974	21498
854.063	37251
854.152	73251
854.242	79334
854.331	19603
854.420	3811
854.509	1252
854.598	1366
854.687	419
854.777	117
854.866	662
854.955	1106
855.044	-10
855.133	82
855.222	-71
855.311	-285
855.400	-513
855.488	-16
855.577	-330
855.666	472
855.755	376
855.844	-514
855.933	-972
856.021	-197
856.110	-873
856.199	-629
856.288	304
856.376	-231
856.465	-1104
856.554	450
856.642	-600
856.731	-46
856.819	-788
856.908	-152
856.996	-425
857.085	-681
857.173	-409
857.262	-322
857.350	-5
857.438	-504
857.527	-683
857.615	-410
857.703	468
857.792	-397
857.880	-578
857.968	-154
858.056	-619
858.145	64
858.233	-195
858.321	-251
858.409	-495
858.497	75
858.585	-1009
858.673	193
858.761	-466
858.849	-451
858.937	-379
859.025	-394
859.113	-883
859.201	-164
859.289	44
859.377	-900
859.465	-785
859.552	212
859.640	-1086
859.728	31
859.816	-606
859.903	-345
859.991	-808
860.079	497
860.166	77
860.254	-915
860.342	-557
860.429	-757
860.517	-836
860.604	-255
860.692	-299
860.779	-557
860.867	-848
860.954	-299
861.042	-216
861.129	-382
861.216	358
861.304	-652
861.391	-917
861.478	-695
861.565	-392
861.653	151
861.740	-960
861.827	-146
861.914	-279
862.001	-228
862.089	-380
862.176	-294
862.263	-720
862.350	-571
862.437	-1075
862.524	13
862.611	-894
862.698	-68
862.785	317
862.871	111
862.958	-825
863.045	83
863.132	-259
863.219	7
863.306	-717
863.392	442
863.479	-406
863.566	-871
863.652	-263
863.739	-87
863.826	-310
863.912	-535
863.999	-1190
864.086	380
864.172	-1448
864.259	354
864.345	-739
864.432	238
864.518	-147
864.604	468
864.691	-388
864.777	-42
864.863	-457
864.950	-259
865.036	-816
865.122	1349
865.209	228
865.295	250
865.381	137
865.467	903
865.553	1015
865.639	1958
865.726	2573
865.812	4563
865.898	12015
865.984	19081
866.070	26671
866.156	51909
866.242	38185
866.328	7543
866.414	1139
866.499	800
866.585	1118
866.671	666
866.757	57
866.843	1240
866.928	62
867.014	-163
867.100	1205
867.186	453
867.271	-534
867.357	810
867.442	675
867.528	958
867.614	226
867.699	901
867.785	609
867.870	287
867.956	404
868.041	1183
868.127	764
868.212	267
868.297	748
868.383	1358
868.468	457
868.553	1404
868.639	771
868.724	1319
868.809	3914
868.894	3541
868.979	89
869.065	234
869.150	331
869.235	646
869.320	44
869.405	869
869.490	-670
869.575	187
869.660	223
869.745	-138
869.830	-833
869.915	-279
870.000	123
870.085	-258
870.169	-597
870.254	767
870.339	-400
870.424	-317
870.509	161
870.593	-453
870.678	-422
870.763	-13
870.847	-32
870.932	-85
871.016	-246
871.101	-78
871.186	-1110
871.270	-199
871.355	-214
871.439	-832
871.523	-142
871.608	407
871.692	-964
871.777	43
871.861	1
871.945	-928
872.030	-1024
872.114	-41
872.198	-480
872.282	-509
872.367	88
872.451	-846
872.535	-579
872.619	-153
872.703	-737
872.787	-190
872.871	-67
872.955	-369
873.039	-289
873.123	-830
873.207	268
873.291	-449
873.375	-1067
873.459	-6
873.543	2
873.627	-240
873.711	-806
873.794	307
873.878	-35
873.962	31
874.045	-726
874.129	316
874.137	292
874.213	45
874.245	-11
874.296	-106
874.352	-198
874.380	-239
874.460	-99
874.464	-94
874.547	-123
874.568	-194
874.631	-417
874.676	-660
874.714	-851
874.784	-113
874.798	28
874.881	686
874.892	579
874.965	-147
874.999	-202
875.048	-298
875.107	-318
875.131	-311
875.215	-412
875.215	-412
875.298	-1012
875.323	-930
875.381	-707
875.430	19
875.465	498
875.538	211
875.548	175
875.631	289
875.646	156
875.714	-413
875.753	-320
875.798	-212
875.861	-340
875.881	-417
875.964	-147
875.968	-171
876.047	-441
876.076	-330
876.130	-149
876.183	-479
876.213	-678
876.291	32
876.296	86
876.379	-636
876.398	-358
876.462	421
876.506	-58
876.545	-399
876.613	-577
876.628	-631
876.711	-937
876.721	-837
876.794	12
876.828	-273
876.877	-713
876.935	-49
876.960	240
877.043	-460
877.043	-458
877.125	139
877.150	81
877.208	-114
877.258	-122
877.291	-49
877.365	88
877.374	86
877.456	354
877.472	320
877.539	324
877.579	347
877.622	224
877.687	-113
877.704	-115
877.787	916
877.794	812
877.869	-560
877.901	-283
877.952	132
878.008	56
878.034	67
878.115	-410
878.117	-417
878.199	-293
878.222	-117
878.282	296
878.329	292
878.364	305
878.437	374
878.447	345
878.529	-466
878.544	-381
878.611	274
878.651	28
878.694	-300
878.758	126
878.776	315
878.858	139
878.865	160
878.941	-52
878.972	-295
879.023	-436
879.078	-25
879.105	123
879.185	-359
879.187	-364
879.269	102
879.292	63
879.351	-290
879.399	-314
879.433	-193
879.506	39
879.516	54
879.598	310
879.613	207
879.680	-173
879.720	41
879.762	188
879.827	-155
879.844	-223
879.926	147
879.933	124
880.007	99
880.040	163
880.089	46
880.147	75
880.171	222
880.253	1050
880.254	1051
880.335	1326
880.360	1640
880.417	2729
880.467	3092
880.499	3935
880.574	8383
880.580	8532
880.662	7097
880.680	6171
880.744	2273
880.787	785
880.825	225
880.893	434
880.907	496
880.989	-46
881.000	-35
881.070	272
881.106	313
881.152	273
881.213	502
881.233	603
881.315	134
881.319	168
881.396	621
881.426	373
881.478	17
881.532	370
881.559	554
881.639	53
881.641	44
881.722	427
881.745	436
881.803	559
881.852	568
881.885	487
881.958	68
881.966	38
882.047	354
882.064	312
882.129	318
882.171	617
882.210	803
882.277	954
882.291	1072
882.372	1598
882.383	1612
882.454	853
882.489	557
882.535	525
882.596	107
882.616	-32
882.697	562
882.702	552
882.778	190
882.808	44
882.859	73
882.914	153
882.940	155
883.020	356
883.021	360
883.102	315
883.127	358
883.183	474
883.233	328
883.264	330
883.339	506
883.345	485
883.426	-188
883.445	-122
883.507	514
883.551	635
883.587	710
883.657	612
883.668	604
883.749	696
883.763	763
883.830	638
883.869	328
883.910	293
883.975	587
883.991	606
884.072	186
884.081	193
884.152	748
884.187	889
884.233	917
884.292	1009
884.314	896
884.394	66
884.398	39
884.475	99
884.504	10
884.555	202
884.610	748
884.636	709
884.716	247
884.716	252
884.797	606
884.821	622
884.877	479
884.927	569
884.958	589
885.033	396
885.038	389
885.118	188
885.139	132
885.199	662
885.244	1200
885.279	989
885.350	425
885.359	465
885.439	725
885.456	768
885.520	660
885.561	662
885.600	669
885.667	343
885.680	339
885.760	644
885.773	706
885.840	1060
885.878	1113
885.920	873
885.984	503
886.000	488
886.080	545
886.089	540
886.160	649
886.195	638
886.240	696
886.300	799
886.320	767
886.400	877
886.406	863
886.480	829
886.511	873
886.560	913
886.616	655
886.640	598
886.720	714
886.722	712
886.800	931
886.827	961
886.879	946
886.932	800
886.959	895
887.038	1403
887.039	1409
887.119	1127
887.143	1085
887.198	952
887.248	720
887.278	616
887.354	380
887.358	403
887.437	721
887.459	869
887.517	1233
887.564	1365
887.596	1125
887.669	647
887.676	647
887.755	483
887.774	472
887.835	615
887.880	690
887.914	722
887.985	793
887.994	817
888.073	832
888.090	883
888.153	1231
888.195	1338
888.232	1345
888.300	1420
888.311	1389
888.391	1151
888.405	1090
888.470	566
888.510	194
888.549	717
888.615	1706
888.628	1594
888.708	838
888.720	709
888.787	1225
888.825	1517
888.866	1036
888.930	266
888.945	384
889.024	994
889.035	1076
889.103	1366
889.140	1466
889.182	1114
889.245	639
889.261	615
889.340	455
889.349	438
889.419	1051
889.454	1331
889.498	1323
889.559	1319
889.577	1203
889.656	673
889.664	620
889.735	1394
889.768	1756
889.814	1612
889.873	1411
889.978	526
890.083	1253
890.187	1188
890.292	1844
890.397	1196
890.501	1315
890.606	1119
890.710	669
890.815	1316
890.919	1301
891.024	766
891.128	1339
891.233	1083
891.337	714
891.442	1289
891.546	771
891.650	353
891.755	1274
891.859	1120
891.963	1895
892.068	937
892.172	1797
892.276	295
892.380	1468
892.484	1143
892.589	2080
892.693	1359
892.797	1287
892.901	947
893.005	1011
893.109	1123
893.213	1708
893.317	763
893.421	1459
893.525	340
893.629	222
893.733	958
893.837	1146
893.941	985
894.045	757
894.148	699
894.252	840
894.356	307
894.460	1403
894.564	1386
894.667	1293
894.771	788
894.875	1023
894.978	555
895.082	430
895.186	805
895.289	1476
895.393	1030
895.496	1391
895.600	204
895.703	606
895.807	614
895.910	879
896.014	297
896.117	1144
896.221	1149
896.324	1599
896.427	463
896.531	723
896.634	1094
896.737	476
896.840	1022
896.944	520
897.047	497
897.150	1157
897.253	950
897.356	1592
897.460	-16
897.563	1071
897.666	94
897.769	864
897.872	994
897.975	-120
898.078	1721
898.181	827
898.284	307
898.387	520
898.490	416
898.593	788
898.695	541
898.798	1436
898.901	1201
899.004	885
899.107	693
899.209	1112
899.312	637
899.415	389
899.518	598
899.620	1395
899.723	591
899.826	1159
899.928	1696
900.031	1398
900.133	221
900.236	410
900.338	603
900.441	677
900.543	1085
900.646	887
900.748	-29
900.851	495
900.953	669
901.055	982
901.158	1119
901.260	974
901.362	373
901.465	915
901.567	696
901.669	950
901.771	410
901.873	1480
901.976	890
902.078	733
902.180	171
902.282	301
902.384	932
902.486	1310
902.588	777
902.690	1450
902.792	303
902.894	168
902.996	1092
903.098	608
903.200	318
903.302	847
903.404	558
903.505	855
903.607	653
903.709	1436
903.811	854
903.913	279
904.014	1111
904.116	30
904.218	388
904.319	1061
904.421	941
904.523	687
904.624	1289
904.726	447
904.827	982
904.929	328
905.030	849
905.132	1023
905.233	1384
905.335	1193
905.436	402
905.537	755
905.639	240
905.740	607
905.841	1168
905.943	1320
906.044	287
906.145	1258
906.247	687
906.348	698
906.449	845
906.550	768
906.651	573
906.752	539
906.854	196
906.955	436
907.056	73
907.157	609
907.258	580
907.359	757
907.460	544
907.561	826
907.662	149
907.762	565
907.863	97
907.964	1149
908.065	807
908.166	322
908.267	630
908.367	556
908.468	983
908.569	1051
908.670	479
908.770	1049
908.871	485
908.971	640
909.072	804
909.173	307
909.273	972
909.374	541
909.474	498
909.575	986
909.675	149
909.776	950
909.876	94
909.977	939
910.077	1127
910.177	646
910.278	-94
910.378	1329
910.478	237
910.579	1569
910.679	419
910.779	419
910.879	693
910.980	1002
911.080	80
911.180	-263
911.280	97
911.380	884
911.480	-304
911.580	363
911.680	125
911.780	372
911.880	466
911.980	1544
912.080	-234
912.180	1130
912.280	205
912.380	700
912.480	1175
912.580	128
912.679	429
912.779	1113
912.879	396
912.979	176
913.078	344
913.178	1143
913.278	155
913.377	686
913.477	559
913.577	1144
913.676	591
913.776	946
913.875	-161
913.975	706
914.074	-87
914.174	305
914.273	26
914.373	790
914.472	559
914.572	844
914.671	351
914.770	909
914.870	275
914.969	98
915.068	-120
915.167	717
915.267	-207
915.366	133
915.465	245
915.564	392
915.663	784
915.763	609
915.862	673
915.961	-129
916.060	759
916.159	1037
916.258	485
916.357	482
916.456	294
916.555	-95
916.654	52
916.752	510
916.851	-267
916.950	-396
917.049	689
917.148	803
917.247	611
917.345	764
917.444	309
917.543	-275
917.642	340
917.740	1233
917.839	-123
917.937	654
918.036	411
918.135	1073
918.233	-258
918.332	474
918.430	-568
918.529	747
918.627	633
918.726	680
918.824	244
918.923	456
919.021	930
919.119	358
919.218	243
919.316	832
919.414	119
919.512	993
919.611	614
919.709	676
919.807	-74
919.905	818
920.003	968
920.102	172
920.200	-356
920.298	776
920.396	586
920.494	367
920.592	-163
920.690	915
920.788	1023
920.886	1172
920.984	137
921.082	1041
921.180	1034
921.277	-142
921.375	831
921.473	636
921.571	867
921.669	742
921.766	0
921.864	927
921.962	1099
922.060	1226
922.157	342
922.255	1472
922.352	1592
922.450	640
922.548	1100
922.645	765
922.743	937
922.840	1597
922.938	2308
923.035	2393
923.133	2098
923.230	1654
923.327	2732
923.425	2681
923.522	2152
923.619	2112
923.717	1615
923.814	2513
923.911	1390
924.008	2522
924.106	1527
924.203	1810
924.300	2165
924.397	1771
924.494	1756
924.591	2268
924.688	1642
924.786	2119
924.883	1523
924.979	1857
925.077	1241
925.173	1666
925.270	1775
925.367	1986
925.464	1585
925.561	2697
925.658	1838
925.755	2104
925.852	1986
925.948	3385
926.045	2322
926.142	1861
926.239	3488
926.335	2208
926.432	2319
926.529	1718
926.625	3068
926.722	2177
926.818	1485
926.915	2369
927.011	1051
927.108	1951
927.204	1018
927.301	1719
927.397	1210
927.494	2073
927.590	1777
927.687	1514
927.783	1818
927.879	1565
927.976	1539
928.072	1465
928.168	1188
928.264	1435
928.361	1351
928.457	1438
928.553	1448
928.649	2290
928.745	1124
928.841	1960
928.937	1573
929.033	1287
929.129	534
929.225	1154
929.321	1255
929.417	1512
929.513	1427
929.609	1305
929.705	1338
929.801	1480
929.897	1273
929.993	1114
930.089	1529
930.184	1231
930.280	1169
930.376	1116
930.471	1110
930.567	2048
930.663	979
930.758	645
930.854	1910
930.950	1214
931.045	629
931.141	971
931.236	1300
931.332	2597
931.427	624
931.523	794
931.618	1553
931.714	1036
931.809	1014
931.905	1345
932.000	708
932.095	868
932.191	879
932.286	1544
932.381	1425
932.476	1327
932.572	1129
932.667	1117
932.762	679
932.857	809
932.952	1590
933.047	1373
933.142	452
933.237	665
933.332	392
933.427	2098
933.522	851
933.617	1046
933.712	712
933.807	1588
933.902	864
933.997	932
934.092	488
934.187	652
934.282	1994
934.376	1062
934.471	1781
934.566	804
934.661	841
934.755	1168
934.850	1254
934.945	1338
935.039	477
935.134	430
935.228	291
935.323	1261
935.417	803
935.512	394
935.606	-368
935.701	884
935.795	622
935.890	937
935.984	1286
936.079	1106
936.173	1332
936.267	850
936.362	1338
936.456	204
936.550	565
936.644	1512
936.738	667
936.833	917
936.927	978
937.021	469
937.115	811
937.209	1508
937.303	1347
937.397	1422
937.491	291
937.585	883
937.679	1071
937.773	1157
937.867	1098
937.961	737
938.055	1114
938.149	1730
938.243	731
938.337	556
938.430	200
938.524	508
938.618	1751
938.712	1520
938.805	601
938.899	702
938.993	976
939.086	970
939.180	514
939.274	1516
939.367	1294
939.461	959
939.554	751
939.648	732
939.741	391
939.835	80
939.928	67
940.022	1322
940.115	265
940.208	1012
940.302	1110
940.395	1034
940.488	1038
940.582	1285
940.675	647
940.768	854
940.861	213
940.954	1159
941.048	606
941.141	353
941.234	440
941.327	1198
941.420	1618
941.513	1897
941.606	615
941.699	618
941.792	246
941.885	1065
941.978	903
942.071	855
942.164	531
942.257	883
942.349	216
942.442	1
942.535	436
942.628	595
942.721	499
942.813	-460
942.906	634
942.999	358
943.091	-224
943.184	58
943.277	235
943.369	448
943.462	-759
943.554	439
943.647	273
943.739	998
943.832	1133
943.924	8
944.017	141
944.109	-73
944.201	626
944.294	682
944.386	923
944.478	468
944.571	-745
944.663	-65
944.755	76
944.847	354
944.940	669
945.032	243
945.124	-396
945.216	372
945.308	847
945.400	480
945.492	73
945.584	634
945.676	1015
945.768	1083
945.860	308
945.952	969
946.044	611
946.136	396
946.228	-216
946.320	315
946.412	450
946.503	896
946.595	781
946.687	-256
946.779	44
946.870	559
946.962	-62
947.054	337
947.145	434
947.237	397
947.329	-34
947.420	156
947.512	-381
947.603	-521
947.695	57
947.786	-232
947.878	60
947.969	-58
948.061	-628
948.152	370
948.243	-315
948.335	-34
948.426	-290
948.517	360
948.609	720
948.700	-206
948.791	122
948.882	610
948.973	-328
949.065	31
949.156	569
949.247	-465
949.338	159
949.429	-156
949.520	174
949.611	-679
949.702	-245
949.793	125
949.884	-987
949.975	-223
950.066	78
950.157	-238
950.247	-1009
950.338	-242
950.429	-106
950.520	-415
950.611	-88
950.701	-38
950.792	402
950.883	-72
950.973	-10
951.064	-227
951.155	373
951.245	441
951.336	120
951.427	519
951.517	119
951.608	424
951.698	-735
951.788	-503
951.879	-1130
951.969	-682
952.060	-499
952.150	353
952.240	-470
952.331	-180
952.421	460
952.511	-278
952.602	-340
952.692	-446
952.782	-469
952.872	290
952.962	-430
953.052	-505
953.143	-587
953.233	-199
953.323	-5
953.413	248
953.503	-308
953.593	240
953.683	376
953.773	-2
953.863	-908
953.953	-597
954.042	-144
954.132	-251
954.222	-800
954.312	-329
954.402	-367
954.492	-266
954.581	594
954.671	366
954.761	-407
954.850	58
954.940	-534
955.030	-328
955.119	-1103
955.209	-253
955.298	-824
955.388	-367
955.477	-939
955.567	-1135
955.656	-650
955.746	-824
955.835	244
955.925	-531
956.014	-530
956.103	71
956.193	-677
956.282	-199
956.371	-190
956.461	-330
956.550	-433
956.639	-311
956.728	-1025
956.817	-304
956.906	-26
956.995	181
957.085	-131
957.174	-149
957.263	-882
957.352	-54
957.441	-1092
957.530	-167
957.619	-197
957.708	-485
957.796	-253
957.885	-517
957.974	-352
958.063	-707
958.152	-1440
958.241	-719
958.329	-671
958.418	-733
958.507	-504
958.596	-339
958.684	-997
958.773	161
958.861	111
958.950	-704
959.039	-441
959.127	-135
959.216	45
959.304	-297
959.393	93
959.481	-17
959.570	-1065
959.658	-457
959.746	-1192
959.835	-650
959.923	157
960.011	48
960.100	-585
960.188	-651
960.276	-756
960.365	-593
960.453	-145
960.541	-578
960.629	-756
960.717	41
960.805	-1106
960.893	-997
960.981	-1144
961.069	-20
961.158	49
961.245	-232
961.333	-226
961.421	-348
961.509	-584
961.597	-238
961.685	-497
961.773	-677
961.861	-368
961.949	-1312
962.036	-571
962.124	-478
962.212	-1030
962.299	-794
962.387	-368
962.475	-354
962.562	-1213
962.650	-64
962.738	-762
962.825	-215
962.913	-1
963.000	-602
963.088	-370
963.175	-504
963.263	-750
963.350	-389
963.438	-340
963.525	-412
963.612	379
963.700	239
963.787	3518
963.874	5355
963.962	410
964.049	-792
964.136	-852
964.223	329
964.310	-234
964.398	-378
964.485	-1021
964.572	194
964.659	-214
964.746	112
964.833	269
964.920	-168
965.007	-417
965.094	-939
965.181	-790
965.268	-1575
965.355	-628
965.441	106
965.528	-1640
965.615	-753
965.702	-666
965.789	-746
965.875	-167
965.962	-418
966.049	-683
966.136	-105
966.222	-934
966.309	-726
966.395	-922
966.482	-8
966.569	-518
966.655	-649
966.742	-991
966.828	-622
966.915	-369
967.001	202
967.087	-1432
967.174	-504
967.260	-509
967.347	52
967.433	283
967.519	1491
967.605	1824
967.692	-332
967.778	-406
967.864	64
967.950	-1559
968.036	-570
968.123	-330
968.209	-75
968.295	-973
968.381	-118
968.467	-336
968.553	-1023
968.639	-105
968.725	-1136
968.811	-254
968.897	345
968.983	-192
969.069	-859
969.154	-1375
969.240	-728
969.326	-977
969.412	-224
969.497	-756
969.583	-371
969.669	-581
969.755	-130
969.840	-459
969.926	-234
970.012	-644
970.097	-216
970.183	-177
970.268	-612
970.354	-167
970.439	-468
970.525	-25
970.610	1874
970.696	-287
970.781	-828
970.866	-1348
970.952	-265
971.037	-574
971.122	-1016
971.208	-600
971.293	-1069
971.378	-1174
971.463	-874
971.549	-1101
971.634	-1084
971.719	-734
971.804	-1137
971.889	-128
971.974	-347
972.059	-385
972.144	-1454
972.229	-947
972.314	113
972.399	-1213
972.484	-183
972.569	-1193
972.654	165
972.739	-600
972.824	-214
972.908	-260
972.993	-810
973.078	-739
973.163	-395
973.247	-1036
973.332	-1372
973.417	-624
973.501	-482
973.586	-2002
973.671	-1072
973.755	-416
973.840	-405
973.924	-1108
974.009	-106
974.093	-1106
974.178	542
974.262	-591
974.346	942
974.431	-338
974.515	-1266
974.600	-745
974.684	-695
974.768	-1681
974.852	-18
974.937	-919
975.021	-213
975.105	-866
975.189	-1041
975.273	-1259
975.358	-1358
975.442	-362
975.526	-1122
975.610	-1450
975.694	-1023
975.778	-1170
975.862	-1136
975.946	-1195
976.030	-706
976.114	-895
976.198	-784
976.281	-2096
976.365	-303
976.449	-2153
976.533	-361
976.617	-1257
976.700	-893
976.784	-1200
976.868	-1094
976.951	-138
977.035	-722
977.119	-570
977.202	-942
977.286	-845
977.369	-635
977.453	-548
977.536	-81
977.620	-286
977.703	-506
977.787	-1224
977.870	-550
977.953	-755
978.037	-517
978.120	-70
978.203	-770
978.287	11
978.370	697
978.453	-1190
978.536	-1552
978.620	-855
978.703	-607
978.786	-681
978.869	-654
978.952	-684
979.035	-812
979.118	-1563
979.201	-1261
979.284	-1406
979.367	-248
979.450	-903
979.533	-570
979.616	-1005
979.699	-906
979.782	-795
979.865	-539
979.948	-1008
980.030	-1137
980.113	-660
980.196	-955
980.279	-1056
980.361	-729
980.444	-1640
980.526	-877
980.609	-633
980.692	-865
980.774	25
980.857	-1373
980.939	-815
981.022	-957
981.104	-958
981.187	-929
981.269	-844
981.352	-1458
981.434	-1253
981.516	-939
981.599	-923
981.681	-1372
981.763	-870
981.846	-658
981.928	-939
982.010	-285
982.092	-475
982.174	-909
982.256	-637
982.339	-479
982.421	-1326
982.503	-351
982.585	-988
982.667	-772
982.749	-490
982.831	-1028
982.913	-939
982.995	-1134
983.077	-1221
983.158	-310
983.240	-654
983.322	-759
983.404	-527
983.486	-1141
983.568	-243
983.649	-439
983.731	-537
983.813	-819
983.894	-1513
983.976	-994
984.058	-970
984.139	-1384
984.221	-1573
984.302	-954
984.384	-647
984.465	-1180
984.547	-2021
984.628	-1262
984.710	-1125
984.791	-1306
984.872	-263
984.954	-1435
985.035	-1040
985.116	-1112
985.198	-971
985.279	-627
985.360	-888
985.441	-1320
985.522	-1240
985.604	-1202
985.685	-2076
985.766	-139
985.847	-141
985.928	-1057
986.009	-1089
986.090	-774
986.171	-1369
986.252	-1637
986.333	-243
986.414	-1009
986.495	-1015
986.576	-1309
986.656	-1481
986.737	-380
986.818	-348
986.899	285
986.980	-1086
987.060	-691
987.141	-2176
987.222	-423
987.302	-1841
987.383	-592
987.464	-1388
987.544	-595
987.625	-1011
987.705	-1013
987.786	-1012
987.866	-1337
987.947	-1170
988.027	-550
988.108	-1483
988.188	-438
988.268	-1442
988.349	-118
988.429	-734
988.509	-445
988.589	-721
988.670	-1720
988.750	-628
988.830	-457
988.910	-665
988.990	-1269
989.070	-982
989.151	-874
989.231	-1177
989.311	-574
989.391	-621
989.471	-983
989.551	-1507
989.631	-922
989.711	-935
989.791	-1120
989.870	-1104
989.950	-158
990.030	-1706
990.110	-1245
990.190	-932
990.269	-971
990.349	-2223
990.429	-338
990.509	-649
990.588	-614
990.668	-725
990.747	-347
990.827	-507
990.907	-229
990.986	-1440
991.066	-790
991.145	-869
991.225	-1060
991.304	-1031
991.383	-435
991.463	-1164
991.542	-1233
991.622	-1302
991.701	-1119
991.780	-1436
991.859	-801
991.939	-800
992.018	-463
992.097	-804
992.176	-436
992.256	-1042
992.335	-1711
992.414	-691
992.493	-382
992.572	-1215
992.651	-1242
992.730	-1467
992.809	-789
992.888	-374
992.967	-668
993.046	-1505
993.125	-1164
993.203	-1170
993.282	-394
993.361	-1735
993.440	-1069
993.519	-1685
993.597	-1031
993.676	-1253
993.755	-913
993.834	-315
993.912	-652
993.991	-1611
994.069	-559
994.148	-1457
994.226	-956
994.305	-664
994.384	-747
994.462	-851
994.540	-948
994.619	-1494
994.697	-845
994.776	-1920
994.854	-1276
994.932	-1414
995.011	-849
995.089	-1605
995.167	-839
995.245	-1175
995.324	-1876
995.402	-590
995.480	-392
995.558	-1492
995.636	-1215
995.714	-1602
995.792	-856
995.870	-1133
995.948	-785
996.026	-1581
996.104	-1318
996.182	-903
996.260	-1220
996.338	-1225
996.416	-842
996.494	-1816
996.572	-1280
996.649	-1299
996.727	-1445
996.805	-1365
996.883	-1591
996.960	-1488
997.038	-1797
997.116	-1285
997.193	-1733
997.271	-1074
997.348	-1173
997.426	-454
997.504	-1074
997.581	-734
997.658	-1037
997.736	-1793
997.813	-1817
997.891	-1016
997.968	-939
998.046	-1163
998.123	-937
998.200	-1626
998.277	-1747
998.355	-1395
998.432	-1165
998.509	-1231
998.586	-1338
998.663	-1441
998.741	-1012
998.818	-1506
998.895	-1165
998.972	-1179
999.049	-984
999.126	-1127
999.203	-1098
999.280	-1573
999.357	-1253
999.434	-1823
999.511	-587
999.587	-339
999.664	-1934
999.741	-2212
999.818	-513
999.895	-1643
999.971	-1054
1000.048	-960
1000.125	-1347
1000.202	-1862
1000.278	-1387
1000.355	-1496
1000.431	-1017
1000.508	-2052
1000.584	-1180
1000.661	-581
1000.738	-1626
1000.814	-1136
1000.890	-1751
1000.967	-1531
1001.043	-1582
1001.120	-1947
1001.196	-1290
1001.272	-1834
1001.349	-765
1001.425	-1381
1001.501	-1184
1001.577	-2227
1001.654	-1440
1001.730	-1639
1001.806	-1582
1001.882	-1950
1001.958	-1379
1002.034	-1191
1002.110	-1591
1002.186	-755
1002.262	-1052
1002.338	-2228
1002.414	-974
1002.490	-1728
1002.566	-1442
1002.642	-1525
1002.718	-620
1002.794	-1120
1002.870	-1063
1002.945	-1002
1003.021	-1410
1003.097	-2187
1003.173	-1008
1003.248	-1404
1003.324	-1389
1003.400	-1667
1003.475	-1015
1003.551	-1166
1003.626	-1860
1003.702	-2007
1003.777	-1389
1003.853	-1514
1003.928	-1541
1004.004	-1297
1004.079	-1051
1004.155	-1482
1004.230	-1086
1004.305	-955
1004.381	-1758
1004.456	-1484
1004.531	-1166
1004.607	-1326
1004.682	-1096
1004.757	-1344
1004.832	-1820
1004.907	-1256
1004.982	-1328
1005.057	-2325
1005.133	-1403
1005.208	-1749
1005.283	-1827
1005.358	-1100
1005.433	-1201
1005.508	-1570
1005.583	-1118
1005.657	-2724
1005.732	-1627
1005.807	-1713
1005.882	-1015
1005.957	-1400
1006.032	-2048
1006.106	-1958
1006.181	-991
1006.256	-2228
1006.331	-1764
1006.405	-2272
1006.480	-1702
1006.554	-1250
1006.629	-1564
1006.704	-1643
1006.778	-1827
1006.853	-1195
1006.927	-2018
1007.002	-1289
1007.076	-830
1007.150	-1627
1007.225	-1300
1007.299	-1263
1007.373	-1597
1007.448	-1901
1007.522	-1423
1007.596	-1677
1007.671	-1903
1007.745	-1249
1007.819	-1973
1007.893	-1440
1007.967	-1726
1008.041	-2463
1008.115	-1480
1008.190	-2366
1008.264	-1768
1008.338	-2293
1008.412	-1821
1008.486	-2439
1008.560	-1577
1008.633	-2104
1008.707	-2425
1008.781	-2723
1008.855	-1941
1008.929	-1545
1009.003	-1966
1009.076	-2663
1009.150	-1462
1009.224	-2300
1009.298	-1818
1009.371	-1920
1009.445	-1584
1009.519	-1015
1009.592	-1725
1009.666	-1882
1009.739	-1924
1009.813	-2190
1009.886	-1729
1009.960	-2417
1010.033	-2269
1010.107	-1195
1010.180	-1966
1010.253	-1745
1010.327	-2394
1010.400	-1580
1010.473	-1957
1010.547	-1558
1010.620	-1287
1010.693	-2752
1010.766	-2339
1010.840	-2174
1010.913	-1827
1010.986	-2090
1011.059	-2208
1011.132	-1815
1011.205	-1511
1011.278	-1382
1011.351	-1463
1011.424	-1893
1011.497	-2861
1011.570	-2617
1011.643	-1731
1011.716	-1516
1011.789	-2589
1011.862	-1786
1011.934	-959
1012.007	-2686
1012.080	-1090
1012.153	-1712
1012.225	-1767
1012.298	-2609
1012.371	-1647
1012.443	-2227
1012.516	-2713
1012.588	-2015
1012.661	-1836
1012.733	-2646
1012.806	-1599
1012.879	-2262
1012.951	-1642
1013.023	-2224
1013.096	-1549
1013.168	-2656
1013.241	-1506
1013.313	-2099
1013.385	-2220
1013.458	-1505
1013.530	-1687
1013.602	-2379
1013.674	-2224
1013.746	-1703
1013.819	-2463
1013.891	-1979
1013.963	-1889
1014.035	-1702
1014.107	-1846
1014.179	-2470
1014.251	-1729
1014.323	-1839
1014.395	-2422
1014.467	-2172
1014.539	-2108
1014.611	-2137
1014.683	-1965
1014.754	-2080
1014.826	-2740
1014.898	-2146
1014.970	-1778
1015.042	-1821
1015.113	-1870
1015.185	-1945
1015.257	-2627
1015.328	-2834
1015.400	-2496
1015.471	-2797
1015.543	-2114
1015.615	-2273
1015.686	-2375
1015.757	-2243
1015.829	-2091
1015.901	-3085
1015.972	-2482
1016.043	-2253
1016.115	-2099
1016.186	-2009
1016.257	-2567
1016.328	-2590
1016.400	-2321
1016.471	-2777
1016.542	-2100
1016.613	-1913
1016.685	-2238
1016.756	-2219
1016.827	-1322
1016.898	-3642
1016.969	-1483
1017.040	-1968
1017.111	-1980
1017.182	-2177
1017.253	-1228
1017.324	-2233
1017.395	-2224
1017.466	-1726
1017.537	-1321
1017.608	-2572
1017.678	-1824
1017.749	-3061
1017.820	-1642
1017.891	-2733
1017.961	-2578
1018.032	-2632
1018.103	-1744
1018.173	-2602
1018.244	-2143
1018.315	-2023
1018.385	-1957
1018.456	-1760
1018.526	-2190
1018.597	-2224
1018.667	-2622
1018.738	-1932
1018.808	-1818
1018.878	-2393
1018.949	-2079
1019.019	-2672
1019.089	-1562
1019.160	-2292
1019.230	-2784
1019.300	-1832
1019.371	-1890
1019.441	-2799
1019.511	-1971
1019.581	-2672
1019.651	-1753
1019.721	-2280
1019.791	-2585
1019.861	-2123
1019.931	-1943
1020.001	-2777
1020.071	-1901
1020.141	-2497
1020.211	-1774
1020.281	-2440
1020.351	-2278
1020.421	-1981
1020.491	-2291
1020.560	-1998
1020.630	-1779
1020.700	-2559
1020.770	-2000
1020.839	-1844
1020.909	-2828
1020.979	-2467
1021.048	-3001
1021.118	-3080
1021.187	-1546
1021.257	-2627
1021.326	-2185
1021.396	-1646
1021.465	-2043
1021.535	-2060
1021.604	-2940
1021.674	-1972
1021.743	-1685
1021.812	-2907
1021.882	-1849
1021.951	-1949
1022.020	-1321
1022.089	-2056
1022.159	-1916
1022.228	-2358
1022.297	-2370
1022.366	-2475
1022.435	-2167
1022.504	-1813
1022.573	-2559
1022.642	-2200
1022.711	-2393
1022.781	-2396
1022.849	-1731
1022.918	-2520
1022.987	-2024
1023.056	-2069
1023.125	-2482
1023.194	-2263
1023.263	-1563
1023.331	-2275
1023.400	-2323
1023.469	-2378
1023.538	-1908
1023.606	-1931
1023.675	-1985
1023.744	-2469
1023.812	-1626
1023.881	-2355
1023.949	-1347
1024.018	-2807
1024.086	-1844
1024.155	-1495
1024.223	-1886
1024.292	-2681
1024.360	-2339
1024.429	-2215
1024.497	-1938
1024.565	-2028
1024.634	-1734
1024.702	-2067
1024.770	-2186
1024.838	-2637
1024.907	-1646
1024.975	-2779
1025.043	-1751
1025.111	-2774
1025.179	-1905
1025.247	-2839
1025.315	-1801
1025.383	-2246
1025.451	-1758
1025.519	-1685
1025.587	-1945
1025.655	-2444
1025.723	-1957
1025.791	-1885
1025.859	-1782
1025.927	-1005
1025.995	-2503
1026.062	-2137
1026.130	-1455
1026.198	-2579
1026.266	-1664
1026.333	-2621
1026.401	-1979
1026.469	-1587
1026.536	-1866
1026.604	-2142
1026.671	-1832
1026.739	-2402
1026.806	-2403
1026.874	-1691
1026.941	-1529
1027.009	-2842
1027.076	-1519
1027.144	-2064
1027.211	-2518
1027.278	-1232
1027.345	-1904
1027.413	-1626
1027.480	-2306
1027.547	-2291
1027.614	-2028
1027.682	-2238
1027.749	-1863
1027.816	-2376
1027.883	-1814
1027.950	-1657
1028.017	-2043
1028.084	-1791
1028.151	-1835
1028.218	-2304
1028.285	-1877
1028.352	-1935
1028.419	-2085
1028.486	-2017
1028.553	-1156
1028.619	-2549
1028.686	-1550
1028.753	-2095
1028.820	-2224
1028.886	-2184
1028.953	-1556
1029.020	-2031
1029.086	-2358
1029.153	-2172
1029.220	-1858
1029.286	-2080
1029.353	-1784
1029.419	-2556
1029.486	-1653
1029.552	-2189
1029.619	-1780
1029.685	-1981
1029.751	-2498
1029.818	-1388
1029.884	-2367
1029.951	-1824
1030.017	-2503
1030.083	-1898
1030.149	-2061
1030.216	-2321
1030.282	-1751
1030.348	-1942
1030.414	-2195
1030.480	-1577
1030.546	-1846
1030.612	-2248
1030.678	-2125
1030.744	-2330
1030.810	-2282
1030.876	-1820
1030.942	-2189
1031.008	-2791
1031.074	-2364
1031.140	-2322
1031.206	-1309
1031.272	-2308
1031.337	-1224
1031.403	-2404
1031.469	-1793
1031.534	-2329
1031.600	-1995
1031.666	-2212
1031.731	-2391
1031.797	-2535
1031.863	-1596
1031.928	-1658
1031.994	-2042
1032.059	-2131
1032.125	-2458
1032.190	-2696
1032.256	-2162
1032.321	-2863
1032.386	-1835
1032.452	-2823
1032.517	-1392
1032.582	-2053
1032.647	-1434
1032.713	-2838
1032.778	-1878
1032.843	-2411
1032.908	-2043
1032.974	-1997
1033.039	-2267
1033.104	-1903
1033.169	-2524
1033.234	-2450
1033.299	-1090
1033.364	-1559
1033.429	-2135
1033.494	-1665
1033.559	-1348
1033.624	-1580
1033.688	-2075
1033.753	-2533
1033.818	-1787
1033.883	-1797
1033.948	-2403
1034.013	-2222
1034.077	-1617
1034.142	-2286
1034.207	-1691
1034.271	-1573
1034.336	-1031
1034.400	-891
1034.465	-1132
1034.530	-1520
1034.594	-735
1034.658	-2553
1034.723	-2035
1034.787	-2681
1034.852	-2013
1034.916	-2331
1034.981	-1995
1035.045	-1465
1035.109	-2286
1035.173	-1733
1035.238	-2569
1035.302	-2100
1035.366	-2380
1035.430	-2647
1035.495	-1842
1035.559	-1873
1035.623	-2187
1035.687	-2092
1035.751	-2239
1035.815	-2238
1035.879	-1533
1035.943	-1709
1036.007	-2518
1036.071	-1591
1036.135	-1773
1036.198	-2026
1036.262	-2112
1036.326	-2126
1036.390	-1376
1036.454	-1872
1036.517	-2131
1036.581	-2434
1036.645	-2096
1036.709	-1968
1036.772	-1217
1036.836	-1578
1036.900	-2336
1036.963	-1651
1037.026	-1728
1037.090	-2322
1037.154	-2108
1037.217	-2687
1037.280	-2243
1037.344	-3326
1037.407	-3090
1037.471	-2046
1037.534	-1644
1037.597	-2286
1037.661	-1791
1037.724	-1579
1037.787	-2224
1037.850	-2838
1037.913	-2449
1037.977	-2744
1038.040	-2694
1038.103	-1865
1038.166	-2501
1038.229	-2044
1038.292	-2516
1038.355	-1868
1038.418	-2682
1038.481	-1698
1038.544	-2321
1038.607	-1463
1038.670	-1965
1038.732	-2580
1038.795	-2713
1038.858	-2811
1038.921	-1722
1038.984	-2214
1039.046	-2525
1039.109	-2195
1039.172	-1542
1039.234	-2627
1039.297	-2582
1039.360	-2870
1039.422	-1530
1039.485	-1424
1039.547	-2475
1039.610	-2518
1039.672	-2587
1039.734	-2809
1039.797	-2144
1039.859	-1988
1039.922	-2083
1039.984	-2399
1040.046	-1961
1040.109	-2401
1040.171	-2364
1040.233	-2116
1040.295	-1622
1040.358	-1847
1040.420	-2434
1040.482	-2793
1040.544	-2270
1040.606	-2564
1040.668	-2397
1040.730	-2734
1040.792	-2451
1040.854	-2160
1040.916	-2597
1040.978	-3114
1041.040	-2601
1041.102	-2228
1041.164	-3354
1041.225	-1745
1041.287	-2304
1041.349	-2951
1041.411	-2179
1041.472	-2514
1041.534	-2345
1041.596	-2445
1041.657	-2137
1041.719	-2331
1041.781	-2744
1041.842	-3413
1041.904	-2313
1041.965	-1686
1042.027	-2316
1042.088	-1694
1042.150	-2013
1042.211	-2511
1042.272	-2139
1042.334	-1551
1042.395	-2275
1042.456	-2159
1042.518	-2574
1042.579	-2956
1042.640	-2018
1042.701	-2091
1042.763	-1910
1042.824	-2572
1042.885	-2776
1042.946	-2102
1043.007	-2023
1043.068	-2354
1043.129	-2591
1043.190	-2374
1043.251	-2752
1043.312	-2252
1043.373	-2557
1043.434	-2191
1043.495	-1841
1043.556	-2485
1043.616	-2345
1043.677	-2146
1043.738	-2398
1043.799	-3256
1043.859	-2361
1043.920	-2745
1043.981	-1879
1044.041	-1445
1044.102	-1832
1044.162	-2478
1044.223	-2141
1044.284	-2430
1044.344	-2185
1044.405	-1992
1044.465	-1913
1044.525	-2095
1044.586	-1240
1044.646	-2203
1044.707	-1287
1044.767	-1879
1044.827	-1391
1044.887	-2806
1044.948	-1960
1045.008	-2661
1045.068	-2257
1045.128	-2361
1045.188	-2103
1045.249	-1969
1045.309	-2217
1045.369	-1770
1045.429	-2309
1045.489	-2347
1045.549	-1852
1045.609	-2892
1045.669	-1653
1045.729	-2325
1045.789	-1905
1045.848	-1656
1045.908	-1716
1045.968	-1968
1046.028	-2398
1046.088	-2025
1046.147	-1866
1046.207	-2841
1046.267	-1517
1046.326	-1572
1046.386	-1685
1046.446	-995
1046.505	-1712
1046.565	-1282
1046.624	-1344
1046.684	-1191
1046.743	-1194
1046.803	-836
1046.862	-608
1046.922	0
