'Start Wavelength	183.907
'End Wavelength	1046.922
'Gate Delay	5.000
'Gate Width (ms)	1.050
'Laser Output Level	0.000
'X Position	0.000
'Y Position	0.000
'Z Position	0.000
'Grid Point Number	1.000
'Shot Number	100.000
183.907	34.000
183.977	830.000
184.047	503
184.116	498
184.186	198
184.256	813
184.325	778
184.395	633
184.465	594
184.534	407
184.604	646
184.674	603
184.743	361
184.813	225
184.883	-68
184.952	743
185.022	398
185.092	870
185.161	569
185.231	775
185.301	412
185.370	85
185.440	525
185.509	280
185.579	354
185.649	375
185.718	671
185.788	971
185.857	-113
185.927	226
185.996	-90
186.066	260
186.136	12
186.205	542
186.275	177
186.344	452
186.414	234
186.483	-3
186.553	508
186.622	777
186.692	399
186.761	564
186.831	623
186.900	969
186.970	659
187.039	765
187.109	630
187.178	5
187.248	-208
187.317	304
187.387	439
187.456	620
187.526	384
187.595	622
187.664	-11
187.734	529
187.803	510
187.873	809
187.942	901
188.012	321
188.081	343
188.150	224
188.220	683
188.289	813
188.358	131
188.428	491
188.497	12
188.567	-61
188.636	286
188.705	351
188.775	668
188.844	487
188.913	675
188.983	739
189.052	331
189.121	450
189.191	504
189.260	622
189.329	55
189.399	611
189.468	927
189.537	16
189.606	743
189.676	918
189.745	145
189.814	513
189.883	-176
189.953	699
190.022	234
190.091	1395
190.161	506
190.230	646
190.299	354
190.368	686
190.437	1043
190.507	464
190.576	363
190.645	444
190.714	42
190.783	170
190.853	20
190.922	394
190.991	620
191.060	832
191.129	309
191.198	648
191.268	50
191.337	301
191.406	807
191.475	421
191.544	82
191.613	510
191.682	558
191.752	675
191.821	424
191.890	1043
191.959	426
192.028	453
192.097	662
192.166	124
192.235	-193
192.304	402
192.373	311
192.442	931
192.511	157
192.580	169
192.650	-110
192.719	763
192.788	321
192.857	707
192.926	316
192.995	290
193.064	704
193.133	1270
193.202	802
193.271	1228
193.340	837
193.409	722
193.478	224
193.547	1478
193.615	1040
193.684	753
193.753	861
193.822	1341
193.891	272
193.960	611
194.029	38
194.098	869
194.167	930
194.236	855
194.305	599
194.374	600
194.443	776
194.512	632
194.580	244
194.649	829
194.718	645
194.787	993
194.856	1012
194.925	1153
194.994	951
195.062	1316
195.131	755
195.200	314
195.269	942
195.338	464
195.407	150
195.475	1209
195.544	1478
195.613	1102
195.682	270
195.751	616
195.819	1017
195.888	707
195.957	1432
196.026	814
196.094	1017
196.163	530
196.232	986
196.301	1228
196.369	318
196.438	707
196.507	817
196.576	1159
196.644	-47
196.713	984
196.782	565
196.850	126
196.919	1079
196.988	562
197.056	265
197.125	381
197.194	648
197.262	605
197.331	496
197.400	760
197.468	695
197.537	776
197.606	795
197.674	1083
197.743	1205
197.812	194
197.880	-15
197.949	498
198.017	1254
198.086	994
198.155	295
198.223	626
198.292	717
198.360	338
198.429	350
198.497	1030
198.566	566
198.635	287
198.703	589
198.772	1009
198.840	1994
198.909	397
198.977	505
199.046	1139
199.114	742
199.183	423
199.251	414
199.320	64
199.388	85
199.457	542
199.525	215
199.594	1230
199.662	806
199.731	1305
199.799	112
199.867	856
199.936	-119
200.004	296
200.073	-71
200.141	492
200.210	280
200.278	812
200.346	610
200.415	1093
200.483	1047
200.552	1272
200.620	824
200.688	273
200.757	552
200.825	703
200.893	405
200.962	973
201.030	440
201.098	638
201.167	369
201.235	1005
201.303	731
201.372	1215
201.440	911
201.508	1261
201.577	386
201.645	1080
201.713	311
201.781	1280
201.850	725
201.918	1142
201.986	186
202.055	985
202.123	656
202.191	715
202.259	385
202.327	804
202.396	865
202.464	856
202.532	1006
202.600	1246
202.669	707
202.737	734
202.805	686
202.873	447
202.941	875
203.009	1057
203.078	98
203.146	588
203.214	647
203.282	1005
203.350	794
203.418	1056
203.487	1309
203.555	1585
203.623	1049
203.691	1472
203.759	417
203.827	1111
203.895	-123
203.963	912
204.031	1271
204.099	908
204.168	672
204.236	985
204.304	1263
204.372	-1
204.440	386
204.508	894
204.576	590
204.644	1370
204.712	479
204.780	620
204.848	611
204.916	536
204.984	383
205.052	192
205.120	334
205.188	1410
205.256	845
205.324	681
205.392	700
205.460	484
205.528	1239
205.596	796
205.664	491
205.732	511
205.799	2310
205.867	906
205.935	806
206.003	1146
206.071	378
206.139	789
206.207	216
206.275	1185
206.343	764
206.411	1118
206.478	1086
206.546	886
206.614	551
206.682	642
206.750	1216
206.818	1076
206.885	839
206.953	1330
207.021	529
207.089	885
207.157	994
207.225	1093
207.292	735
207.360	1218
207.428	768
207.496	1353
207.563	613
207.631	832
207.699	607
207.767	922
207.834	490
207.902	491
207.970	852
208.038	909
208.105	1018
208.173	991
208.241	1465
208.309	1274
208.376	1442
208.444	1953
208.512	1182
208.579	1405
208.647	1387
208.715	907
208.782	585
208.850	1055
208.918	1508
208.985	1317
209.053	802
209.120	581
209.188	1147
209.256	1634
209.323	1441
209.391	1103
209.459	767
209.526	944
209.594	688
209.661	1226
209.729	1241
209.796	1111
209.864	852
209.932	739
209.999	1155
210.067	1568
210.134	893
210.202	1358
210.269	1051
210.337	1531
210.404	386
210.472	1939
210.539	1034
210.607	1244
210.674	1059
210.742	999
210.809	951
210.877	1669
210.944	1418
211.012	1530
211.079	950
211.146	1212
211.214	1654
211.281	2162
211.349	405
211.416	1519
211.484	1351
211.551	1749
211.618	1487
211.686	1570
211.753	1114
211.821	1907
211.888	1229
211.955	2213
212.023	1172
212.090	1165
212.157	1285
212.225	1666
212.292	1526
212.359	3587
212.427	4020
212.494	1170
212.561	1382
212.629	1207
212.696	1085
212.763	1665
212.831	1430
212.898	1874
212.965	1030
213.032	1627
213.100	997
213.167	686
213.234	1620
213.301	1415
213.369	1574
213.436	1962
213.503	1358
213.570	1557
213.638	605
213.705	1385
213.772	862
213.839	1309
213.906	1015
213.973	1821
214.041	1640
214.108	1590
214.175	1264
214.242	1100
214.309	1458
214.376	1846
214.444	1652
214.511	1630
214.578	1740
214.645	2187
214.712	2146
214.779	1985
214.846	1135
214.913	2481
214.980	1906
215.048	2246
215.115	1684
215.182	1554
215.249	2088
215.316	2103
215.383	1657
215.450	1924
215.517	1744
215.584	822
215.651	796
215.718	999
215.785	2513
215.852	1893
215.919	1555
215.986	1101
216.053	1027
216.120	1528
216.187	1279
216.254	1704
216.321	1833
216.388	1290
216.455	1538
216.522	1820
216.589	2234
216.656	3641
216.722	2595
216.789	2816
216.856	2356
216.923	2373
216.990	1836
217.057	2488
217.124	2455
217.191	2422
217.258	3464
217.324	3384
217.391	2635
217.458	2417
217.525	2415
217.592	1836
217.659	2015
217.725	1548
217.792	2786
217.859	2238
217.926	959
217.993	1498
218.059	1105
218.126	1788
218.193	1278
218.260	1503
218.327	1678
218.393	763
218.460	1487
218.527	1327
218.594	1759
218.660	2317
218.727	1417
218.794	1508
218.860	824
218.927	1494
218.994	1282
219.061	1588
219.127	1399
219.194	1236
219.261	1559
219.327	1902
219.394	398
219.461	1731
219.527	1390
219.594	1140
219.661	1471
219.727	853
219.794	917
219.860	1852
219.927	1263
219.994	1690
220.060	2119
220.127	1945
220.193	2133
220.260	1938
220.326	2790
220.393	4676
220.460	4257
220.526	3249
220.593	2594
220.659	2903
220.726	2726
220.792	3514
220.859	4377
220.925	6981
220.992	6237
221.058	5767
221.125	3299
221.191	3294
221.258	1602
221.324	1692
221.391	1365
221.457	1332
221.524	1116
221.590	2903
221.657	3092
221.723	2136
221.789	2304
221.856	2418
221.922	2204
221.989	2040
222.055	2099
222.121	1937
222.188	2234
222.254	2113
222.321	1633
222.387	1820
222.453	1780
222.520	1313
222.586	1061
222.652	1348
222.719	1356
222.785	2052
222.851	606
222.918	1431
222.984	1393
223.050	701
223.116	883
223.183	1313
223.249	440
223.315	1143
223.382	493
223.448	1509
223.514	758
223.580	1126
223.647	1181
223.713	1741
223.779	873
223.845	1201
223.911	1126
223.978	1607
224.044	1160
224.110	1515
224.176	1384
224.242	1250
224.309	917
224.375	940
224.441	1764
224.507	1950
224.573	1499
224.639	1551
224.705	556
224.772	1083
224.838	1381
224.904	1634
224.970	762
225.036	1234
225.102	1201
225.168	1020
225.234	610
225.300	1413
225.366	820
225.432	1195
225.499	1012
225.565	1594
225.631	998
225.697	1619
225.763	1927
225.829	1963
225.895	2095
225.961	2208
226.027	2502
226.093	2874
226.159	2473
226.225	3987
226.291	8033
226.357	7843
226.423	4648
226.489	2974
226.554	2806
226.620	2657
226.686	3371
226.752	5005
226.818	9081
226.884	12462
226.950	7504
227.016	4603
227.082	3042
227.148	2446
227.214	2504
227.279	2802
227.345	1471
227.411	2396
227.477	2852
227.543	5150
227.609	2716
227.674	2338
227.740	2322
227.806	1881
227.872	1814
227.938	1716
228.003	2190
228.069	1138
228.135	1028
228.201	1958
228.267	1707
228.332	2630
228.398	1686
228.464	1121
228.530	1173
228.595	1665
228.661	1524
228.727	2429
228.792	1524
228.858	1167
228.924	1275
228.990	1938
229.055	2025
229.121	1585
229.187	1083
229.252	1600
229.318	1043
229.384	1075
229.449	1110
229.515	779
229.581	715
229.646	2159
229.712	1494
229.777	2861
229.843	1627
229.909	2589
229.974	2544
230.040	2142
230.105	1250
230.171	2311
230.236	2638
230.302	3228
230.368	2229
230.433	2035
230.499	1861
230.564	2413
230.630	1974
230.695	1720
230.761	1823
230.826	1841
230.892	2267
230.957	1761
231.023	2187
231.088	1792
231.154	1902
231.219	2283
231.284	2295
231.350	1818
231.415	1180
231.481	1310
231.546	1344
231.612	1106
231.677	1877
231.742	1291
231.808	1771
231.873	1150
231.939	634
232.004	2527
232.069	1334
232.135	1976
232.200	1075
232.265	1188
232.331	1378
232.396	1153
232.461	867
232.527	1628
232.592	1604
232.657	1285
232.723	1754
232.788	1717
232.853	1348
232.918	1136
232.984	727
233.049	1115
233.114	1120
233.179	1044
233.245	1784
233.310	1768
233.375	642
233.440	1529
233.506	1195
233.571	1147
233.636	773
233.701	1515
233.766	1679
233.832	833
233.897	1064
233.962	1653
234.027	766
234.092	1359
234.157	1279
234.222	1906
234.288	1978
234.353	2769
234.418	3299
234.483	2760
234.548	2705
234.613	2380
234.678	2522
234.743	2125
234.808	3031
234.873	1944
234.938	1762
235.004	1740
235.069	1203
235.134	927
235.199	1615
235.264	1881
235.329	2244
235.394	1937
235.459	1382
235.524	2100
235.589	1351
235.654	1473
235.719	728
235.784	1579
235.849	1990
235.913	2257
235.978	2353
236.043	1872
236.108	1633
236.173	2117
236.238	1658
236.303	2017
236.368	1676
236.433	2838
236.498	2532
236.563	3474
236.627	9192
236.692	15105
236.757	7754
236.822	4451
236.887	3664
236.952	3007
237.017	2259
237.081	2744
237.146	5341
237.211	10869
237.276	18298
237.341	15196
237.405	7021
237.470	4579
237.535	2877
237.600	2347
237.664	1937
237.729	2035
237.794	4722
237.859	5743
237.923	2648
237.988	2617
238.053	2283
238.118	3360
238.182	4695
238.247	2498
238.312	2006
238.376	2058
238.441	1491
238.506	2363
238.570	1855
238.635	1945
238.700	1289
238.764	1682
238.829	2895
238.893	1802
238.958	2662
239.023	1953
239.087	1825
239.152	2217
239.216	1228
239.281	1937
239.346	1506
239.410	1600
239.475	2251
239.539	4673
239.604	1889
239.668	1056
239.733	1389
239.797	4362
239.862	5708
239.926	2956
239.991	1612
240.055	1797
240.120	1537
240.184	1498
240.249	815
240.313	1768
240.378	1923
240.442	4155
240.507	2366
240.571	1954
240.635	2392
240.700	2519
240.764	1752
240.829	1751
240.893	815
240.957	1870
241.022	3170
241.086	2530
241.151	1913
241.215	1194
241.279	1957
241.344	1882
241.408	2779
241.472	2278
241.537	2422
241.601	2287
241.665	1573
241.730	2284
241.794	2576
241.858	2881
241.922	2493
241.987	2304
242.051	1634
242.115	2244
242.179	1863
242.244	1734
242.308	1949
242.372	2273
242.436	2284
242.501	2230
242.565	1352
242.629	1817
242.693	1148
242.757	1440
242.822	1626
242.886	1788
242.950	1183
243.014	1611
243.078	1858
243.142	1353
243.206	1852
243.271	1971
243.335	2520
243.399	3507
243.463	12400
243.527	9946
243.591	3488
243.655	2585
243.719	1700
243.783	2647
243.847	4017
243.911	4170
243.975	4144
244.040	2566
244.104	2217
244.168	2491
244.232	2840
244.296	3117
244.360	3274
244.424	1668
244.488	1699
244.552	2023
244.615	1886
244.679	1044
244.743	2624
244.807	1302
244.871	1010
244.935	2081
244.999	1454
245.063	1974
245.127	2115
245.191	3360
245.255	2037
245.319	3629
245.383	1500
245.446	1464
245.510	1622
245.574	2576
245.638	1273
245.702	2801
245.766	3350
245.829	2883
245.893	2123
245.957	2450
246.021	2467
246.085	2456
246.149	3196
246.212	6593
246.276	5463
246.340	3240
246.404	2785
246.467	3843
246.531	2217
246.595	3035
246.659	1942
246.722	2959
246.786	3197
246.850	4338
246.913	2472
246.977	2105
247.041	2034
247.104	1756
247.168	3061
247.232	6917
247.295	7367
247.359	3149
247.423	3817
247.486	3986
247.550	2781
247.614	3305
247.677	2778
247.741	1747
247.804	1559
247.868	2651
247.932	7680
247.995	6797
248.059	2382
248.122	2451
248.186	2963
248.249	8439
248.313	15004
248.376	12445
248.440	6711
248.503	3319
248.567	4065
248.630	6202
248.694	7854
248.757	12495
248.821	12061
248.884	8784
248.948	11025
249.011	14167
249.075	16583
249.138	10373
249.202	5881
249.265	3938
249.328	4234
249.392	4171
249.455	2562
249.519	3706
249.582	4475
249.645	5552
249.709	3054
249.772	3229
249.835	2865
249.899	3436
249.962	3183
250.025	3336
250.089	8754
250.152	5857
250.215	3696
250.279	3441
250.342	3245
250.405	3487
250.468	3468
250.532	4503
250.595	7403
250.658	23288
250.721	15340
250.785	8167
250.848	6263
250.911	3139
250.974	3937
251.038	8211
251.101	7225
251.164	4551
251.227	5178
251.290	5183
251.354	11659
251.417	25954
251.480	13413
251.543	24957
251.606	36295
251.669	16794
251.732	11521
251.795	11898
251.859	17280
251.922	21131
251.985	8335
252.048	5537
252.111	5154
252.174	5997
252.237	13080
252.300	15572
252.363	25963
252.426	22303
252.489	9221
252.552	5455
252.615	5064
252.678	8449
252.741	13713
252.804	25139
252.867	25087
252.930	13927
252.993	7754
253.056	7060
253.119	3693
253.182	4520
253.245	5215
253.308	4165
253.371	4602
253.434	3826
253.497	6794
253.559	8013
253.622	5440
253.685	9425
253.748	4547
253.811	4032
253.874	4634
253.937	4079
254.000	3578
254.062	8507
254.125	7033
254.188	8990
254.251	4597
254.314	4375
254.376	7878
254.439	6134
254.502	5075
254.565	9321
254.628	8464
254.690	4885
254.753	3365
254.816	2772
254.878	4238
254.941	7244
255.004	3607
255.067	3760
255.129	2161
255.192	2225
255.255	1714
255.317	1817
255.380	1739
255.443	1646
255.505	1305
255.568	1657
255.631	1455
255.693	1697
255.756	825
255.819	2324
255.881	933
255.944	1016
256.006	1181
256.069	1689
256.132	1419
256.194	2629
256.257	3086
256.319	2168
256.382	2082
256.444	2613
256.507	1786
256.569	1511
256.632	2211
256.694	4197
256.757	19075
256.819	16681
256.882	6455
256.944	4167
257.007	3640
257.069	2383
257.132	2471
257.194	2236
257.257	2063
257.319	2234
257.381	3874
257.444	14107
257.506	34432
257.569	18479
257.631	9574
257.693	5582
257.756	3158
257.818	2710
257.880	2035
257.943	2088
258.005	2279
258.067	2088
258.130	1603
258.192	3815
258.254	3361
258.317	2037
258.379	3374
258.441	6513
258.503	3319
258.566	5673
258.628	2233
258.690	1790
258.753	3493
258.815	4151
258.877	3197
258.939	2346
259.001	2184
259.064	2397
259.126	2174
259.188	2985
259.250	2650
259.312	4151
259.375	5406
259.437	2432
259.499	2120
259.561	2571
259.623	1926
259.685	2213
259.747	2682
259.809	5501
259.872	6819
259.934	13790
259.996	6493
260.058	2780
260.120	2503
260.182	1609
260.244	968
260.306	1532
260.368	1632
260.430	2331
260.492	5643
260.554	5346
260.616	4580
260.678	9282
260.740	3900
260.802	2929
260.864	2422
260.926	2260
260.988	2477
261.050	3570
261.112	7222
261.174	8860
261.236	3271
261.298	2569
261.359	4549
261.421	3280
261.483	1190
261.545	2267
261.607	1625
261.669	1818
261.731	4382
261.793	5770
261.854	2594
261.916	2513
261.978	2246
262.040	1664
262.102	1591
262.164	1956
262.225	1499
262.287	3621
262.349	4597
262.411	1809
262.472	1897
262.534	3994
262.596	2582
262.658	2374
262.719	1676
262.781	2246
262.843	3414
262.904	2245
262.966	1416
263.028	2303
263.090	17434
263.151	13764
263.213	6969
263.275	3850
263.336	1939
263.398	1915
263.459	1453
263.521	2517
263.583	4456
263.644	1969
263.706	1372
263.767	1075
263.829	137
263.891	1622
263.952	1370
264.014	820
264.075	4823
264.137	4693
264.198	2363
264.260	1042
264.321	2089
264.383	8548
264.444	5678
264.506	2221
264.567	1661
264.629	7557
264.690	4606
264.752	2623
264.813	1884
264.875	1685
264.936	1966
264.998	1135
265.059	964
265.120	1964
265.182	7071
265.243	19015
265.305	6960
265.366	2950
265.427	2178
265.489	1772
265.550	1468
265.611	1424
265.673	1241
265.734	408
265.795	971
265.857	1529
265.918	1164
265.979	11356
266.040	25508
266.102	7915
266.163	5060
266.224	3408
266.286	1546
266.347	1482
266.408	1830
266.469	1335
266.530	1705
266.592	2178
266.653	4669
266.714	2956
266.775	1548
266.836	1699
266.898	2231
266.959	2315
267.020	1710
267.081	1817
267.142	1500
267.203	1775
267.264	983
267.326	1552
267.387	1482
267.448	934
267.509	1493
267.570	1187
267.631	1614
267.692	1233
267.753	1457
267.814	1364
267.875	5966
267.936	4781
267.997	4403
268.058	3322
268.119	2359
268.180	1837
268.241	1306
268.302	1436
268.363	1522
268.424	1477
268.485	620
268.546	1404
268.607	1157
268.668	779
268.729	778
268.790	632
268.851	2410
268.912	6326
268.972	3629
269.033	1821
269.094	927
269.155	1821
269.216	966
269.277	1737
269.338	610
269.398	1481
269.459	1649
269.520	2933
269.581	3293
269.642	3046
269.702	1760
269.763	1574
269.824	2007
269.885	3907
269.945	1537
270.006	1236
270.067	945
270.128	1794
270.188	1190
270.249	949
270.310	304
270.370	1554
270.431	1084
270.492	707
270.553	1688
270.613	5377
270.674	4654
270.734	2118
270.795	1465
270.856	2644
270.916	989
270.977	1592
271.038	2456
271.098	2108
271.159	3844
271.219	1248
271.280	1184
271.340	1310
271.401	1919
271.462	3282
271.522	2253
271.583	1789
271.643	1179
271.704	1863
271.764	2878
271.825	9000
271.885	20617
271.946	11238
272.006	5618
272.066	14619
272.127	8697
272.187	4093
272.248	2832
272.308	6170
272.369	8969
272.429	3792
272.489	5525
272.550	4307
272.610	4773
272.671	3035
272.731	3812
272.791	3607
272.852	3090
272.912	2627
272.972	1054
273.033	1865
273.093	3684
273.153	2222
273.214	1515
273.274	4365
273.334	13727
273.394	10009
273.455	5826
273.515	11090
273.575	8776
273.635	5336
273.696	10867
273.756	10111
273.816	4302
273.876	3589
273.936	6184
273.997	4685
274.057	2028
274.117	3441
274.177	9732
274.237	18832
274.297	7364
274.358	9276
274.418	11028
274.478	5327
274.538	2625
274.598	3418
274.658	6992
274.718	4777
274.778	2700
274.838	2162
274.898	6594
274.958	8933
275.018	12716
275.078	5666
275.138	2965
275.198	1779
275.258	1830
275.318	3264
275.378	5660
275.438	3904
275.498	2974
275.558	7177
275.618	11584
275.678	6333
275.738	6637
275.798	3634
275.858	1836
275.918	2345
275.978	3000
276.038	2121
276.098	1803
276.157	9201
276.217	8600
276.277	4516
276.337	3477
276.397	3133
276.457	2485
276.517	1754
276.576	1521
276.636	2396
276.696	4282
276.756	7425
276.815	2569
276.875	2514
276.935	3203
276.995	2762
277.055	1851
277.114	2395
277.174	6220
277.234	7477
277.293	2917
277.353	1968
277.413	1847
277.472	2976
277.532	1946
277.592	3718
277.651	16701
277.711	7750
277.771	9304
277.830	20884
277.890	7499
277.950	20884
278.009	17641
278.069	7715
278.128	17824
278.188	9263
278.248	10221
278.307	16080
278.367	4556
278.426	3293
278.486	1893
278.545	1621
278.605	1633
278.664	2183
278.724	2627
278.783	12228
278.843	8277
278.902	3394
278.962	3620
279.021	3573
279.081	3845
279.140	3182
279.199	4130
279.259	3715
279.318	3902
279.378	4999
279.437	13323
279.496	36377
279.556	59071
279.615	20437
279.675	9492
279.734	8535
279.793	15874
279.853	12158
279.912	4981
279.971	3853
280.031	3953
280.090	11520
280.149	7955
280.208	17648
280.268	49189
280.327	17789
280.386	8112
280.445	10207
280.505	4686
280.564	4133
280.623	3545
280.682	8658
280.742	4499
280.801	2724
280.860	2039
280.919	2039
280.978	1526
281.037	2369
281.097	1126
281.156	1667
281.215	1903
281.274	5270
281.333	11550
281.392	3622
281.451	1859
281.510	2186
281.569	1780
281.628	1649
281.688	1847
281.747	2321
281.806	1060
281.865	1676
281.924	2293
281.983	989
282.042	1117
282.101	1408
282.160	1180
282.219	1005
282.278	2935
282.337	6749
282.396	2470
282.454	1766
282.513	6075
282.572	9867
282.631	3246
282.690	2124
282.749	2254
282.808	3051
282.867	2933
282.926	2267
282.985	1134
283.043	1154
283.102	2076
283.161	1680
283.220	8873
283.279	6752
283.338	2396
283.396	2848
283.455	2312
283.514	4205
283.573	3420
283.631	2992
283.690	2306
283.749	3024
283.808	7103
283.866	3780
283.925	2125
283.984	3216
284.043	4320
284.101	3232
284.160	2766
284.219	3598
284.277	2936
284.336	9114
284.395	15888
284.453	6847
284.512	5844
284.570	8431
284.629	5739
284.688	7750
284.746	7801
284.805	9802
284.863	12891
284.922	15321
284.981	20362
285.039	31469
285.098	56638
285.156	78437
285.215	63118
285.273	81052
285.332	61723
285.390	39670
285.449	27279
285.507	19245
285.566	13703
285.624	10969
285.683	8257
285.741	6858
285.799	6193
285.858	6140
285.916	4681
285.975	4097
286.033	3927
286.091	3360
286.150	2974
286.208	2183
286.267	3179
286.325	4881
286.383	5762
286.442	3220
286.500	2768
286.558	2235
286.616	2719
286.675	3059
286.733	3368
286.791	2333
286.850	2998
286.908	5943
286.966	4081
287.024	1740
287.083	2353
287.141	1104
287.199	2714
287.257	3645
287.315	2312
287.374	5142
287.432	6566
287.490	3515
287.548	2764
287.606	1788
287.664	2282
287.723	4340
287.781	2378
287.839	2462
287.897	2274
287.955	2908
288.013	4300
288.071	14207
288.129	70748
288.187	66528
288.245	20867
288.303	9537
288.361	6459
288.419	4452
288.477	3201
288.535	3037
288.593	2425
288.651	1745
288.709	1298
288.767	2092
288.825	1291
288.883	1517
288.941	1548
288.999	2073
289.057	1117
289.115	1141
289.173	1561
289.231	2143
289.289	1239
289.346	1864
289.404	2479
289.462	3565
289.520	2775
289.578	1846
289.636	1338
289.694	934
289.751	1321
289.809	1611
289.867	1614
289.925	3291
289.983	1246
290.040	1356
290.098	1921
290.156	1808
290.214	1507
290.271	1285
290.329	1425
290.387	1512
290.444	1293
290.502	911
290.560	1719
290.617	984
290.675	1551
290.733	1803
290.790	1790
290.848	1336
290.906	1250
290.963	1082
291.021	544
291.078	1142
291.136	1675
291.194	11011
291.251	6562
291.309	2159
291.366	1527
291.424	1869
291.481	1266
291.539	1355
291.596	1252
291.654	1340
291.711	1519
291.769	2089
291.826	3180
291.884	1766
291.941	1121
291.999	1131
292.056	2489
292.114	1464
292.171	1200
292.228	1537
292.286	2287
292.343	4529
292.401	2982
292.458	1850
292.515	1725
292.573	2939
292.630	2639
292.687	1766
292.745	1042
292.802	3469
292.859	9014
292.917	9991
292.974	3681
293.031	1740
293.089	1361
293.146	1500
293.203	1147
293.260	1558
293.318	2046
293.375	2852
293.432	740
293.489	1767
293.546	1090
293.604	3310
293.661	14200
293.718	13688
293.775	6911
293.832	4198
293.889	3246
293.947	3402
294.004	1234
294.061	3471
294.118	9323
294.175	14098
294.232	9945
294.289	4385
294.346	3501
294.403	2834
294.460	2578
294.517	1570
294.574	1273
294.631	1530
294.688	2301
294.745	12386
294.802	24621
294.859	13441
294.916	6052
294.973	4427
295.030	4216
295.087	1753
295.144	2247
295.201	1556
295.258	1655
295.315	4232
295.372	14062
295.429	9723
295.486	4211
295.542	4645
295.599	15398
295.656	10840
295.713	14022
295.770	9426
295.827	4098
295.883	2083
295.940	3586
295.997	5884
296.054	3164
296.111	2763
296.167	1583
296.224	1563
296.281	938
296.338	1624
296.394	1985
296.451	3501
296.508	11317
296.564	9346
296.621	10135
296.678	25651
296.734	15022
296.791	6464
296.848	4390
296.904	9364
296.961	14738
297.018	16443
297.074	7059
297.131	3258
297.187	3531
297.244	8379
297.301	26508
297.357	16844
297.414	5836
297.470	3916
297.527	2646
297.583	2382
297.640	1843
297.696	2246
297.753	1774
297.809	2090
297.866	987
297.922	1331
297.979	1783
298.035	1988
298.092	5530
298.148	11021
298.204	5759
298.261	4950
298.317	16016
298.374	17709
298.430	7623
298.486	4295
298.543	3231
298.599	3938
298.656	4266
298.712	13477
298.768	16121
298.824	6595
298.881	3106
298.937	2181
298.993	3141
299.050	4000
299.106	2722
299.162	2954
299.218	2036
299.275	1898
299.331	2692
299.387	11481
299.443	24132
299.500	12917
299.556	5664
299.612	4195
299.668	4572
299.724	6098
299.780	3929
299.837	3316
299.893	9036
299.949	21123
300.005	14474
300.061	23164
300.117	18874
300.173	7813
300.229	6847
300.285	9945
300.341	6436
300.397	4356
300.453	2489
300.510	2239
300.566	2543
300.622	6244
300.678	17325
300.734	17414
300.790	18480
300.845	13178
300.901	16230
300.957	17649
301.013	8115
301.069	4263
301.125	4721
301.181	4221
301.237	2351
301.293	1723
301.349	1672
301.405	2092
301.461	1798
301.516	2096
301.572	4268
301.628	5702
301.684	4691
301.740	11842
301.796	8358
301.851	11026
301.907	12655
301.963	12598
302.019	36233
302.074	54944
302.130	34569
302.186	15946
302.242	7682
302.297	5836
302.353	9195
302.409	11669
302.464	7349
302.520	13251
302.576	23416
302.631	18112
302.687	8818
302.743	5167
302.798	3179
302.854	2709
302.910	3760
302.965	5207
303.021	6571
303.076	8002
303.132	10606
303.187	7371
303.243	4550
303.299	2972
303.354	3388
303.410	2854
303.465	1967
303.521	2546
303.576	2342
303.632	3566
303.687	12066
303.743	18399
303.798	9340
303.853	5102
303.909	2972
303.964	4308
304.020	8014
304.075	6076
304.130	10394
304.186	15225
304.241	12757
304.297	7859
304.352	4964
304.358	4863
304.407	4037
304.449	4000
304.463	3993
304.518	3276
304.539	2764
304.573	1943
304.629	3051
304.630	3164
304.684	8189
304.720	15502
304.739	19300
304.794	14209
304.811	12314
304.850	7486
304.902	3844
304.905	3619
304.960	3728
304.992	3670
305.015	3655
305.071	3063
305.083	2974
305.126	2626
305.173	1686
305.181	1524
305.236	1609
305.264	2193
305.292	2843
305.347	2920
305.354	2953
305.402	3153
305.445	3369
305.457	3437
305.512	4856
305.535	4138
305.567	3070
305.622	4178
305.626	4551
305.678	10992
305.716	17825
305.733	20752
305.788	14957
305.807	15197
305.843	14789
305.897	18128
305.898	18184
305.953	12129
305.988	9259
306.008	7324
306.063	5441
306.078	4769
306.118	3390
306.168	2184
306.173	2087
306.228	2439
306.259	2004
306.283	1687
306.338	2089
306.349	2040
306.393	1962
306.440	2547
306.448	2632
306.503	2604
306.530	3087
306.558	3861
306.613	7809
306.620	8524
306.668	13750
306.711	16864
306.723	17338
306.778	11624
306.801	10003
306.833	7063
306.888	3686
306.892	3532
306.943	3085
306.982	2180
306.997	1892
307.052	2316
307.072	2416
307.107	2441
307.162	2582
307.163	2588
307.217	3775
307.253	4592
307.272	4854
307.327	4690
307.343	4730
307.381	4515
307.434	4331
307.436	4397
307.491	8981
307.524	12593
307.546	15007
307.600	13748
307.614	13210
307.655	8270
307.704	4312
307.710	4203
307.765	4635
307.795	5567
307.819	6741
307.874	8764
307.885	8768
307.929	7265
307.975	6581
307.984	6722
308.038	8984
308.065	12422
308.093	19145
308.148	47276
308.156	51387
308.202	85346
308.246	93291
308.257	87133
308.312	52057
308.336	39337
308.366	31732
308.421	18716
308.426	17752
308.475	11853
308.517	7651
308.530	7047
308.585	6080
308.607	5673
308.639	5550
308.694	6035
308.697	6155
308.748	8914
308.787	10360
308.803	10552
308.857	8886
308.877	8835
308.912	8370
308.967	7822
308.967	7837
309.021	11791
309.058	15532
309.076	18679
309.130	31831
309.148	38334
309.185	61372
309.238	100858
309.239	101561
309.293	122287
309.328	124363
309.348	106229
309.402	57221
309.418	44891
309.457	32155
309.508	18334
309.511	18087
309.566	16832
309.598	17236
309.620	19870
309.674	29232
309.688	30689
309.729	31583
309.778	29725
309.783	28782
309.837	18400
309.868	13720
309.892	14042
309.946	18335
309.959	19334
310.001	28161
310.049	34570
310.055	33375
310.109	21558
310.139	15343
310.163	12028
310.218	6202
310.229	5141
310.272	4275
310.319	3513
310.326	3426
310.381	2936
310.409	2726
310.435	2435
310.489	1921
310.499	1862
310.543	2066
310.589	2288
310.598	2424
310.652	3119
310.679	3476
310.706	3038
310.760	2136
310.769	1986
310.814	1876
310.859	1917
310.868	1903
310.923	1770
310.948	1761
310.977	2022
311.031	2379
311.038	2446
311.085	2545
311.128	2471
311.139	2474
311.193	2690
311.218	2705
311.247	2594
311.301	2392
311.308	2384
311.356	2454
311.398	2401
311.410	2337
311.464	2046
311.488	1917
311.518	2068
311.572	2418
311.578	2460
311.626	3177
311.668	3727
311.680	3705
311.734	3623
311.758	3553
311.788	3375
311.842	3119
311.847	3094
311.896	3554
311.937	3959
311.950	4171
312.004	5058
312.027	5440
312.058	4649
312.112	3244
312.117	3100
312.165	2744
312.207	2439
312.297	3489
312.386	3663
312.476	2326
312.566	5277
312.656	3847
312.745	2509
312.835	2938
312.925	2863
313.015	2536
313.104	2290
313.194	2353
313.284	2533
313.374	3139
313.463	3618
313.553	2636
313.643	1798
313.732	2101
313.822	2039
313.912	2866
314.001	3350
314.091	3253
314.180	3654
314.270	3463
314.360	3780
314.449	3480
314.539	2433
314.628	2681
314.718	2364
314.808	3326
314.897	2301
314.987	2068
315.076	3267
315.166	3709
315.255	3102
315.345	3532
315.434	2904
315.524	3348
315.613	3020
315.703	3846
315.792	4870
315.881	6315
315.971	5240
316.060	5017
316.150	6257
316.239	6734
316.328	3736
316.418	2325
316.507	2235
316.597	3246
316.686	3741
316.775	2832
316.865	5299
316.954	2697
317.043	2148
317.133	1729
317.222	2297
317.311	2232
317.400	1456
317.490	3323
317.579	3969
317.668	2205
317.757	2937
317.847	5324
317.936	11393
318.025	10788
318.114	6429
318.203	4955
318.293	4994
318.382	11991
318.471	11400
318.560	14209
318.649	23883
318.738	11336
318.828	2632
318.917	4105
319.006	3317
319.095	7955
319.184	26561
319.273	25373
319.362	12208
319.451	3697
319.540	2226
319.629	4930
319.718	11919
319.807	5280
319.896	8363
319.985	32860
320.074	24426
320.163	4799
320.252	4385
320.341	4273
320.430	6144
320.519	5148
320.608	4911
320.697	2333
320.786	3242
320.875	2797
320.964	4592
321.053	6870
321.142	9349
321.230	13291
321.319	7158
321.408	17803
321.497	12844
321.586	7083
321.675	6997
321.764	8661
321.852	4958
321.941	9814
322.030	9807
322.119	6923
322.207	17444
322.296	13882
322.385	7370
322.474	6766
322.562	20405
322.651	18344
322.740	6961
322.829	12059
322.917	8864
323.006	7833
323.095	6931
323.183	4668
323.272	5931
323.361	8093
323.449	22894
323.538	13416
323.626	14039
323.715	15946
323.804	3860
323.892	12060
323.981	14847
324.069	4208
324.158	5557
324.246	11152
324.335	4484
324.424	7799
324.512	3932
324.601	4093
324.689	6140
324.778	15757
324.866	8755
324.954	3009
325.043	2387
325.131	3935
325.220	6321
325.308	7557
325.397	5343
325.485	6108
325.574	1417
325.662	2155
325.750	2275
325.839	2856
325.927	2356
326.015	3003
326.104	2402
326.192	3992
326.280	2365
326.369	1725
326.457	3815
326.545	6358
326.634	4418
326.722	1314
326.810	1693
326.898	2288
326.987	2023
327.075	4589
327.163	5617
327.251	2863
327.340	4043
327.428	9972
327.516	2689
327.604	2595
327.692	1982
327.781	1498
327.869	2928
327.957	2691
328.045	3209
328.133	1957
328.221	1805
328.309	2578
328.397	2308
328.485	2750
328.574	3440
328.662	10550
328.750	10004
328.838	2951
328.926	2518
329.014	1939
329.102	2046
329.190	6715
329.278	7761
329.366	1798
329.454	1799
329.542	2217
329.630	1301
329.718	1978
329.806	3358
329.893	2564
329.981	3460
330.069	4136
330.157	14497
330.245	59580
330.333	53728
330.421	10016
330.509	4277
330.597	12385
330.684	14671
330.772	4140
330.860	4445
330.948	6410
331.036	4864
331.123	2246
331.211	1841
331.299	2111
331.387	3799
331.475	11713
331.562	4044
331.650	2018
331.738	1576
331.825	2448
331.913	2041
332.001	1783
332.089	2012
332.176	3743
332.264	6041
332.352	8920
332.439	3346
332.527	2620
332.614	1688
332.702	2106
332.790	2153
332.877	3230
332.965	8495
333.052	5438
333.140	2638
333.228	9398
333.315	5402
333.403	2363
333.490	3258
333.578	6504
333.665	10822
333.753	9573
333.840	1840
333.928	2878
334.015	4141
334.103	8191
334.190	31259
334.278	19555
334.365	4660
334.452	4128
334.540	3341
334.627	2169
334.715	3092
334.802	4647
334.889	17060
334.977	40072
335.064	9483
335.151	4368
335.239	2725
335.326	3586
335.413	10627
335.501	35911
335.588	6564
335.675	2964
335.762	3227
335.850	7087
335.937	4629
336.024	7226
336.111	29696
336.199	30839
336.286	7412
336.373	3348
336.460	2323
336.547	2464
336.635	2169
336.722	2851
336.809	2474
336.896	2853
336.983	7317
337.070	25925
337.157	42132
337.245	22802
337.332	20056
337.419	2821
337.506	2727
337.593	2544
337.680	4681
337.767	28902
337.854	13784
337.941	8682
338.028	7468
338.115	5037
338.202	2981
338.289	5493
338.376	15405
338.463	11403
338.550	9858
338.637	26389
338.724	4769
338.811	7259
338.898	2407
338.984	1792
339.071	2532
339.158	2632
339.245	6182
339.332	7836
339.419	3626
339.506	5339
339.593	1925
339.679	1892
339.766	2375
339.853	1480
339.940	5613
340.027	3560
340.113	2384
340.200	2924
340.287	2339
340.374	2709
340.460	5806
340.547	3441
340.634	2621
340.720	9770
340.807	13859
340.894	2018
340.980	2456
341.067	2632
341.154	1935
341.240	2855
341.327	7685
341.414	5044
341.500	4348
341.587	2997
341.674	1477
341.760	3974
341.847	6924
341.933	3408
342.020	1515
342.106	1084
342.193	1198
342.279	4094
342.366	2703
342.452	5625
342.539	2755
342.625	4371
342.712	15655
342.798	10498
342.885	4571
342.971	1854
343.058	1280
343.144	1186
343.230	1200
343.317	1416
343.403	2078
343.490	1519
343.576	1478
343.662	1105
343.749	1918
343.835	2468
343.921	3504
344.008	13431
344.094	63385
344.180	28234
344.267	4818
344.353	11344
344.439	26306
344.525	9439
344.612	5151
344.698	3344
344.784	2753
344.870	1654
344.957	1847
345.043	4024
345.129	2139
345.215	5601
345.301	4345
345.387	3572
345.474	1801
345.560	1850
345.646	854
345.732	2273
345.818	1912
345.904	2898
345.990	1548
346.076	2155
346.162	3592
346.249	2528
346.335	1949
346.421	1740
346.507	3130
346.593	23057
346.679	14301
346.765	2776
346.851	1864
346.937	2914
347.023	1856
347.108	1261
347.194	1962
347.280	2312
347.366	2799
347.452	4586
347.538	24207
347.624	27119
347.710	24843
347.796	5985
347.882	2178
347.967	2186
348.053	2567
348.139	2263
348.225	1645
348.311	2221
348.397	1273
348.482	2609
348.568	3288
348.654	1475
348.740	2284
348.825	3992
348.911	3133
348.997	7228
349.083	29807
349.168	10341
349.254	2561
349.340	3241
349.425	1352
349.511	2047
349.597	3490
349.682	3785
349.768	15948
349.854	17584
349.939	3121
350.025	1506
350.110	1622
350.196	1463
350.282	2039
350.367	1307
350.453	1658
350.538	2879
350.624	2282
350.709	3365
350.795	1093
350.880	903
350.966	1490
351.051	2947
351.137	1940
351.222	1605
351.308	3624
351.393	18095
351.479	10526
351.564	2922
351.649	1714
351.735	1655
351.820	921
351.906	1955
351.991	1849
352.076	6151
352.162	21800
352.247	7156
352.332	2296
352.418	4739
352.503	7634
352.588	16854
352.673	32335
352.759	6540
352.844	3198
352.929	1965
353.014	3732
353.100	2534
353.185	3022
353.270	6048
353.355	6746
353.441	2745
353.526	2028
353.611	2966
353.696	6926
353.781	4060
353.866	2213
353.952	1427
354.037	3566
354.122	10288
354.207	10462
354.292	7018
354.377	1415
354.462	2007
354.547	2213
354.632	2851
354.717	2873
354.802	5585
354.887	3311
354.972	1983
355.057	1326
355.142	1091
355.227	1591
355.312	2438
355.397	5715
355.482	14783
355.567	15076
355.652	4903
355.737	7000
355.822	13450
355.907	29111
355.991	5428
356.076	2512
356.161	2179
356.246	1944
356.331	2308
356.416	3118
356.501	15707
356.585	47757
356.670	11601
356.755	3405
356.840	3715
356.924	10772
357.009	62229
357.094	56833
357.179	8211
357.263	5869
357.348	3513
357.433	4961
357.517	4597
357.602	3960
357.687	3453
357.771	2927
357.856	9047
357.941	9745
358.025	8655
358.110	54731
358.195	64575
358.279	9704
358.364	4224
358.448	7940
358.533	34248
358.617	41933
358.702	29819
358.787	20658
358.871	6533
358.956	8053
359.040	3004
359.125	1635
359.209	2059
359.294	2815
359.378	9901
359.462	6086
359.547	4787
359.631	2089
359.716	1956
359.800	2193
359.885	3895
359.969	2749
360.053	1737
360.138	1592
360.222	2090
360.306	4726
360.391	6069
360.475	4436
360.559	13844
360.644	13111
360.728	15885
360.812	8917
360.896	43949
360.981	31439
361.065	16977
361.149	4398
361.233	3369
361.318	2308
361.402	2581
361.486	2669
361.570	2623
361.654	2519
361.739	4569
361.823	16650
361.907	56647
361.991	21382
362.075	5368
362.159	9426
362.243	10798
362.327	8181
362.411	13317
362.495	8671
362.580	4330
362.664	2984
362.748	2351
362.832	3095
362.916	4559
363.000	11092
363.084	37127
363.168	70224
363.252	30438
363.336	6077
363.420	5570
363.503	14889
363.587	44837
363.671	12342
363.755	4231
363.839	5408
363.923	4597
364.007	3896
364.091	8391
364.175	6716
364.258	31548
364.342	45766
364.426	39496
364.510	38736
364.594	12817
364.677	8158
364.761	26142
364.845	49000
364.929	13109
365.013	11250
365.096	6939
365.180	9689
365.264	7237
365.347	34022
365.431	37239
365.515	7961
365.598	3801
365.682	2774
365.766	3578
365.849	7886
365.933	4458
366.017	3682
366.100	4623
366.184	2026
366.267	2013
366.351	1413
366.435	1690
366.518	2055
366.602	2075
366.685	1408
366.769	1756
366.852	2947
366.936	7448
367.019	5923
367.103	3134
367.186	7504
367.270	4125
367.353	1941
367.436	2056
367.520	1048
367.603	1666
367.687	2872
367.770	6691
367.853	4833
367.937	6464
368.020	26569
368.104	11708
368.187	3823
368.270	7793
368.353	9607
368.437	6817
368.520	9541
368.603	11738
368.687	9049
368.770	33245
368.853	16308
368.936	5698
369.020	8947
369.103	4683
369.186	1986
369.269	3035
369.352	2470
369.436	6920
369.519	5309
369.602	3148
369.685	2178
369.768	2799
369.851	2607
369.934	2426
370.018	1636
370.101	4895
370.184	6102
370.267	3311
370.350	4723
370.433	8296
370.516	13999
370.599	35623
370.682	12925
370.765	12350
370.848	20061
370.931	32706
371.014	28817
371.097	6117
371.180	3222
371.263	2649
371.346	1543
371.429	2439
371.511	2827
371.594	4139
371.677	6560
371.760	9537
371.843	7054
371.926	13443
372.009	64755
372.091	47246
372.174	12677
372.257	30187
372.340	28089
372.423	9977
372.505	15428
372.588	9256
372.671	6067
372.754	27490
372.836	34996
372.919	9029
373.002	29247
373.085	17657
373.167	7215
373.250	11052
373.332	29027
373.415	35925
373.498	77294
373.580	60273
373.663	22710
373.746	64922
373.828	27259
373.911	7463
373.993	5445
374.076	14517
374.159	35262
374.241	10733
374.324	21514
374.406	32646
374.489	14473
374.571	58253
374.654	57765
374.736	12331
374.819	28754
374.901	52564
374.983	76745
375.066	29148
375.148	5419
375.231	9057
375.313	41377
375.395	27615
375.478	6000
375.560	3187
375.643	3605
375.725	5576
375.807	32810
375.890	59167
375.972	19220
376.054	8749
376.136	9368
376.219	8139
376.301	6067
376.383	36406
376.465	36638
376.548	9679
376.630	11348
376.712	28552
376.794	37139
376.877	5065
376.959	1886
377.041	3085
377.123	3002
377.205	8983
377.287	2790
377.369	1331
377.452	1387
377.534	2187
377.616	1690
377.698	2519
377.780	1739
377.862	1866
377.944	1678
378.026	1916
378.108	1649
378.190	1003
378.272	1198
378.354	1273
378.436	1623
378.518	1793
378.600	7463
378.682	12294
378.764	15141
378.846	28107
378.928	6926
379.010	6362
379.091	6824
379.173	2684
379.255	1659
379.337	2912
379.419	4376
379.501	24357
379.583	26747
379.664	4361
379.746	4502
379.828	14574
379.910	29878
379.991	35132
380.073	12515
380.155	3643
380.237	2643
380.318	1946
380.400	1903
380.482	3224
380.564	6191
380.645	6813
380.727	7693
380.809	5578
380.890	3598
380.972	2721
381.053	2572
381.135	3091
381.217	4317
381.298	17917
381.380	22286
381.461	6364
381.543	18186
381.624	61838
381.706	22904
381.787	5371
381.869	5602
381.951	7916
382.032	42872
382.113	68396
382.195	18129
382.276	7684
382.358	9272
382.439	28447
382.521	39996
382.602	58348
382.684	45806
382.765	35407
382.846	65633
382.928	89848
383.009	98879
383.090	34140
383.172	69452
383.253	220788
383.334	130396
383.416	56001
383.497	54741
383.578	19482
383.659	22811
383.741	55943
383.822	218140
383.903	251391
383.984	66564
384.066	64225
384.147	72845
384.228	22635
384.309	8787
384.390	8729
384.471	5722
384.553	6334
384.634	5966
384.715	7611
384.796	5345
384.877	4016
384.958	10813
385.039	31942
385.120	18321
385.201	5958
385.282	5310
385.363	6423
385.444	5701
385.525	6189
385.606	17549
385.687	37565
385.768	11754
385.849	6742
385.930	14463
386.011	55290
386.092	36327
386.173	6501
386.254	2950
386.335	3836
386.416	3478
386.496	6344
386.577	25592
386.658	15803
386.739	5635
386.820	4798
386.901	3598
386.981	4242
387.062	2559
387.143	3141
387.224	11694
387.304	29572
387.385	11277
387.466	5843
387.547	4990
387.627	5532
387.708	4647
387.789	20223
387.869	54494
387.950	28625
388.031	3933
388.111	1936
388.192	5028
388.273	9577
388.353	8503
388.434	3622
388.514	4030
388.595	15485
388.676	48938
388.756	36290
388.837	18126
388.917	21306
388.998	5209
389.078	2956
389.159	2019
389.239	2150
389.320	2403
389.400	3058
389.480	3971
389.561	17330
389.641	23429
389.722	4121
389.802	4967
389.883	8319
389.963	17996
390.043	28815
390.124	8236
390.204	4439
390.284	15964
390.365	26541
390.445	9697
390.525	25481
390.605	36476
390.686	22149
390.766	8228
390.846	2715
390.927	1392
391.007	2364
391.087	2142
391.167	3238
391.247	2628
391.328	2678
391.408	4164
391.488	6487
391.568	2938
391.648	1723
391.728	5056
391.808	4567
391.888	4752
391.969	5932
392.049	22904
392.129	17300
392.209	6113
392.289	19160
392.369	25382
392.449	11383
392.529	11598
392.609	5822
392.689	5540
392.769	14043
392.849	31498
392.929	12545
393.009	23605
393.089	40533
393.169	17707
393.248	25652
393.328	111537
393.408	292886
393.488	144098
393.568	29262
393.648	12552
393.728	8079
393.807	6264
393.887	4813
393.967	4534
394.047	5033
394.127	6357
394.206	8831
394.286	16205
394.366	75769
394.446	215108
394.525	103668
394.605	20353
394.685	9494
394.764	11957
394.844	23208
394.924	32289
395.003	12958
395.083	4865
395.163	4718
395.242	3679
395.322	4842
395.402	3477
395.481	3824
395.561	4589
395.640	23878
395.720	34212
395.799	26300
395.879	42405
395.958	19090
396.038	25945
396.117	107689
396.197	276074
396.276	150922
396.356	41383
396.435	18891
396.515	14722
396.594	9988
396.673	14024
396.753	24618
396.832	120438
396.912	233924
396.991	89874
397.070	19186
397.150	7284
397.229	5872
397.308	4360
397.388	11938
397.467	13189
397.546	4022
397.625	1544
397.705	2927
397.784	3486
397.863	3277
397.942	1505
398.022	1330
398.101	2431
398.180	20224
398.259	29267
398.338	7636
398.417	2346
398.497	2625
398.576	1545
398.655	1839
398.734	1301
398.813	1477
398.892	2593
398.971	18479
399.050	32641
399.129	5257
399.208	1018
399.287	917
399.366	869
399.445	1357
399.524	1283
399.603	1316
399.682	1079
399.761	4345
399.840	16949
399.919	42338
399.998	11148
400.077	1162
400.156	521
400.235	1517
400.313	1444
400.392	456
400.471	3359
400.550	18991
400.629	13037
400.708	2579
400.786	1321
400.865	2505
400.944	8480
401.023	6419
401.102	1821
401.180	1060
401.259	71
401.338	846
401.416	1705
401.495	2187
401.574	1362
401.652	766
401.731	662
401.810	1988
401.888	1362
401.967	574
402.046	435
402.124	868
402.203	2523
402.281	2254
402.360	1042
402.438	4723
402.517	9701
402.596	2889
402.674	1100
402.753	1345
402.831	613
402.910	1327
402.988	2055
403.066	18276
403.145	34596
403.223	8507
403.302	16715
403.380	28966
403.459	19420
403.537	17253
403.615	4369
403.694	1207
403.772	1072
403.850	639
403.929	584
404.007	-168
404.085	1343
404.164	4047
404.242	2606
404.320	760
404.398	1306
404.477	4025
404.555	19401
404.633	63944
404.711	22503
404.789	2112
404.868	1154
404.946	1725
405.024	1044
405.102	405
405.180	202
405.258	337
405.336	378
405.415	176
405.493	998
405.571	3323
405.649	1428
405.727	345
405.805	947
405.883	1626
405.961	1147
406.039	2108
406.117	1706
406.195	1122
406.273	2340
406.351	23759
406.429	49535
406.507	12262
406.585	2431
406.663	405
406.740	1829
406.818	2368
406.896	1638
406.974	452
407.052	1050
407.130	6999
407.208	39794
407.285	23872
407.363	1743
407.441	770
407.519	919
407.596	555
407.674	1433
407.752	3094
407.830	7715
407.907	7330
407.985	2539
408.063	1016
408.141	246
408.218	279
408.296	1713
408.373	2021
408.451	1108
408.529	932
408.606	712
408.684	-70
408.762	95
408.839	-194
408.917	-193
408.994	-35
409.072	-193
409.149	667
409.227	716
409.304	1519
409.382	1906
409.459	1522
409.537	2241
409.614	3266
409.692	2384
409.769	1342
409.846	2177
409.924	3359
410.001	4172
410.079	2232
410.156	834
410.233	1168
410.311	924
410.388	-19
410.465	648
410.543	1741
410.620	888
410.697	1
410.775	870
410.852	733
410.929	646
411.006	1761
411.083	1292
411.161	1131
411.238	3627
411.315	2559
411.392	413
411.469	994
411.547	936
411.624	1052
411.701	155
411.778	320
411.855	1240
411.932	2785
412.009	777
412.086	890
412.163	639
412.240	854
412.317	964
412.394	1402
412.471	494
412.548	-220
412.625	-340
412.702	502
412.779	1406
412.856	2672
412.933	373
413.010	-50
413.087	-297
413.164	2510
413.241	16240
413.318	11394
413.395	1856
413.471	2087
413.548	2575
413.625	-25
413.702	-722
413.779	963
413.855	-125
413.932	-584
414.009	-781
414.086	-406
414.162	239
414.239	193
414.316	1035
414.393	15605
414.469	22513
414.546	2585
414.623	-10
414.699	-415
414.776	24
414.853	612
414.929	429
415.006	46
415.082	205
415.159	526
415.236	660
415.312	146
415.389	-176
415.465	2329
415.542	1609
415.618	-59
415.695	1133
415.771	1092
415.848	354
415.924	663
416.000	224
416.077	123
416.153	-631
416.230	-805
416.306	-886
416.383	-593
416.459	8
416.535	-807
416.612	-731
416.688	107
416.764	-600
416.841	-68
416.917	325
416.993	322
417.069	-269
417.146	1058
417.222	1468
417.298	1900
417.374	179
417.451	480
417.527	628
417.603	1655
417.679	527
417.755	-6
417.831	-67
417.908	100
417.984	-224
418.060	1
418.136	274
418.212	2404
418.288	2201
418.364	496
418.440	-38
418.516	278
418.592	707
418.668	2699
418.744	4938
418.820	6838
418.896	3171
418.972	356
419.048	94
419.124	583
419.200	2919
419.276	877
419.352	-522
419.428	105
419.504	-889
419.579	36
419.655	541
419.731	141
419.807	833
419.883	5047
419.959	8009
420.034	2915
420.110	417
420.186	4792
420.262	19568
420.337	7086
420.413	1291
420.489	1608
420.565	439
420.640	-265
420.716	935
420.792	475
420.867	58
420.943	612
421.019	718
421.094	1921
421.170	1179
421.245	607
421.321	439
421.397	645
421.472	730
421.548	1853
421.623	4003
421.699	2873
421.774	1933
421.850	1784
421.925	2196
422.001	3974
422.076	2302
422.152	2901
422.227	3880
422.302	7813
422.378	8508
422.453	14149
422.529	26218
422.604	69856
422.679	180418
422.755	221928
422.830	133556
422.905	46216
422.981	20437
423.056	12147
423.131	7562
423.207	6183
423.282	3873
423.357	4802
423.432	6169
423.508	4020
423.583	3556
423.658	9760
423.733	3735
423.808	1672
423.883	1811
423.959	2024
424.034	1620
424.109	1774
424.184	970
424.259	155
424.334	790
424.409	425
424.484	1101
424.559	1031
424.634	282
424.709	942
424.784	1437
424.859	1315
424.934	9
425.009	2491
425.084	12767
425.159	17440
425.234	3781
425.309	358
425.384	-274
425.459	2961
425.534	3828
425.609	1144
425.683	93
425.758	430
425.833	255
425.908	848
425.983	293
426.058	8392
426.132	17775
426.207	4310
426.282	610
426.357	1784
426.431	481
426.506	-94
426.581	40
426.655	265
426.730	227
426.805	408
426.879	503
426.954	754
427.029	229
427.103	3019
427.178	22595
427.253	42611
427.327	10623
427.402	837
427.476	2840
427.551	6028
427.625	1264
427.700	590
427.774	-158
427.849	1126
427.923	619
427.998	196
428.072	108
428.147	651
428.221	2661
428.296	19905
428.370	49038
428.444	15149
428.519	1085
428.593	2892
428.667	7046
428.742	4759
428.816	6776
428.890	7371
428.965	36115
429.039	39433
429.113	8846
429.188	7356
429.262	1176
429.336	675
429.410	3285
429.485	9339
429.559	4196
429.633	6049
429.707	2319
429.781	1125
429.855	6046
429.930	38354
430.004	41044
430.078	20029
430.152	32013
430.226	26097
430.300	68652
430.374	43859
430.448	4479
430.522	2504
430.596	12013
430.670	30364
430.744	15432
430.818	62752
430.892	58474
430.966	7728
431.040	1458
431.114	874
431.188	268
431.262	465
431.336	-1001
431.410	652
431.484	2462
431.557	9368
431.631	3472
431.705	-50
431.779	394
431.853	11176
431.927	44548
432.000	19993
432.074	623
432.148	421
432.222	763
432.295	82
432.369	-309
432.443	-254
432.516	2083
432.590	21205
432.664	40831
432.737	8709
432.811	449
432.885	-552
432.958	-850
433.032	-161
433.106	-918
433.179	-1272
433.253	-493
433.326	-323
433.400	-547
433.473	-507
433.547	-997
433.620	-518
433.694	-626
433.767	1838
433.841	249
433.914	-366
433.988	-581
434.061	-558
434.134	-390
434.208	-621
434.281	-1362
434.355	-1379
434.428	-957
434.501	-1014
434.575	-1048
434.648	89
434.721	-593
434.795	-1511
434.868	-1263
434.941	-794
435.014	-930
435.088	-729
435.161	-1029
435.234	718
435.307	1186
435.381	1974
435.454	140
435.527	-249
435.600	590
435.673	922
435.746	271
435.819	123
435.892	-285
435.966	-472
436.039	-531
436.112	-249
436.185	-614
436.258	-609
436.331	-1560
436.404	-722
436.477	-665
436.550	-756
436.623	-850
436.696	-1321
436.769	-654
436.842	-605
436.915	-210
436.987	-10
437.060	-257
437.133	-686
437.206	-981
437.279	-841
437.352	-737
437.425	-252
437.498	-550
437.570	414
437.643	2571
437.716	1915
437.789	-371
437.861	133
437.934	1606
438.007	5977
438.080	1599
438.152	-79
438.225	-265
438.298	2413
438.370	26371
438.443	59742
438.516	17492
438.588	4191
438.661	-133
438.734	-533
438.806	-602
438.879	407
438.951	-106
439.024	1458
439.096	1458
439.169	474
439.241	-750
439.314	-116
439.386	-464
439.459	467
439.531	406
439.604	2423
439.676	-181
439.749	-588
439.821	-797
439.893	-123
439.966	-1145
440.038	-622
440.110	-462
440.183	707
440.255	-912
440.327	-94
440.400	676
440.472	10299
440.544	42194
440.617	19529
440.689	2046
440.761	1691
440.833	2929
440.905	5043
440.978	2169
441.050	-342
441.122	13
441.194	-48
441.266	-577
441.338	-993
441.411	-151
441.483	1519
441.555	15210
441.627	17092
441.699	2768
441.771	1505
441.843	789
441.915	-167
441.987	-322
442.059	-208
442.131	-185
442.203	270
442.275	822
442.347	1626
442.419	1677
442.491	3368
442.563	22943
442.635	50930
442.706	17173
442.778	10258
442.850	5550
442.922	311
442.994	322
443.066	813
443.137	1744
443.209	1066
443.281	632
443.353	2012
443.425	5040
443.496	27336
443.568	100576
443.640	83872
443.711	26053
443.783	4673
443.855	1069
443.926	820
443.998	400
444.070	699
444.141	944
444.213	1068
444.285	1770
444.356	2504
444.428	1171
444.499	705
444.571	-163
444.642	-8
444.714	-376
444.785	1061
444.857	1932
444.928	2011
445.000	5429
445.071	2851
445.143	2841
445.214	4447
445.285	2184
445.357	5486
445.428	16778
445.500	67558
445.571	141032
445.642	82507
445.714	38793
445.785	14725
445.856	9466
445.928	2901
445.999	2664
446.070	2222
446.141	1198
446.213	3024
446.284	2770
446.355	873
446.426	-139
446.497	-310
446.569	-169
446.640	988
446.711	2515
446.782	1755
446.853	-392
446.924	224
446.995	96
447.066	711
447.138	205
447.209	1444
447.280	-670
447.351	130
447.422	-1288
447.493	-865
447.564	196
447.635	279
447.706	1090
447.777	429
447.847	-403
447.918	-190
447.989	-262
448.060	397
448.131	507
448.202	2828
448.273	2454
448.344	2323
448.414	591
448.485	-648
448.556	-138
448.627	-420
448.698	-356
448.768	-1125
448.839	-776
448.910	-138
448.981	1047
449.051	1094
449.122	-509
449.193	-678
449.263	-478
449.334	-26
449.405	-245
449.475	895
449.546	3334
449.616	1931
449.687	1994
449.758	1387
449.828	310
449.899	131
449.969	-690
450.040	-21
450.110	-388
450.181	-212
450.251	-561
450.322	-496
450.392	-31
450.463	-455
450.533	-481
450.604	-163
450.674	88
450.744	-268
450.815	-1145
450.885	-266
450.955	-452
451.026	-452
451.096	-437
451.166	-337
451.237	-18
451.307	2478
451.377	5252
451.447	1302
451.518	-312
451.588	182
451.658	-570
451.728	637
451.799	797
451.869	7681
451.939	6464
452.009	707
452.079	-548
452.149	369
452.219	-34
452.289	1606
452.360	8365
452.430	4719
452.500	-103
452.570	566
452.640	794
452.710	1748
452.780	7843
452.850	10010
452.920	6688
452.990	7239
453.060	2313
453.129	359
453.199	1417
453.269	2654
453.339	20841
453.409	39074
453.479	26920
453.549	30383
453.619	42680
453.688	44858
453.758	16014
453.828	1967
453.898	829
453.968	852
454.037	498
454.087	247
454.107	133
454.168	-207
454.177	-270
454.247	-228
454.249	-212
454.316	-264
454.330	-151
454.386	195
454.411	53
454.456	-442
454.492	1911
454.525	3969
454.574	5310
454.595	5933
454.655	2378
454.665	1803
454.734	813
454.736	852
454.804	1293
454.817	1437
454.873	1333
454.898	3471
454.943	7256
454.979	6799
455.013	6570
455.060	3363
455.082	1971
455.141	760
455.152	482
455.221	1640
455.222	1742
455.291	5019
455.303	5498
455.360	8134
455.384	6298
455.430	3063
455.465	2815
455.499	2417
455.546	2845
455.569	2683
455.627	5327
455.638	5936
455.707	3320
455.708	3315
455.777	718
455.789	681
455.846	275
455.869	340
455.916	589
455.950	601
455.985	488
456.031	134
456.054	-39
456.112	519
456.124	621
456.193	-7
456.193	-23
456.262	600
456.274	701
456.332	995
456.355	778
456.401	283
456.436	647
456.470	1069
456.516	1140
456.540	1076
456.597	107
456.609	-59
456.678	609
456.678	598
456.747	540
456.759	503
456.817	245
456.840	351
456.886	540
456.920	483
456.955	336
457.001	510
457.024	703
457.082	817
457.093	823
457.162	1017
457.163	1035
457.232	1454
457.243	1444
457.301	1323
457.324	1083
457.370	742
457.405	604
457.439	436
457.485	346
457.508	410
457.566	1194
457.577	1328
457.646	1432
457.647	1455
457.715	3107
457.727	3368
457.784	5310
457.808	6553
457.853	7229
457.889	8268
457.922	8215
457.969	8390
457.991	9908
458.050	9506
458.060	9587
458.129	12927
458.130	13114
458.198	10340
458.211	10171
458.267	11858
458.292	9251
458.336	6608
458.372	5288
458.405	5051
458.453	6522
458.474	8190
458.533	14199
458.543	14378
458.611	17686
458.614	18063
458.680	16468
458.694	14104
458.749	11523
458.775	8723
458.818	4996
458.855	3704
458.887	2536
458.936	1945
458.955	1864
459.016	2247
459.024	2213
459.093	2095
459.097	2056
459.162	1780
459.177	1969
459.230	2508
459.257	2652
459.299	2772
459.338	3123
459.368	3296
459.418	2993
459.437	2712
459.499	2533
459.505	2560
459.574	2245
459.579	2235
459.643	2221
459.659	2266
459.711	2205
459.740	2069
459.780	2137
459.820	2369
459.849	2500
459.900	2878
459.917	2985
459.981	3280
459.986	3278
460.054	3384
460.061	3388
460.123	4031
460.141	4186
460.191	4892
460.222	5637
460.260	6295
460.302	6654
460.328	5905
460.382	5011
460.397	4981
460.462	3970
460.465	4000
460.534	4698
460.543	4803
460.602	7796
460.623	9181
460.671	14792
460.703	18225
460.739	14010
460.783	11515
460.808	11398
460.864	8732
460.876	8894
460.944	4036
460.945	3982
461.013	3022
461.024	3014
461.081	3317
461.104	3558
461.150	3263
461.184	2820
461.218	2817
461.264	3127
461.286	2996
461.345	2356
461.355	2404
461.423	3381
461.425	3382
461.491	2895
461.505	2930
461.559	4888
461.585	5798
461.628	8901
461.665	11647
461.696	11426
461.745	11389
461.764	9855
461.825	6443
461.832	6663
461.901	4825
461.905	4709
461.969	3209
461.985	3231
462.037	3123
462.065	2965
462.105	3307
462.145	3741
462.173	4723
462.225	6410
462.241	6984
462.305	9685
462.310	9418
462.378	5253
462.385	4819
462.446	4588
462.465	4065
462.514	3503
462.545	3491
462.582	3349
462.625	3271
462.650	3372
462.705	3625
462.718	3688
462.785	3867
462.786	3878
462.854	4503
462.865	4597
462.922	5363
462.945	5800
462.990	4683
463.025	3842
463.058	3853
463.104	3318
463.126	3221
463.184	3209
463.194	3264
463.262	3702
463.264	3718
463.330	3729
463.344	3714
463.398	3697
463.424	3645
463.466	3842
463.504	4151
463.533	3985
463.583	3678
463.601	3845
463.663	4107
463.669	4212
463.737	5790
463.743	5912
463.805	7726
463.823	8273
463.873	12206
463.903	14591
463.940	13939
463.982	13238
464.008	10589
464.062	5620
464.076	5663
464.142	4278
464.144	4258
464.211	3332
464.221	3305
464.279	3787
464.301	3907
464.347	3974
464.381	4291
464.414	4881
464.461	5346
464.482	5506
464.540	6182
464.550	6122
464.617	5550
464.620	5520
464.685	6226
464.699	6365
464.753	7917
464.779	8734
464.820	9286
464.859	9755
464.888	9201
464.938	8309
464.956	8260
465.018	7836
465.023	7790
465.091	7124
465.098	7040
465.158	7508
465.177	7613
465.226	7367
465.257	7248
465.293	7406
465.336	7563
465.361	8221
465.416	9674
465.428	9901
465.495	11081
465.496	11138
465.563	17313
465.575	18340
465.631	19848
465.654	20561
465.698	14077
465.734	8779
465.765	8548
465.813	7572
465.833	7580
465.893	7638
465.900	7635
465.968	7892
465.972	7899
466.035	7690
466.052	7585
466.102	8003
466.131	8281
466.170	8739
466.210	9166
466.237	9215
466.290	9236
466.304	9407
466.369	10096
466.372	10143
466.439	11102
466.449	11204
466.506	11945
466.528	12216
466.573	14328
466.607	15872
466.641	21450
466.687	29164
466.708	30248
466.766	33006
466.775	31101
466.842	16576
466.845	15862
466.909	13890
466.925	13326
466.977	12625
467.004	12305
467.044	12702
467.083	13102
467.111	13905
467.163	15347
467.178	15596
467.242	16503
467.245	16420
467.312	14094
467.321	13762
467.379	13411
467.400	13248
467.446	13831
467.480	14212
467.559	12139
467.638	11089
467.717	11522
467.796	12831
467.875	12656
467.955	11692
468.034	15278
468.113	29532
468.192	37305
468.271	12363
468.350	10909
468.429	12646
468.508	12973
468.588	10111
468.667	9720
468.746	10514
468.825	9476
468.904	8745
468.983	9822
469.062	13895
469.141	14132
469.220	8091
469.299	8526
469.378	9581
469.456	11899
469.535	11654
469.614	10460
469.693	10438
469.772	12172
469.851	15228
469.930	10692
470.009	9949
470.088	11048
470.166	12297
470.245	17793
470.324	20802
470.403	12969
470.482	11215
470.560	9106
470.639	9909
470.718	12039
470.797	9187
470.875	10738
470.954	13979
471.033	12238
471.111	7625
471.190	7491
471.269	8042
471.347	7214
471.426	8241
471.505	9691
471.583	11358
471.662	9925
471.740	8653
471.819	8965
471.898	9085
471.976	8543
472.055	8442
472.133	8753
472.212	10570
472.290	11059
472.369	8668
472.447	7169
472.526	7527
472.604	8604
472.683	9088
472.761	9844
472.839	8343
472.918	7595
472.996	8280
473.075	8996
473.153	8418
473.231	7256
473.310	8658
473.388	9261
473.466	8772
473.545	10586
473.623	13226
473.701	12123
473.780	8367
473.858	8349
473.936	8453
474.014	7974
474.093	9407
474.171	11580
474.249	14562
474.327	9505
474.405	8559
474.484	7332
474.562	8017
474.640	7626
474.718	8954
474.796	9652
474.874	9125
474.952	7719
475.030	8902
475.108	9270
475.187	11472
475.265	10621
475.343	14627
475.421	14348
475.499	8095
475.577	8442
475.655	9636
475.733	15954
475.811	22982
475.889	22040
475.966	12626
476.044	7525
476.122	10131
476.200	13407
476.278	9116
476.356	7486
476.434	7434
476.512	10104
476.590	12579
476.667	9890
476.745	6152
476.823	8254
476.901	7595
476.979	8118
477.056	7555
477.134	8215
477.212	8144
477.290	7308
477.367	7040
477.445	7018
477.523	6996
477.601	7157
477.678	6424
477.756	7442
477.834	7403
477.911	6258
477.989	6353
478.066	5994
478.144	7839
478.222	9823
478.299	14665
478.377	11641
478.454	6266
478.532	6052
478.609	7981
478.687	7913
478.764	6315
478.842	6075
478.919	7768
478.997	6924
479.074	5283
479.152	7013
479.229	8576
479.307	5732
479.384	5382
479.461	6409
479.539	5984
479.616	7565
479.694	6349
479.771	6628
479.848	7295
479.926	8579
480.003	8165
480.080	6083
480.157	4955
480.235	5976
480.312	6348
480.389	7108
480.467	9231
480.544	10059
480.621	5747
480.698	6040
480.775	7714
480.853	7424
480.930	5788
481.007	6516
481.084	7363
481.161	6778
481.238	6984
481.315	5124
481.392	6246
481.470	5713
481.547	6600
481.624	5903
481.701	6337
481.778	6365
481.855	6902
481.932	8658
482.009	14387
482.086	9230
482.163	7177
482.240	9506
482.317	18825
482.393	11300
482.470	6711
482.547	7038
482.624	6708
482.701	6961
482.778	5737
482.855	5683
482.932	5760
483.009	5756
483.085	6356
483.162	7926
483.239	7214
483.316	6372
483.393	6550
483.469	5934
483.546	6831
483.623	6890
483.699	4980
483.776	5587
483.853	7049
483.930	9170
484.006	20369
484.083	33764
484.160	22185
484.236	39464
484.313	28988
484.389	21981
484.466	19789
484.543	18760
484.619	18347
484.696	19530
484.772	18913
484.849	19619
484.925	17724
485.002	17757
485.078	17000
485.155	17495
485.231	16383
485.308	16103
485.384	16536
485.461	18425
485.537	25791
485.614	26715
485.690	15402
485.766	15232
485.843	17119
485.919	23176
485.995	22152
486.072	15029
486.148	14435
486.224	14261
486.301	14780
486.377	16176
486.453	17267
486.530	16087
486.606	22368
486.682	23541
486.758	25313
486.835	25946
486.911	22096
486.987	32030
487.063	37365
487.139	49087
487.215	34318
487.292	17330
487.368	16795
487.444	17932
487.520	21428
487.596	20099
487.672	28860
487.748	68161
487.824	95835
487.900	30418
487.976	18901
488.052	18254
488.128	20328
488.204	17374
488.280	14726
488.356	17425
488.432	27120
488.508	36407
488.584	17933
488.660	13702
488.736	14167
488.812	15604
488.888	19222
488.964	24368
489.039	50454
489.115	72613
489.191	34394
489.267	13679
489.343	13884
489.418	12324
489.494	12784
489.570	11605
489.646	12074
489.722	12492
489.797	12300
489.873	16288
489.949	29228
490.024	21880
490.100	11864
490.176	12416
490.251	14612
490.327	18929
490.403	11562
490.478	11924
490.554	9530
490.629	10772
490.705	10906
490.781	10940
490.856	10902
490.932	13022
491.007	12525
491.083	12233
491.158	10755
491.234	13742
491.309	22202
491.385	22139
491.460	11317
491.536	11533
491.611	11140
491.686	11697
491.762	16368
491.837	30617
491.913	48122
491.988	67840
492.063	78722
492.139	18971
492.214	13203
492.289	10013
492.365	9196
492.440	11307
492.515	9862
492.590	11315
492.666	9291
492.741	11012
492.816	14147
492.891	10076
492.967	8887
493.042	8117
493.117	9403
493.192	8602
493.267	9633
493.342	12377
493.418	11165
493.493	8096
493.568	8189
493.643	8205
493.718	10569
493.793	13846
493.868	17143
493.943	10850
494.018	10343
494.093	9245
494.168	8557
494.243	8050
494.318	7568
494.393	7919
494.468	7902
494.543	7776
494.618	9325
494.693	8967
494.768	7753
494.842	9020
494.917	7746
494.992	8769
495.067	7641
495.142	7680
495.217	8400
495.292	7913
495.366	9359
495.441	10896
495.516	13030
495.591	20414
495.665	62447
495.740	151389
495.815	43533
495.890	12276
495.964	10587
496.039	10949
496.114	9738
496.188	10807
496.263	10238
496.338	9778
496.412	10755
496.487	11950
496.561	13489
496.636	13135
496.710	12067
496.785	11963
496.860	13083
496.934	12003
497.009	12283
497.083	12779
497.158	14339
497.232	15204
497.307	17467
497.381	15966
497.455	17711
497.530	21010
497.604	16594
497.679	18355
497.753	26502
497.827	36277
497.902	35641
497.976	38671
498.050	65514
498.125	197677
498.199	180431
498.273	54287
498.348	48519
498.422	38789
498.496	34574
498.570	29505
498.645	21266
498.719	19459
498.793	18996
498.867	24488
498.941	32418
499.016	72770
499.090	200657
499.164	54014
499.238	12652
499.312	12071
499.386	16100
499.460	13170
499.534	11654
499.609	14058
499.683	17253
499.757	16359
499.831	34422
499.905	127950
499.979	104204
500.053	17575
500.127	19485
500.201	16609
500.275	10553
500.349	10090
500.422	12031
500.496	17981
500.570	37247
500.644	72315
500.718	129515
500.792	21751
500.866	9154
500.940	11711
501.013	10054
501.087	10019
501.161	19369
501.235	23149
501.309	39213
501.382	109656
501.456	84880
501.530	19956
501.603	35845
501.677	13152
501.751	7067
501.825	9340
501.898	15746
501.972	43310
502.046	22380
502.119	9295
502.193	20739
502.266	47205
502.340	19722
502.413	20457
502.487	37917
502.561	20729
502.634	8201
502.708	8462
502.781	8094
502.855	6222
502.928	5892
503.002	6328
503.075	5499
503.149	6234
503.222	5903
503.295	6633
503.369	8013
503.442	11372
503.516	30186
503.589	74630
503.662	44288
503.736	15284
503.809	35587
503.882	27862
503.956	45211
504.029	43195
504.102	38696
504.175	49384
504.249	17132
504.322	10374
504.395	8659
504.468	6692
504.542	7218
504.615	5527
504.688	5573
504.761	5395
504.834	7427
504.907	8621
504.980	15635
505.053	7318
505.127	11665
505.200	10478
505.273	8436
505.346	6131
505.419	6557
505.492	4853
505.565	4211
505.638	5063
505.711	5108
505.784	5076
505.857	4759
505.930	5505
506.003	4553
506.076	5225
506.149	5606
506.221	7517
506.294	8291
506.367	18516
506.440	60132
506.513	28253
506.586	8726
506.659	6262
506.731	6012
506.804	6700
506.877	9850
506.950	6041
507.022	5583
507.095	6764
507.168	8040
507.241	5805
507.313	5227
507.386	6072
507.459	8068
507.531	5742
507.604	4975
507.677	5433
507.749	5061
507.822	6389
507.894	14026
507.967	18349
508.040	10751
508.112	8599
508.185	9262
508.257	9101
508.330	11459
508.402	8001
508.475	7406
508.547	7770
508.620	7687
508.692	10683
508.765	8039
508.837	6127
508.909	6947
508.982	7131
509.054	8033
509.127	6818
509.199	6467
509.271	6108
509.344	5949
509.416	6131
509.488	6261
509.560	6663
509.633	7438
509.705	7542
509.777	8177
509.849	10499
509.922	7762
509.994	6322
510.066	6667
510.138	8548
510.210	15030
510.283	14372
510.355	10813
510.427	9773
510.499	9184
510.571	9585
510.643	9566
510.715	13530
510.787	12642
510.859	9788
510.931	10493
511.003	13577
511.076	12937
511.148	8469
511.219	8085
511.291	10680
511.363	11758
511.435	7750
511.507	7872
511.579	7084
511.651	7124
511.723	7391
511.795	7740
511.867	8004
511.939	8959
512.010	13076
512.082	10506
512.154	7421
512.226	8309
512.298	11839
512.369	18439
512.441	13051
512.513	12447
512.585	10908
512.656	10571
512.728	12043
512.800	9714
512.871	8570
512.943	9075
513.015	8424
513.086	9240
513.158	9457
513.230	10326
513.301	12964
513.373	14110
513.444	9363
513.516	8392
513.588	8067
513.659	8530
513.731	11433
513.802	10709
513.874	18120
513.945	28732
514.016	11297
514.088	7894
514.159	9618
514.231	12124
514.302	16491
514.374	12442
514.445	11702
514.516	16284
514.588	12199
514.659	10632
514.730	16119
514.802	14250
514.873	16223
514.944	14639
515.016	12558
515.087	12646
515.158	14752
515.229	18225
515.301	17372
515.372	23030
515.443	14907
515.514	10973
515.585	9135
515.656	8210
515.728	9577
515.799	8795
515.870	8842
515.941	8872
516.012	9267
516.083	11811
516.154	13408
516.225	14338
516.296	12718
516.367	11321
516.438	13308
516.509	19718
516.580	33563
516.651	92213
516.722	307458
516.793	117925
516.864	23067
516.935	20280
517.006	24695
517.077	41487
517.148	105770
517.219	334681
517.289	494123
517.360	98850
517.431	31081
517.502	14031
517.573	13861
517.643	12109
517.714	13823
517.785	13979
517.856	12882
517.926	14673
517.997	17363
518.068	22616
518.138	34285
518.209	71709
518.280	227825
518.350	743434
518.421	261079
518.492	30746
518.562	18027
518.633	17568
518.703	17001
518.774	25508
518.845	53503
518.915	52740
518.986	19765
519.056	17410
519.127	27126
519.197	39032
519.268	67669
519.338	42308
519.408	14476
519.479	18948
519.549	13359
519.620	10144
519.690	7697
519.760	8648
519.831	8898
519.901	9005
519.971	7229
520.042	8323
520.112	8928
520.182	10279
520.253	10708
520.323	8237
520.393	10980
520.463	16479
520.534	11862
520.604	18581
520.674	10245
520.744	11349
520.814	21908
520.885	21888
520.955	23823
521.025	72275
521.095	30248
521.165	7686
521.235	7598
521.305	7295
521.375	7747
521.445	8012
521.515	10364
521.585	11843
521.655	12330
521.725	8074
521.795	8284
521.865	6801
521.935	8346
522.005	8411
522.075	5836
522.145	6713
522.215	6597
522.285	9061
522.355	11614
522.424	19711
522.494	17635
522.564	13113
522.634	25443
522.704	67789
522.774	27454
522.843	6763
522.913	7150
522.983	9120
523.053	7710
523.122	7912
523.192	12401
523.262	34944
523.331	32756
523.401	8165
523.471	6027
523.540	6371
523.610	5356
523.680	6331
523.749	5997
523.819	7085
523.888	6714
523.958	5840
524.027	6115
524.097	6783
524.166	6105
524.236	7260
524.305	6512
524.375	6176
524.444	6186
524.514	6482
524.583	6032
524.653	8132
524.722	8256
524.791	7060
524.861	7149
524.930	6444
524.999	6804
525.069	8701
525.138	7292
525.207	8326
525.277	6871
525.346	6763
525.415	6170
525.484	6103
525.554	7723
525.623	6405
525.692	6232
525.761	6831
525.830	7108
525.900	8337
525.969	12179
526.038	20210
526.107	38887
526.176	102346
526.245	86809
526.314	30320
526.383	54430
526.452	80858
526.522	118349
526.591	128314
526.660	37321
526.729	19864
526.797	27195
526.867	61175
526.935	213603
527.004	310978
527.073	168401
527.142	17037
527.211	9586
527.280	9086
527.349	9782
527.418	5735
527.487	6121
527.555	6648
527.624	5163
527.693	5387
527.762	5536
527.831	4821
527.899	5393
527.968	6029
528.037	6000
528.106	6790
528.174	12126
528.243	9009
528.312	11124
528.380	15346
528.449	6328
528.518	5043
528.586	4415
528.655	4594
528.723	5151
528.792	4285
528.861	5630
528.929	4829
528.998	4614
529.066	4164
529.135	4855
529.203	4710
529.272	3829
529.340	4792
529.409	5135
529.477	4657
529.545	5994
529.614	6157
529.682	7572
529.751	7145
529.819	6795
529.887	6180
529.956	4860
530.024	4897
530.092	4698
530.161	5784
530.229	9263
530.297	6268
530.365	4869
530.434	5124
530.502	4892
530.570	4602
530.638	4467
530.707	5166
530.775	5094
530.843	4439
530.911	4626
530.979	4484
531.047	4627
531.115	5698
531.183	4934
531.252	5263
531.320	5353
531.388	5194
531.456	5040
531.524	4046
531.592	5343
531.660	5568
531.728	4713
531.796	4458
531.864	4852
531.932	5011
532.000	4619
532.067	4835
532.135	5130
532.203	6406
532.271	7239
532.339	11812
532.407	25709
532.475	15700
532.542	7607
532.610	10604
532.678	19189
532.746	53822
532.814	136150
532.881	34832
532.949	6478
533.017	6269
533.084	5908
533.152	5830
533.220	5076
533.287	6955
533.355	4447
533.423	5016
533.490	5414
533.558	5357
533.625	5792
533.693	6003
533.761	6373
533.828	6522
533.896	6160
533.963	10417
534.031	12606
534.098	18283
534.166	9568
534.233	5275
534.300	5845
534.368	5945
534.435	5579
534.503	6363
534.570	6991
534.637	6896
534.705	7408
534.772	10063
534.840	15772
534.907	44878
534.974	63378
535.041	10480
535.109	7257
535.176	6343
535.243	5263
535.310	6160
535.378	5524
535.445	4874
535.512	5547
535.579	5255
535.646	4750
535.714	6447
535.781	7695
535.848	6519
535.915	6905
535.982	6482
536.049	5957
536.116	6543
536.183	6772
536.250	5574
536.317	6103
536.384	7306
536.451	9630
536.518	9298
536.585	7174
536.652	8861
536.719	10868
536.786	10473
536.853	8324
536.920	11567
536.987	19258
537.053	23021
537.120	61513
537.187	62612
537.254	8581
537.321	6341
537.388	7071
537.454	5767
537.521	5725
537.588	6134
537.654	6703
537.721	8523
537.788	7477
537.855	6908
537.921	6187
537.988	6849
538.055	7319
538.121	6891
538.188	7949
538.254	10359
538.321	17542
538.388	11777
538.454	7502
538.521	7133
538.587	6365
538.654	6192
538.720	6805
538.787	6888
538.853	7196
538.920	7768
538.986	7283
539.053	7229
539.119	7491
539.185	8218
539.252	8668
539.318	11769
539.385	9373
539.451	9480
539.517	10756
539.583	12372
539.650	21501
539.716	50898
539.782	18098
539.849	7750
539.915	7750
539.981	7959
540.047	8897
540.114	7560
540.180	8211
540.246	8701
540.312	10871
540.378	17795
540.444	20496
540.510	22421
540.576	56116
540.643	21913
540.709	7668
540.775	7794
540.841	7510
540.907	9340
540.973	12132
541.039	11935
541.105	12396
541.171	8264
541.237	8225
541.303	8293
541.369	9407
541.435	10953
541.500	15136
541.566	10828
541.632	6645
541.698	7098
541.764	7192
541.830	6664
541.896	7176
541.961	6900
542.027	7746
542.093	7543
542.159	7668
542.224	8658
542.290	11000
542.356	15672
542.421	17487
542.487	8745
542.553	7709
542.618	8644
542.684	7413
542.750	8639
542.815	11532
542.881	17580
542.947	46272
543.012	41921
543.078	7943
543.143	7886
543.209	8253
543.274	8971
543.340	10749
543.405	20116
543.471	33595
543.536	10445
543.602	8365
543.667	6812
543.732	7196
543.798	7430
543.863	7412
543.928	7281
543.994	6540
544.059	6483
544.124	7701
544.190	7098
544.255	7375
544.320	7407
544.386	7464
544.451	9813
544.516	12848
544.581	15616
544.646	29103
544.712	51842
544.777	13148
544.842	8679
544.907	8391
544.972	8700
545.037	8174
545.102	9099
545.168	8064
545.233	9687
545.298	10019
545.363	11417
545.428	13371
545.493	19431
545.558	38967
545.623	19936
545.688	8605
545.753	8038
545.818	9131
545.883	8552
545.947	9774
546.012	9986
546.077	9535
546.142	9456
546.207	10165
546.272	12264
546.337	12372
546.401	10630
546.466	11124
546.531	10216
546.596	10793
546.661	10215
546.725	11407
546.790	10553
546.855	11493
546.919	11732
546.984	12793
547.049	12823
547.113	14917
547.178	14729
547.243	16686
547.307	19289
547.372	20727
547.436	21131
547.501	19976
547.565	21738
547.630	21598
547.695	21425
547.759	21217
547.823	19735
547.888	20379
547.952	19560
548.017	20324
548.081	21863
548.146	23410
548.210	23156
548.274	21879
548.339	21789
548.403	22077
548.468	19508
548.532	19078
548.596	19372
548.660	19992
548.725	21366
548.789	24055
548.853	24539
548.917	21768
548.982	22885
549.046	22272
549.110	18407
549.174	18052
549.238	19897
549.303	21375
549.367	22267
549.431	21286
549.495	20562
549.559	20563
549.623	22960
549.687	26831
549.751	29811
549.815	29200
549.879	29407
549.943	27664
550.007	29993
550.071	30527
550.135	30350
550.199	26692
550.263	26177
550.327	23865
550.391	25958
550.455	26400
550.519	28193
550.582	30978
550.646	35369
550.710	36779
550.774	31889
550.838	31686
550.901	33187
550.965	35793
551.029	36248
551.093	39372
551.156	43524
551.220	52235
551.284	60300
551.347	45692
551.411	45495
551.475	48665
551.538	36314
551.602	33060
551.666	31604
551.729	30374
551.793	29598
551.856	29672
551.920	28106
551.983	28175
552.047	28325
552.110	28397
552.174	29107
552.237	29560
552.301	28390
552.364	26597
552.428	25772
552.491	26796
552.554	27969
552.618	27984
552.681	29458
552.745	29581
552.808	36142
552.871	44392
552.934	34634
552.998	27950
553.061	27711
553.124	26191
553.187	25554
553.251	27305
553.314	27398
553.377	27332
553.440	27305
553.503	30258
553.567	32328
553.630	28620
553.693	29095
553.756	28435
553.819	27846
553.882	27685
553.945	27704
554.008	27677
554.071	27226
554.134	27989
554.197	26336
554.260	25597
554.323	27459
554.386	27387
554.449	27327
554.512	28562
554.575	26974
554.638	26315
554.701	26227
554.764	25899
554.827	25334
554.889	23931
554.952	23812
555.015	22330
555.078	21919
555.141	22926
555.203	23006
555.266	23265
555.329	23295
555.391	22322
555.454	22647
555.517	21278
555.580	21119
555.642	19848
555.705	20474
555.768	20508
555.830	19508
555.893	18086
555.955	18517
556.018	17411
556.080	18343
556.143	18940
556.206	18905
556.268	18651
556.330	19069
556.393	18843
556.455	17478
556.518	18555
556.580	19720
556.643	15927
556.705	15339
556.767	16301
556.830	16618
556.892	17120
556.955	19195
557.017	17720
557.079	15914
557.142	15646
557.204	17134
557.266	21305
557.328	20435
557.391	13928
557.453	13127
557.515	14040
557.577	14640
557.639	15139
557.701	12855
557.764	11613
557.826	12065
557.888	13925
557.950	14553
558.012	17044
558.074	21276
558.136	30696
558.198	71433
558.260	38930
558.322	14692
558.384	13467
558.446	15400
558.508	17072
558.570	21590
558.632	33266
558.694	54123
558.756	69341
558.818	126108
558.880	333956
558.942	149294
559.003	71113
559.065	48789
559.127	18612
559.189	20674
559.251	25579
559.312	40740
559.374	67802
559.436	189757
559.498	140988
559.559	22309
559.621	20529
559.683	26882
559.744	42497
559.806	85286
559.868	161223
559.929	43767
559.991	22761
560.052	29973
560.114	65416
560.176	61778
560.237	38658
560.299	69781
560.360	23468
560.422	10913
560.483	10287
560.545	9667
560.606	9839
560.667	10302
560.729	9505
560.790	9822
560.852	9183
560.913	9341
560.974	9175
561.036	8918
561.097	9091
561.158	8717
561.220	9278
561.281	9654
561.342	10060
561.403	12302
561.465	14696
561.526	20977
561.587	29620
561.648	13609
561.709	9807
561.771	9141
561.832	8879
561.893	8679
561.954	8881
562.015	9197
562.076	9171
562.137	9657
562.198	8786
562.259	9970
562.320	9534
562.381	10181
562.442	11607
562.503	11700
562.564	8371
562.625	9645
562.686	9418
562.747	9302
562.808	9661
562.869	9591
562.930	9873
562.991	9463
563.051	9905
563.112	9593
563.173	8887
563.234	7928
563.294	9081
563.355	8888
563.416	9315
563.477	9466
563.537	8872
563.598	9803
563.659	9178
563.720	9929
563.780	10118
563.841	9786
563.901	9627
563.962	8858
564.023	9177
564.083	9375
564.144	8907
564.204	9675
564.265	9884
564.325	10230
564.386	12509
564.446	13994
564.507	9241
564.567	8545
564.628	9433
564.688	9531
564.749	9904
564.809	9791
564.869	10697
564.930	10196
564.990	9207
565.050	9151
565.111	8984
565.171	9346
565.231	8761
565.292	9202
565.352	9392
565.412	9884
565.472	9876
565.532	8910
565.593	9586
565.653	9133
565.713	10103
565.773	10986
565.833	10436
565.893	12884
565.953	10734
566.013	10550
566.074	11146
566.134	12382
566.194	13667
566.254	15358
566.314	13581
566.374	10722
566.434	11665
566.494	11361
566.554	11915
566.614	11740
566.673	12331
566.733	12261
566.793	12953
566.853	13862
566.913	14813
566.973	14895
567.033	14300
567.092	15350
567.152	14086
567.212	14649
567.272	15043
567.331	16202
567.391	15377
567.451	16816
567.511	17732
567.570	18914
567.630	15760
567.690	14617
567.749	14398
567.809	15668
567.868	17216
567.928	19411
567.988	23583
568.047	28928
568.107	38352
568.166	52905
568.226	76875
568.285	111568
568.345	96225
568.404	70877
568.464	56706
568.523	52761
568.582	55368
568.642	65954
568.701	85559
568.761	118939
568.820	186553
568.879	196803
568.939	133697
568.998	92493
569.057	68077
569.116	52188
569.176	42424
569.235	35195
569.294	29348
569.353	25104
569.413	22882
569.472	21076
569.531	19490
569.590	17496
569.649	17045
569.708	15714
569.767	15367
569.827	15000
569.886	14240
569.945	13156
570.004	12519
570.063	12715
570.122	12220
570.181	13578
570.240	12533
570.299	12624
570.358	12689
570.417	10787
570.475	10582
570.534	11454
570.593	11309
570.652	11036
570.711	10450
570.770	10888
570.829	11675
570.887	10656
570.946	11116
571.005	10892
571.064	10646
571.122	10683
571.181	9525
571.240	10069
571.299	8818
571.357	8943
571.416	10305
571.475	10219
571.533	9787
571.592	9716
571.650	10394
571.709	8826
571.768	9655
571.826	9865
571.885	8859
571.943	8656
572.002	8601
572.060	8467
572.119	8554
572.177	8524
572.236	8257
572.294	8259
572.352	8539
572.411	8739
572.469	7968
572.528	7859
572.586	9544
572.644	7678
572.703	10973
572.761	9261
572.819	7879
572.877	8063
572.936	7888
572.994	8063
573.052	7450
573.110	7719
573.169	8706
573.227	8299
573.285	7657
573.343	7430
573.401	8383
573.459	7993
573.517	7221
573.576	7323
573.634	7800
573.692	7906
573.750	8962
573.808	8034
573.866	7856
573.924	8244
573.982	8909
574.040	8231
574.098	7928
574.155	7214
574.213	7696
574.271	7444
574.329	8532
574.387	7689
574.445	6926
574.503	7531
574.560	7465
574.618	7440
574.676	7287
574.734	7376
574.792	7636
574.849	8106
574.907	7080
574.965	6747
575.022	7066
575.080	6640
575.138	7555
575.195	8058
575.253	7472
575.311	7937
575.368	7337
575.426	6959
575.483	7594
575.541	7368
575.598	6383
575.656	7171
575.713	6677
575.771	7321
575.828	7875
575.886	7550
575.943	7759
576.001	7431
576.058	7651
576.115	8137
576.173	7743
576.230	8951
576.287	8975
576.345	8848
576.402	7831
576.459	7996
576.517	7063
576.574	8470
576.631	7970
576.688	7847
576.746	7290
576.803	7177
576.860	7485
576.917	7261
576.974	7082
577.031	8040
577.089	8157
577.146	7885
577.203	7733
577.260	7932
577.317	8010
577.374	8040
577.431	8103
577.488	7900
577.545	7797
577.602	7867
577.659	8187
577.716	7207
577.773	7426
577.830	7107
577.886	7145
577.943	7244
578.000	7589
578.057	7897
578.114	7091
578.171	8453
578.227	7078
578.284	7583
578.341	7785
578.398	7461
578.454	7082
578.511	8543
578.568	8438
578.625	8425
578.681	8042
578.738	7810
578.794	7684
578.851	7492
578.908	8524
578.964	9730
579.021	9722
579.077	9070
579.134	8285
579.190	8508
579.247	8067
579.303	8582
579.360	7428
579.416	7830
579.473	8108
579.529	8156
579.586	7525
579.642	7973
579.698	8252
579.755	8190
579.811	7866
579.867	7975
579.924	7552
579.980	8182
580.036	8464
580.093	8234
580.149	8461
580.205	9530
580.261	8747
580.317	8920
580.374	8536
580.430	9082
580.486	9422
580.542	8765
580.598	8709
580.619	8798
580.654	8963
580.692	8757
580.710	8663
580.765	9085
580.767	9104
580.823	9319
580.838	9403
580.879	9658
580.911	9213
580.935	8892
580.984	9294
580.991	9351
581.047	8585
581.057	8774
581.103	9702
581.130	9207
581.159	8662
581.203	8944
581.215	9030
581.270	9277
581.276	9296
581.326	9501
581.349	9066
581.382	8422
581.422	9395
581.438	9816
581.494	9254
581.494	9258
581.550	10087
581.567	9877
581.606	9361
581.640	9829
581.661	10145
581.713	9679
581.717	9645
581.773	9800
581.786	9932
581.829	10366
581.859	10366
581.885	10352
581.932	10095
581.940	10071
581.996	10505
582.004	10584
582.052	10861
582.077	10373
582.107	9871
582.150	9824
582.163	9787
582.219	10850
582.223	10837
582.274	10932
582.296	10914
582.330	10716
582.368	11478
582.386	11883
582.441	11350
582.441	11349
582.497	11323
582.514	11248
582.552	11102
582.587	10839
582.608	10684
582.659	11243
582.663	11291
582.719	11741
582.732	11488
582.774	10555
582.805	10811
582.830	11180
582.877	11356
582.885	11338
582.941	11529
582.950	11578
582.996	11959
583.023	12135
583.052	12290
583.095	12554
583.107	12631
583.162	12107
583.168	12081
583.218	11766
583.240	11595
583.273	11541
583.313	12170
583.328	12327
583.384	12658
583.385	12656
583.439	12743
583.458	12712
583.494	12481
583.531	12678
583.549	12852
583.603	13217
583.605	13231
583.660	13636
583.676	13564
583.715	13403
583.748	13612
583.770	13671
583.820	13249
583.825	13228
583.881	14025
583.893	13895
583.936	13203
583.965	13495
583.991	13852
584.038	13558
584.046	13488
584.101	14040
584.110	13977
584.156	13969
584.183	14472
584.211	14884
584.255	15299
584.266	15395
584.321	14645
584.328	14713
584.376	15448
584.400	15450
584.431	15468
584.472	15688
584.486	15689
584.541	15588
584.545	15605
584.596	16152
584.617	16297
584.651	16559
584.689	16494
584.706	16433
584.761	16780
584.762	16779
584.816	17183
584.834	17152
584.871	17263
584.906	17467
584.926	17561
584.978	18623
584.980	18677
585.035	19486
585.051	19645
585.090	19828
585.123	19952
585.145	20271
585.195	21294
585.200	21379
585.254	21882
585.267	22045
585.309	22638
585.340	23649
585.364	24298
585.412	25006
585.419	25205
585.473	28392
585.484	29452
585.528	33954
585.556	36260
585.583	39232
585.628	45581
585.637	48234
585.692	71442
585.700	78206
585.747	132565
585.772	138760
585.801	124591
585.845	91531
585.856	77892
585.910	38501
585.917	34160
585.965	30513
585.989	28767
586.019	28266
586.061	28493
586.074	28583
586.128	28496
586.133	28405
586.183	28429
586.205	29086
586.237	29982
586.277	30408
586.292	30586
586.346	31027
586.349	31060
586.401	32491
586.421	32916
586.455	33139
586.493	33561
586.509	34080
586.564	35427
586.565	35467
586.618	39916
586.637	41372
586.672	44477
586.709	45050
586.727	43363
586.781	40663
586.781	40699
586.835	41139
586.853	41301
586.889	41671
586.925	41822
586.944	42009
586.996	42674
586.998	42747
587.052	44525
587.068	45125
587.106	46982
587.140	48193
587.161	48726
587.212	49900
587.215	50035
587.269	52202
587.284	52770
587.323	55055
587.356	57077
587.377	58239
587.427	60121
587.431	60329
587.485	63123
587.499	63884
587.539	66755
587.571	68777
587.593	70473
587.643	74261
587.648	74659
587.702	78910
587.715	79740
587.755	83648
587.786	86584
587.810	88970
587.858	94511
587.864	95396
587.917	103628
587.930	105337
587.971	112335
588.001	118137
588.025	123261
588.073	132933
588.079	134451
588.133	147999
588.145	150927
588.187	164213
588.217	174533
588.241	184546
588.288	203985
588.295	207260
588.348	236945
588.360	243411
588.402	273581
588.431	295859
588.456	316974
588.503	360733
588.510	368694
588.564	436944
588.575	452106
588.617	524503
588.646	576659
588.671	636412
588.718	754634
588.725	779721
588.778	978676
588.789	1019139
588.832	1228618
588.861	1364325
588.886	1449356
588.932	1547742
588.939	1517138
588.993	1204965
589.004	1164930
589.047	1189439
589.075	1215313
589.100	1379449
589.147	1604968
589.154	1581251
589.207	1351109
589.218	1304724
589.261	1137604
589.290	1029662
589.314	997011
589.361	943864
589.368	952843
589.421	1035227
589.433	1054106
589.475	1227754
589.504	1339293
589.528	1395506
589.576	1433931
589.582	1408909
589.635	1215278
589.647	1177582
589.689	1348630
589.718	1424829
589.742	1299629
589.790	1035930
589.795	1007636
589.849	734186
589.861	671548
589.902	560584
589.932	479508
589.955	442452
590.004	364663
590.009	359831
590.062	302740
590.075	288502
590.115	259970
590.146	237845
590.168	227820
590.218	204360
590.222	203100
590.275	183069
590.289	177513
590.328	167283
590.360	158665
590.381	153653
590.431	141007
590.435	140619
590.488	129688
590.503	126637
590.541	121830
590.574	117000
590.594	114383
590.645	107118
590.647	107088
590.700	101171
590.716	99182
590.753	96593
590.787	94003
590.806	92788
590.859	88646
590.859	88753
590.912	84437
590.930	82934
590.965	81004
591.001	78683
591.018	78253
591.071	76499
591.072	76322
591.124	74216
591.143	73256
591.177	72050
591.214	70482
591.230	70299
591.283	69227
591.285	69034
591.336	67628
591.356	66863
591.389	65894
591.427	64386
591.442	63927
591.495	61624
591.498	61337
591.547	60312
591.569	59567
591.600	58806
591.640	57568
591.653	57571
591.706	56969
591.711	56784
591.759	55761
591.782	55036
591.811	55689
591.853	56386
591.864	56362
591.917	55482
591.924	55217
591.969	53621
591.995	52555
592.022	52777
592.066	52788
592.075	52724
592.127	51489
592.137	51154
592.180	51525
592.208	51550
592.233	52048
592.279	52619
592.285	52382
592.338	49242
592.350	48417
592.390	48392
592.421	48161
592.443	48043
592.491	47411
592.495	47492
592.548	46997
592.562	46740
592.600	46216
592.633	45563
592.653	45832
592.704	45981
592.705	46236
592.775	45694
592.846	44171
592.916	45479
592.987	44732
593.058	44598
593.128	41893
593.199	43008
593.270	41091
593.341	41507
593.411	39811
593.482	41319
593.553	41067
593.623	40671
593.694	39122
593.764	40556
593.835	40079
593.906	39695
593.976	39062
594.047	38717
594.117	40747
594.188	42149
594.258	41102
594.329	38460
594.399	37663
594.470	39771
594.540	38020
594.611	38569
594.681	37376
594.751	37640
594.822	37343
594.892	39236
594.963	38825
595.033	38622
595.103	40034
595.174	40318
595.244	40405
595.314	46429
595.384	46960
595.455	39941
595.525	40324
595.595	40658
595.665	41426
595.736	42213
595.806	40149
595.876	40297
595.946	40398
596.016	39841
596.087	41068
596.157	41286
596.227	40767
596.297	42584
596.367	43450
596.437	43892
596.507	47569
596.577	48753
596.647	50372
596.717	45905
596.787	46739
596.857	47383
596.927	46662
596.997	46792
597.067	46351
597.137	46968
597.207	47203
597.277	47987
597.347	48213
597.417	47329
597.487	45453
597.557	47618
597.626	46901
597.696	48420
597.766	48920
597.836	50412
597.906	50980
597.975	43955
598.045	43485
598.115	43101
598.185	45276
598.254	47510
598.324	50084
598.394	52917
598.464	53525
598.533	52529
598.603	50946
598.672	47658
598.742	48489
598.812	48506
598.881	47571
598.951	48348
599.020	48814
599.090	47983
599.159	50490
599.229	50441
599.299	48080
599.368	47533
599.437	48034
599.507	47961
599.576	44579
599.646	45211
599.715	44307
599.785	43519
599.854	43203
599.924	44541
599.993	43591
600.062	43169
600.132	42745
600.201	43449
600.270	45356
600.340	51188
600.409	51735
600.478	49743
600.547	49220
600.617	51252
600.686	47310
600.755	41065
600.824	38819
600.894	37819
600.963	37405
601.032	36651
601.101	35746
601.170	36015
601.239	34132
601.308	34332
601.378	34984
601.447	34256
601.516	33794
601.585	34716
601.654	34922
601.723	36700
601.792	33761
601.861	35231
601.930	36054
601.999	37467
602.068	37800
602.137	36095
602.206	38717
602.275	38205
602.343	38591
602.412	40851
602.481	39264
602.550	37986
602.619	37211
602.688	38740
602.756	38871
602.825	38610
602.894	38307
602.963	38860
603.032	40118
603.100	40594
603.169	39870
603.238	40896
603.307	40487
603.375	40947
603.444	39808
603.513	40458
603.581	41375
603.650	42035
603.719	42798
603.787	41483
603.856	41700
603.924	42438
603.993	45457
604.061	44553
604.130	44926
604.198	46712
604.267	48083
604.335	48581
604.404	48297
604.472	49875
604.541	50176
604.609	51167
604.678	50638
604.746	51740
604.815	50659
604.883	52329
604.951	52898
605.020	53263
605.088	52822
605.156	53139
605.225	55044
605.293	54910
605.361	54843
605.429	55608
605.498	56012
605.566	57109
605.634	58896
605.702	60413
605.771	62054
605.839	63231
605.907	62831
605.975	62716
606.043	59993
606.111	59500
606.180	58139
606.248	60288
606.316	58790
606.384	58261
606.452	58258
606.520	60628
606.588	64733
606.656	62381
606.724	61945
606.792	59946
606.860	56810
606.928	51216
606.996	46936
607.064	45410
607.132	45830
607.200	46351
607.267	49275
607.335	50945
607.403	51628
607.471	51910
607.539	50820
607.607	49161
607.674	49371
607.742	45967
607.810	45024
607.878	44608
607.946	43502
608.013	44392
608.081	47578
608.149	48103
608.216	47875
608.284	50693
608.352	49343
608.419	50503
608.487	50684
608.555	52808
608.622	50066
608.690	49467
608.757	52327
608.825	57629
608.893	57925
608.960	57653
609.028	55855
609.095	55941
609.163	55537
609.230	51949
609.298	47589
609.365	44851
609.432	46781
609.500	50390
609.567	54590
609.635	61327
609.702	68677
609.769	71527
609.837	68856
609.904	56208
609.971	50713
610.039	53221
610.106	61001
610.173	84653
610.241	160051
610.308	362901
610.375	325076
610.442	175042
610.509	71434
610.577	55162
610.644	51178
610.711	51824
610.778	52242
610.845	53450
610.912	54050
610.980	58031
611.047	58641
611.114	58858
611.181	56923
611.248	55069
611.315	55803
611.382	57935
611.449	59288
611.516	61079
611.583	61453
611.650	60768
611.717	63060
611.784	62116
611.851	63979
611.918	67983
611.984	72051
612.051	86612
612.118	124086
612.185	248470
612.252	591128
612.319	311020
612.386	94058
612.452	79707
612.519	73149
612.586	71738
612.653	71408
612.719	70630
612.786	71465
612.853	69082
612.919	63179
612.986	62830
613.053	62534
613.120	59708
613.186	56863
613.253	54425
613.319	55355
613.386	55787
613.453	56125
613.519	57227
613.586	58749
613.652	61473
613.719	67232
613.785	62352
613.852	60762
613.918	57463
613.985	56067
614.051	57268
614.118	58941
614.184	59355
614.250	57305
614.317	56654
614.383	56717
614.449	56223
614.516	57330
614.582	58437
614.648	57285
614.715	56959
614.781	54981
614.847	55904
614.914	56340
614.980	55810
615.046	55022
615.112	53574
615.179	55697
615.245	58455
615.311	60511
615.377	68901
615.443	90821
615.509	91716
615.575	67350
615.642	62618
615.708	61063
615.774	64289
615.840	67068
615.906	74212
615.972	85658
616.038	118864
616.104	210418
616.170	353017
616.236	732908
616.302	538463
616.368	131877
616.434	98819
616.500	78206
616.565	71556
616.631	75199
616.697	89435
616.763	76473
616.829	78456
616.895	110862
616.961	182237
617.026	166171
617.092	81115
617.158	62775
617.224	59389
617.289	57636
617.355	55315
617.421	53069
617.487	52726
617.552	52220
617.618	49503
617.684	49290
617.749	49897
617.815	49246
617.880	46825
617.946	47109
618.012	47181
618.077	49326
618.143	49201
618.208	48453
618.274	47865
618.339	50727
618.405	52566
618.470	44571
618.536	44499
618.601	43330
618.667	45264
618.732	41443
618.798	40614
618.863	39902
618.928	39974
618.994	39499
619.059	40418
619.124	42864
619.190	47815
619.255	41697
619.320	39945
619.386	39686
619.451	38661
619.516	39403
619.581	37990
619.647	38694
619.712	40203
619.777	39452
619.842	38093
619.907	38398
619.972	40470
620.038	40502
620.103	39567
620.168	37432
620.233	38322
620.298	38122
620.363	38031
620.428	38615
620.493	39430
620.558	40676
620.623	41422
620.688	41731
620.753	41325
620.818	39873
620.883	41392
620.948	41220
621.013	42458
621.078	41533
621.143	41354
621.207	42394
621.272	41167
621.337	41917
621.402	41998
621.467	41525
621.532	42927
621.596	43750
621.661	42178
621.726	39769
621.791	39505
621.855	40153
621.920	41764
621.985	41331
622.049	42693
622.114	42715
622.179	42815
622.243	41961
622.308	45033
622.373	44225
622.437	45209
622.502	44663
622.566	43064
622.631	41792
622.695	42790
622.760	42631
622.824	43606
622.889	42070
622.953	43932
623.018	45414
623.082	53825
623.147	51418
623.211	45683
623.276	44541
623.340	44417
623.404	41776
623.469	40146
623.533	41293
623.597	41468
623.662	40516
623.726	41132
623.790	39460
623.854	37684
623.919	36404
623.983	36499
624.047	37053
624.111	37733
624.176	37521
624.240	37646
624.304	39684
624.368	41459
624.432	38226
624.496	37807
624.560	39046
624.625	41119
624.689	41626
624.753	39681
624.817	41335
624.881	39573
624.945	37952
625.009	35810
625.073	35018
625.137	35323
625.201	38310
625.265	42572
625.329	40580
625.393	36899
625.456	38145
625.520	37805
625.584	37918
625.648	40271
625.712	42223
625.776	47788
625.839	67466
625.903	71787
625.967	41801
626.031	34631
626.095	40277
626.158	54095
626.222	36696
626.286	29791
626.349	28059
626.413	27521
626.477	27025
626.540	28213
626.604	26552
626.668	26780
626.731	25825
626.795	26293
626.858	26111
626.922	26317
626.986	25703
627.049	25470
627.113	24622
627.176	25478
627.240	25103
627.303	24494
627.366	24267
627.430	24641
627.493	24906
627.557	24896
627.620	24359
627.684	25130
627.747	24772
627.810	25077
627.874	24036
627.937	23692
628.000	21803
628.064	23361
628.127	22336
628.190	20525
628.253	20667
628.317	20096
628.380	19936
628.443	19137
628.506	19739
628.569	19261
628.632	17815
628.696	18120
628.759	17551
628.822	17066
628.885	17108
628.948	16825
629.011	17094
629.074	16918
629.137	16678
629.200	15702
629.263	16150
629.326	17356
629.389	16322
629.452	15887
629.515	16196
629.578	16374
629.641	16842
629.704	15854
629.767	15629
629.830	16144
629.892	15335
629.955	15531
630.018	15562
630.081	15507
630.144	16450
630.207	17421
630.269	16460
630.332	16264
630.395	15042
630.458	15230
630.520	14373
630.583	14514
630.646	13852
630.708	13986
630.771	13620
630.834	14417
630.896	13656
630.959	13694
631.021	14587
631.084	13928
631.146	13713
631.209	15796
631.272	15455
631.334	14596
631.397	14212
631.459	13654
631.522	13881
631.584	14497
631.646	14327
631.709	15482
631.771	15423
631.834	17318
631.896	15495
631.958	14642
632.021	14026
632.083	14355
632.145	13036
632.208	13637
632.270	13246
632.332	13556
632.395	12760
632.457	13554
632.519	12999
632.581	14141
632.643	12801
632.706	13149
632.768	12824
632.830	12905
632.892	12909
632.954	13347
633.016	12523
633.078	13085
633.141	12722
633.203	12945
633.265	13005
633.327	13107
633.389	12662
633.451	12830
633.513	14148
633.575	14715
633.637	14169
633.698	14670
633.760	14087
633.822	13408
633.884	12787
633.946	13093
634.008	12539
634.070	13238
634.132	13187
634.193	13326
634.255	13618
634.317	14191
634.379	14606
634.441	14774
634.502	13467
634.564	13660
634.626	12656
634.687	12043
634.749	11741
634.811	12049
634.873	11233
634.934	10893
634.996	10857
635.057	11764
635.119	11810
635.181	11793
635.242	12613
635.304	11752
635.365	11873
635.427	11613
635.488	12000
635.550	11951
635.611	10704
635.673	11936
635.734	11428
635.796	11956
635.857	12052
635.918	13324
635.980	13526
636.041	13928
636.102	13845
636.164	14713
636.225	13750
636.286	13540
636.348	12496
636.409	11981
636.470	12285
636.531	11372
636.593	10489
636.654	11498
636.715	11906
636.776	10940
636.838	10186
636.899	10032
636.960	9989
637.021	10284
637.082	9281
637.143	10206
637.204	9968
637.265	9492
637.326	9990
637.387	9910
637.448	9577
637.509	9611
637.570	9450
637.631	10029
637.692	9663
637.753	8631
637.814	9265
637.875	9026
637.936	9208
637.997	8497
638.058	9124
638.119	9395
638.179	8682
638.240	8788
638.301	8243
638.362	9408
638.423	8199
638.483	9277
638.544	8438
638.605	9091
638.666	8352
638.726	8710
638.787	7921
638.848	7947
638.908	8606
638.969	8836
639.030	8370
639.090	7963
639.151	7848
639.211	9155
639.272	8669
639.332	9986
639.393	14416
639.453	11069
639.514	9197
639.574	8648
639.635	8444
639.695	7778
639.756	8221
639.816	8914
639.877	7848
639.937	9994
639.997	10889
640.058	15472
640.118	8122
640.178	8443
640.239	8070
640.299	8231
640.359	7901
640.420	7967
640.480	7338
640.540	8615
640.600	8860
640.661	9420
640.721	8359
640.781	9250
640.841	8239
640.901	8528
640.961	7983
641.021	7885
641.082	7929
641.142	9384
641.202	10314
641.262	8707
641.322	7341
641.382	7620
641.442	6988
641.502	8348
641.562	7262
641.622	7543
641.682	8056
641.742	7717
641.802	7927
641.861	8096
641.921	7177
641.981	7160
642.041	7496
642.101	8498
642.161	8665
642.221	8083
642.280	6365
642.340	7230
642.400	6009
642.460	7309
642.519	7481
642.579	7064
642.639	6715
642.698	6792
642.758	7563
642.818	7067
642.877	7288
642.937	6929
642.997	7502
643.056	8529
643.116	9910
643.175	9078
643.235	6422
643.294	7771
643.354	7986
643.414	7375
643.473	8391
643.532	9701
643.592	11029
643.651	15289
643.711	21508
643.770	37832
643.830	72075
643.889	158857
643.948	382296
644.008	111781
644.067	19097
644.126	12422
644.186	10632
644.245	9692
644.304	7759
644.363	7617
644.423	6201
644.482	6692
644.541	6457
644.600	7733
644.659	7076
644.719	7983
644.778	10628
644.837	12823
644.896	21192
644.955	36186
645.014	88797
645.073	39297
645.132	9980
645.191	7321
645.250	7238
645.309	7644
645.368	7448
645.427	7678
645.486	8115
645.545	12781
645.604	20261
645.663	9045
645.722	6833
645.781	7293
645.840	7026
645.898	7720
645.957	9590
646.016	12612
646.075	20087
646.134	34099
646.192	65019
646.251	155556
646.310	284416
646.369	51535
646.427	13584
646.486	10340
646.545	8937
646.603	6862
646.662	6889
646.721	6944
646.779	6069
646.838	5847
646.896	6725
646.955	7220
647.014	9048
647.072	12910
647.131	20159
647.189	55375
647.248	36161
647.306	6544
647.365	5243
647.423	5363
647.481	5861
647.540	5005
647.598	5261
647.657	5466
647.715	5058
647.773	5168
647.832	5246
647.890	5142
647.948	5141
648.007	5509
648.065	4397
648.123	5274
648.181	4467
648.240	5573
648.298	4361
648.356	4687
648.414	5355
648.472	4375
648.531	4689
648.589	4287
648.647	4426
648.705	4954
648.763	4473
648.821	4608
648.879	4960
648.937	5761
648.995	5209
649.053	5301
649.111	7530
649.169	10332
649.227	15295
649.285	27083
649.343	48729
649.401	147413
649.459	98842
649.516	20390
649.574	12729
649.632	6876
649.690	6184
649.748	7420
649.806	6992
649.863	9866
649.921	13853
649.979	35457
650.037	32816
650.094	6156
650.152	4298
650.210	5168
650.268	3763
650.325	4547
650.383	4185
650.440	4637
650.498	3872
650.556	3667
650.613	3045
650.671	4036
650.728	3703
650.786	4143
650.843	3708
650.901	4434
650.958	3620
651.016	3769
651.073	3434
651.131	3766
651.188	3005
651.246	3895
651.303	3360
651.360	3971
651.418	3753
651.475	3148
651.532	3293
651.590	4195
651.647	2335
651.704	2828
651.762	2505
651.819	2922
651.876	2764
651.933	3774
651.990	2846
652.048	3572
652.105	2712
652.162	3465
652.219	2761
652.276	3037
652.333	2958
652.390	3640
652.448	2736
652.505	3023
652.562	2972
652.619	3150
652.676	2688
652.733	3442
652.790	2942
652.847	2504
652.904	2847
652.961	3521
653.017	3254
653.074	2639
653.131	2836
653.188	3643
653.245	3454
653.302	2778
653.359	2438
653.415	3283
653.472	2863
653.529	3061
653.586	2897
653.642	2647
653.699	2137
653.756	2471
653.813	2436
653.869	3482
653.926	2851
653.983	2912
654.039	2486
654.096	2642
654.152	2533
654.209	3339
654.266	2572
654.322	3192
654.379	3007
654.435	2283
654.492	2457
654.548	3372
654.605	4173
654.661	6135
654.717	3455
654.774	3285
654.830	3087
654.887	2916
654.943	2688
655.000	3766
655.056	2669
655.112	3103
655.168	3274
655.225	3336
655.281	2862
655.337	2669
655.394	2847
655.450	4363
655.506	4078
655.562	3617
655.618	4864
655.675	4247
655.731	2481
655.787	2923
655.843	2180
655.899	2590
655.955	3753
656.011	2800
656.067	1741
656.123	2689
656.179	2553
656.235	3158
656.291	2791
656.347	2699
656.403	2396
656.459	3343
656.515	2209
656.571	2299
656.627	3147
656.683	2711
656.739	2677
656.795	3418
656.850	3381
656.906	3183
656.962	3386
657.018	2939
657.074	2581
657.129	2335
657.185	3138
657.241	3366
657.297	6561
657.352	6666
657.408	2907
657.464	3605
657.519	3442
657.575	2910
657.630	2114
657.686	2726
657.742	2528
657.797	2459
657.853	1728
657.908	3092
657.964	2220
658.019	2081
658.075	2168
658.130	2066
658.186	2190
658.241	1756
658.297	2740
658.352	2387
658.407	2835
658.463	2447
658.518	2522
658.573	1986
658.629	2791
658.684	1642
658.739	2494
658.795	1645
658.850	1735
658.905	2924
658.960	2242
659.016	2395
659.071	1970
659.126	3340
659.181	2685
659.236	3223
659.291	3406
659.346	4736
659.401	3531
659.457	3280
659.512	2576
659.567	2643
659.622	2767
659.677	2559
659.732	1537
659.787	2657
659.842	2364
659.897	2264
659.952	2764
660.007	2862
660.061	1859
660.116	2892
660.171	2157
660.226	2372
660.281	2002
660.336	2830
660.391	2566
660.445	2575
660.500	2458
660.555	2625
660.610	2514
660.664	3070
660.719	2174
660.774	2070
660.828	2627
660.883	2919
660.938	2754
660.992	2568
661.047	1481
661.101	2557
661.156	2135
661.211	2798
661.265	2303
661.320	2730
661.374	2151
661.429	2263
661.483	2204
661.538	2885
661.592	1858
661.647	1977
661.701	2812
661.755	2895
661.810	1261
661.864	2050
661.919	2217
661.973	2556
662.027	2007
662.081	2157
662.136	1366
662.190	2251
662.244	2538
662.299	2109
662.353	2031
662.407	2809
662.461	1756
662.515	1869
662.569	1925
662.624	2288
662.678	1706
662.732	2782
662.786	2017
662.840	2747
662.894	1989
662.948	2463
663.002	2066
663.056	1966
663.110	1624
663.164	1717
663.218	1791
663.272	1318
663.326	2556
663.380	2314
663.434	1787
663.488	2681
663.542	2072
663.595	2379
663.649	1687
663.703	2592
663.757	2154
663.811	1444
663.864	1743
663.918	1971
663.972	1783
664.026	2129
664.079	1523
664.133	2290
664.187	2049
664.240	1769
664.294	2213
664.348	1955
664.401	2607
664.455	2058
664.508	1941
664.562	1949
664.615	1773
664.669	1737
664.722	2092
664.776	2528
664.829	2084
664.883	2192
664.936	1529
664.990	2459
665.043	2143
665.097	1969
665.150	2463
665.203	2782
665.257	2404
665.310	2151
665.363	1612
665.417	2634
665.470	1847
665.523	2654
665.576	2968
665.630	2249
665.683	1698
665.736	2610
665.789	2151
665.842	2278
665.895	2163
665.949	2457
666.002	2143
666.055	2544
666.108	2659
666.161	2251
666.214	1777
666.267	2994
666.320	2412
666.373	3149
666.426	2817
666.479	2168
666.532	2586
666.585	2582
666.638	1794
666.691	2826
666.744	2866
666.796	2146
666.849	2522
666.902	3140
666.955	2232
667.008	2200
667.060	1563
667.113	2400
667.166	2421
667.219	2973
667.271	1620
667.324	2098
667.377	1829
667.430	3015
667.482	1985
667.535	2694
667.587	2333
667.640	2588
667.693	2295
667.745	2783
667.798	4010
667.850	4772
667.903	2644
667.955	2348
668.008	1994
668.060	2994
668.113	2034
668.165	3102
668.218	2775
668.270	3280
668.322	2117
668.375	2136
668.427	2926
668.479	2467
668.532	2450
668.584	2463
668.636	2561
668.689	2523
668.741	2020
668.793	3201
668.845	2259
668.898	2586
668.950	2656
669.002	1549
669.054	2233
669.106	2466
669.158	2614
669.211	2690
669.263	2430
669.315	3062
669.367	2949
669.419	2518
669.471	3177
669.523	3353
669.575	2714
669.627	4506
669.679	3974
669.731	3377
669.783	2854
669.835	3591
669.886	3157
669.938	4052
669.990	3730
670.042	3650
670.094	3499
670.146	4302
670.197	4355
670.249	5664
670.301	6465
670.353	8433
670.404	10958
670.456	16282
670.508	23149
670.560	35460
670.611	57815
670.663	94814
670.715	156110
670.766	296241
670.818	523189
670.869	368265
670.921	95652
670.972	35219
671.024	21262
671.075	15194
671.127	11437
671.178	8547
671.230	7451
671.281	5956
671.333	6109
671.384	5151
671.436	4759
671.487	5514
671.538	5654
671.590	5647
671.641	6588
671.692	9284
671.744	11873
671.795	22061
671.846	22520
671.897	9432
671.949	4693
672.000	4655
672.051	2867
672.102	2958
672.153	2567
672.204	3206
672.256	2866
672.307	2583
672.358	2929
672.409	3109
672.460	2970
672.511	2644
672.562	2533
672.613	2359
672.664	2779
672.715	2436
672.766	2330
672.817	2490
672.868	2256
672.919	3107
672.970	1686
673.021	2369
673.071	2044
673.122	2959
673.173	2353
673.224	2003
673.275	1912
673.326	2799
673.376	1598
673.427	2108
673.478	2045
673.528	1711
673.579	2001
673.630	2479
673.680	1460
673.731	1955
673.782	1391
673.832	1651
673.883	1439
673.934	1979
673.984	2048
674.035	1883
674.085	2318
674.136	1999
674.186	1023
674.237	2349
674.287	2588
674.338	3211
674.388	2107
674.438	1980
674.489	1943
674.539	1926
674.589	2072
674.640	2563
674.690	2499
674.740	1490
674.791	2049
674.841	1482
674.891	1888
674.942	2215
674.992	1058
675.042	1392
675.092	1781
675.142	1350
675.193	1679
675.243	1663
675.293	1446
675.343	603
675.393	1629
675.443	1568
675.493	1568
675.543	1078
675.593	976
675.643	2937
675.693	1432
675.743	1490
675.793	1355
675.843	1024
675.893	1594
675.943	1249
675.993	1068
676.043	1990
676.093	1440
676.142	1674
676.192	1080
676.242	1226
676.292	1205
676.341	1064
676.391	1162
676.441	1872
676.491	1270
676.540	1438
676.590	1673
676.640	1475
676.689	958
676.739	1697
676.789	1560
676.838	1980
676.888	608
676.937	1280
676.987	1208
677.037	2124
677.086	964
677.136	464
677.185	1281
677.235	1332
677.284	458
677.333	1516
677.383	1117
677.432	954
677.482	1594
677.531	871
677.580	810
677.630	1084
677.679	845
677.728	1231
677.778	824
677.827	1612
677.876	881
677.925	1678
677.975	365
678.024	1140
678.073	488
678.122	1376
678.171	332
678.220	1788
678.269	863
678.319	1984
678.368	384
678.417	1535
678.466	2045
678.515	1166
678.564	562
678.613	1382
678.662	434
678.711	1694
678.760	1070
678.809	1299
678.857	624
678.906	999
678.955	838
679.004	1426
679.053	393
679.102	1221
679.151	1026
679.199	1431
679.248	1376
679.297	1404
679.346	625
679.394	1206
679.443	1760
679.492	1112
679.540	723
679.589	620
679.638	1201
679.686	1173
679.735	920
679.784	1478
679.832	580
679.881	1503
679.929	1240
679.978	767
680.026	311
680.075	1272
680.123	816
680.172	1005
680.220	1566
680.268	1168
680.317	741
680.365	1492
680.414	546
680.462	1452
680.510	332
680.559	869
680.607	507
680.655	726
680.703	443
680.752	846
680.800	446
680.848	813
680.896	247
680.945	817
680.993	664
681.041	391
681.089	878
681.137	1662
681.185	385
681.233	1242
681.258	999
681.281	741
681.329	881
681.377	744
681.380	771
681.425	716
681.473	1108
681.502	1099
681.521	1045
681.569	989
681.617	1320
681.624	1399
681.665	1702
681.713	1637
681.745	1453
681.761	1326
681.809	888
681.857	1589
681.867	1712
681.904	2003
681.952	1875
681.989	1291
682.000	1084
682.048	2185
682.096	2017
682.111	1970
682.143	1778
682.191	2214
682.233	1968
682.239	1903
682.286	2011
682.334	2211
682.354	2156
682.382	2002
682.430	1825
682.476	2454
682.477	2446
682.525	1838
682.572	2005
682.598	2331
682.620	2537
682.667	2653
682.715	2392
682.720	2432
682.763	2556
682.810	2315
682.841	2995
682.857	3329
682.905	3055
682.952	3110
682.963	3046
683.000	2712
683.047	3005
683.085	3343
683.095	3386
683.142	2987
683.190	3261
683.206	3282
683.237	3330
683.284	3175
683.328	3215
683.332	3188
683.379	2680
683.426	3839
683.449	3408
683.473	2980
683.521	3596
683.568	2607
683.571	2712
683.615	3760
683.662	3744
683.693	3671
683.709	3625
683.757	3825
683.804	4040
683.814	3998
683.851	3693
683.898	4247
683.936	3602
683.945	3435
683.992	4533
684.039	3590
684.057	3557
684.086	3501
684.133	4378
684.179	4552
684.180	4539
684.227	4326
684.274	4847
684.300	4551
684.321	4219
684.368	4658
684.415	4125
684.422	4200
684.462	4687
684.509	4637
684.543	4617
684.556	4541
684.603	4625
684.649	5189
684.665	5145
684.696	5078
684.743	5078
684.786	4676
684.790	4628
684.837	5184
684.883	5046
684.908	5334
684.930	5576
684.977	5129
685.023	5907
685.029	5871
685.070	5500
685.117	6012
685.150	5532
685.164	5328
685.210	5470
685.257	5336
685.272	5592
685.303	6118
685.350	5536
685.393	5882
685.396	5899
685.443	6247
685.490	6622
685.514	6534
685.536	6458
685.583	6261
685.629	6940
685.636	6917
685.675	6609
685.722	6945
685.757	6917
685.768	6854
685.815	6693
685.861	6498
685.878	6500
685.908	6676
685.954	6722
686.000	6706
686.000	6695
686.047	6579
686.093	6869
686.121	6996
686.139	7210
686.185	7079
686.232	7656
686.242	7667
686.278	7416
686.324	7823
686.363	7214
686.370	7078
686.416	6969
686.463	7209
686.484	7101
686.509	7055
686.555	7378
686.601	7362
686.606	7259
686.647	6372
686.693	7130
686.727	7127
686.739	7105
686.785	7561
686.831	7373
686.848	7335
686.877	7335
686.923	7235
686.969	7370
686.969	7369
687.015	7373
687.061	7226
687.090	7371
687.107	7485
687.153	7769
687.199	7561
687.211	7563
687.245	7643
687.291	7648
687.332	7787
687.336	7786
687.382	7881
687.428	7849
687.453	7780
687.474	7755
687.520	7651
687.565	7713
687.574	7867
687.611	8503
687.657	7483
687.695	7882
687.702	7946
687.748	7669
687.794	7880
687.816	7957
687.839	8129
687.885	8458
687.931	8015
687.937	8055
687.976	8106
688.022	8281
688.058	8180
688.067	8192
688.113	8018
688.158	8222
688.179	8201
688.204	8216
688.249	8436
688.295	8272
688.300	8332
688.340	8661
688.386	8432
688.421	8541
688.431	8610
688.477	8230
688.522	8637
688.542	8478
688.567	8372
688.613	9326
688.658	8948
688.663	8989
688.703	9087
688.749	8945
688.784	8981
688.794	9044
688.839	8899
688.884	9425
688.905	9281
688.930	9124
688.975	9647
689.020	9388
689.026	9412
689.065	9467
689.110	9242
689.146	9586
689.155	9713
689.201	9108
689.246	9458
689.267	9310
689.291	9206
689.336	9012
689.381	9559
689.388	9577
689.426	9557
689.471	9253
689.509	9608
689.516	9724
689.561	9548
689.606	9966
689.630	9831
689.651	9638
689.696	9541
689.741	9465
689.750	9517
689.785	9906
689.830	9331
689.871	9961
689.875	10020
689.920	9617
689.965	9928
689.992	9646
690.010	9533
690.054	9987
690.099	9819
690.112	9869
690.144	10005
690.189	9769
690.233	9670
690.233	9684
690.278	9507
690.323	9973
690.354	9807
690.367	9754
690.412	9634
690.457	9419
690.474	9656
690.501	10094
690.546	9718
690.590	10111
690.595	10052
690.635	9702
690.680	10064
690.716	10173
690.724	10196
690.769	10275
690.813	10149
690.836	9891
690.857	9821
690.902	10349
690.946	10854
690.957	10836
690.991	10779
691.035	10909
691.077	10983
691.080	10997
691.124	11214
691.168	10911
691.198	11074
691.213	11317
691.257	11117
691.301	11604
691.318	11960
691.346	12277
691.390	11901
691.434	11240
691.439	11230
691.478	11375
691.522	11145
691.559	11245
691.567	11310
691.611	11456
691.655	11450
691.680	11418
691.699	11413
691.743	11450
691.787	11543
691.800	11472
691.831	11461
691.875	11683
691.919	11719
691.921	11695
691.964	11672
692.008	12042
692.041	12164
692.052	12245
692.096	12353
692.139	12523
692.162	12680
692.183	12742
692.227	12393
692.271	12535
692.282	12415
692.315	12157
692.359	12263
692.402	12161
692.403	12185
692.447	12294
692.490	11921
692.523	12075
692.534	12207
692.578	12237
692.622	12159
692.643	12127
692.666	12162
692.709	12139
692.753	12391
692.763	12397
692.797	12452
692.840	12394
692.884	12562
692.884	12590
692.928	12340
692.971	12466
693.004	12432
693.015	12363
693.059	12441
693.102	12079
693.124	11914
693.146	12104
693.189	12348
693.233	12984
693.245	12968
693.276	12702
693.320	12678
693.363	12495
693.365	12472
693.407	12979
693.450	12931
693.485	13043
693.493	13026
693.537	13144
693.580	13039
693.605	12733
693.624	12768
693.667	13401
693.710	13428
693.725	13573
693.753	13660
693.797	13364
693.840	13390
693.845	13365
693.883	13939
693.926	14529
693.966	14665
693.970	14701
694.013	15122
694.056	15269
694.086	15377
694.099	15180
694.142	14686
694.185	14117
694.206	13748
694.229	13665
694.272	13726
694.315	13533
694.326	13476
694.358	13736
694.401	13840
694.444	14205
694.446	14174
694.487	13836
694.530	13736
694.566	13562
694.573	13673
694.616	14119
694.659	14659
694.686	14977
694.702	14837
694.745	14383
694.787	13722
694.806	13483
694.830	13451
694.873	13235
694.916	12910
694.926	12862
694.959	13085
695.002	13129
695.044	13191
695.046	13162
695.087	13336
695.130	13619
695.166	13586
695.172	13620
695.215	14011
695.258	14028
695.286	14100
695.301	14166
695.343	14366
695.386	14429
695.406	14369
695.428	14239
695.471	14175
695.514	13874
695.526	13821
695.556	14014
695.599	13906
695.641	14227
695.646	14182
695.684	14214
695.726	14429
695.766	14570
695.769	14607
695.811	14747
695.854	14499
695.886	14618
695.896	14670
695.938	14357
695.981	14235
696.005	14099
696.023	14133
696.065	14163
696.108	14111
696.125	14109
696.150	14145
696.192	14150
696.235	14029
696.245	13954
696.277	14133
696.319	14330
696.361	14602
696.365	14589
696.404	14685
696.446	14671
696.485	14679
696.488	14742
696.530	14989
696.572	15379
696.604	15538
696.614	15495
696.656	15170
696.698	14758
696.724	14533
696.740	14628
696.783	14742
696.825	14895
696.844	14848
696.867	14770
696.909	14771
696.951	14547
696.964	14498
696.992	14846
697.034	15201
697.076	15587
697.083	15591
697.118	15220
697.160	15010
697.202	14583
697.203	14532
697.244	14956
697.286	15284
697.323	15744
697.327	15807
697.369	15802
697.411	15854
697.442	15872
697.453	15859
697.494	15618
697.536	15376
697.562	15170
697.578	15251
697.620	15317
697.661	15461
697.682	15486
697.703	15645
697.744	15819
697.786	15992
697.801	16041
697.828	16179
697.869	16273
697.911	16371
697.921	16346
697.952	16751
697.994	17217
698.035	17732
698.040	17740
698.077	17042
698.118	16236
698.160	15396
698.160	15348
698.201	15657
698.243	15926
698.279	16117
698.284	16113
698.325	15676
698.367	15193
698.399	14820
698.408	14970
698.449	15428
698.491	15916
698.518	16171
698.532	16191
698.573	16131
698.614	16078
698.638	16016
698.656	16104
698.697	16182
698.738	16264
698.757	16253
698.779	16226
698.820	16106
698.862	15960
698.877	15870
698.903	16146
698.944	16503
698.985	16873
698.996	16928
699.026	16749
699.067	16440
699.116	16026
699.235	16981
699.354	16239
699.474	16308
699.593	15397
699.713	16378
699.832	17037
699.951	16171
700.070	16141
700.190	16720
700.309	15594
700.428	15628
700.547	16003
700.667	16037
700.786	15102
700.905	16168
701.024	15422
701.143	15553
701.262	15798
701.381	14808
701.500	14690
701.619	15741
701.738	15916
701.857	15266
701.976	14446
702.095	14988
702.214	14785
702.333	14833
702.452	15980
702.571	14568
702.690	15004
702.809	14215
702.928	14370
703.047	14483
703.165	13200
703.284	14513
703.403	13721
703.522	14345
703.640	13844
703.759	14841
703.878	13839
703.997	16390
704.115	15244
704.234	14613
704.353	13487
704.471	13810
704.590	13758
704.708	13698
704.827	13850
704.946	13587
705.064	12661
705.183	14427
705.301	13054
705.420	14405
705.538	16503
705.656	17551
705.775	14910
705.893	14673
706.012	14177
706.130	15829
706.249	15610
706.367	15982
706.485	14585
706.604	16034
706.722	15168
706.840	15542
706.958	15992
707.077	16580
707.195	14796
707.313	14839
707.431	15087
707.549	14483
707.668	13678
707.786	15603
707.904	14500
708.022	14518
708.140	13767
708.258	13219
708.376	13562
708.494	13976
708.612	13501
708.730	14035
708.848	15282
708.966	18929
709.084	16657
709.202	17176
709.320	15315
709.438	15729
709.556	15765
709.674	16032
709.791	15471
709.909	15917
710.027	14302
710.145	15589
710.263	15284
710.380	15548
710.498	15134
710.616	14614
710.733	13835
710.851	15081
710.969	14697
711.086	15387
711.204	14351
711.322	14489
711.439	13929
711.557	14888
711.674	13721
711.792	14234
711.909	13841
712.027	14120
712.144	13628
712.262	12931
712.379	13193
712.497	14002
712.614	15229
712.732	18982
712.849	17104
712.966	15548
713.084	15452
713.201	17012
713.318	17374
713.436	16817
713.553	15658
713.670	16852
713.787	14975
713.905	16772
714.022	16507
714.139	16327
714.256	15723
714.373	16711
714.490	17400
714.608	22373
714.725	34281
714.842	102400
714.959	334932
715.076	77876
715.193	19039
715.310	16645
715.427	15215
715.544	14551
715.661	14105
715.778	14494
715.895	13959
716.011	14833
716.128	15137
716.245	15074
716.362	13589
716.479	14640
716.596	16538
716.713	14276
716.829	13402
716.946	12566
717.063	14122
717.180	13942
717.296	12849
717.413	13138
717.530	13184
717.646	12601
717.763	12192
717.880	13035
717.996	11946
718.113	12364
718.229	13087
718.346	12985
718.462	11809
718.579	12366
718.695	12336
718.812	16005
718.928	20349
719.045	13573
719.161	13959
719.277	11853
719.394	11437
719.510	11516
719.626	11105
719.743	12208
719.859	13786
719.975	14616
720.092	16907
720.208	33252
720.324	116025
720.440	80537
720.557	14484
720.673	13512
720.789	13769
720.905	18449
721.021	21478
721.137	24781
721.253	11956
721.369	11930
721.486	11620
721.602	11793
721.718	12623
721.834	12636
721.950	9993
722.066	11761
722.181	10435
722.297	10547
722.413	10295
722.529	11095
722.645	9944
722.761	10542
722.877	10018
722.993	10456
723.108	9927
723.224	10287
723.340	10811
723.456	10129
723.571	10265
723.687	9592
723.803	9192
723.918	8762
724.034	9582
724.150	9999
724.265	10164
724.381	9348
724.497	10955
724.612	18020
724.728	11378
724.843	9626
724.959	8747
725.074	9964
725.190	10652
725.305	16749
725.421	10222
725.536	10060
725.651	8920
725.767	8625
725.882	8916
725.997	8876
726.113	8343
726.228	9367
726.343	8934
726.459	8891
726.574	7899
726.689	8259
726.804	9305
726.920	7834
727.035	8897
727.150	9286
727.265	7713
727.380	8407
727.495	8972
727.610	8210
727.725	7473
727.841	8286
727.956	8543
728.071	7668
728.186	8276
728.301	8747
728.416	7017
728.531	7992
728.645	8875
728.760	7769
728.875	7963
728.990	8446
729.105	7887
729.220	7825
729.335	7033
729.449	8299
729.564	7753
729.679	8071
729.794	7022
729.908	6752
730.023	7219
730.138	8507
730.253	7347
730.367	7662
730.482	7816
730.596	7625
730.711	6929
730.826	7684
730.940	7098
731.055	8054
731.169	8197
731.284	7968
731.398	7290
731.513	7747
731.627	6797
731.742	7778
731.856	6920
731.970	9036
732.085	7635
732.199	9222
732.313	8922
732.428	11467
732.542	16961
732.656	41279
732.771	73718
732.885	20307
732.999	10564
733.113	8986
733.227	8842
733.342	8464
733.456	7592
733.570	8417
733.684	8334
733.798	7428
733.912	7853
734.026	7430
734.140	7180
734.254	8282
734.368	7334
734.482	8533
734.596	10530
734.710	8842
734.824	7099
734.938	6780
735.052	7158
735.166	7663
735.280	7502
735.393	8844
735.507	7298
735.621	7796
735.735	7652
735.849	8742
735.962	10211
736.076	7813
736.190	6913
736.303	7230
736.417	7433
736.531	9412
736.644	7443
736.758	7611
736.872	6979
736.985	6653
737.099	6585
737.212	6870
737.326	6129
737.439	7692
737.553	6471
737.666	6750
737.780	6733
737.893	6710
738.007	5870
738.120	6598
738.233	6241
738.347	6060
738.460	6454
738.573	7439
738.687	6570
738.800	7417
738.913	6509
739.026	7495
739.140	7130
739.253	6436
739.366	6422
739.479	6054
739.592	6027
739.705	5993
739.818	5545
739.932	6157
740.045	6328
740.158	6049
740.271	5980
740.384	6451
740.497	5609
740.610	6245
740.723	5938
740.836	6274
740.949	6281
741.062	6168
741.174	5877
741.287	7207
741.400	5907
741.513	5705
741.626	5822
741.739	6357
741.851	6188
741.964	6088
742.077	5358
742.189	5927
742.302	5284
742.415	6452
742.527	6192
742.640	6666
742.753	6570
742.865	6007
742.978	5093
743.090	5909
743.203	4976
743.316	5639
743.428	5089
743.541	5686
743.653	5296
743.766	5532
743.878	5278
743.990	5680
744.103	4862
744.215	6296
744.327	5800
744.440	5784
744.552	5824
744.664	7641
744.777	7555
744.889	5524
745.001	5346
745.113	5852
745.226	5337
745.338	5847
745.450	4330
745.562	5527
745.674	4856
745.786	5894
745.898	5359
746.010	5358
746.122	4768
746.234	4311
746.347	5125
746.459	5360
746.570	4719
746.682	5018
746.794	5073
746.906	5804
747.018	4921
747.130	4133
747.242	4946
747.354	5230
747.466	4840
747.577	4457
747.689	5384
747.801	5557
747.913	4769
748.024	4782
748.136	5270
748.248	4600
748.359	4497
748.471	4810
748.583	4565
748.694	4684
748.806	4792
748.918	4584
749.029	4459
749.141	5657
749.252	4762
749.364	5843
749.475	5230
749.587	6770
749.698	8067
749.809	6165
749.921	5336
750.032	3819
750.144	4331
750.255	5101
750.366	3683
750.478	4710
750.589	4526
750.700	4927
750.811	3574
750.923	5736
751.034	5126
751.145	6953
751.256	11185
751.367	6429
751.479	4198
751.590	4617
751.701	4379
751.812	4356
751.923	3760
752.034	4156
752.145	3451
752.256	5377
752.367	4775
752.478	4398
752.589	4733
752.700	4271
752.811	4507
752.922	4499
753.032	4138
753.143	4316
753.254	4253
753.365	4746
753.476	4382
753.586	4285
753.697	3426
753.808	4285
753.919	3630
754.029	4114
754.140	4383
754.251	4392
754.361	3410
754.472	4419
754.582	4062
754.693	4841
754.804	4680
754.914	4789
755.025	4077
755.135	3636
755.246	3722
755.356	3324
755.466	4070
755.577	3657
755.687	3275
755.798	3804
755.908	3495
756.018	4774
756.129	4425
756.239	4375
756.349	3440
756.460	3666
756.570	3713
756.680	3546
756.790	3353
756.900	4676
757.011	4269
757.121	4465
757.231	3354
757.341	3941
757.451	4095
757.561	3828
757.671	3580
757.781	3823
757.891	3587
758.001	3601
758.111	3692
758.221	4288
758.331	4097
758.441	4499
758.551	4462
758.661	3764
758.771	5553
758.880	4413
758.990	4313
759.100	4366
759.210	3980
759.320	3873
759.429	3714
759.539	3468
759.649	4207
759.758	4138
759.868	3979
759.978	3706
760.087	3874
760.197	4292
760.307	4322
760.416	4103
760.526	3660
760.635	4015
760.745	3535
760.854	4265
760.964	4055
761.073	4163
761.182	4261
761.292	4121
761.401	4558
761.511	4135
761.620	3766
761.729	3724
761.839	3245
761.948	4322
762.057	3125
762.166	3914
762.276	3294
762.385	4065
762.494	3845
762.603	4057
762.712	2749
762.822	3841
762.931	4151
763.040	3653
763.149	3385
763.258	3833
763.367	3885
763.476	4050
763.585	3615
763.694	4172
763.803	3698
763.912	3596
764.021	3408
764.130	3552
764.238	3189
764.347	4138
764.456	3700
764.565	3857
764.674	4193
764.783	4166
764.891	3744
765.000	4539
765.109	4301
765.217	4424
765.326	4317
765.435	4628
765.543	5067
765.652	6046
765.761	5135
765.869	6083
765.978	6991
766.086	9847
766.195	14009
766.303	26915
766.412	56833
766.520	181564
766.629	430768
766.737	174118
766.846	34863
766.954	16472
767.062	10894
767.171	8322
767.279	7914
767.387	7074
767.496	6362
767.604	6268
767.712	5015
767.820	5167
767.928	4706
768.037	4903
768.145	4660
768.253	4764
768.361	3874
768.469	4608
768.577	4467
768.685	4712
768.793	4357
768.901	4815
769.009	4156
769.117	5027
769.225	4514
769.333	4766
769.441	5613
769.549	7721
769.657	11723
769.765	22972
769.873	61791
769.981	225262
770.088	256420
770.196	41135
770.304	13205
770.412	9300
770.519	7068
770.627	6882
770.735	5780
770.842	5242
770.950	4572
771.058	4728
771.165	5138
771.273	4636
771.380	3621
771.488	4694
771.595	4520
771.703	5330
771.810	4167
771.918	4149
772.025	3582
772.133	3953
772.240	4195
772.348	4421
772.455	4451
772.562	4156
772.670	3658
772.777	4608
772.884	4508
772.991	3853
773.099	4203
773.206	4318
773.313	3689
773.420	4732
773.528	3705
773.635	4090
773.742	3662
773.849	3638
773.956	3949
774.063	3871
774.170	3648
774.277	4125
774.384	3361
774.491	4320
774.598	3995
774.705	4423
774.812	3907
774.919	3955
775.026	4354
775.133	4371
775.239	3703
775.346	4239
775.453	3930
775.560	3608
775.667	3863
775.773	4097
775.880	4008
775.987	3739
776.093	4073
776.200	3625
776.307	4204
776.413	4379
776.520	3583
776.627	3900
776.733	3691
776.840	3696
776.946	3441
777.053	4414
777.159	3206
777.266	3814
777.372	3212
777.478	3868
777.585	3541
777.691	3799
777.798	3296
777.904	3987
778.010	3811
778.117	3465
778.223	5573
778.329	3478
778.435	2923
778.542	3689
778.648	3414
778.754	3880
778.860	3049
778.966	3690
779.072	3619
779.178	3545
779.284	3278
779.391	3185
779.497	2907
779.603	4447
779.708	3491
779.815	2820
779.920	2988
780.026	3945
780.132	8049
780.238	7694
780.344	3635
780.450	3499
780.556	2739
780.661	3569
780.767	2933
780.873	3624
780.979	2487
781.085	2467
781.190	3103
781.296	3428
781.402	2948
781.507	2716
781.613	2697
781.719	3478
781.824	2559
781.930	3263
782.035	2305
782.141	2987
782.246	3280
782.352	3586
782.457	2264
782.563	3194
782.668	2493
782.773	3390
782.879	3028
782.984	2750
783.090	3279
783.195	4055
783.300	3255
783.405	4316
783.511	3766
783.616	3693
783.721	2616
783.826	3231
783.932	3034
784.037	2754
784.142	3080
784.247	2800
784.352	3038
784.457	2834
784.562	2822
784.667	3099
784.772	3186
784.877	3390
784.982	2618
785.087	3246
785.192	2381
785.297	2967
785.402	2620
785.507	2777
785.611	2396
785.716	2591
785.821	2856
785.926	2634
786.031	1923
786.135	3091
786.240	2740
786.345	2628
786.450	1920
786.554	2306
786.659	1537
786.763	2254
786.868	3537
786.973	2649
787.077	2097
787.182	2612
787.286	2252
787.391	2278
787.495	2668
787.600	2415
787.704	1895
787.809	1962
787.913	1716
788.017	2697
788.122	1690
788.226	2106
788.330	2199
788.435	2333
788.539	2329
788.643	2215
788.747	1960
788.852	3294
788.956	1866
789.060	2258
789.164	1940
789.268	2204
789.372	1794
789.476	1875
789.580	2026
789.684	1935
789.788	1801
789.892	2711
789.996	1550
790.100	1646
790.204	2304
790.308	2554
790.412	2293
790.516	1958
790.620	1647
790.724	2157
790.828	1674
790.931	2652
791.035	1754
791.139	1741
791.242	2164
791.346	1898
791.450	2475
791.554	2492
791.657	2101
791.761	2351
791.864	1581
791.968	2249
792.072	2315
792.175	2881
792.279	1864
792.382	2527
792.486	2412
792.589	1770
792.693	1480
792.796	2496
792.899	2014
793.003	2342
793.106	1137
793.209	2121
793.313	1980
793.416	1969
793.519	1779
793.623	2124
793.726	2131
793.829	4366
793.932	3406
794.035	2670
794.138	1940
794.242	2440
794.345	1877
794.448	2444
794.551	2298
794.654	3492
794.757	4308
794.860	4630
794.963	3234
795.066	3152
795.169	2003
795.272	1840
795.375	2302
795.477	1779
795.580	1213
795.683	2296
795.786	1757
795.889	1858
795.991	2269
796.094	1153
796.197	1639
796.300	2469
796.402	2083
796.505	1754
796.608	1974
796.710	2412
796.813	1763
796.915	2271
797.018	1795
797.120	1628
797.223	2341
797.326	1510
797.428	1972
797.530	2196
797.633	1395
797.735	1768
797.838	1520
797.940	2516
798.042	2717
798.145	1839
798.247	1598
798.349	1614
798.452	1854
798.554	1190
798.656	1831
798.758	1621
798.860	1624
798.962	1961
799.065	1484
799.167	1683
799.269	452
799.371	1891
799.473	1399
799.575	2569
799.677	1459
799.779	2839
799.881	1422
799.983	2006
800.085	2817
800.187	2507
800.289	1936
800.390	1193
800.492	1659
800.594	2231
800.696	1896
800.798	1746
800.899	1514
801.001	1707
801.103	1025
801.205	1764
801.306	880
801.408	1907
801.509	1216
801.611	2173
801.713	1109
801.814	2281
801.916	1953
802.017	1570
802.119	1556
802.220	2299
802.322	1215
802.423	1679
802.525	1857
802.626	1492
802.727	1643
802.829	1859
802.930	1460
803.031	2175
803.133	1450
803.234	1211
803.335	1264
803.436	1644
803.538	816
803.639	884
803.740	1475
803.841	1647
803.942	1413
804.043	1499
804.144	1379
804.245	1527
804.346	942
804.447	1240
804.548	954
804.649	1607
804.750	2147
804.851	2433
804.952	2035
805.053	1978
805.154	751
805.255	1188
805.355	572
805.456	1269
805.557	1884
805.658	1198
805.758	1546
805.859	1434
805.960	370
806.061	1959
806.161	1754
806.262	1190
806.362	1149
806.463	1822
806.564	1288
806.664	1435
806.765	1098
806.865	1805
806.966	2024
807.066	1481
807.166	1297
807.267	1359
807.367	1327
807.468	2049
807.568	1355
807.668	1892
807.769	1041
807.869	2146
807.969	722
808.069	1172
808.170	1139
808.270	1749
808.370	1417
808.470	1064
808.570	1103
808.670	2852
808.770	1679
808.870	1238
808.970	2523
809.070	783
809.170	694
809.271	959
809.370	603
809.470	1093
809.570	1903
809.670	1296
809.770	897
809.870	2421
809.970	2007
810.070	1055
810.169	931
810.269	1183
810.369	1438
810.469	1649
810.568	1076
810.668	1833
810.768	1171
810.867	1541
810.967	738
811.066	1205
811.166	1602
811.265	1974
811.365	1027
811.464	1652
811.564	1267
811.663	1963
811.763	777
811.862	1227
811.962	1325
812.061	1990
812.160	826
812.260	1712
812.359	1595
812.458	2440
812.557	2814
812.657	7486
812.756	17014
812.855	15473
812.954	3145
813.053	1823
813.153	1270
813.252	1862
813.351	1718
813.450	2022
813.549	1179
813.648	1574
813.747	1942
813.846	2030
813.945	1204
814.044	936
814.143	2013
814.242	2219
814.341	2344
814.439	1967
814.538	1652
814.637	1986
814.736	1869
814.835	2515
814.933	1455
815.032	2557
815.131	2244
815.229	2967
815.328	3234
815.427	2313
815.525	2774
815.624	2966
815.722	2352
815.821	2760
815.919	3003
816.018	2827
816.116	2613
816.215	2924
816.313	3136
816.412	4017
816.510	3403
816.609	4298
816.707	3440
816.805	4118
816.904	4375
817.002	4649
817.100	4550
817.198	5800
817.296	6130
817.395	7256
817.493	8256
817.591	9131
817.689	9652
817.787	12616
817.885	17260
817.983	24684
818.081	38558
818.179	67895
818.277	136318
818.375	288707
818.473	471670
818.571	300478
818.669	119832
818.767	63098
818.865	44536
818.963	40209
819.061	41554
819.158	50565
819.256	74831
819.354	124755
819.452	233350
819.549	432214
819.647	540635
819.745	341415
819.842	161545
819.940	87448
820.038	52962
820.135	39594
820.233	29109
820.330	22753
820.428	18065
820.525	14823
820.623	12406
820.720	10340
820.818	10092
820.915	9364
821.012	7507
821.110	6713
821.207	5611
821.304	6331
821.402	5117
821.499	4939
821.596	5154
821.693	4627
821.791	4403
821.888	4003
821.985	3634
822.082	4137
822.179	5998
822.276	3887
822.373	3550
822.470	3643
822.567	3084
822.664	2816
822.761	2632
822.858	2699
822.955	2416
823.052	2390
823.149	1696
823.246	2013
823.343	2920
823.440	2106
823.536	1399
823.633	1728
823.730	2448
823.827	2380
823.923	1891
824.020	2375
824.117	1888
824.213	1656
824.310	1860
824.407	2381
824.503	1754
824.600	1117
824.696	1518
824.793	1756
824.889	1166
824.986	1499
825.082	1653
825.179	1246
825.275	1218
825.371	1189
825.468	1819
825.564	2460
825.660	1465
825.757	1676
825.853	1979
825.949	1475
826.045	1428
826.142	1153
826.238	935
826.334	1665
826.430	1436
826.526	899
826.622	1109
826.718	1423
826.814	1594
826.910	1456
827.006	1442
827.102	935
827.198	1554
827.294	1372
827.390	1444
827.486	1108
827.582	1282
827.678	550
827.774	1043
827.869	1145
827.965	1706
828.061	1110
828.157	557
828.252	1292
828.348	1031
828.444	1215
828.539	674
828.635	802
828.731	757
828.826	1361
828.922	72
829.017	745
829.113	1024
829.208	507
829.304	-57
829.399	1452
829.495	544
829.590	1162
829.685	495
829.781	1408
829.876	814
829.971	1291
830.066	107
830.162	911
830.257	629
830.352	1130
830.447	1526
830.543	562
830.638	121
830.733	1083
830.828	1039
830.923	677
831.018	363
831.113	1790
831.208	962
831.303	925
831.398	293
831.493	1158
831.588	100
831.683	1053
831.778	778
831.873	450
831.967	575
832.062	1178
832.157	274
832.252	1637
832.346	531
832.441	1081
832.536	666
832.631	1821
832.725	2322
832.820	4829
832.914	2210
833.009	806
833.104	521
833.198	2013
833.293	148
833.387	1704
833.482	656
833.576	1454
833.670	1046
833.765	1230
833.859	751
833.954	1090
834.048	497
834.142	1606
834.237	421
834.331	716
834.425	860
834.519	481
834.613	1416
834.708	696
834.802	516
834.896	151
834.990	590
835.084	1388
835.178	479
835.272	1311
835.366	-77
835.460	793
835.554	666
835.648	1530
835.742	379
835.836	704
835.930	268
836.024	544
836.117	944
836.211	1147
836.305	418
836.399	853
836.493	1225
836.586	1520
836.680	661
836.774	732
836.867	620
836.961	1191
837.055	629
837.148	384
837.242	225
837.335	939
837.429	1030
837.522	1096
837.616	46
837.709	785
837.803	1331
837.896	1906
837.989	419
838.083	1381
838.176	245
838.269	1277
838.363	1465
838.456	1221
838.549	839
838.642	682
838.735	2089
838.829	3635
838.922	4417
839.015	1704
839.108	582
839.201	918
839.294	107
839.387	1066
839.480	137
839.573	751
839.666	790
839.759	1385
839.852	1208
839.945	736
840.038	449
840.131	838
840.223	538
840.316	190
840.409	539
840.502	140
840.594	-15
840.687	275
840.780	147
840.873	286
840.965	382
841.058	873
841.150	142
841.243	1487
841.336	1476
841.428	820
841.521	524
841.613	622
841.706	179
841.798	326
841.890	314
841.983	836
842.075	531
842.167	154
842.260	699
842.352	1205
842.444	680
842.537	566
842.629	1096
842.721	2476
842.813	1890
842.905	935
842.997	266
843.090	66
843.182	257
843.274	827
843.366	1332
843.458	1780
843.550	4656
843.642	6970
843.734	3142
843.826	616
843.918	251
844.009	535
844.101	-56
844.193	526
844.285	-2
844.377	-226
844.469	147
844.560	871
844.652	750
844.744	1220
844.835	475
844.927	727
845.019	725
845.110	594
845.202	469
845.293	575
845.385	677
845.476	-103
845.568	160
845.659	786
845.751	13
845.842	188
845.934	250
846.025	107
846.116	363
846.208	393
846.299	226
846.390	908
846.482	932
846.573	673
846.664	69
846.755	953
846.846	675
846.937	2365
847.029	812
847.120	263
847.211	177
847.302	1210
847.393	284
847.484	692
847.575	-368
847.666	1135
847.757	305
847.847	356
847.938	1463
848.029	774
848.120	-194
848.211	-55
848.302	-148
848.392	429
848.483	-356
848.574	-77
848.664	-206
848.755	-51
848.846	-275
848.936	642
849.027	82
849.118	-68
849.208	-497
849.299	260
849.389	-50
849.480	665
849.570	1033
849.661	2465
849.751	2810
849.841	5228
849.932	6339
850.022	1553
850.112	747
850.203	-16
850.293	361
850.383	-73
850.474	404
850.564	139
850.654	-34
850.744	191
850.834	-427
850.924	1244
851.014	454
851.104	-141
851.194	-314
851.284	396
851.374	155
851.464	1476
851.554	496
851.644	723
851.734	816
851.824	705
851.914	-33
852.004	-73
852.094	-216
852.183	273
852.273	-213
852.363	448
852.452	-121
852.542	-222
852.632	310
852.721	935
852.811	-77
852.901	464
852.990	106
853.080	830
853.169	-235
853.259	-384
853.348	53
853.438	976
853.527	-71
853.617	290
853.706	467
853.795	1335
853.885	2761
853.974	4953
854.063	10354
854.152	18602
854.242	35769
854.331	43212
854.420	9915
854.509	3005
854.598	771
854.687	1202
854.777	312
854.866	106
854.955	-4
855.044	161
855.133	36
855.222	190
855.311	28
855.400	295
855.488	-152
855.577	-137
855.666	-26
855.755	176
855.844	384
855.933	276
856.021	-326
856.110	327
856.199	363
856.288	-544
856.376	256
856.465	568
856.554	-40
856.642	387
856.731	-266
856.819	1031
856.908	15
856.996	413
857.085	-223
857.173	-138
857.262	372
857.350	313
857.438	239
857.527	415
857.615	-298
857.703	544
857.792	714
857.880	534
857.968	-185
858.056	719
858.145	52
858.233	568
858.321	192
858.409	687
858.497	-47
858.585	221
858.673	45
858.761	121
858.849	-703
858.937	369
859.025	565
859.113	229
859.201	274
859.289	776
859.377	-2
859.465	613
859.552	-454
859.640	27
859.728	-564
859.816	610
859.903	-358
859.991	531
860.079	-181
860.166	741
860.254	-286
860.342	-57
860.429	-568
860.517	243
860.604	-473
860.692	438
860.779	331
860.867	-146
860.954	-301
861.042	288
861.129	-314
861.216	435
861.304	290
861.391	473
861.478	653
861.565	-241
861.653	128
861.740	276
861.827	228
861.914	661
862.001	-662
862.089	-115
862.176	212
862.263	280
862.350	414
862.437	-13
862.524	-177
862.611	34
862.698	-43
862.785	323
862.871	-168
862.958	-161
863.045	-53
863.132	-148
863.219	-347
863.306	-15
863.392	79
863.479	1193
863.566	516
863.652	191
863.739	-166
863.826	553
863.912	-909
863.999	-53
864.086	-56
864.172	0
864.259	144
864.345	477
864.432	376
864.518	906
864.604	5
864.691	1102
864.777	-147
864.863	406
864.950	-97
865.036	854
865.122	133
865.209	462
865.295	734
865.381	470
865.467	1158
865.553	1016
865.639	1046
865.726	1469
865.812	567
865.898	3123
865.984	5080
866.070	8617
866.156	13348
866.242	26273
866.328	18987
866.414	4048
866.499	965
866.585	506
866.671	404
866.757	415
866.843	1248
866.928	353
867.014	530
867.100	1149
867.186	-227
867.271	995
867.357	265
867.442	80
867.528	779
867.614	387
867.699	478
867.785	387
867.870	70
867.956	342
868.041	980
868.127	433
868.212	-113
868.297	1450
868.383	307
868.468	1365
868.553	1049
868.639	1310
868.724	1797
868.809	2309
868.894	6224
868.979	4099
869.065	1187
869.150	893
869.235	567
869.320	345
869.405	29
869.490	742
869.575	-287
869.660	444
869.745	-20
869.830	390
869.915	-538
870.000	1067
870.085	142
870.169	448
870.254	451
870.339	166
870.424	252
870.509	-89
870.593	511
870.678	376
870.763	-65
870.847	402
870.932	-157
871.016	249
871.101	315
871.186	646
871.270	-75
871.355	193
871.439	691
871.523	307
871.608	105
871.692	781
871.777	-301
871.861	577
871.945	55
872.030	122
872.114	-105
872.198	96
872.282	-441
872.367	74
872.451	-760
872.535	-112
872.619	-55
872.703	649
872.787	668
872.871	-142
872.955	-786
873.039	375
873.123	235
873.207	512
873.291	794
873.375	484
873.459	-771
873.543	192
873.627	-25
873.711	-150
873.794	-31
873.878	47
873.962	-157
874.045	-1
874.129	-150
874.137	-92
874.213	486
874.245	333
874.296	90
874.352	-351
874.380	-570
874.460	5
874.464	29
874.547	89
874.568	28
874.631	-174
874.676	153
874.714	456
874.784	-125
874.798	-256
874.881	741
874.892	550
874.965	-714
874.999	-295
875.048	273
875.107	261
875.131	257
875.215	555
875.215	555
875.298	57
875.323	111
875.381	238
875.430	107
875.465	50
875.538	-317
875.548	-371
875.631	-17
875.646	17
875.714	127
875.753	-6
875.798	-158
875.861	434
875.881	628
875.964	-289
875.968	-254
876.047	464
876.076	325
876.130	-62
876.183	-104
876.213	-31
876.291	383
876.296	396
876.379	547
876.398	558
876.462	685
876.506	474
876.545	249
876.613	0
876.628	-27
876.711	149
876.721	108
876.794	-398
876.828	-290
876.877	29
876.935	-172
876.960	-347
877.043	457
877.043	452
877.125	-270
877.150	-54
877.208	300
877.258	257
877.291	302
877.365	229
877.374	223
877.456	672
877.472	614
877.539	356
877.579	501
877.622	614
877.687	217
877.704	159
877.787	89
877.794	207
877.869	1044
877.901	526
877.952	-108
878.008	-95
878.034	-111
878.115	-207
878.117	-205
878.199	337
878.222	319
878.282	156
878.329	196
878.364	288
878.437	488
878.447	480
878.529	34
878.544	-18
878.611	188
878.651	633
878.694	872
878.758	80
878.776	-102
878.858	511
878.865	517
878.941	372
878.972	277
879.023	317
879.078	476
879.105	505
879.185	-24
879.187	-27
879.269	552
879.292	667
879.351	335
879.399	-311
879.433	-361
879.506	125
879.516	128
879.598	12
879.613	-7
879.680	161
879.720	382
879.762	413
879.827	-20
879.844	-10
879.926	-376
879.933	-284
880.007	210
880.040	71
880.089	-85
880.147	113
880.171	201
880.253	5
880.254	9
880.335	1094
880.360	1186
880.417	1620
880.467	2127
880.499	2571
880.574	3762
880.580	3867
880.662	7285
880.680	7200
880.744	5621
880.787	3303
880.825	1621
880.893	592
880.907	432
880.989	460
881.000	473
881.070	404
881.106	255
881.152	176
881.213	-0
881.233	-81
881.315	178
881.319	146
881.396	-53
881.426	93
881.478	98
881.532	-9
881.559	122
881.639	559
881.641	557
881.722	443
881.745	376
881.803	438
881.852	90
881.885	-88
881.958	569
881.966	633
882.047	761
882.064	790
882.129	674
882.171	463
882.210	456
882.277	513
882.291	544
882.372	1222
882.383	1268
882.454	1406
882.489	1209
882.535	712
882.596	170
882.616	158
882.697	132
882.702	164
882.778	372
882.808	176
882.859	43
882.914	366
882.940	515
883.020	497
883.021	497
883.102	97
883.127	42
883.183	392
883.233	680
883.264	782
883.339	960
883.345	929
883.426	66
883.445	-65
883.507	49
883.551	130
883.587	62
883.657	114
883.668	230
883.749	618
883.763	765
883.830	655
883.869	397
883.910	427
883.975	498
883.991	455
884.072	235
884.081	216
884.152	112
884.187	3
884.233	204
884.292	646
884.314	586
884.394	192
884.398	159
884.475	-280
884.504	-277
884.555	249
884.610	488
884.636	296
884.716	-13
884.716	-8
884.797	347
884.821	541
884.877	699
884.927	585
884.958	503
885.033	519
885.038	498
885.118	-147
885.139	-251
885.199	228
885.244	509
885.279	441
885.350	377
885.359	433
885.439	826
885.456	928
885.520	749
885.561	536
885.600	742
885.667	1344
885.680	1256
885.760	348
885.773	204
885.840	284
885.878	409
885.920	404
885.984	333
886.000	504
886.080	1254
886.089	1354
886.160	543
886.195	28
886.240	120
886.300	347
886.320	400
886.400	571
886.406	581
886.480	1139
886.511	1318
886.560	1087
886.616	1055
886.640	1119
886.720	754
886.722	748
886.800	779
886.827	750
886.879	501
886.932	372
886.959	501
887.038	620
887.039	625
887.119	1028
887.143	1007
887.198	737
887.248	674
887.278	742
887.354	750
887.358	742
887.437	538
887.459	495
887.517	699
887.564	846
887.596	534
887.669	-245
887.676	-205
887.755	411
887.774	500
887.835	341
887.880	364
887.914	626
887.985	991
887.994	898
888.073	68
888.090	-100
888.153	531
888.195	952
888.232	1132
888.300	1365
888.311	1293
888.391	858
888.405	762
888.470	338
888.510	93
888.549	234
888.615	415
888.628	426
888.708	521
888.720	527
888.787	1107
888.825	1464
888.866	917
888.930	-14
888.945	98
889.024	741
889.035	818
889.103	905
889.140	966
889.182	975
889.245	940
889.261	758
889.340	-122
889.349	-221
889.419	76
889.454	212
889.498	343
889.559	527
889.577	670
889.656	1296
889.664	1356
889.735	1058
889.768	913
889.814	1070
889.873	1272
889.978	403
890.083	1294
890.187	652
890.292	1376
890.397	677
890.501	949
890.606	916
890.710	987
890.815	792
890.919	593
891.024	796
891.128	1392
891.233	366
891.337	1435
891.442	1110
891.546	854
891.650	835
891.755	1092
891.859	240
891.963	800
892.068	453
892.172	1811
892.276	-45
892.380	1349
892.484	667
892.589	576
892.693	764
892.797	398
892.901	309
893.005	1087
893.109	690
893.213	454
893.317	1576
893.421	1255
893.525	-68
893.629	932
893.733	255
893.837	641
893.941	263
894.045	1335
894.148	1067
894.252	1164
894.356	254
894.460	1376
894.564	798
894.667	981
894.771	729
894.875	1770
894.978	768
895.082	904
895.186	444
895.289	1292
895.393	327
895.496	1658
895.600	534
895.703	1182
895.807	799
895.910	721
896.014	667
896.117	1140
896.221	162
896.324	1337
896.427	347
896.531	1802
896.634	348
896.737	1452
896.840	601
896.944	564
897.047	1252
897.150	931
897.253	266
897.356	1046
897.460	541
897.563	1025
897.666	420
897.769	795
897.872	915
897.975	1650
898.078	402
898.181	620
898.284	266
898.387	904
898.490	272
898.593	835
898.695	334
898.798	1561
898.901	472
899.004	982
899.107	56
899.209	1773
899.312	-151
899.415	1599
899.518	135
899.620	561
899.723	101
899.826	432
899.928	785
900.031	1505
900.133	869
900.236	587
900.338	430
900.441	944
900.543	1313
900.646	879
900.748	1157
900.851	1360
900.953	375
901.055	1312
901.158	158
901.260	1063
901.362	132
901.465	1070
901.567	290
901.669	1026
901.771	-43
901.873	465
901.976	1209
902.078	1244
902.180	321
902.282	823
902.384	974
902.486	197
902.588	26
902.690	722
902.792	1519
902.894	820
902.996	916
903.098	1622
903.200	653
903.302	1248
903.404	737
903.505	849
903.607	473
903.709	1265
903.811	1826
903.913	1183
904.014	834
904.116	892
904.218	466
904.319	1196
904.421	493
904.523	851
904.624	623
904.726	1031
904.827	192
904.929	241
905.030	713
905.132	1063
905.233	959
905.335	904
905.436	630
905.537	1453
905.639	776
905.740	1835
905.841	382
905.943	653
906.044	940
906.145	1185
906.247	198
906.348	809
906.449	1232
906.550	975
906.651	-42
906.752	1470
906.854	634
906.955	805
907.056	828
907.157	1191
907.258	463
907.359	1734
907.460	665
907.561	908
907.662	408
907.762	767
907.863	1023
907.964	1274
908.065	786
908.166	998
908.267	1598
908.367	846
908.468	58
908.569	1208
908.670	424
908.770	1170
908.871	108
908.971	1893
909.072	212
909.173	1146
909.273	375
909.374	518
909.474	-31
909.575	1379
909.675	267
909.776	1216
909.876	-39
909.977	1679
910.077	124
910.177	1313
910.278	480
910.378	956
910.478	-275
910.579	1147
910.679	1065
910.779	1021
910.879	925
910.980	-61
911.080	-5
911.180	1560
911.280	1157
911.380	319
911.480	571
911.580	767
911.680	1236
911.780	1331
911.880	494
911.980	448
912.080	291
912.180	1475
912.280	757
912.380	745
912.480	-40
912.580	1535
912.679	-83
912.779	964
912.879	564
912.979	911
913.078	-95
913.178	1211
913.278	235
913.377	882
913.477	1457
913.577	881
913.676	-62
913.776	637
913.875	142
913.975	1061
914.074	798
914.174	1601
914.273	27
914.373	1184
914.472	132
914.572	707
914.671	648
914.770	1449
914.870	1415
914.969	439
915.068	324
915.167	697
915.267	922
915.366	1350
915.465	271
915.564	954
915.663	879
915.763	643
915.862	31
915.961	479
916.060	602
916.159	408
916.258	524
916.357	510
916.456	1055
916.555	1209
916.654	266
916.752	1175
916.851	681
916.950	772
917.049	365
917.148	1330
917.247	698
917.345	1129
917.444	154
917.543	1163
917.642	61
917.740	1215
917.839	954
917.937	497
918.036	912
918.135	1427
918.233	602
918.332	906
918.430	-628
918.529	661
918.627	470
918.726	404
918.824	-113
918.923	991
919.021	867
919.119	383
919.218	353
919.316	1042
919.414	799
919.512	767
919.611	-47
919.709	850
919.807	-291
919.905	900
920.003	118
920.102	633
920.200	144
920.298	1232
920.396	1330
920.494	725
920.592	-50
920.690	852
920.788	251
920.886	1029
920.984	579
921.082	1096
921.180	210
921.277	1119
921.375	91
921.473	1092
921.571	751
921.669	1367
921.766	300
921.864	1790
921.962	925
922.060	1220
922.157	-261
922.255	861
922.352	627
922.450	1277
922.548	468
922.645	1652
922.743	-171
922.840	1631
922.938	1065
923.035	1836
923.133	1898
923.230	1686
923.327	462
923.425	1393
923.522	-10
923.619	1659
923.717	1095
923.814	2507
923.911	1323
924.008	1652
924.106	1185
924.203	2087
924.300	1114
924.397	1527
924.494	946
924.591	2153
924.688	1724
924.786	1800
924.883	979
924.979	1876
925.077	274
925.173	1226
925.270	840
925.367	804
925.464	891
925.561	2176
925.658	851
925.755	1746
925.852	545
925.948	1822
926.045	433
926.142	2048
926.239	1421
926.335	1423
926.432	923
926.529	1641
926.625	482
926.722	2282
926.818	1246
926.915	1249
927.011	705
927.108	1763
927.204	879
927.301	1738
927.397	1173
927.494	1373
927.590	470
927.687	1489
927.783	1102
927.879	2002
927.976	1008
928.072	2388
928.168	948
928.264	1350
928.361	1016
928.457	1667
928.553	986
928.649	1525
928.745	68
928.841	1866
928.937	1394
929.033	2004
929.129	1362
929.225	2030
929.321	785
929.417	1282
929.513	1179
929.609	1401
929.705	535
929.801	1835
929.897	366
929.993	1591
930.089	968
930.184	1313
930.280	341
930.376	1565
930.471	599
930.567	1108
930.663	765
930.758	792
930.854	1198
930.950	971
931.045	978
931.141	1215
931.236	807
931.332	1333
931.427	722
931.523	1293
931.618	760
931.714	843
931.809	968
931.905	1477
932.000	1328
932.095	1301
932.191	428
932.286	1698
932.381	699
932.476	1150
932.572	821
932.667	1104
932.762	911
932.857	1210
932.952	741
933.047	1611
933.142	1269
933.237	1178
933.332	1365
933.427	1550
933.522	1252
933.617	1457
933.712	666
933.807	1762
933.902	942
933.997	1422
934.092	852
934.187	794
934.282	1014
934.376	2231
934.471	499
934.566	1345
934.661	1022
934.755	1312
934.850	826
934.945	1218
935.039	592
935.134	1605
935.228	420
935.323	1448
935.417	1441
935.512	1296
935.606	893
935.701	751
935.795	777
935.890	1713
935.984	1776
936.079	1475
936.173	931
936.267	1659
936.362	613
936.456	1598
936.550	624
936.644	1322
936.738	372
936.833	1166
936.927	630
937.021	1377
937.115	631
937.209	1076
937.303	697
937.397	1507
937.491	617
937.585	879
937.679	1418
937.773	2209
937.867	926
937.961	1343
938.055	636
938.149	1859
938.243	869
938.337	1300
938.430	229
938.524	2072
938.618	770
938.712	1142
938.805	-67
938.899	1187
938.993	891
939.086	1566
939.180	750
939.274	1083
939.367	431
939.461	2217
939.554	1488
939.648	1363
939.741	832
939.835	1275
939.928	1350
940.022	1816
940.115	1512
940.208	680
940.302	869
940.395	867
940.488	1177
940.582	1474
940.675	801
940.768	1048
940.861	298
940.954	1698
941.048	1080
941.141	956
941.234	-90
941.327	883
941.420	1294
941.513	1174
941.606	1020
941.699	1055
941.792	342
941.885	1092
941.978	1318
942.071	2015
942.164	566
942.257	1207
942.349	608
942.442	882
942.535	482
942.628	1062
942.721	695
942.813	1526
942.906	193
942.999	1096
943.091	1475
943.184	1805
943.277	649
943.369	1632
943.462	1007
943.554	1871
943.647	698
943.739	1000
943.832	369
943.924	1445
944.017	882
944.109	704
944.201	1011
944.294	1352
944.386	808
944.478	1315
944.571	800
944.663	1865
944.755	746
944.847	1337
944.940	826
945.032	1398
945.124	346
945.216	1279
945.308	558
945.400	1076
945.492	965
945.584	1281
945.676	1461
945.768	1316
945.860	899
945.952	1654
946.044	1179
946.136	1234
946.228	1133
946.320	871
946.412	299
946.503	939
946.595	255
946.687	1280
946.779	124
946.870	1700
946.962	1298
947.054	1183
947.145	1622
947.237	1542
947.329	455
947.420	1123
947.512	601
947.603	1280
947.695	600
947.786	1224
947.878	1249
947.969	440
948.061	732
948.152	1640
948.243	376
948.335	1407
948.426	1042
948.517	1325
948.609	169
948.700	1356
948.791	920
948.882	542
948.973	45
949.065	778
949.156	751
949.247	1445
949.338	1401
949.429	1024
949.520	1232
949.611	840
949.702	370
949.793	1252
949.884	1004
949.975	1341
950.066	779
950.157	764
950.247	727
950.338	1046
950.429	141
950.520	1142
950.611	653
950.701	645
950.792	592
950.883	1230
950.973	608
951.064	1373
951.155	66
951.245	1703
951.336	466
951.427	642
951.517	540
951.608	1388
951.698	595
951.788	1155
951.879	1027
951.969	1110
952.060	640
952.150	1375
952.240	911
952.331	166
952.421	840
952.511	1296
952.602	1030
952.692	411
952.782	327
952.872	784
952.962	820
953.052	1672
953.143	399
953.233	1644
953.323	220
953.413	931
953.503	824
953.593	879
953.683	1370
953.773	1576
953.863	778
953.953	754
954.042	-314
954.132	859
954.222	272
954.312	425
954.402	218
954.492	614
954.581	717
954.671	1632
954.761	-144
954.850	607
954.940	-400
955.030	526
955.119	242
955.209	1295
955.298	389
955.388	1279
955.477	1333
955.567	694
955.656	80
955.746	761
955.835	1090
955.925	1061
956.014	-59
956.103	330
956.193	531
956.282	1094
956.371	6
956.461	1487
956.550	579
956.639	365
956.728	-145
956.817	1271
956.906	-767
956.995	1209
957.085	394
957.174	1234
957.263	626
957.352	698
957.441	597
957.530	808
957.619	358
957.708	1169
957.796	427
957.885	2078
957.974	355
958.063	183
958.152	719
958.241	136
958.329	-21
958.418	1165
958.507	32
958.596	1284
958.684	1295
958.773	735
958.861	27
958.950	429
959.039	198
959.127	566
959.216	992
959.304	1699
959.393	620
959.481	593
959.570	393
959.658	275
959.746	-136
959.835	89
959.923	679
960.011	1449
960.100	1264
960.188	1374
960.276	-87
960.365	677
960.453	-233
960.541	860
960.629	925
960.717	676
960.805	512
960.893	553
960.981	736
961.069	582
961.158	484
961.245	1036
961.333	343
961.421	562
961.509	835
961.597	618
961.685	42
961.773	1025
961.861	-251
961.949	1146
962.036	866
962.124	958
962.212	1003
962.299	710
962.387	160
962.475	432
962.562	207
962.650	1706
962.738	649
962.825	643
962.913	273
963.000	295
963.088	82
963.175	1443
963.263	648
963.350	451
963.438	120
963.525	1152
963.612	667
963.700	601
963.787	1356
963.874	2899
963.962	1644
964.049	870
964.136	-40
964.223	-411
964.310	259
964.398	1018
964.485	-158
964.572	953
964.659	86
964.746	1191
964.833	956
964.920	1423
965.007	286
965.094	599
965.181	172
965.268	896
965.355	230
965.441	1139
965.528	667
965.615	500
965.702	317
965.789	887
965.875	692
965.962	789
966.049	340
966.136	404
966.222	-66
966.309	1465
966.395	1144
966.482	967
966.569	-265
966.655	456
966.742	144
966.828	472
966.915	24
967.001	976
967.087	248
967.174	641
967.260	346
967.347	1444
967.433	368
967.519	1079
967.605	1327
967.692	1497
967.778	385
967.864	-109
967.950	340
968.036	487
968.123	868
968.209	466
968.295	-529
968.381	1042
968.467	133
968.553	215
968.639	-46
968.725	290
968.811	355
968.897	905
968.983	25
969.069	284
969.154	173
969.240	661
969.326	592
969.412	298
969.497	-398
969.583	964
969.669	-823
969.755	1163
969.840	-160
969.926	1263
970.012	-38
970.097	599
970.183	-661
970.268	1047
970.354	228
970.439	333
970.525	-69
970.610	1436
970.696	457
970.781	672
970.866	204
970.952	-192
971.037	-797
971.122	881
971.208	-147
971.293	328
971.378	522
971.463	-427
971.549	236
971.634	212
971.719	1109
971.804	661
971.889	-668
971.974	902
972.059	-565
972.144	444
972.229	-724
972.314	101
972.399	779
972.484	933
972.569	565
972.654	544
972.739	-199
972.824	658
972.908	1134
972.993	-206
973.078	196
973.163	492
973.247	-380
973.332	1041
973.417	183
973.501	53
973.586	213
973.671	1060
973.755	-489
973.840	966
973.924	209
974.009	457
974.093	-531
974.178	833
974.262	242
974.346	1466
974.431	225
974.515	1340
974.600	-345
974.684	122
974.768	707
974.852	1594
974.937	533
975.021	315
975.105	-567
975.189	122
975.273	-104
975.358	1230
975.442	-421
975.526	478
975.610	-605
975.694	294
975.778	372
975.862	831
975.946	16
976.030	583
976.114	-304
976.198	272
976.281	337
976.365	571
976.449	74
976.533	1186
976.617	256
976.700	382
976.784	-420
976.868	131
976.951	-144
977.035	-132
977.119	350
977.202	1484
977.286	-738
977.369	461
977.453	140
977.536	-194
977.620	-327
977.703	-57
977.787	-375
977.870	1296
977.953	182
978.037	1127
978.120	45
978.203	78
978.287	-479
978.370	216
978.453	160
978.536	91
978.620	1107
978.703	650
978.786	279
978.869	-127
978.952	-1130
979.035	585
979.118	665
979.201	332
979.284	-167
979.367	1245
979.450	-493
979.533	330
979.616	-290
979.699	-92
979.782	272
979.865	203
979.948	192
980.030	-299
980.113	-1091
980.196	922
980.279	-385
980.361	753
980.444	-52
980.526	597
980.609	225
980.692	499
980.774	-467
980.857	-25
980.939	437
981.022	723
981.104	-399
981.187	-107
981.269	-80
981.352	18
981.434	-478
981.516	640
981.599	-367
981.681	6
981.763	-557
981.846	-60
981.928	-399
982.010	109
982.092	143
982.174	909
982.256	-79
982.339	287
982.421	-423
982.503	-168
982.585	-313
982.667	13
982.749	471
982.831	367
982.913	-1187
982.995	1
983.077	-754
983.158	18
983.240	10
983.322	-43
983.404	26
983.486	21
983.568	96
983.649	-804
983.731	-552
983.813	499
983.894	-390
983.976	521
984.058	-497
984.139	701
984.221	-143
984.302	320
984.384	-787
984.465	-501
984.547	-798
984.628	227
984.710	-303
984.791	-53
984.872	-292
984.954	108
985.035	-598
985.116	-310
985.198	-665
985.279	290
985.360	-382
985.441	-187
985.522	-686
985.604	-168
985.685	-1217
985.766	-408
985.847	-507
985.928	-160
986.009	-591
986.090	16
986.171	503
986.252	181
986.333	-741
986.414	31
986.495	627
986.576	210
986.656	-78
986.737	-248
986.818	196
986.899	-799
986.980	-1010
987.060	169
987.141	-237
987.222	-711
987.302	-161
987.383	129
987.464	-313
987.544	217
987.625	-186
987.705	738
987.786	-594
987.866	428
987.947	-44
988.027	-403
988.108	-1204
988.188	171
988.268	493
988.349	546
988.429	-660
988.509	416
988.589	-405
988.670	-644
988.750	-249
988.830	436
988.910	-467
988.990	806
989.070	-753
989.151	503
989.231	-877
989.311	-491
989.391	-646
989.471	-378
989.551	-968
989.631	161
989.711	-1013
989.791	-76
989.870	-1417
989.950	314
990.030	149
990.110	-447
990.190	-388
990.269	12
990.349	-742
990.429	-39
990.509	-94
990.588	-436
990.668	-136
990.747	-182
990.827	-814
990.907	-241
990.986	-754
991.066	463
991.145	-836
991.225	-782
991.304	-1008
991.383	-360
991.463	-518
991.542	-499
991.622	-1051
991.701	348
991.780	-844
991.859	253
991.939	-1521
992.018	-772
992.097	-1398
992.176	-250
992.256	-495
992.335	-455
992.414	-1000
992.493	-561
992.572	-825
992.651	790
992.730	-787
992.809	-28
992.888	-1288
992.967	215
993.046	-460
993.125	-39
993.203	-599
993.282	-376
993.361	-362
993.440	-713
993.519	-1240
993.597	-325
993.676	-476
993.755	-431
993.834	-946
993.912	98
993.991	-938
994.069	-798
994.148	-1011
994.226	159
994.305	-909
994.384	-543
994.462	149
994.540	-424
994.619	-607
994.697	-67
994.776	-641
994.854	-498
994.932	-761
995.011	-889
995.089	-794
995.167	-1303
995.245	-719
995.324	-474
995.402	-1810
995.480	-890
995.558	-1712
995.636	129
995.714	-1530
995.792	-429
995.870	-1516
995.948	-1032
996.026	-1544
996.104	-79
996.182	-1565
996.260	-722
996.338	-751
996.416	749
996.494	-1046
996.572	-352
996.649	-893
996.727	-1069
996.805	-521
996.883	-123
996.960	-1203
997.038	-677
997.116	-1600
997.193	-776
997.271	-949
997.348	-310
997.426	-1087
997.504	-1082
997.581	-694
997.658	-701
997.736	-1416
997.813	-722
997.891	-832
997.968	-1033
998.046	-1003
998.123	-569
998.200	-659
998.277	-632
998.355	-745
998.432	-370
998.509	-904
998.586	-187
998.663	-1299
998.741	-415
998.818	-1492
998.895	-362
998.972	-1179
999.049	-923
999.126	-430
999.203	-362
999.280	-1397
999.357	-923
999.434	-1137
999.511	595
999.587	-1078
999.664	-724
999.741	-850
999.818	-1174
999.895	-2027
999.971	-916
1000.048	-767
1000.125	-506
1000.202	-1539
1000.278	-539
1000.355	-814
1000.431	-212
1000.508	-852
1000.584	-562
1000.661	-1367
1000.738	-18
1000.814	-1467
1000.890	-4
1000.967	-1493
1001.043	-662
1001.120	-660
1001.196	-299
1001.272	-1348
1001.349	-580
1001.425	-654
1001.501	-485
1001.577	-1284
1001.654	-589
1001.730	-1322
1001.806	-276
1001.882	-1686
1001.958	367
1002.034	-921
1002.110	-160
1002.186	-1444
1002.262	-19
1002.338	-644
1002.414	-39
1002.490	-676
1002.566	-308
1002.642	-1552
1002.718	-532
1002.794	-915
1002.870	-757
1002.945	-1011
1003.021	-115
1003.097	-1182
1003.173	12
1003.248	-1277
1003.324	-370
1003.400	-530
1003.475	-421
1003.551	-912
1003.626	-866
1003.702	-1102
1003.777	-1215
1003.853	-1744
1003.928	-675
1004.004	-1023
1004.079	-922
1004.155	-1220
1004.230	-1359
1004.305	-946
1004.381	-55
1004.456	-1356
1004.531	192
1004.607	-1156
1004.682	-469
1004.757	-690
1004.832	-318
1004.907	-1199
1004.982	-317
1005.057	-1289
1005.133	-377
1005.208	-1495
1005.283	-303
1005.358	-978
1005.433	294
1005.508	-1131
1005.583	-738
1005.657	-1039
1005.732	263
1005.807	-1224
1005.882	-185
1005.957	-781
1006.032	140
1006.106	-1024
1006.181	-555
1006.256	-1188
1006.331	-554
1006.405	-1311
1006.480	-61
1006.554	-1385
1006.629	-548
1006.704	-862
1006.778	-831
1006.853	-879
1006.927	-301
1007.002	-1432
1007.076	-702
1007.150	-1771
1007.225	-443
1007.299	-1242
1007.373	79
1007.448	-1101
1007.522	-97
1007.596	-933
1007.671	-889
1007.745	-610
1007.819	-809
1007.893	-441
1007.967	-333
1008.041	-1691
1008.115	476
1008.190	-934
1008.264	-386
1008.338	-916
1008.412	-425
1008.486	-1740
1008.560	-632
1008.633	-820
1008.707	-854
1008.781	-493
1008.855	-10
1008.929	-1725
1009.003	-577
1009.076	-1161
1009.150	-620
1009.224	-1357
1009.298	-829
1009.371	-1736
1009.445	-349
1009.519	-809
1009.592	-1118
1009.666	-991
1009.739	-1072
1009.813	-1524
1009.886	-552
1009.960	-1277
1010.033	-458
1010.107	-489
1010.180	-573
1010.253	-976
1010.327	-1239
1010.400	-964
1010.473	-649
1010.547	-636
1010.620	-839
1010.693	-1518
1010.766	-938
1010.840	-1477
1010.913	-723
1010.986	-1271
1011.059	-351
1011.132	-1481
1011.205	-651
1011.278	-957
1011.351	-370
1011.424	-1205
1011.497	-514
1011.570	-800
1011.643	-267
1011.716	-1478
1011.789	39
1011.862	-1481
1011.934	-1175
1012.007	-1306
1012.080	-890
1012.153	-1518
1012.225	90
1012.298	-1006
1012.371	-571
1012.443	-1621
1012.516	-760
1012.588	-1772
1012.661	-521
1012.733	-1791
1012.806	-1563
1012.879	-1075
1012.951	-490
1013.023	-1155
1013.096	-156
1013.168	-1071
1013.241	-591
1013.313	-749
1013.385	-1212
1013.458	-457
1013.530	-642
1013.602	-1226
1013.674	-750
1013.746	-894
1013.819	-1131
1013.891	-1449
1013.963	-1044
1014.035	-1374
1014.107	-503
1014.179	-642
1014.251	-549
1014.323	-824
1014.395	4
1014.467	-981
1014.539	-894
1014.611	-1769
1014.683	-840
1014.754	-1346
1014.826	-173
1014.898	-1708
1014.970	-660
1015.042	-1087
1015.113	-1020
1015.185	-955
1015.257	-432
1015.328	-431
1015.400	-956
1015.471	-1552
1015.543	-1527
1015.615	-996
1015.686	-753
1015.757	-1205
1015.829	-1316
1015.901	-1226
1015.972	-1031
1016.043	-1945
1016.115	115
1016.186	-1512
1016.257	-1226
1016.328	-1331
1016.400	-763
1016.471	-1033
1016.542	-1031
1016.613	-1611
1016.685	-965
1016.756	-994
1016.827	-944
1016.898	-1580
1016.969	482
1017.040	-1725
1017.111	-787
1017.182	-1039
1017.253	-978
1017.324	-1625
1017.395	-1273
1017.466	-1462
1017.537	-79
1017.608	-1368
1017.678	-774
1017.749	-1174
1017.820	-824
1017.891	-1095
1017.961	-1648
1018.032	-690
1018.103	-659
1018.173	-1185
1018.244	-867
1018.315	-1084
1018.385	-256
1018.456	-1426
1018.526	-1441
1018.597	-2092
1018.667	-496
1018.738	-2130
1018.808	-330
1018.878	-2007
1018.949	-1117
1019.019	-1581
1019.089	-811
1019.160	-1550
1019.230	-655
1019.300	-1318
1019.371	-1109
1019.441	-1230
1019.511	-369
1019.581	-1499
1019.651	-1183
1019.721	-944
1019.791	-984
1019.861	-1148
1019.931	-742
1020.001	-1058
1020.071	-854
1020.141	-2141
1020.211	-803
1020.281	-1386
1020.351	-185
1020.421	-1646
1020.491	-990
1020.560	-846
1020.630	-905
1020.700	-1376
1020.770	-437
1020.839	-1340
1020.909	-760
1020.979	-1574
1021.048	-1646
1021.118	-1301
1021.187	-522
1021.257	-2030
1021.326	-802
1021.396	-1700
1021.465	-251
1021.535	-1485
1021.604	-839
1021.674	-1396
1021.743	-346
1021.812	-1041
1021.882	-1107
1021.951	-1872
1022.020	-945
1022.089	-1116
1022.159	-386
1022.228	-487
1022.297	-1250
1022.366	-1602
1022.435	-955
1022.504	-1710
1022.573	-1393
1022.642	-1690
1022.711	-623
1022.781	-1225
1022.849	-562
1022.918	-2611
1022.987	-2014
1023.056	-1596
1023.125	-1052
1023.194	-1644
1023.263	-842
1023.331	-1433
1023.400	-1328
1023.469	-1171
1023.538	-767
1023.606	-1170
1023.675	-1049
1023.744	-1705
1023.812	-1231
1023.881	-1591
1023.949	-1033
1024.018	-1789
1024.086	-650
1024.155	-1654
1024.223	-1830
1024.292	-1695
1024.360	-1197
1024.429	-1855
1024.497	-930
1024.565	-1575
1024.634	-706
1024.702	-963
1024.770	-1277
1024.838	-1704
1024.907	-885
1024.975	-1388
1025.043	-1047
1025.111	-1949
1025.179	-533
1025.247	-1137
1025.315	-194
1025.383	-1133
1025.451	-811
1025.519	-2243
1025.587	-632
1025.655	-1366
1025.723	-1466
1025.791	-768
1025.859	-1120
1025.927	-2194
1025.995	-622
1026.062	-1435
1026.130	-1042
1026.198	-1738
1026.266	-1049
1026.333	-1399
1026.401	-853
1026.469	-1354
1026.536	-1178
1026.604	-1553
1026.671	-1132
1026.739	-1561
1026.806	-694
1026.874	-1543
1026.941	-1329
1027.009	-520
1027.076	-1276
1027.144	-1332
1027.211	-1178
1027.278	-1325
1027.345	-757
1027.413	-1621
1027.480	-473
1027.547	-1958
1027.614	-1093
1027.682	-1501
1027.749	-1003
1027.816	-952
1027.883	-1080
1027.950	-1552
1028.017	-1208
1028.084	-1475
1028.151	-1447
1028.218	-1072
1028.285	-982
1028.352	-1240
1028.419	-1305
1028.486	-2217
1028.553	-596
1028.619	-1740
1028.686	-1513
1028.753	-1290
1028.820	-340
1028.886	-1506
1028.953	-489
1029.020	-2178
1029.086	-1085
1029.153	-2555
1029.220	-874
1029.286	-2022
1029.353	-1620
1029.419	-1120
1029.486	-1483
1029.552	-1718
1029.619	-1510
1029.685	-2501
1029.751	-622
1029.818	-826
1029.884	-1388
1029.951	-1532
1030.017	-1443
1030.083	-1542
1030.149	-849
1030.216	-1483
1030.282	-751
1030.348	-2256
1030.414	-1972
1030.480	-2373
1030.546	-800
1030.612	-1147
1030.678	-1775
1030.744	-1878
1030.810	-1228
1030.876	-2531
1030.942	-1176
1031.008	-1515
1031.074	-965
1031.140	-1695
1031.206	-1355
1031.272	-1033
1031.337	-718
1031.403	-2283
1031.469	-624
1031.534	-1515
1031.600	-2260
1031.666	-1535
1031.731	-1428
1031.797	-2154
1031.863	-1468
1031.928	-2435
1031.994	-1079
1032.059	-2482
1032.125	-1007
1032.190	-1681
1032.256	-966
1032.321	-1513
1032.386	-677
1032.452	-1738
1032.517	-1227
1032.582	-2204
1032.647	-1155
1032.713	-1641
1032.778	-1700
1032.843	-863
1032.908	-978
1032.974	-1662
1033.039	-1638
1033.104	-1864
1033.169	-1744
1033.234	-2261
1033.299	-1614
1033.364	-1394
1033.429	-1660
1033.494	-1423
1033.559	-853
1033.624	-1485
1033.688	-883
1033.753	-2309
1033.818	-2397
1033.883	-1847
1033.948	-1033
1034.013	-2236
1034.077	-1022
1034.142	-2089
1034.207	-1391
1034.271	-1705
1034.336	-1530
1034.400	-1685
1034.465	-880
1034.530	-1735
1034.594	-869
1034.658	-1526
1034.723	-1335
1034.787	-1853
1034.852	-1694
1034.916	-1480
1034.981	-1096
1035.045	-2390
1035.109	-961
1035.173	-1839
1035.238	-1295
1035.302	-2485
1035.366	-1095
1035.430	-1920
1035.495	-2322
1035.559	-2307
1035.623	-2124
1035.687	-2592
1035.751	-1178
1035.815	-1997
1035.879	-1294
1035.943	-1794
1036.007	-1539
1036.071	-1597
1036.135	-1209
1036.198	-1771
1036.262	-1999
1036.326	-2122
1036.390	-1464
1036.454	-1567
1036.517	-314
1036.581	-2340
1036.645	-1282
1036.709	-1973
1036.772	-751
1036.836	-1246
1036.900	-1652
1036.963	-1833
1037.026	-1813
1037.090	-2421
1037.154	-1338
1037.217	-2474
1037.280	-1595
1037.344	-1863
1037.407	-753
1037.471	-1748
1037.534	-1074
1037.597	-1347
1037.661	-1879
1037.724	-1938
1037.787	-2162
1037.850	-1581
1037.913	-1551
1037.977	-1361
1038.040	-1532
1038.103	-2372
1038.166	-1238
1038.229	-1989
1038.292	-1356
1038.355	-1757
1038.418	-2182
1038.481	-1952
1038.544	-1816
1038.607	-1774
1038.670	-1817
1038.732	-1444
1038.795	-1216
1038.858	-2072
1038.921	-508
1038.984	-2015
1039.046	-1240
1039.109	-1653
1039.172	-1726
1039.234	-2083
1039.297	-1398
1039.360	-2068
1039.422	-1430
1039.485	-2384
1039.547	-2028
1039.610	-2624
1039.672	-1563
1039.734	-1436
1039.797	-1498
1039.859	-2197
1039.922	-1696
1039.984	-2413
1040.046	-1212
1040.109	-2491
1040.171	-1451
1040.233	-2406
1040.295	-2193
1040.358	-1882
1040.420	-1155
1040.482	-2532
1040.544	-1532
1040.606	-2452
1040.668	-1070
1040.730	-2419
1040.792	-1530
1040.854	-2585
1040.916	-1481
1040.978	-2251
1041.040	-952
1041.102	-2309
1041.164	-1477
1041.225	-1365
1041.287	-1605
1041.349	-2058
1041.411	-1678
1041.472	-2062
1041.534	-1223
1041.596	-1823
1041.657	-493
1041.719	-1658
1041.781	-1696
1041.842	-2572
1041.904	-2517
1041.965	-2198
1042.027	-963
1042.088	-2226
1042.150	-1893
1042.211	-2268
1042.272	-1229
1042.334	-1420
1042.395	-828
1042.456	-1889
1042.518	-2319
1042.579	-1842
1042.640	-2331
1042.701	-1572
1042.763	-1382
1042.824	-1452
1042.885	-1616
1042.946	-2510
1043.007	-1450
1043.068	-1950
1043.129	-1220
1043.190	-2506
1043.251	-1756
1043.312	-2351
1043.373	-1854
1043.434	-1444
1043.495	-1510
1043.556	-1814
1043.616	-1630
1043.677	-1846
1043.738	-883
1043.799	-1421
1043.859	-1992
1043.920	-2339
1043.981	-1789
1044.041	-2092
1044.102	-1647
1044.162	-1608
1044.223	-1197
1044.284	-1613
1044.344	-1251
1044.405	-2387
1044.465	-1665
1044.525	-2307
1044.586	-1385
1044.646	-2378
1044.707	-1161
1044.767	-2185
1044.827	-1106
1044.887	-1653
1044.948	-1589
1045.008	-1345
1045.068	-1734
1045.128	-1820
1045.188	-1929
1045.249	-2075
1045.309	-1773
1045.369	-2607
1045.429	-1125
1045.489	-2212
1045.549	-1036
1045.609	-1983
1045.669	-1392
1045.729	-2059
1045.789	-1507
1045.848	-1443
1045.908	-1047
1045.968	-1388
1046.028	-1413
1046.088	-2181
1046.147	-1531
1046.207	-1777
1046.267	-1519
1046.326	-1544
1046.386	-1272
1046.446	-1782
1046.505	-1285
1046.565	-1614
1046.624	-1234
1046.684	-781
1046.743	-1083
1046.803	-1012
1046.862	-280
1046.922	0
