'Start Wavelength	183.907
'End Wavelength	1046.922
'Gate Delay	5.000
'Gate Width (ms)	1.050
'Laser Output Level	0.000
'X Position	0.000
'Y Position	0.000
'Z Position	0.000
'Grid Point Number	1.000
'Shot Number	100.000
183.907	296.000
183.977	193.000
184.047	155
184.116	-299
184.186	561
184.256	166
184.325	-341
184.395	-67
184.465	-397
184.534	42
184.604	34
184.674	-72
184.743	-22
184.813	322
184.883	441
184.952	381
185.022	164
185.092	499
185.161	360
185.231	223
185.301	285
185.370	72
185.440	23
185.509	452
185.579	-16
185.649	520
185.718	734
185.788	508
185.857	-166
185.927	161
185.996	539
186.066	-162
186.136	-521
186.205	266
186.275	-220
186.344	-29
186.414	107
186.483	302
186.553	420
186.622	635
186.692	97
186.761	60
186.831	14
186.900	611
186.970	-108
187.039	-136
187.109	-116
187.178	266
187.248	164
187.317	-165
187.387	124
187.456	-16
187.526	165
187.595	413
187.664	654
187.734	1418
187.803	302
187.873	719
187.942	-265
188.012	85
188.081	273
188.150	125
188.220	1019
188.289	319
188.358	415
188.428	99
188.497	214
188.567	-31
188.636	873
188.705	105
188.775	468
188.844	312
188.913	360
188.983	41
189.052	70
189.121	382
189.191	418
189.260	382
189.329	-209
189.399	266
189.468	-3
189.537	268
189.606	494
189.676	-169
189.745	-306
189.814	339
189.883	-162
189.953	127
190.022	297
190.091	879
190.161	630
190.230	508
190.299	-213
190.368	220
190.437	-101
190.507	420
190.576	358
190.645	-235
190.714	423
190.783	-25
190.853	55
190.922	585
190.991	817
191.060	168
191.129	-66
191.198	35
191.268	-20
191.337	1026
191.406	433
191.475	-224
191.544	-76
191.613	-266
191.682	427
191.752	-70
191.821	130
191.890	317
191.959	375
192.028	584
192.097	1448
192.166	613
192.235	317
192.304	216
192.373	280
192.442	71
192.511	-200
192.580	600
192.650	465
192.719	67
192.788	514
192.857	489
192.926	376
192.995	311
193.064	518
193.133	828
193.202	1117
193.271	387
193.340	88
193.409	411
193.478	389
193.547	1351
193.615	711
193.684	1183
193.753	467
193.822	371
193.891	-89
193.960	341
194.029	354
194.098	841
194.167	-98
194.236	320
194.305	1008
194.374	417
194.443	321
194.512	532
194.580	-57
194.649	593
194.718	530
194.787	514
194.856	904
194.925	-87
194.994	578
195.062	828
195.131	332
195.200	-109
195.269	566
195.338	207
195.407	190
195.475	765
195.544	321
195.613	75
195.682	243
195.751	813
195.819	67
195.888	-46
195.957	297
196.026	93
196.094	316
196.163	133
196.232	226
196.301	-626
196.369	3
196.438	106
196.507	766
196.576	343
196.644	31
196.713	518
196.782	-30
196.850	606
196.919	307
196.988	1548
197.056	-48
197.125	522
197.194	-54
197.262	363
197.331	332
197.400	480
197.468	56
197.537	665
197.606	1010
197.674	1119
197.743	695
197.812	473
197.880	964
197.949	791
198.017	688
198.086	723
198.155	751
198.223	757
198.292	1227
198.360	1002
198.429	415
198.497	937
198.566	1176
198.635	190
198.703	506
198.772	870
198.840	1654
198.909	-19
198.977	525
199.046	-554
199.114	1008
199.183	594
199.251	114
199.320	644
199.388	135
199.457	-69
199.525	409
199.594	-308
199.662	28
199.731	488
199.799	410
199.867	452
199.936	120
200.004	395
200.073	156
200.141	-230
200.210	461
200.278	-419
200.346	386
200.415	654
200.483	203
200.552	-235
200.620	457
200.688	842
200.757	192
200.825	517
200.893	-137
200.962	446
201.030	461
201.098	470
201.167	175
201.235	234
201.303	672
201.372	377
201.440	742
201.508	182
201.577	270
201.645	309
201.713	-66
201.781	566
201.850	410
201.918	1126
201.986	368
202.055	788
202.123	423
202.191	170
202.259	575
202.327	235
202.396	-221
202.464	827
202.532	986
202.600	1804
202.669	571
202.737	498
202.805	88
202.873	205
202.941	552
203.009	3
203.078	459
203.146	114
203.214	64
203.282	105
203.350	-333
203.418	-87
203.487	-146
203.555	171
203.623	15
203.691	111
203.759	241
203.827	613
203.895	779
203.963	-51
204.031	115
204.099	530
204.168	562
204.236	145
204.304	654
204.372	383
204.440	-146
204.508	70
204.576	-136
204.644	655
204.712	529
204.780	701
204.848	699
204.916	580
204.984	579
205.052	419
205.120	156
205.188	46
205.256	160
205.324	107
205.392	634
205.460	621
205.528	360
205.596	182
205.664	93
205.732	575
205.799	1974
205.867	1432
205.935	627
206.003	553
206.071	421
206.139	168
206.207	901
206.275	-328
206.343	-38
206.411	542
206.478	770
206.546	879
206.614	1142
206.682	582
206.750	-71
206.818	1072
206.885	406
206.953	-138
207.021	743
207.089	1405
207.157	-236
207.225	220
207.292	724
207.360	148
207.428	286
207.496	764
207.563	43
207.631	546
207.699	324
207.767	32
207.834	386
207.902	818
207.970	408
208.038	38
208.105	1016
208.173	245
208.241	270
208.309	111
208.376	1084
208.444	1604
208.512	377
208.579	894
208.647	860
208.715	704
208.782	857
208.850	1017
208.918	1058
208.985	1091
209.053	673
209.120	897
209.188	866
209.256	66
209.323	1070
209.391	1047
209.459	498
209.526	515
209.594	364
209.661	450
209.729	-70
209.796	282
209.864	417
209.932	553
209.999	464
210.067	501
210.134	-210
210.202	706
210.269	937
210.337	1082
210.404	-154
210.472	465
210.539	538
210.607	736
210.674	1121
210.742	828
210.809	1263
210.877	644
210.944	1502
211.012	882
211.079	715
211.146	1111
211.214	1329
211.281	1497
211.349	1301
211.416	1238
211.484	326
211.551	771
211.618	847
211.686	999
211.753	562
211.821	681
211.888	908
211.955	859
212.023	748
212.090	999
212.157	724
212.225	871
212.292	1571
212.359	4066
212.427	4906
212.494	1530
212.561	631
212.629	542
212.696	1167
212.763	799
212.831	586
212.898	900
212.965	461
213.032	343
213.100	831
213.167	1338
213.234	1227
213.301	1059
213.369	655
213.436	1154
213.503	1495
213.570	930
213.638	555
213.705	828
213.772	222
213.839	1335
213.906	767
213.973	886
214.041	-47
214.108	1585
214.175	809
214.242	207
214.309	494
214.376	1120
214.444	752
214.511	1490
214.578	523
214.645	354
214.712	1060
214.779	1033
214.846	1089
214.913	1566
214.980	634
215.048	1700
215.115	1159
215.182	1872
215.249	1160
215.316	1139
215.383	523
215.450	1087
215.517	436
215.584	917
215.651	-159
215.718	651
215.785	687
215.852	1066
215.919	1583
215.986	995
216.053	771
216.120	1037
216.187	1072
216.254	931
216.321	931
216.388	941
216.455	1271
216.522	1696
216.589	1233
216.656	1985
216.722	950
216.789	1557
216.856	2097
216.923	2186
216.990	1683
217.057	1127
217.124	2092
217.191	1322
217.258	2314
217.324	3438
217.391	2386
217.458	1473
217.525	1873
217.592	1307
217.659	1191
217.725	1327
217.792	1758
217.859	1018
217.926	820
217.993	592
218.059	1368
218.126	451
218.193	222
218.260	553
218.327	940
218.393	983
218.460	678
218.527	865
218.594	694
218.660	1732
218.727	1431
218.794	223
218.860	584
218.927	964
218.994	801
219.061	974
219.127	800
219.194	1009
219.261	895
219.327	416
219.394	439
219.461	593
219.527	1064
219.594	1502
219.661	264
219.727	92
219.794	425
219.860	1182
219.927	883
219.994	1868
220.060	1983
220.127	1623
220.193	1004
220.260	1414
220.326	2288
220.393	4196
220.460	3486
220.526	2109
220.593	1518
220.659	2063
220.726	2447
220.792	3657
220.859	3282
220.925	7045
220.992	5808
221.058	5526
221.125	4121
221.191	2519
221.258	1033
221.324	971
221.391	1315
221.457	1366
221.524	1065
221.590	2363
221.657	4308
221.723	2320
221.789	2495
221.856	2015
221.922	786
221.989	884
222.055	594
222.121	780
222.188	1628
222.254	640
222.321	569
222.387	539
222.453	1069
222.520	745
222.586	1014
222.652	322
222.719	195
222.785	431
222.851	878
222.918	574
222.984	284
223.050	649
223.116	516
223.183	730
223.249	28
223.315	162
223.382	586
223.448	146
223.514	-709
223.580	525
223.647	316
223.713	827
223.779	775
223.845	670
223.911	1061
223.978	785
224.044	565
224.110	54
224.176	328
224.242	734
224.309	258
224.375	320
224.441	-229
224.507	556
224.573	714
224.639	861
224.705	397
224.772	359
224.838	892
224.904	1033
224.970	539
225.036	376
225.102	556
225.168	97
225.234	818
225.300	231
225.366	690
225.432	1153
225.499	731
225.565	576
225.631	1039
225.697	1268
225.763	1010
225.829	1085
225.895	1165
225.961	1453
226.027	664
226.093	1095
226.159	1691
226.225	3598
226.291	9241
226.357	7785
226.423	3584
226.489	2537
226.554	1771
226.620	2069
226.686	2384
226.752	3902
226.818	8375
226.884	12406
226.950	7424
227.016	3369
227.082	2510
227.148	1620
227.214	1982
227.279	1211
227.345	1649
227.411	1422
227.477	1791
227.543	3643
227.609	2762
227.674	907
227.740	1026
227.806	1135
227.872	856
227.938	1309
228.003	1104
228.069	394
228.135	531
228.201	184
228.267	824
228.332	909
228.398	1150
228.464	1015
228.530	580
228.595	759
228.661	803
228.727	1082
228.792	621
228.858	817
228.924	214
228.990	553
229.055	1748
229.121	669
229.187	321
229.252	894
229.318	373
229.384	822
229.449	717
229.515	401
229.581	-290
229.646	521
229.712	1526
229.777	2633
229.843	1586
229.909	1550
229.974	1347
230.040	1344
230.105	838
230.171	1259
230.236	2342
230.302	2135
230.368	1530
230.433	1347
230.499	1309
230.564	1164
230.630	772
230.695	871
230.761	666
230.826	286
230.892	1795
230.957	411
231.023	1136
231.088	479
231.154	1095
231.219	1300
231.284	1351
231.350	1191
231.415	616
231.481	471
231.546	918
231.612	547
231.677	338
231.742	344
231.808	585
231.873	360
231.939	772
232.004	1801
232.069	1435
232.135	1339
232.200	524
232.265	159
232.331	124
232.396	634
232.461	488
232.527	-23
232.592	-168
232.657	1137
232.723	1040
232.788	505
232.853	574
232.918	93
232.984	-5
233.049	820
233.114	1155
233.179	1105
233.245	2590
233.310	1001
233.375	466
233.440	357
233.506	925
233.571	-76
233.636	393
233.701	637
233.766	1725
233.832	559
233.897	761
233.962	1016
234.027	1000
234.092	1540
234.157	999
234.222	632
234.288	2769
234.353	4434
234.418	2064
234.483	2355
234.548	1226
234.613	1051
234.678	1156
234.743	2299
234.808	5341
234.873	1796
234.938	2382
235.004	421
235.069	802
235.134	563
235.199	1029
235.264	1365
235.329	486
235.394	1218
235.459	1885
235.524	842
235.589	1001
235.654	883
235.719	281
235.784	1088
235.849	1724
235.913	2425
235.978	3354
236.043	1806
236.108	1395
236.173	1356
236.238	1380
236.303	461
236.368	1167
236.433	2731
236.498	2498
236.563	2030
236.627	8046
236.692	16066
236.757	7671
236.822	4258
236.887	2996
236.952	2261
237.017	2339
237.081	2465
237.146	4533
237.211	8972
237.276	20575
237.341	17869
237.405	6522
237.470	3775
237.535	2434
237.600	1495
237.664	1650
237.729	1741
237.794	3777
237.859	4302
237.923	1621
237.988	1314
238.053	2497
238.118	3175
238.182	6809
238.247	3187
238.312	2080
238.376	1899
238.441	1369
238.506	934
238.570	1172
238.635	854
238.700	866
238.764	1329
238.829	3012
238.893	1869
238.958	1709
239.023	1278
239.087	1613
239.152	1444
239.216	460
239.281	943
239.346	584
239.410	1166
239.475	2173
239.539	6341
239.604	2943
239.668	1507
239.733	891
239.797	3197
239.862	6366
239.926	4347
239.991	1851
240.055	1504
240.120	1414
240.184	834
240.249	610
240.313	1384
240.378	1140
240.442	5337
240.507	3326
240.571	1348
240.635	3136
240.700	2391
240.764	1132
240.829	1043
240.893	614
240.957	568
241.022	4915
241.086	4069
241.151	1808
241.215	1403
241.279	2271
241.344	2349
241.408	1488
241.472	1333
241.537	1807
241.601	1988
241.665	1540
241.730	721
241.794	1980
241.858	1530
241.922	1326
241.987	1339
242.051	1541
242.115	630
242.179	968
242.244	408
242.308	879
242.372	1919
242.436	1424
242.501	600
242.565	362
242.629	1203
242.693	654
242.757	1170
242.822	1139
242.886	713
242.950	794
243.014	729
243.078	1399
243.142	1215
243.206	1268
243.271	1343
243.335	1325
243.399	2278
243.463	14061
243.527	11649
243.591	3193
243.655	2270
243.719	1503
243.783	1278
243.847	3492
243.911	3370
243.975	4419
244.040	1894
244.104	1168
244.168	1537
244.232	3046
244.296	3070
244.360	2586
244.424	863
244.488	1236
244.552	1552
244.615	1367
244.679	525
244.743	1600
244.807	937
244.871	1758
244.935	1101
244.999	489
245.063	1546
245.127	1554
245.191	2244
245.255	1550
245.319	2200
245.383	847
245.446	1485
245.510	1288
245.574	1307
245.638	854
245.702	2347
245.766	3587
245.829	1310
245.893	1040
245.957	865
246.021	1074
246.085	1252
246.149	2306
246.212	6381
246.276	5041
246.340	3126
246.404	2106
246.467	2557
246.531	2925
246.595	1352
246.659	1678
246.722	2263
246.786	1665
246.850	3590
246.913	2102
246.977	871
247.041	2071
247.104	888
247.168	2516
247.232	7829
247.295	8569
247.359	1957
247.423	2316
247.486	3677
247.550	2199
247.614	2852
247.677	2421
247.741	2007
247.804	1433
247.868	2047
247.932	7171
247.995	5685
248.059	2447
248.122	1377
248.186	2847
248.249	7709
248.313	16947
248.376	11311
248.440	5571
248.503	2273
248.567	3821
248.630	5609
248.694	5641
248.757	11030
248.821	12487
248.884	7163
248.948	9958
249.011	13453
249.075	18626
249.138	9241
249.202	4109
249.265	3791
249.328	3762
249.392	2985
249.455	2570
249.519	2711
249.582	4120
249.645	5493
249.709	2710
249.772	2229
249.835	2630
249.899	2211
249.962	2696
250.025	2357
250.089	8378
250.152	4726
250.215	3118
250.279	2605
250.342	3154
250.405	2415
250.468	2581
250.532	3886
250.595	7104
250.658	29988
250.721	18371
250.785	6705
250.848	5255
250.911	3008
250.974	3657
251.038	6814
251.101	7161
251.164	4376
251.227	5265
251.290	4640
251.354	11805
251.417	31438
251.480	15077
251.543	27895
251.606	48053
251.669	19228
251.732	10786
251.795	13476
251.859	18440
251.922	26231
251.985	9359
252.048	6050
252.111	4949
252.174	4892
252.237	14229
252.300	16768
252.363	31042
252.426	28154
252.489	10981
252.552	6170
252.615	5065
252.678	7236
252.741	13711
252.804	27932
252.867	30623
252.930	16433
252.993	8667
253.056	6168
253.119	4131
253.182	5130
253.245	6474
253.308	4274
253.371	4289
253.434	3981
253.497	6232
253.559	8656
253.622	5911
253.685	9514
253.748	5128
253.811	3598
253.874	4279
253.937	3925
254.000	3603
254.062	8032
254.125	7269
254.188	10126
254.251	4969
254.314	4549
254.376	7183
254.439	5798
254.502	5280
254.565	8794
254.628	8366
254.690	5228
254.753	2861
254.816	2600
254.878	3314
254.941	6978
255.004	3800
255.067	3359
255.129	2392
255.192	1576
255.255	1985
255.317	1566
255.380	1577
255.443	830
255.505	1220
255.568	1220
255.631	1267
255.693	1487
255.756	85
255.819	1736
255.881	723
255.944	700
256.006	26
256.069	1063
256.132	1365
256.194	2953
256.257	4398
256.319	3542
256.382	2336
256.444	1704
256.507	1376
256.569	833
256.632	728
256.694	3325
256.757	17495
256.819	17644
256.882	5202
256.944	3370
257.007	3683
257.069	1856
257.132	755
257.194	1688
257.257	1746
257.319	1578
257.381	2556
257.444	12117
257.506	33841
257.569	19936
257.631	11317
257.693	5422
257.756	3167
257.818	2251
257.880	1030
257.943	1724
258.005	1630
258.067	1438
258.130	1758
258.192	3197
258.254	3573
258.317	1494
258.379	2383
258.441	6345
258.503	3577
258.566	8884
258.628	4548
258.690	1984
258.753	3170
258.815	3370
258.877	1529
258.939	1615
259.001	1294
259.064	1754
259.126	2523
259.188	1769
259.250	2256
259.312	4080
259.375	6315
259.437	2509
259.499	1598
259.561	2276
259.623	1637
259.685	1449
259.747	1468
259.809	10183
259.872	10009
259.934	19426
259.996	8745
260.058	2534
260.120	1580
260.182	1527
260.244	787
260.306	1458
260.368	682
260.430	776
260.492	5566
260.554	6478
260.616	3834
260.678	12468
260.740	5968
260.802	1816
260.864	1734
260.926	1822
260.988	1138
261.050	2162
261.112	7978
261.174	12967
261.236	4234
261.298	2515
261.359	7458
261.421	3554
261.483	1400
261.545	1659
261.607	1127
261.669	1325
261.731	5021
261.793	6550
261.854	2192
261.916	2709
261.978	1966
262.040	1325
262.102	2018
262.164	2725
262.225	870
262.287	2105
262.349	4796
262.411	2115
262.472	1256
262.534	6972
262.596	3124
262.658	1630
262.719	689
262.781	4209
262.843	4923
262.904	1834
262.966	1509
263.028	4020
263.090	25312
263.151	19292
263.213	7839
263.275	3649
263.336	2014
263.398	1376
263.459	569
263.521	1646
263.583	3095
263.644	2034
263.706	87
263.767	742
263.829	719
263.891	629
263.952	409
264.014	527
264.075	4673
264.137	4790
264.198	2367
264.260	-78
264.321	892
264.383	8046
264.444	5510
264.506	1078
264.567	1597
264.629	7644
264.690	5360
264.752	1870
264.813	1476
264.875	1137
264.936	333
264.998	696
265.059	1095
265.120	662
265.182	4961
265.243	17729
265.305	5555
265.366	1451
265.427	902
265.489	1160
265.550	340
265.611	1440
265.673	1502
265.734	262
265.795	-58
265.857	453
265.918	921
265.979	8763
266.040	23960
266.102	6772
266.163	4014
266.224	2770
266.286	617
266.347	1159
266.408	508
266.469	320
266.530	239
266.592	1195
266.653	4005
266.714	3071
266.775	943
266.836	652
266.898	995
266.959	2095
267.020	522
267.081	1117
267.142	1164
267.203	550
267.264	399
267.326	1474
267.387	381
267.448	602
267.509	605
267.570	1043
267.631	295
267.692	380
267.753	1150
267.814	226
267.875	5132
267.936	3860
267.997	2807
268.058	2101
268.119	1130
268.180	732
268.241	574
268.302	-23
268.363	608
268.424	901
268.485	839
268.546	323
268.607	62
268.668	619
268.729	303
268.790	894
268.851	1265
268.912	5277
268.972	2743
269.033	1082
269.094	117
269.155	1020
269.216	644
269.277	795
269.338	621
269.398	468
269.459	1058
269.520	2382
269.581	3439
269.642	2868
269.702	1666
269.763	726
269.824	616
269.885	2128
269.945	2231
270.006	429
270.067	160
270.128	-105
270.188	812
270.249	407
270.310	51
270.370	638
270.431	-124
270.492	808
270.553	1284
270.613	4639
270.674	3847
270.734	1143
270.795	923
270.856	2114
270.916	415
270.977	1403
271.038	1794
271.098	1672
271.159	3062
271.219	793
271.280	1071
271.340	798
271.401	2464
271.462	2377
271.522	1505
271.583	406
271.643	886
271.704	389
271.764	1645
271.825	7568
271.885	19684
271.946	10892
272.006	4973
272.066	12618
272.127	8462
272.187	2808
272.248	2056
272.308	4697
272.369	8820
272.429	3246
272.489	6063
272.550	3532
272.610	4431
272.671	2911
272.731	4841
272.791	4159
272.852	2273
272.912	1915
272.972	1003
273.033	1823
273.093	2255
273.153	2269
273.214	1873
273.274	3490
273.334	14157
273.394	10529
273.455	4016
273.515	11390
273.575	9356
273.635	4790
273.696	12270
273.756	10037
273.816	3862
273.876	3189
273.936	11695
273.997	6589
274.057	2331
274.117	2547
274.177	8740
274.237	21013
274.297	10730
274.358	9795
274.418	11008
274.478	5807
274.538	1678
274.598	4810
274.658	12578
274.718	8515
274.778	2800
274.838	1870
274.898	11527
274.958	14029
275.018	13840
275.078	5920
275.138	3138
275.198	1448
275.258	1928
275.318	2714
275.378	5750
275.438	4083
275.498	2915
275.558	13207
275.618	14927
275.678	5994
275.738	6795
275.798	3810
275.858	2087
275.918	673
275.978	2259
276.038	1606
276.098	1100
276.157	7649
276.217	8260
276.277	4028
276.337	2418
276.397	2056
276.457	1857
276.517	1635
276.576	866
276.636	1523
276.696	3250
276.756	8158
276.815	3307
276.875	2106
276.935	2516
276.995	1634
277.055	1764
277.114	1466
277.174	6035
277.234	7591
277.293	3061
277.353	1598
277.413	1817
277.472	2373
277.532	1286
277.592	3237
277.651	17533
277.711	9401
277.771	9841
277.830	24714
277.890	9328
277.950	22939
278.009	22409
278.069	8173
278.128	19844
278.188	11865
278.248	11122
278.307	20176
278.367	5966
278.426	3421
278.486	2397
278.545	1242
278.605	2049
278.664	1350
278.724	2418
278.783	11681
278.843	9752
278.902	3363
278.962	3936
279.021	3316
279.081	4964
279.140	3488
279.199	3767
279.259	3943
279.318	3991
279.378	4948
279.437	14061
279.496	50255
279.556	97681
279.615	35269
279.675	13299
279.734	10532
279.793	20161
279.853	15367
279.912	5908
279.971	4064
280.031	4616
280.090	12823
280.149	10544
280.208	25146
280.268	78149
280.327	31107
280.386	12173
280.445	12393
280.505	6689
280.564	4118
280.623	3887
280.682	9204
280.742	5540
280.801	2317
280.860	1761
280.919	2149
280.978	1588
281.037	1574
281.097	1574
281.156	2143
281.215	1568
281.274	5014
281.333	13299
281.392	3560
281.451	1602
281.510	1687
281.569	1556
281.628	1166
281.688	1007
281.747	2771
281.806	1370
281.865	1064
281.924	1346
281.983	914
282.042	440
282.101	1117
282.160	1179
282.219	372
282.278	3539
282.337	7964
282.396	2185
282.454	1942
282.513	4784
282.572	10753
282.631	4198
282.690	1731
282.749	1458
282.808	2447
282.867	2250
282.926	1959
282.985	950
283.043	702
283.102	1174
283.161	2692
283.220	9297
283.279	7965
283.338	2712
283.396	2490
283.455	2273
283.514	3089
283.573	4046
283.631	2782
283.690	1967
283.749	2188
283.808	6624
283.866	3749
283.925	2488
283.984	2940
284.043	4153
284.101	3276
284.160	3279
284.219	3358
284.277	2539
284.336	8807
284.395	18425
284.453	7505
284.512	6185
284.570	7268
284.629	6714
284.688	6242
284.746	7332
284.805	9748
284.863	12376
284.922	14424
284.981	16924
285.039	26295
285.098	50180
285.156	94067
285.215	86892
285.273	91687
285.332	61460
285.390	38633
285.449	25349
285.507	17548
285.566	13385
285.624	9843
285.683	8161
285.741	6115
285.799	5694
285.858	4968
285.916	4859
285.975	3644
286.033	3034
286.091	3247
286.150	2796
286.208	2969
286.267	4354
286.325	3834
286.383	6080
286.442	3574
286.500	2621
286.558	2448
286.616	1955
286.675	3842
286.733	3102
286.791	2647
286.850	3270
286.908	6653
286.966	5079
287.024	2559
287.083	1827
287.141	2188
287.199	3536
287.257	3481
287.315	2734
287.374	3847
287.432	8024
287.490	3606
287.548	2841
287.606	1943
287.664	2459
287.723	4735
287.781	3953
287.839	2817
287.897	2181
287.955	3370
288.013	4530
288.071	16011
288.129	88814
288.187	94120
288.245	31066
288.303	13566
288.361	9634
288.419	6854
288.477	4529
288.535	3297
288.593	3118
288.651	2168
288.709	1789
288.767	2169
288.825	1492
288.883	2244
288.941	2379
288.999	1195
289.057	1972
289.115	1571
289.173	1912
289.231	1922
289.289	1297
289.346	1331
289.404	2746
289.462	4771
289.520	4039
289.578	1455
289.636	1262
289.694	1817
289.751	1079
289.809	990
289.867	1496
289.925	2806
289.983	1894
290.040	1544
290.098	1920
290.156	1798
290.214	2784
290.271	1666
290.329	1628
290.387	933
290.444	1599
290.502	889
290.560	1078
290.617	1376
290.675	1306
290.733	2031
290.790	1624
290.848	1228
290.906	1999
290.963	1873
291.021	1500
291.078	1241
291.136	2249
291.194	14222
291.251	10032
291.309	3285
291.366	1288
291.424	1741
291.481	1800
291.539	2273
291.596	1518
291.654	1292
291.711	1457
291.769	4334
291.826	3829
291.884	2016
291.941	1459
291.999	1740
292.056	2758
292.114	1687
292.171	1728
292.228	2178
292.286	2714
292.343	5819
292.401	5266
292.458	3435
292.515	2517
292.573	3183
292.630	2394
292.687	2094
292.745	2495
292.802	5128
292.859	12167
292.917	14637
292.974	5284
293.031	2715
293.089	2205
293.146	1532
293.203	1643
293.260	2534
293.318	2940
293.375	3665
293.432	2028
293.489	1377
293.546	1071
293.604	3964
293.661	16226
293.718	18422
293.775	9656
293.832	5908
293.889	5131
293.947	4726
294.004	3264
294.061	3603
294.118	12047
294.175	21117
294.232	16062
294.289	5933
294.346	3266
294.403	3063
294.460	2942
294.517	1812
294.574	2250
294.631	1263
294.688	1860
294.745	14996
294.802	32656
294.859	20775
294.916	9727
294.973	6030
295.030	5990
295.087	4085
295.144	2487
295.201	2051
295.258	2126
295.315	4775
295.372	16101
295.429	12758
295.486	6203
295.542	6905
295.599	22105
295.656	18214
295.713	18753
295.770	12833
295.827	5447
295.883	2952
295.940	4682
295.997	7505
296.054	4949
296.111	3016
296.167	2527
296.224	1691
296.281	1947
296.338	1485
296.394	2483
296.451	3974
296.508	14495
296.564	14131
296.621	12938
296.678	30247
296.734	19992
296.791	8427
296.848	5593
296.904	10054
296.961	18024
297.018	22135
297.074	10249
297.131	4936
297.187	3857
297.244	9383
297.301	32285
297.357	22913
297.414	8816
297.470	5267
297.527	4003
297.583	3025
297.640	3094
297.696	3136
297.753	2346
297.809	2157
297.866	1594
297.922	1823
297.979	2571
298.035	2630
298.092	7612
298.148	13869
298.204	7963
298.261	5665
298.317	19163
298.374	22199
298.430	10798
298.486	6719
298.543	5013
298.599	4703
298.656	5959
298.712	15833
298.768	22258
298.824	11420
298.881	4567
298.937	4242
298.993	4649
299.050	4732
299.106	4042
299.162	3618
299.218	3874
299.275	2837
299.331	3695
299.387	12283
299.443	28407
299.500	18056
299.556	8860
299.612	4787
299.668	5289
299.724	8029
299.780	4942
299.837	3880
299.893	11874
299.949	26059
300.005	20109
300.061	30362
300.117	27228
300.173	12257
300.229	8161
300.285	11890
300.341	9022
300.397	4772
300.453	4034
300.510	3424
300.566	2797
300.622	7000
300.678	20776
300.734	23204
300.790	23629
300.845	18649
300.901	19969
300.957	24226
301.013	12537
301.069	6398
301.125	6133
301.181	5130
301.237	3737
301.293	2941
301.349	2983
301.405	2827
301.461	3121
301.516	4611
301.572	5907
301.628	7072
301.684	6898
301.740	13985
301.796	12265
301.851	12907
301.907	16036
301.963	15190
302.019	41627
302.074	67854
302.130	46597
302.186	21422
302.242	10436
302.297	7882
302.353	11149
302.409	15096
302.464	9863
302.520	15745
302.576	28891
302.631	24485
302.687	13344
302.743	6685
302.798	4326
302.854	3792
302.910	4849
302.965	8485
303.021	9811
303.076	9786
303.132	14503
303.187	11832
303.243	6944
303.299	4723
303.354	3785
303.410	3298
303.465	2836
303.521	2234
303.576	3211
303.632	4629
303.687	13359
303.743	21311
303.798	12411
303.853	6871
303.909	4599
303.964	4725
304.020	9761
304.075	9423
304.130	13974
304.186	19074
304.241	18035
304.297	12584
304.352	6866
304.358	6679
304.407	5160
304.449	5145
304.463	5148
304.518	4618
304.539	4312
304.573	3805
304.629	4499
304.630	4601
304.684	9177
304.720	18603
304.739	23487
304.794	18320
304.811	16083
304.850	10466
304.902	5513
304.905	5205
304.960	4899
304.992	4899
305.015	4905
305.071	4429
305.083	4156
305.126	3135
305.173	2190
305.181	2041
305.236	2738
305.264	3321
305.292	3939
305.347	4924
305.354	4902
305.402	4680
305.445	5364
305.457	5577
305.512	4775
305.535	4996
305.567	5254
305.622	5555
305.626	6052
305.678	14392
305.716	23522
305.733	27376
305.788	19792
305.807	19439
305.843	18089
305.897	22399
305.898	22466
305.953	16041
305.988	12564
306.008	10254
306.063	6948
306.078	6219
306.118	4670
306.168	3497
306.173	3407
306.228	2778
306.259	2734
306.283	2608
306.338	2747
306.349	2842
306.393	3465
306.440	3427
306.448	3381
306.503	3272
306.530	4472
306.558	6056
306.613	12647
306.620	13552
306.668	19657
306.711	21982
306.723	22224
306.778	15091
306.801	12697
306.833	9151
306.888	5100
306.892	4956
306.943	4075
306.982	3663
306.997	3547
307.052	2872
307.072	2822
307.107	2701
307.162	4674
307.163	4696
307.217	6529
307.253	8770
307.272	9872
307.327	8028
307.343	7725
307.381	6449
307.434	5744
307.436	5790
307.491	13988
307.524	18340
307.546	20967
307.600	17182
307.614	16005
307.655	10004
307.704	5634
307.710	5388
307.765	5864
307.795	8966
307.819	12159
307.874	14517
307.885	14222
307.929	10601
307.975	8266
307.984	8122
308.038	9234
308.065	12649
308.093	18295
308.148	48016
308.156	53177
308.202	90089
308.246	93356
308.257	87823
308.312	51512
308.336	39135
308.366	31071
308.421	19195
308.426	18381
308.475	12141
308.517	8403
308.530	7608
308.585	6463
308.607	6141
308.639	5798
308.694	6427
308.697	6696
308.748	12500
308.787	15427
308.803	15967
308.857	12597
308.877	11915
308.912	9896
308.967	8184
308.967	8212
309.021	11472
309.058	14747
309.076	17343
309.130	30270
309.148	37118
309.185	58108
309.238	99090
309.239	99715
309.293	121383
309.328	120082
309.348	101948
309.402	53021
309.418	41016
309.457	28921
309.508	17653
309.511	17253
309.566	15709
309.598	16947
309.620	19792
309.674	30560
309.688	32050
309.729	31777
309.778	27571
309.783	26649
309.837	17180
309.868	13194
309.892	12862
309.946	17342
309.959	18587
310.001	25798
310.049	29773
310.055	28867
310.109	18652
310.139	13737
310.163	10756
310.218	5830
310.229	5066
310.272	4024
310.319	3373
310.326	3311
310.381	3081
310.409	2943
310.435	2793
310.489	2737
310.499	2737
310.543	2451
310.589	2352
310.598	2364
310.652	2357
310.679	2314
310.706	2349
310.760	2514
310.769	2548
310.814	2091
310.859	1804
310.868	1780
310.923	1408
310.948	1444
310.977	1753
311.031	2314
311.038	2380
311.085	2143
311.128	1910
311.139	1993
311.193	2459
311.218	2741
311.247	2397
311.301	1709
311.308	1615
311.356	1623
311.398	1835
311.410	1876
311.464	2036
311.488	2103
311.518	1941
311.572	1718
311.578	1707
311.626	2276
311.668	2801
311.680	2797
311.734	2794
311.758	2770
311.788	2774
311.842	2858
311.847	2886
311.896	2737
311.937	2669
311.950	2795
312.004	3378
312.027	3655
312.058	3025
312.112	1954
312.117	1861
312.165	1571
312.207	1354
312.297	2752
312.386	2093
312.476	2063
312.566	3007
312.656	2506
312.745	1638
312.835	1507
312.925	2187
313.015	1628
313.104	1916
313.194	1787
313.284	2172
313.374	2263
313.463	2384
313.553	1798
313.643	1355
313.732	950
313.822	891
313.912	2105
314.001	2534
314.091	2213
314.180	3496
314.270	2323
314.360	2775
314.449	2941
314.539	2259
314.628	1947
314.718	2041
314.808	2624
314.897	2077
314.987	2254
315.076	1439
315.166	3338
315.255	2254
315.345	2647
315.434	2729
315.524	1612
315.613	2712
315.703	2590
315.792	4709
315.881	7540
315.971	5624
316.060	3584
316.150	5477
316.239	6507
316.328	3628
316.418	2013
316.507	1454
316.597	1804
316.686	2108
316.775	2177
316.865	6366
316.954	2921
317.043	1937
317.133	1041
317.222	1844
317.311	1936
317.400	1193
317.490	1882
317.579	2743
317.668	2017
317.757	2621
317.847	5078
317.936	13130
318.025	9721
318.114	5165
318.203	2819
318.293	3990
318.382	8100
318.471	7329
318.560	8886
318.649	16663
318.738	7377
318.828	2544
318.917	2749
319.006	2600
319.095	6739
319.184	18481
319.273	17069
319.362	8258
319.451	1942
319.540	2247
319.629	3820
319.718	8363
319.807	3111
319.896	6353
319.985	23880
320.074	16601
320.163	2977
320.252	3725
320.341	4239
320.430	4330
320.519	3176
320.608	3399
320.697	1608
320.786	2638
320.875	1926
320.964	3469
321.053	4255
321.142	6314
321.230	8667
321.319	5917
321.408	12299
321.497	9300
321.586	4634
321.675	6157
321.764	7302
321.852	3401
321.941	6227
322.030	6968
322.119	4100
322.207	12977
322.296	11756
322.385	5139
322.474	5295
322.562	14038
322.651	13390
322.740	5048
322.829	8347
322.917	8737
323.006	5925
323.095	5028
323.183	3450
323.272	4690
323.361	7277
323.449	22557
323.538	13963
323.626	13914
323.715	16838
323.804	3507
323.892	12276
323.981	13130
324.069	2777
324.158	6264
324.246	11132
324.335	2917
324.424	5542
324.512	2772
324.601	2371
324.689	5979
324.778	14905
324.866	7451
324.954	2823
325.043	1557
325.131	3267
325.220	6187
325.308	7619
325.397	5135
325.485	4761
325.574	1789
325.662	1879
325.750	2122
325.839	1480
325.927	1208
326.015	1454
326.104	2562
326.192	4564
326.280	1634
326.369	1526
326.457	1786
326.545	4406
326.634	2601
326.722	189
326.810	1018
326.898	1126
326.987	1276
327.075	3040
327.163	4422
327.251	2508
327.340	4142
327.428	9176
327.516	3052
327.604	1358
327.692	1011
327.781	621
327.869	2245
327.957	2210
328.045	1740
328.133	1540
328.221	1330
328.309	1376
328.397	1076
328.485	1224
328.574	2197
328.662	6989
328.750	6766
328.838	2397
328.926	1123
329.014	840
329.102	1710
329.190	4694
329.278	4646
329.366	1678
329.454	930
329.542	1254
329.630	1383
329.718	1231
329.806	1519
329.893	1599
329.981	2559
330.069	1417
330.157	6254
330.245	26560
330.333	22516
330.421	3672
330.509	2233
330.597	8401
330.684	9146
330.772	3048
330.860	3716
330.948	5440
331.036	3523
331.123	861
331.211	1198
331.299	824
331.387	3198
331.475	7372
331.562	3105
331.650	1225
331.738	541
331.825	2180
331.913	1462
332.001	716
332.089	971
332.176	2629
332.264	6215
332.352	8288
332.439	2587
332.527	1511
332.614	1182
332.702	1421
332.790	1247
332.877	2050
332.965	8483
333.052	4325
333.140	2192
333.228	7253
333.315	3369
333.403	918
333.490	3833
333.578	5521
333.665	8091
333.753	5801
333.840	1277
333.928	1029
334.015	3633
334.103	6443
334.190	24583
334.278	14291
334.365	3056
334.452	3096
334.540	1846
334.627	1560
334.715	2940
334.802	3632
334.889	18824
334.977	41768
335.064	8262
335.151	2526
335.239	2380
335.326	1848
335.413	9034
335.501	25318
335.588	4601
335.675	1766
335.762	1790
335.850	4146
335.937	2700
336.024	5074
336.111	28048
336.199	25970
336.286	4779
336.373	1651
336.460	1441
336.547	1290
336.635	1696
336.722	1988
336.809	1364
336.896	2004
336.983	4862
337.070	17460
337.157	30246
337.245	20382
337.332	21764
337.419	2128
337.506	1091
337.593	1772
337.680	3660
337.767	19129
337.854	9338
337.941	5956
338.028	6646
338.115	3890
338.202	2489
338.289	3609
338.376	16855
338.463	11077
338.550	6627
338.637	16433
338.724	3446
338.811	6752
338.898	1758
338.984	834
339.071	1258
339.158	1938
339.245	4504
339.332	4144
339.419	2845
339.506	4712
339.593	1168
339.679	1112
339.766	988
339.853	1010
339.940	3545
340.027	2504
340.113	977
340.200	1947
340.287	1669
340.374	1116
340.460	3420
340.547	1384
340.634	1367
340.720	7219
340.807	8765
340.894	1432
340.980	786
341.067	350
341.154	610
341.240	1304
341.327	5235
341.414	2828
341.500	1828
341.587	1319
341.674	462
341.760	2194
341.847	4379
341.933	1938
342.020	125
342.106	466
342.193	769
342.279	2179
342.366	1957
342.452	3149
342.539	1951
342.625	2467
342.712	9985
342.798	6155
342.885	2227
342.971	111
343.058	516
343.144	196
343.230	649
343.317	1540
343.403	1472
343.490	264
343.576	648
343.662	198
343.749	1746
343.835	1512
343.921	2209
344.008	10499
344.094	51479
344.180	21496
344.267	3331
344.353	8710
344.439	18514
344.525	6898
344.612	3176
344.698	1484
344.784	906
344.870	370
344.957	631
345.043	1321
345.129	992
345.215	2616
345.301	2436
345.387	1433
345.474	306
345.560	898
345.646	88
345.732	132
345.818	1555
345.904	817
345.990	695
346.076	311
346.162	2320
346.249	1587
346.335	918
346.421	-23
346.507	2260
346.593	18320
346.679	9962
346.765	1030
346.851	817
346.937	907
347.023	430
347.108	1117
347.194	779
347.280	669
347.366	544
347.452	2354
347.538	18823
347.624	20268
347.710	17925
347.796	3643
347.882	1387
347.967	496
348.053	1127
348.139	524
348.225	781
348.311	1037
348.397	213
348.482	614
348.568	1253
348.654	758
348.740	1363
348.825	1349
348.911	1328
348.997	5564
349.083	24820
349.168	7069
349.254	547
349.340	1205
349.425	160
349.511	1096
349.597	1563
349.682	1828
349.768	10927
349.854	10953
349.939	1158
350.025	359
350.110	81
350.196	20
350.282	-235
350.367	431
350.453	764
350.538	1663
350.624	969
350.709	1338
350.795	718
350.880	1207
350.966	803
351.051	809
351.137	1141
351.222	453
351.308	1589
351.393	10477
351.479	4998
351.564	1120
351.649	555
351.735	670
351.820	-60
351.906	544
351.991	1034
352.076	2836
352.162	13294
352.247	3214
352.332	1316
352.418	1492
352.503	2924
352.588	9902
352.673	19329
352.759	3264
352.844	1547
352.929	463
353.014	2132
353.100	918
353.185	2120
353.270	3522
353.355	4527
353.441	1241
353.526	706
353.611	1258
353.696	4234
353.781	2357
353.866	500
353.952	92
354.037	2002
354.122	6928
354.207	7386
354.292	3830
354.377	278
354.462	1062
354.547	1193
354.632	1440
354.717	1527
354.802	3122
354.887	1092
354.972	669
355.057	1307
355.142	84
355.227	743
355.312	1285
355.397	3418
355.482	9989
355.567	9585
355.652	3039
355.737	4952
355.822	9746
355.907	19613
355.991	2994
356.076	1984
356.161	720
356.246	572
356.331	820
356.416	1709
356.501	13354
356.585	37831
356.670	7127
356.755	1742
356.840	1590
356.924	7595
357.009	50056
357.094	43136
357.179	4550
357.263	3710
357.348	2456
357.433	3420
357.517	1923
357.602	2345
357.687	1849
357.771	2192
357.856	6158
357.941	7194
358.025	5529
358.110	43538
358.195	46348
358.279	6023
358.364	1938
358.448	5541
358.533	23994
358.617	26408
358.702	20021
358.787	12404
358.871	3784
358.956	4160
359.040	1435
359.125	966
359.209	648
359.294	2052
359.378	7109
359.462	4249
359.547	2569
359.631	1737
359.716	647
359.800	837
359.885	1215
359.969	1116
360.053	814
360.138	550
360.222	1950
360.306	2619
360.391	3151
360.475	2294
360.559	10226
360.644	9514
360.728	9640
360.812	6335
360.896	35951
360.981	24000
361.065	10212
361.149	2463
361.233	1535
361.318	1233
361.402	1761
361.486	1716
361.570	792
361.654	1570
361.739	3100
361.823	13187
361.907	45405
361.991	14935
362.075	2988
362.159	6373
362.243	6127
362.327	4650
362.411	7653
362.495	4963
362.580	1612
362.664	1191
362.748	1727
362.832	1482
362.916	2659
363.000	6182
363.084	24357
363.168	52873
363.252	21674
363.336	2851
363.420	3119
363.503	11273
363.587	31538
363.671	7447
363.755	2309
363.839	3431
363.923	1857
364.007	2594
364.091	5116
364.175	4264
364.258	23198
364.342	30596
364.426	23902
364.510	23240
364.594	7284
364.677	5126
364.761	21648
364.845	37379
364.929	7649
365.013	6914
365.096	4022
365.180	5586
365.264	3994
365.347	24603
365.431	25277
365.515	4850
365.598	1906
365.682	1521
365.766	1588
365.849	5053
365.933	1511
366.017	2411
366.100	2050
366.184	784
366.267	708
366.351	1048
366.435	8
366.518	1148
366.602	546
366.685	765
366.769	1147
366.852	1998
366.936	4309
367.019	3791
367.103	1428
367.186	3833
367.270	1747
367.353	488
367.436	563
367.520	1070
367.603	1506
367.687	1897
367.770	4282
367.853	3191
367.937	4777
368.020	18767
368.104	7813
368.187	2410
368.270	4598
368.353	5024
368.437	4496
368.520	9835
368.603	10119
368.687	6700
368.770	22924
368.853	9644
368.936	2664
369.020	5306
369.103	1536
369.186	428
369.269	452
369.352	2065
369.436	3970
369.519	3748
369.602	740
369.685	399
369.768	1730
369.851	867
369.934	1032
370.018	1097
370.101	2385
370.184	3311
370.267	1806
370.350	3011
370.433	5607
370.516	10848
370.599	26989
370.682	10021
370.765	7944
370.848	12688
370.931	24326
371.014	19136
371.097	2660
371.180	2085
371.263	452
371.346	524
371.429	1139
371.511	1245
371.594	1666
371.677	3509
371.760	4645
371.843	3951
371.926	9354
372.009	46431
372.091	29593
372.174	7464
372.257	22238
372.340	19950
372.423	5602
372.505	9628
372.588	4094
372.671	4959
372.754	19841
372.836	22962
372.919	5822
373.002	19237
373.085	10552
373.167	4218
373.250	6748
373.332	21705
373.415	25610
373.498	60970
373.580	43930
373.663	17623
373.746	48921
373.828	18912
373.911	4374
373.993	3264
374.076	10703
374.159	24115
374.241	7412
374.324	15926
374.406	21906
374.489	9693
374.571	47193
374.654	41800
374.736	8599
374.819	23646
374.901	41418
374.983	60144
375.066	20089
375.148	3597
375.231	6240
375.313	30036
375.395	18925
375.478	4189
375.560	1685
375.643	1592
375.725	4847
375.807	28507
375.890	47579
375.972	17861
376.054	6748
376.136	9411
376.219	6677
376.301	4589
376.383	31561
376.465	26728
376.548	6190
376.630	7843
376.712	22486
376.794	27285
376.877	3009
376.959	1029
377.041	240
377.123	1311
377.205	5422
377.287	1413
377.369	-57
377.452	703
377.534	944
377.616	924
377.698	765
377.780	650
377.862	731
377.944	1026
378.026	162
378.108	-291
378.190	496
378.272	785
378.354	-209
378.436	542
378.518	662
378.600	4731
378.682	7278
378.764	10315
378.846	18235
378.928	4678
379.010	3943
379.091	3113
379.173	1172
379.255	909
379.337	1409
379.419	2935
379.501	18016
379.583	17568
379.664	2309
379.746	2877
379.828	9848
379.910	19294
379.991	23316
380.073	7183
380.155	1238
380.237	1920
380.318	625
380.400	1754
380.482	1786
380.564	4289
380.645	4432
380.727	5164
380.809	2184
380.890	1644
380.972	1586
381.053	1870
381.135	1318
381.217	2433
381.298	12411
381.380	13403
381.461	4170
381.543	15395
381.624	48542
381.706	15905
381.787	3663
381.869	4767
381.951	5360
382.032	35832
382.113	52508
382.195	11962
382.276	4078
382.358	5724
382.439	22346
382.521	30374
382.602	47851
382.684	34716
382.765	27478
382.846	47730
382.928	63254
383.009	67801
383.090	21325
383.172	50011
383.253	164967
383.334	90992
383.416	41233
383.497	39655
383.578	12450
383.659	15309
383.741	39781
383.822	171779
383.903	187931
383.984	44442
384.066	47364
384.147	50412
384.228	14400
384.309	5264
384.390	4837
384.471	3570
384.553	2782
384.634	4873
384.715	5564
384.796	3079
384.877	2507
384.958	7661
385.039	20500
385.120	10059
385.201	3492
385.282	3812
385.363	3708
385.444	3296
385.525	3712
385.606	13489
385.687	28464
385.768	7389
385.849	3683
385.930	10475
386.011	41426
386.092	25032
386.173	4221
386.254	1796
386.335	2138
386.416	2366
386.496	4694
386.577	16369
386.658	9110
386.739	3803
386.820	2859
386.901	1600
386.981	2181
387.062	1150
387.143	1877
387.224	8366
387.304	19056
387.385	7015
387.466	3138
387.547	4027
387.627	3262
387.708	2935
387.789	15293
387.869	38291
387.950	19858
388.031	2566
388.111	146
388.192	3401
388.273	6362
388.353	5477
388.434	2396
388.514	2411
388.595	13898
388.676	37592
388.756	24368
388.837	11669
388.917	13471
388.998	3339
389.078	1954
389.159	1692
389.239	502
389.320	1555
389.400	1915
389.480	2527
389.561	12826
389.641	15849
389.722	3235
389.802	3521
389.883	4671
389.963	14073
390.043	20032
390.124	4895
390.204	2687
390.284	11977
390.365	16133
390.445	8412
390.525	21253
390.605	29729
390.686	13823
390.766	4323
390.846	1979
390.927	1179
391.007	1133
391.087	1229
391.167	1525
391.247	1871
391.328	2061
391.408	4150
391.488	4052
391.568	1059
391.648	742
391.728	2640
391.808	3167
391.888	3180
391.969	4242
392.049	15389
392.129	10892
392.209	4531
392.289	14232
392.369	17630
392.449	8095
392.529	7492
392.609	3880
392.689	3516
392.769	11670
392.849	23658
392.929	9120
393.009	18982
393.089	29634
393.169	13641
393.248	23157
393.328	107984
393.408	258654
393.488	114102
393.568	21996
393.648	9558
393.728	6040
393.807	4628
393.887	3348
393.967	3429
394.047	2639
394.127	3994
394.206	5034
394.286	11130
394.366	57890
394.446	153061
394.525	61204
394.605	10356
394.685	4722
394.764	7920
394.844	17088
394.924	22075
395.003	6995
395.083	3684
395.163	3109
395.242	2287
395.322	2608
395.402	2582
395.481	1996
395.561	3894
395.640	17736
395.720	22951
395.799	18813
395.879	28034
395.958	11327
396.038	15773
396.117	79720
396.197	199481
396.276	90464
396.356	21124
396.435	11731
396.515	8592
396.594	6394
396.673	10573
396.753	22633
396.832	116254
396.912	195796
396.991	67734
397.070	13982
397.150	5703
397.229	3579
397.308	3570
397.388	7596
397.467	6675
397.546	1595
397.625	688
397.705	2326
397.784	2010
397.863	2028
397.942	1058
398.022	1123
398.101	2156
398.180	15840
398.259	18618
398.338	5076
398.417	1798
398.497	769
398.576	1304
398.655	711
398.734	767
398.813	1052
398.892	1871
398.971	14629
399.050	22322
399.129	3357
399.208	286
399.287	187
399.366	60
399.445	195
399.524	71
399.603	856
399.682	452
399.761	3113
399.840	14048
399.919	28264
399.998	7289
400.077	1086
400.156	-458
400.235	461
400.313	612
400.392	19
400.471	2890
400.550	12582
400.629	8156
400.708	794
400.786	852
400.865	2264
400.944	5767
401.023	3889
401.102	739
401.180	511
401.259	94
401.338	-136
401.416	915
401.495	1034
401.574	850
401.652	-292
401.731	504
401.810	998
401.888	984
401.967	-222
402.046	358
402.124	53
402.203	1017
402.281	1176
402.360	719
402.438	3090
402.517	6344
402.596	1586
402.674	1141
402.753	171
402.831	655
402.910	106
402.988	1031
403.066	12423
403.145	20804
403.223	5072
403.302	10354
403.380	16445
403.459	11446
403.537	9284
403.615	2036
403.694	248
403.772	242
403.850	123
403.929	543
404.007	-630
404.085	538
404.164	2339
404.242	522
404.320	337
404.398	649
404.477	2223
404.555	17653
404.633	50185
404.711	15904
404.789	916
404.868	842
404.946	239
405.024	-571
405.102	-229
405.180	-782
405.258	-984
405.336	221
405.415	-300
405.493	968
405.571	1727
405.649	871
405.727	290
405.805	917
405.883	438
405.961	600
406.039	859
406.117	-26
406.195	961
406.273	1872
406.351	19474
406.429	35333
406.507	7517
406.585	1179
406.663	-9
406.740	601
406.818	1021
406.896	143
406.974	403
407.052	196
407.130	6266
407.208	30422
407.285	15502
407.363	1527
407.441	230
407.519	506
407.596	-247
407.674	960
407.752	5124
407.830	12454
407.907	5857
407.985	1807
408.063	0
408.141	-698
408.218	-447
408.296	1911
408.373	346
408.451	680
408.529	142
408.606	-644
408.684	-184
408.762	129
408.839	-431
408.917	-1035
408.994	-626
409.072	-339
409.149	54
409.227	-352
409.304	1164
409.382	1096
409.459	300
409.537	1157
409.614	1865
409.692	1147
409.769	68
409.846	1351
409.924	2646
410.001	2307
410.079	864
410.156	983
410.233	227
410.311	-28
410.388	320
410.465	141
410.543	505
410.620	347
410.697	-561
410.775	206
410.852	-903
410.929	214
411.006	1045
411.083	190
411.161	-272
411.238	2779
411.315	1751
411.392	-11
411.469	337
411.547	678
411.624	169
411.701	-47
411.778	-533
411.855	833
411.932	1380
412.009	76
412.086	345
412.163	192
412.240	137
412.317	303
412.394	584
412.471	-151
412.548	-188
412.625	-509
412.702	-469
412.779	769
412.856	1684
412.933	-118
413.010	-701
413.087	359
413.164	1164
413.241	11245
413.318	6220
413.395	1150
413.471	693
413.548	1336
413.625	-983
413.702	-247
413.779	38
413.855	-366
413.932	-477
414.009	-936
414.086	-836
414.162	-614
414.239	205
414.316	2135
414.393	11506
414.469	13567
414.546	1977
414.623	-353
414.699	-780
414.776	-233
414.853	166
414.929	-528
415.006	-107
415.082	-262
415.159	-150
415.236	-346
415.312	-49
415.389	-630
415.465	1526
415.542	691
415.618	-660
415.695	440
415.771	432
415.848	59
415.924	-83
416.000	-391
416.077	-450
416.153	-484
416.230	-1324
416.306	-923
416.383	-981
416.459	-824
416.535	-453
416.612	-1096
416.688	-186
416.764	-226
416.841	-430
416.917	-497
416.993	-247
417.069	-116
417.146	-30
417.222	272
417.298	258
417.374	-252
417.451	-141
417.527	-437
417.603	311
417.679	-461
417.755	-79
417.831	-493
417.908	-1025
417.984	-1131
418.060	-359
418.136	-272
418.212	1720
418.288	795
418.364	-192
418.440	-1261
418.516	-98
418.592	239
418.668	1559
418.744	3096
418.820	4499
418.896	1403
418.972	-374
419.048	-488
419.124	333
419.200	1593
419.276	719
419.352	-672
419.428	-480
419.504	-282
419.579	-40
419.655	366
419.731	-164
419.807	559
419.883	3439
419.959	5356
420.034	1894
420.110	285
420.186	3579
420.262	12171
420.337	2740
420.413	722
420.489	234
420.565	62
420.640	-562
420.716	17
420.792	-946
420.867	-429
420.943	-1297
421.019	-211
421.094	1017
421.170	819
421.245	-402
421.321	186
421.397	-20
421.472	241
421.548	1697
421.623	4672
421.699	1957
421.774	1538
421.850	875
421.925	1913
422.001	2413
422.076	2061
422.152	1297
422.227	2094
422.302	4678
422.378	5261
422.453	8290
422.529	18033
422.604	46194
422.679	125173
422.755	148980
422.830	76046
422.905	25765
422.981	11271
423.056	7151
423.131	4431
423.207	2887
423.282	2002
423.357	2668
423.432	3987
423.508	2617
423.583	3368
423.658	6601
423.733	2064
423.808	1170
423.883	1447
423.959	1701
424.034	274
424.109	1928
424.184	943
424.259	-465
424.334	-117
424.409	-403
424.484	-266
424.559	-438
424.634	-205
424.709	163
424.784	766
424.859	342
424.934	-743
425.009	2217
425.084	9918
425.159	10789
425.234	2330
425.309	-310
425.384	-519
425.459	1846
425.534	2906
425.609	115
425.683	314
425.758	-487
425.833	-378
425.908	-427
425.983	-115
426.058	7030
426.132	12659
426.207	2119
426.282	498
426.357	793
426.431	386
426.506	-35
426.581	-350
426.655	-165
426.730	-370
426.805	-674
426.879	313
426.954	-302
427.029	-124
427.103	2940
427.178	19126
427.253	30606
427.327	7138
427.402	-153
427.476	2625
427.551	4649
427.625	1352
427.700	384
427.774	56
427.849	198
427.923	-628
427.998	-378
428.072	-81
428.147	683
428.221	2233
428.296	16853
428.370	32819
428.444	9064
428.519	1912
428.593	2138
428.667	4996
428.742	3431
428.816	5580
428.890	6442
428.965	28922
429.039	25803
429.113	7651
429.188	5597
429.262	973
429.336	829
429.410	2421
429.485	5846
429.559	2836
429.633	3982
429.707	2271
429.781	379
429.855	5995
429.930	30750
430.004	29544
430.078	16785
430.152	25911
430.226	22311
430.300	52668
430.374	28899
430.448	3580
430.522	1388
430.596	11719
430.670	23811
430.744	14265
430.818	49617
430.892	41146
430.966	4666
431.040	268
431.114	-589
431.188	-243
431.262	-207
431.336	-607
431.410	-75
431.484	2021
431.557	7147
431.631	2085
431.705	-362
431.779	507
431.853	9439
431.927	31247
432.000	13062
432.074	495
432.148	-88
432.222	638
432.295	-523
432.369	535
432.443	-808
432.516	2053
432.590	19571
432.664	31877
432.737	6685
432.811	-445
432.885	-481
432.958	-1000
433.032	-914
433.106	-608
433.179	-1350
433.253	-1050
433.326	-903
433.400	-636
433.473	-732
433.547	-1069
433.620	151
433.694	-502
433.767	785
433.841	-98
433.914	-306
433.988	-337
434.061	-304
434.134	-550
434.208	-916
434.281	-711
434.355	-1842
434.428	-414
434.501	-778
434.575	-441
434.648	-1087
434.721	-769
434.795	-1214
434.868	-1208
434.941	-1191
435.014	-964
435.088	-982
435.161	-472
435.234	-17
435.307	1918
435.381	1114
435.454	-359
435.527	-46
435.600	156
435.673	1244
435.746	-214
435.819	-489
435.892	-169
435.966	-338
436.039	-516
436.112	-533
436.185	-281
436.258	-729
436.331	-19
436.404	-1449
436.477	-1311
436.550	-1004
436.623	-1446
436.696	-450
436.769	-1061
436.842	-789
436.915	-524
436.987	-542
437.060	54
437.133	-472
437.206	-490
437.279	-103
437.352	-358
437.425	-453
437.498	-443
437.570	242
437.643	1727
437.716	1584
437.789	-399
437.861	-535
437.934	2010
438.007	5210
438.080	1604
438.152	-227
438.225	323
438.298	2097
438.370	26469
438.443	52009
438.516	16996
438.588	4969
438.661	599
438.734	-100
438.806	-536
438.879	131
438.951	508
439.024	1015
439.096	2416
439.169	524
439.241	46
439.314	-419
439.386	-993
439.459	614
439.531	826
439.604	2225
439.676	897
439.749	-289
439.821	-419
439.893	-13
439.966	-448
440.038	-620
440.110	659
440.183	544
440.255	-648
440.327	232
440.400	971
440.472	10450
440.544	37864
440.617	18443
440.689	2723
440.761	1456
440.833	3379
440.905	4861
440.978	2769
441.050	-4
441.122	407
441.194	-1026
441.266	-117
441.338	29
441.411	-666
441.483	1630
441.555	13879
441.627	15761
441.699	3062
441.771	1074
441.843	1348
441.915	-169
441.987	-491
442.059	-496
442.131	118
442.203	196
442.275	1573
442.347	1760
442.419	1632
442.491	3726
442.563	21543
442.635	43335
442.706	17594
442.778	10279
442.850	7193
442.922	1618
442.994	936
443.066	759
443.137	1726
443.209	1287
443.281	890
443.353	2145
443.425	6575
443.496	28127
443.568	86809
443.640	73662
443.711	25065
443.783	4593
443.855	1639
443.926	1234
443.998	560
444.070	947
444.141	1571
444.213	1293
444.285	3112
444.356	2108
444.428	2230
444.499	934
444.571	-469
444.642	-462
444.714	526
444.785	1005
444.857	2209
444.928	2341
445.000	6004
445.071	3501
445.143	4286
445.214	5589
445.285	3722
445.357	6978
445.428	19377
445.500	67157
445.571	122547
445.642	78882
445.714	38643
445.785	16663
445.856	11623
445.928	4469
445.999	3693
446.070	3810
446.141	3255
446.213	2558
446.284	3582
446.355	1570
446.426	1715
446.497	1091
446.569	1031
446.640	2058
446.711	3493
446.782	2327
446.853	663
446.924	990
446.995	766
447.066	1035
447.138	897
447.209	2667
447.280	612
447.351	394
447.422	-321
447.493	-48
447.564	1018
447.635	1319
447.706	2366
447.777	865
447.847	-508
447.918	-113
447.989	633
448.060	1101
448.131	1827
448.202	4553
448.273	4474
448.344	3010
448.414	1039
448.485	-83
448.556	813
448.627	-52
448.698	25
448.768	-275
448.839	-277
448.910	373
448.981	3398
449.051	1864
449.122	1110
449.193	-174
449.263	-242
449.334	-213
449.405	531
449.475	1633
449.546	4432
449.616	3283
449.687	3058
449.758	2594
449.828	373
449.899	373
449.969	1084
450.040	305
450.110	163
450.181	903
450.251	436
450.322	368
450.392	1015
450.463	236
450.533	355
450.604	-217
450.674	711
450.744	92
450.815	344
450.885	623
450.955	809
451.026	185
451.096	95
451.166	1052
451.237	1147
451.307	4070
451.377	7992
451.447	3745
451.518	1286
451.588	598
451.658	650
451.728	851
451.799	1835
451.869	9481
451.939	10852
452.009	2364
452.079	543
452.149	472
452.219	1331
452.289	2489
452.360	10365
452.430	8372
452.500	1799
452.570	1319
452.640	1712
452.710	2945
452.780	10040
452.850	12973
452.920	9680
452.990	9630
453.060	2878
453.129	1202
453.199	2983
453.269	3289
453.339	25470
453.409	47697
453.479	39983
453.549	39869
453.619	58572
453.688	59438
453.758	26595
453.828	2620
453.898	1459
453.968	1443
454.037	1362
454.087	534
454.107	175
454.168	1034
454.177	1143
454.247	-78
454.249	-22
454.316	779
454.330	764
454.386	585
454.411	1219
454.456	1707
454.492	4269
454.525	6470
454.574	8115
454.595	8950
454.655	4209
454.665	3462
454.734	2768
454.736	2831
454.804	2899
454.817	3609
454.873	4843
454.898	7270
454.943	11088
454.979	11294
455.013	11992
455.060	6655
455.082	4471
455.141	3240
455.152	2930
455.221	5454
455.222	5649
455.291	7546
455.303	8228
455.360	12757
455.384	10697
455.430	7441
455.465	6582
455.499	5356
455.546	6697
455.569	6315
455.627	8344
455.638	9035
455.707	6948
455.708	6933
455.777	2012
455.789	1960
455.846	1522
455.869	1457
455.916	1290
455.950	1408
455.985	1558
456.031	1855
456.054	1886
456.112	1939
456.124	2011
456.193	2503
456.193	2484
456.262	1932
456.274	1959
456.332	1928
456.355	2140
456.401	2006
456.436	1923
456.470	2006
456.516	1677
456.540	1512
456.597	1655
456.609	1699
456.678	1210
456.678	1193
456.747	847
456.759	932
456.817	1470
456.840	1544
456.886	1533
456.920	1685
456.955	1892
457.001	1944
457.024	2171
457.082	2393
457.093	2401
457.162	3720
457.163	3757
457.232	3613
457.243	3458
457.301	2865
457.324	2433
457.370	2272
457.405	2235
457.439	2013
457.485	2347
457.508	2609
457.566	2480
457.577	2505
457.646	4018
457.647	4045
457.715	5726
457.727	6253
457.784	10835
457.808	12905
457.853	13521
457.889	15624
457.922	15057
457.969	12769
457.991	14924
458.050	18056
458.060	18925
458.129	26509
458.130	26883
458.198	20159
458.211	18597
458.267	16320
458.292	12905
458.336	10883
458.372	9338
458.405	10159
458.453	13160
458.474	16800
458.533	29142
458.543	29553
458.611	36213
458.614	36739
458.680	24098
458.694	19816
458.749	17221
458.775	13238
458.818	8415
458.855	6447
458.887	5001
458.936	4488
458.955	4269
459.016	3746
459.024	3678
459.093	4172
459.097	4176
459.162	4102
459.177	4197
459.230	5036
459.257	5405
459.299	5104
459.338	4807
459.368	5107
459.418	6121
459.437	5843
459.499	4135
459.505	4094
459.574	4482
459.579	4426
459.643	3466
459.659	3511
459.711	4092
459.740	4258
459.780	4495
459.820	4741
459.849	4992
459.900	5694
459.917	5503
459.981	4529
459.986	4522
460.054	4907
460.061	4927
460.123	5397
460.141	5613
460.191	7125
460.222	8060
460.260	8387
460.302	8630
460.328	7768
460.382	6711
460.397	6919
460.462	6969
460.465	7078
460.534	9254
460.543	9582
460.602	19281
460.623	22957
460.671	39548
460.703	51035
460.739	38066
460.783	26068
460.808	23887
460.864	14854
460.876	15184
460.944	7179
460.945	7092
461.013	5227
461.024	5293
461.081	5535
461.104	5705
461.150	5350
461.184	5010
461.218	4910
461.264	4723
461.286	4832
461.345	5023
461.355	5033
461.423	5404
461.425	5410
461.491	5992
461.505	6153
461.559	10352
461.585	12330
461.628	20955
461.665	28570
461.696	28777
461.745	30076
461.764	24963
461.825	9542
461.832	9874
461.901	9404
461.905	9250
461.969	5947
461.985	5819
462.037	5411
462.065	5009
462.105	6156
462.145	7604
462.173	10444
462.225	15413
462.241	17049
462.305	24261
462.310	23374
462.378	10042
462.385	8589
462.446	8619
462.465	7607
462.514	5836
462.545	5506
462.582	5559
462.625	6041
462.650	6083
462.705	6052
462.718	6198
462.785	6809
462.786	6862
462.854	9916
462.865	10382
462.922	11314
462.945	11968
462.990	8740
463.025	6088
463.058	6221
463.104	5875
463.126	5799
463.184	5445
463.194	5373
463.262	5405
463.264	5407
463.330	5456
463.344	5428
463.398	6540
463.424	7045
463.466	6868
463.504	6721
463.533	6677
463.583	6693
463.601	7020
463.663	8090
463.669	8369
463.737	11325
463.743	11613
463.805	16697
463.823	18178
463.873	30117
463.903	37291
463.940	35819
463.982	34452
464.008	26906
464.062	11715
464.076	11443
464.142	7638
464.144	7620
464.211	6530
464.221	6521
464.279	6263
464.301	6212
464.347	7168
464.381	8052
464.414	9196
464.461	10698
464.482	10770
464.540	10808
464.550	10475
464.617	8273
464.620	8185
464.685	9814
464.699	10115
464.753	11741
464.779	12578
464.820	13189
464.859	13737
464.888	13667
464.938	13646
464.956	13722
465.018	13497
465.023	13242
465.091	10088
465.098	9738
465.158	9743
465.177	9702
465.226	10160
465.257	10389
465.293	10740
465.336	11318
465.361	12454
465.416	14774
465.428	15650
465.495	20405
465.496	20538
465.563	36688
465.575	39386
465.631	43548
465.654	45443
465.698	27123
465.734	12084
465.765	12001
465.813	11004
465.833	10663
465.893	9439
465.900	9466
465.968	10304
465.972	10341
466.035	10036
466.052	9970
466.102	10935
466.131	11447
466.170	10689
466.210	9805
466.237	10534
466.290	12000
466.304	11961
466.369	11694
466.372	11755
466.439	13041
466.449	13203
466.506	14526
466.528	15019
466.573	20594
466.607	24709
466.641	37905
466.687	56171
466.708	59878
466.766	69766
466.775	64262
466.842	22240
466.845	20220
466.909	16990
466.925	16079
466.977	14889
467.004	14361
467.044	14827
467.083	15333
467.111	16727
467.163	19285
467.178	19572
467.242	20605
467.245	20545
467.312	18609
467.321	18323
467.379	18271
467.400	18200
467.446	19513
467.480	20407
467.559	17269
467.638	14403
467.717	15801
467.796	16382
467.875	18694
467.955	16810
468.034	27330
468.113	62104
468.192	87666
468.271	18965
468.350	17327
468.429	19650
468.508	20103
468.588	15511
468.667	15526
468.746	15910
468.825	15257
468.904	12796
468.983	16372
469.062	25046
469.141	29350
469.220	12408
469.299	13229
469.378	14799
469.456	17681
469.535	14542
469.614	14636
469.693	16226
469.772	19801
469.851	28999
469.930	16949
470.009	14522
470.088	14910
470.166	18127
470.245	28345
470.324	33659
470.403	22217
470.482	14524
470.560	14757
470.639	14831
470.718	17253
470.797	13312
470.875	17293
470.954	24455
471.033	24356
471.111	11064
471.190	10922
471.269	10956
471.347	11168
471.426	11986
471.505	15392
471.583	14644
471.662	13530
471.740	12162
471.819	12422
471.898	11855
471.976	11834
472.055	11758
472.133	14489
472.212	19140
472.290	18911
472.369	11643
472.447	10890
472.526	9652
472.604	11213
472.683	12441
472.761	13077
472.839	13354
472.918	12046
472.996	11505
473.075	14795
473.153	12377
473.231	11633
473.310	13909
473.388	13237
473.466	12113
473.545	14561
473.623	18190
473.701	17925
473.780	11219
473.858	13253
473.936	12705
474.014	11908
474.093	14155
474.171	20471
474.249	29934
474.327	16217
474.405	11102
474.484	10590
474.562	10834
474.640	11572
474.718	11677
474.796	11830
474.874	11044
474.952	9999
475.030	10291
475.108	10865
475.187	12131
475.265	13579
475.343	19850
475.421	21299
475.499	10713
475.577	10932
475.655	15439
475.733	33520
475.811	56265
475.889	53989
475.966	27541
476.044	12409
476.122	15580
476.200	20795
476.278	14284
476.356	11527
476.434	11598
476.512	14525
476.590	19437
476.667	15111
476.745	10856
476.823	12090
476.901	10349
476.979	12327
477.056	11988
477.134	11549
477.212	12243
477.290	11387
477.367	9491
477.445	9854
477.523	10330
477.601	9967
477.678	9776
477.756	13285
477.834	13960
477.911	10427
477.989	9970
478.066	10222
478.144	12864
478.222	14040
478.299	24719
478.377	17966
478.454	9820
478.532	8646
478.609	10407
478.687	11564
478.764	8837
478.842	10715
478.919	11333
478.997	10482
479.074	8889
479.152	12104
479.229	16044
479.307	8841
479.384	7623
479.461	8150
479.539	9368
479.616	11846
479.694	9878
479.771	11773
479.848	11580
479.926	16869
480.003	15708
480.080	8849
480.157	8503
480.235	8352
480.312	8478
480.389	10397
480.467	19008
480.544	23179
480.621	11048
480.698	10918
480.775	12489
480.853	12966
480.930	9383
481.007	10879
481.084	12116
481.161	14169
481.238	12544
481.315	8470
481.392	9737
481.470	10384
481.547	10381
481.624	9850
481.701	9346
481.778	10292
481.855	11857
481.932	17077
482.009	33484
482.086	17957
482.163	10945
482.240	16352
482.317	29286
482.393	19331
482.470	9661
482.547	10963
482.624	10000
482.701	10775
482.778	10019
482.855	8605
482.932	8736
483.009	8411
483.085	10293
483.162	13817
483.239	11508
483.316	9810
483.393	9497
483.469	8964
483.546	10214
483.623	11982
483.699	8511
483.776	9731
483.853	11265
483.930	18563
484.006	46108
484.083	81451
484.160	33352
484.236	50648
484.313	36772
484.389	28741
484.466	24457
484.543	25324
484.619	25446
484.696	27139
484.772	28273
484.849	29274
484.925	23946
485.002	22714
485.078	24653
485.155	24831
485.231	21711
485.308	22054
485.384	22756
485.461	28642
485.537	49742
485.614	53369
485.690	22436
485.766	20423
485.843	22672
485.919	32901
485.995	31458
486.072	19878
486.148	19152
486.224	19279
486.301	20256
486.377	22537
486.453	24990
486.530	22441
486.606	29280
486.682	33222
486.758	40954
486.835	47000
486.911	36540
486.987	64798
487.063	59442
487.139	73940
487.215	51021
487.292	24068
487.368	21391
487.444	25656
487.520	32144
487.596	31614
487.672	47802
487.748	124391
487.824	181412
487.900	52758
487.976	26723
488.052	26920
488.128	31730
488.204	24364
488.280	20332
488.356	27497
488.432	55464
488.508	84731
488.584	25483
488.660	20159
488.736	19359
488.812	21211
488.888	26030
488.964	34775
489.039	74530
489.115	113916
489.191	55611
489.267	21670
489.343	19321
489.418	17456
489.494	16965
489.570	16011
489.646	15999
489.722	17579
489.797	17401
489.873	28868
489.949	66205
490.024	46688
490.100	16305
490.176	16746
490.251	20147
490.327	27012
490.403	14787
490.478	15845
490.554	11974
490.629	14435
490.705	13258
490.781	15475
490.856	15263
490.932	17429
491.007	16506
491.083	16452
491.158	15486
491.234	21683
491.309	49150
491.385	45455
491.460	15109
491.536	16330
491.611	13891
491.686	16040
491.762	22104
491.837	46292
491.913	77066
491.988	106240
492.063	127164
492.139	34313
492.214	22009
492.289	12273
492.365	12294
492.440	16046
492.515	15607
492.590	15920
492.666	11344
492.741	18332
492.816	28676
492.891	13738
492.967	11735
493.042	11092
493.117	10343
493.192	10757
493.267	12265
493.342	17160
493.418	15395
493.493	11144
493.568	9569
493.643	11389
493.718	14415
493.793	24920
493.868	24830
493.943	15394
494.018	11388
494.093	11618
494.168	11807
494.243	10031
494.318	9247
494.393	9866
494.468	9117
494.543	9497
494.618	13234
494.693	10965
494.768	11390
494.842	11871
494.917	8226
494.992	11100
495.067	8923
495.142	9448
495.217	10350
495.292	9573
495.366	12092
495.441	14242
495.516	17808
495.591	30192
495.665	93807
495.740	236969
495.815	69060
495.890	16502
495.964	12716
496.039	13822
496.114	13625
496.188	15811
496.263	14405
496.338	12741
496.412	15888
496.487	17704
496.561	18234
496.636	18913
496.710	14217
496.785	17793
496.860	19915
496.934	14673
497.009	14871
497.083	15407
497.158	16002
497.232	19159
497.307	23228
497.381	19226
497.455	22887
497.530	31362
497.604	20150
497.679	21579
497.753	33496
497.827	43756
497.902	38334
497.976	46833
498.050	107028
498.125	391768
498.199	342026
498.273	61468
498.348	48406
498.422	37368
498.496	35677
498.570	30409
498.645	22429
498.719	22813
498.793	24546
498.867	40313
498.941	57856
499.016	148297
499.090	432719
499.164	104465
499.238	16519
499.312	15773
499.386	19775
499.460	18007
499.534	15152
499.609	21142
499.683	31241
499.757	29725
499.831	72042
499.905	287559
499.979	228317
500.053	37407
500.127	35630
500.201	26482
500.275	15534
500.349	15107
500.422	18530
500.496	29171
500.570	66702
500.644	148710
500.718	296649
500.792	44986
500.866	15769
500.940	22235
501.013	15713
501.087	16227
501.161	31022
501.235	43176
501.309	94575
501.382	266160
501.456	195661
501.530	44207
501.603	86951
501.677	25592
501.751	13278
501.825	16744
501.898	34562
501.972	106468
502.046	52753
502.119	18718
502.193	43966
502.266	118175
502.340	44335
502.413	47221
502.487	96896
502.561	51465
502.634	15062
502.708	13829
502.781	11986
502.855	9976
502.928	8093
503.002	8117
503.075	8224
503.149	9569
503.222	9078
503.295	10294
503.369	12610
503.442	23446
503.516	73611
503.589	197121
503.662	110656
503.736	34563
503.809	90157
503.882	67309
503.956	106496
504.029	93330
504.102	70386
504.175	90345
504.249	30286
504.322	19236
504.395	15170
504.468	10547
504.542	11011
504.615	9178
504.688	8421
504.761	9093
504.834	10802
504.907	13311
504.980	21102
505.053	10751
505.127	14696
505.200	15640
505.273	17267
505.346	9721
505.419	8513
505.492	8056
505.565	6562
505.638	6818
505.711	6686
505.784	6866
505.857	5051
505.930	6955
506.003	6888
506.076	6832
506.149	11330
506.221	15745
506.294	13765
506.367	41521
506.440	141303
506.513	59937
506.586	15508
506.659	9536
506.731	8030
506.804	10361
506.877	15215
506.950	10248
507.022	7108
507.095	12060
507.168	12752
507.241	8434
507.313	6443
507.386	9109
507.459	11462
507.531	8120
507.604	6131
507.677	6732
507.749	6574
507.822	9988
507.894	19974
507.967	22684
508.040	12613
508.112	11127
508.185	10280
508.257	10718
508.330	15868
508.402	9910
508.475	9744
508.547	10209
508.620	11490
508.692	19490
508.765	9829
508.837	8097
508.909	7692
508.982	7512
509.054	9335
509.127	8534
509.199	7417
509.271	7853
509.344	7361
509.416	6790
509.488	7113
509.560	8133
509.633	8738
509.705	9566
509.777	9311
509.849	14176
509.922	9096
509.994	7535
510.066	7749
510.138	10484
510.210	17829
510.283	16019
510.355	13045
510.427	11552
510.499	10535
510.571	10836
510.643	11677
510.715	17615
510.787	15232
510.859	11717
510.931	12896
511.003	16776
511.076	14689
511.148	9877
511.219	10957
511.291	16956
511.363	18747
511.435	8619
511.507	8259
511.579	8633
511.651	8716
511.723	9379
511.795	8371
511.867	9807
511.939	12088
512.010	26014
512.082	17731
512.154	10276
512.226	10220
512.298	14711
512.369	21791
512.441	16101
512.513	16094
512.585	12493
512.656	12299
512.728	14190
512.800	11120
512.871	9610
512.943	10755
513.015	9961
513.086	10162
513.158	12131
513.230	12284
513.301	17769
513.373	18907
513.444	10858
513.516	8478
513.588	10046
513.659	10521
513.731	13919
513.802	13479
513.874	24491
513.945	44288
514.016	14756
514.088	10242
514.159	12463
514.231	15145
514.302	20181
514.374	13720
514.445	15316
514.516	28152
514.588	21222
514.659	14309
514.730	27419
514.802	18484
514.873	16170
514.944	14157
515.016	13757
515.087	15802
515.158	20214
515.229	26432
515.301	16514
515.372	20414
515.443	13747
515.514	11450
515.585	10046
515.656	10094
515.728	9936
515.799	9800
515.870	10768
515.941	10576
516.012	12316
516.083	13818
516.154	16395
516.225	19168
516.296	17188
516.367	14833
516.438	17716
516.509	25451
516.580	48620
516.651	138431
516.722	465938
516.793	172588
516.864	31191
516.935	29001
517.006	36168
517.077	60373
517.148	157067
517.219	495126
517.289	749205
517.360	193727
517.431	55543
517.502	20411
517.573	19539
517.643	17227
517.714	18984
517.785	18191
517.856	18271
517.926	20567
517.997	22879
518.068	30886
518.138	50750
518.209	104452
518.280	330658
518.350	1072007
518.421	388379
518.492	46454
518.562	28783
518.633	27815
518.703	29087
518.774	46025
518.845	102541
518.915	96775
518.986	33158
519.056	25439
519.127	42969
519.197	66363
519.268	141518
519.338	85401
519.408	22333
519.479	25652
519.549	19739
519.620	13084
519.690	10804
519.760	11342
519.831	11631
519.901	12372
519.971	9488
520.042	11217
520.112	13337
520.182	13541
520.253	15586
520.323	10979
520.393	13281
520.463	18943
520.534	14740
520.604	23639
520.674	12609
520.744	14806
520.814	29562
520.885	30467
520.955	48533
521.025	164389
521.095	57383
521.165	11724
521.235	11599
521.305	9474
521.375	9538
521.445	10613
521.515	14581
521.585	15537
521.655	16468
521.725	12450
521.795	12048
521.865	9561
521.935	14875
522.005	13454
522.075	8856
522.145	9891
522.215	11461
522.285	17433
522.355	23526
522.424	43525
522.494	37066
522.564	19216
522.634	35741
522.704	96548
522.774	35407
522.843	9834
522.913	10407
522.983	12681
523.053	10062
523.122	10334
523.192	18350
523.262	50898
523.331	50738
523.401	10702
523.471	7914
523.540	8717
523.610	7118
523.680	6813
523.749	7674
523.819	9578
523.888	10940
523.958	7865
524.027	8268
524.097	8553
524.166	8275
524.236	10039
524.305	9070
524.375	7906
524.444	7658
524.514	7903
524.583	8747
524.653	11622
524.722	12616
524.791	7777
524.861	8565
524.930	7971
524.999	8681
525.069	11844
525.138	11187
525.207	12998
525.277	8102
525.346	8249
525.415	8710
525.484	8576
525.554	11063
525.623	10880
525.692	9215
525.761	9344
525.830	9542
525.900	12464
525.969	20754
526.038	36788
526.107	70134
526.176	194071
526.245	156914
526.314	52897
526.383	102378
526.452	147774
526.522	216533
526.591	225860
526.660	57769
526.729	28684
526.797	39347
526.867	90611
526.935	304697
527.004	506271
527.073	278153
527.142	25741
527.211	13846
527.280	12506
527.349	13553
527.418	7912
527.487	7577
527.555	7651
527.624	6861
527.693	6154
527.762	7589
527.831	6940
527.899	7688
527.968	5705
528.037	7787
528.106	8971
528.174	18016
528.243	14574
528.312	19222
528.380	26287
528.449	8792
528.518	5635
528.586	5643
528.655	5913
528.723	5684
528.792	5242
528.861	7541
528.929	5057
528.998	5552
529.066	4695
529.135	5462
529.203	4608
529.272	5223
529.340	6152
529.409	6289
529.477	6169
529.545	8550
529.614	9014
529.682	10334
529.751	11730
529.819	9644
529.887	8610
529.956	6309
530.024	6216
530.092	6513
530.161	7648
530.229	12960
530.297	7966
530.365	5661
530.434	4994
530.502	5309
530.570	5211
530.638	4896
530.707	6771
530.775	7837
530.843	5945
530.911	5562
530.979	5933
531.047	5841
531.115	5724
531.183	5648
531.252	5147
531.320	6309
531.388	5571
531.456	5288
531.524	5023
531.592	6350
531.660	6762
531.728	6259
531.796	5412
531.864	5220
531.932	5529
532.000	5756
532.067	5839
532.135	7065
532.203	7611
532.271	9987
532.339	15276
532.407	38850
532.475	22425
532.542	10053
532.610	12993
532.678	24574
532.746	68457
532.814	175994
532.881	41710
532.949	8570
533.017	7535
533.084	6778
533.152	6207
533.220	7269
533.287	7117
533.355	5447
533.423	5743
533.490	5823
533.558	6096
533.625	7157
533.693	7352
533.761	7641
533.828	8096
533.896	8198
533.963	14267
534.031	17752
534.098	23692
534.166	12992
534.233	7543
534.300	7360
534.368	7713
534.435	6674
534.503	6774
534.570	7813
534.637	7838
534.705	9943
534.772	14444
534.840	26727
534.907	82897
534.974	116049
535.041	14670
535.109	10413
535.176	7090
535.243	6760
535.310	7968
535.378	7435
535.445	5773
535.512	6109
535.579	6269
535.646	6512
535.714	6770
535.781	9207
535.848	9210
535.915	7402
535.982	7117
536.049	7645
536.116	7475
536.183	7506
536.250	7434
536.317	8944
536.384	9393
536.451	13058
536.518	13266
536.585	10837
536.652	11998
536.719	17165
536.786	14120
536.853	10986
536.920	15824
536.987	28110
537.053	30351
537.120	81284
537.187	77580
537.254	10161
537.321	7493
537.388	9117
537.454	8095
537.521	6544
537.588	7000
537.654	8438
537.721	9566
537.788	9794
537.855	7318
537.921	8989
537.988	8639
538.055	7941
538.121	8415
538.188	9394
538.254	13194
538.321	25109
538.388	16598
538.454	9103
538.521	8592
538.587	8183
538.654	7267
538.720	7503
538.787	7786
538.853	9060
538.920	10631
538.986	10812
539.053	7716
539.119	9258
539.185	9773
539.252	9979
539.318	15349
539.385	11796
539.451	11758
539.517	11872
539.583	15429
539.650	27586
539.716	64822
539.782	20983
539.849	8741
539.915	8352
539.981	9470
540.047	11202
540.114	8903
540.180	9224
540.246	10038
540.312	13998
540.378	25207
540.444	28873
540.510	27715
540.576	72226
540.643	26534
540.709	9150
540.775	8438
540.841	9946
540.907	11596
540.973	16974
541.039	14652
541.105	16309
541.171	9237
541.237	9137
541.303	9710
541.369	11513
541.435	13932
541.500	21924
541.566	15592
541.632	8437
541.698	7251
541.764	7420
541.830	7468
541.896	7922
541.961	8478
542.027	8426
542.093	7742
542.159	9230
542.224	10375
542.290	14523
542.356	21915
542.421	26077
542.487	12057
542.553	9166
542.618	10474
542.684	9012
542.750	9146
542.815	13629
542.881	22876
542.947	58549
543.012	49342
543.078	8812
543.143	7726
543.209	9647
543.274	9710
543.340	13442
543.405	23949
543.471	39763
543.536	10375
543.602	8843
543.667	7978
543.732	7754
543.798	8186
543.863	8685
543.928	8003
543.994	8020
544.059	8016
544.124	8110
544.190	7783
544.255	8124
544.320	7851
544.386	8556
544.451	12108
544.516	14951
544.581	17348
544.646	36716
544.712	62561
544.777	14743
544.842	10265
544.907	11316
544.972	9770
545.037	9769
545.102	10212
545.168	10818
545.233	11550
545.298	12190
545.363	14738
545.428	17635
545.493	24970
545.558	51660
545.623	24818
545.688	11603
545.753	10956
545.818	11060
545.883	10571
545.947	12133
546.012	12385
546.077	13405
546.142	11955
546.207	13352
546.272	14958
546.337	16306
546.401	13066
546.466	13623
546.531	12835
546.596	15527
546.661	12776
546.725	13837
546.790	12937
546.855	14286
546.919	14367
546.984	16441
547.049	17700
547.113	20364
547.178	20193
547.243	22107
547.307	25209
547.372	28780
547.436	30792
547.501	26945
547.565	28161
547.630	29402
547.695	28992
547.759	30672
547.823	27923
547.888	26812
547.952	26556
548.017	28036
548.081	31264
548.146	34655
548.210	32321
548.274	29777
548.339	29415
548.403	27567
548.468	24781
548.532	25790
548.596	25517
548.660	25414
548.725	28894
548.789	33156
548.853	33206
548.917	29119
548.982	32338
549.046	32063
549.110	24234
549.174	24274
549.238	25722
549.303	29179
549.367	28985
549.431	28114
549.495	26447
549.559	27276
549.623	30438
549.687	36096
549.751	40019
549.815	39395
549.879	39617
549.943	36316
550.007	38485
550.071	38660
550.135	38169
550.199	35456
550.263	33755
550.327	32930
550.391	37083
550.455	35528
550.519	35518
550.582	39133
550.646	45650
550.710	48624
550.774	41834
550.838	42605
550.901	43533
550.965	47316
551.029	49679
551.093	55560
551.156	63560
551.220	83714
551.284	98306
551.347	68046
551.411	73431
551.475	81084
551.538	48130
551.602	43184
551.666	39946
551.729	37700
551.793	37546
551.856	36862
551.920	34663
551.983	36309
552.047	34423
552.110	36301
552.174	35602
552.237	37334
552.301	34528
552.364	32905
552.428	33239
552.491	33598
552.554	35103
552.618	33780
552.681	36897
552.745	39653
552.808	48396
552.871	62045
552.934	45455
552.998	35918
553.061	35163
553.124	33335
553.187	32589
553.251	32949
553.314	32738
553.377	33300
553.440	35734
553.503	37889
553.567	38494
553.630	35276
553.693	34082
553.756	35286
553.819	33916
553.882	32649
553.945	31955
554.008	33334
554.071	32324
554.134	32667
554.197	31139
554.260	30287
554.323	31827
554.386	32697
554.449	33075
554.512	32909
554.575	31502
554.638	31557
554.701	31678
554.764	30966
554.827	29978
554.889	28476
554.952	27499
555.015	26347
555.078	27004
555.141	27745
555.203	26367
555.266	27328
555.329	27554
555.391	26409
555.454	26000
555.517	26041
555.580	23772
555.642	23158
555.705	23077
555.768	23091
555.830	22803
555.893	21585
555.955	20934
556.018	21141
556.080	20578
556.143	21347
556.206	20852
556.268	22313
556.330	21704
556.393	21674
556.455	21207
556.518	24793
556.580	25329
556.643	19393
556.705	18148
556.767	18213
556.830	18769
556.892	19680
556.955	23846
557.017	21995
557.079	17443
557.142	18320
557.204	19778
557.266	27941
557.328	26660
557.391	15809
557.453	15112
557.515	16366
557.577	17052
557.639	17728
557.701	14854
557.764	15155
557.826	15443
557.888	17580
557.950	17492
558.012	22291
558.074	29900
558.136	49041
558.198	115197
558.260	53861
558.322	17332
558.384	17333
558.446	18578
558.508	21603
558.570	29322
558.632	45829
558.694	79691
558.756	106038
558.818	201956
558.880	513875
558.942	211646
559.003	115649
559.065	72075
559.127	23812
559.189	26548
559.251	37875
559.312	62996
559.374	108449
559.436	308733
559.498	208334
559.559	28707
559.621	28702
559.683	40782
559.744	68205
559.806	141910
559.868	257692
559.929	62426
559.991	34676
560.052	47105
560.114	109481
560.176	95334
560.237	60557
560.299	114047
560.360	34454
560.422	13753
560.483	13001
560.545	11946
560.606	12673
560.667	10945
560.729	10978
560.790	11479
560.852	11335
560.913	10609
560.974	10454
561.036	10023
561.097	11153
561.158	10785
561.220	10335
561.281	10362
561.342	11211
561.403	14342
561.465	18634
561.526	27667
561.587	42857
561.648	16381
561.709	10367
561.771	10811
561.832	9931
561.893	10249
561.954	10479
562.015	9463
562.076	10143
562.137	9983
562.198	10039
562.259	9704
562.320	11132
562.381	11693
562.442	14371
562.503	13812
562.564	10371
562.625	9424
562.686	10039
562.747	10804
562.808	10975
562.869	9473
562.930	12378
562.991	12264
563.051	11551
563.112	10349
563.173	9927
563.234	8421
563.294	10515
563.355	9569
563.416	10143
563.477	9859
563.537	10049
563.598	11202
563.659	10536
563.720	10769
563.780	11216
563.841	10759
563.901	10397
563.962	9914
564.023	9518
564.083	9330
564.144	10588
564.204	10659
564.265	11841
564.325	12598
564.386	19203
564.446	21200
564.507	9708
564.567	9603
564.628	10629
564.688	10533
564.749	9909
564.809	11139
564.869	13223
564.930	10770
564.990	9488
565.050	8973
565.111	10127
565.171	8698
565.231	9525
565.292	9995
565.352	9588
565.412	9624
565.472	10031
565.532	10842
565.593	10640
565.653	8813
565.713	10603
565.773	10708
565.833	11491
565.893	14893
565.953	11540
566.013	11332
566.074	11405
566.134	13709
566.194	19017
566.254	21240
566.314	14456
566.374	11349
566.434	10904
566.494	11771
566.554	11655
566.614	11345
566.673	11927
566.733	11358
566.793	12463
566.853	13763
566.913	13549
566.973	14017
567.033	13996
567.092	14321
567.152	14439
567.212	14957
567.272	13933
567.331	14722
567.391	15775
567.451	15694
567.511	19258
567.570	19824
567.630	14030
567.690	13395
567.749	13383
567.809	13850
567.868	16071
567.928	17244
567.988	20559
568.047	23468
568.107	29401
568.166	39225
568.226	57400
568.285	79609
568.345	68100
568.404	51221
568.464	42241
568.523	38688
568.582	42293
568.642	49712
568.701	63639
568.761	86424
568.820	133833
568.879	135648
568.939	97769
568.998	67998
569.057	49904
569.116	37835
569.176	30949
569.235	26008
569.294	22956
569.353	19974
569.413	18560
569.472	16921
569.531	16477
569.590	14369
569.649	14690
569.708	14002
569.767	14339
569.827	14427
569.886	14455
569.945	10658
570.004	12204
570.063	11858
570.122	12278
570.181	12898
570.240	12942
570.299	13924
570.358	13467
570.417	11319
570.475	10358
570.534	10959
570.593	11840
570.652	11792
570.711	11405
570.770	10878
570.829	11896
570.887	11768
570.946	12778
571.005	10650
571.064	10697
571.122	10954
571.181	11762
571.240	10366
571.299	9802
571.357	10340
571.416	11061
571.475	11001
571.533	12073
571.592	9515
571.650	10978
571.709	9724
571.768	10835
571.826	9969
571.885	8766
571.943	9201
572.002	9895
572.060	9313
572.119	8431
572.177	8572
572.236	8251
572.294	9089
572.352	9234
572.411	8453
572.469	8903
572.528	8606
572.586	9311
572.644	9753
572.703	12064
572.761	11002
572.819	8934
572.877	8219
572.936	8694
572.994	8006
573.052	8953
573.110	8322
573.169	8721
573.227	7333
573.285	7625
573.343	8372
573.401	8137
573.459	6622
573.517	8483
573.576	7467
573.634	8269
573.692	8509
573.750	8871
573.808	8403
573.866	8989
573.924	9915
573.982	10699
574.040	9030
574.098	8514
574.155	8332
574.213	8071
574.271	7257
574.329	7999
574.387	8153
574.445	7782
574.503	7191
574.560	7134
574.618	6586
574.676	8259
574.734	7130
574.792	8128
574.849	7569
574.907	7598
574.965	7191
575.022	7533
575.080	6415
575.138	8139
575.195	7067
575.253	8099
575.311	6992
575.368	7768
575.426	6960
575.483	6768
575.541	7740
575.598	7564
575.656	7301
575.713	7936
575.771	7207
575.828	7068
575.886	7167
575.943	8583
576.001	8583
576.058	8223
576.115	9179
576.173	9761
576.230	10710
576.287	11009
576.345	10060
576.402	8603
576.459	8711
576.517	9177
576.574	8772
576.631	9284
576.688	8504
576.746	8173
576.803	7651
576.860	8319
576.917	7738
576.974	8209
577.031	8002
577.089	8090
577.146	7998
577.203	8401
577.260	9018
577.317	9559
577.374	8659
577.431	9267
577.488	8852
577.545	8119
577.602	7144
577.659	7840
577.716	7025
577.773	8308
577.830	7008
577.886	7522
577.943	7216
578.000	8090
578.057	7712
578.114	8526
578.171	7764
578.227	8273
578.284	7312
578.341	7547
578.398	8872
578.454	8200
578.511	9385
578.568	10204
578.625	9349
578.681	8352
578.738	7626
578.794	8007
578.851	7736
578.908	8003
578.964	8595
579.021	9967
579.077	8325
579.134	7826
579.190	7393
579.247	7837
579.303	8315
579.360	7505
579.416	7407
579.473	8388
579.529	6661
579.586	8428
579.642	8064
579.698	8081
579.755	8545
579.811	8733
579.867	8334
579.924	7930
579.980	7761
580.036	7911
580.093	8181
580.149	7786
580.205	8751
580.261	8730
580.317	9231
580.374	9846
580.430	9481
580.486	10257
580.542	9806
580.598	9915
580.619	9277
580.654	8181
580.692	8841
580.710	9184
580.765	9042
580.767	9045
580.823	9241
580.838	9036
580.879	8547
580.911	8966
580.935	9286
580.984	8166
580.991	8020
581.047	8802
581.057	8720
581.103	8418
581.130	8895
581.159	9392
581.203	8710
581.215	8542
581.270	9170
581.276	9146
581.326	8999
581.349	8961
581.382	8928
581.422	9124
581.438	9191
581.494	9936
581.494	9920
581.550	9152
581.567	9212
581.606	9313
581.640	9281
581.661	9286
581.713	9587
581.717	9608
581.773	8930
581.786	9165
581.829	10072
581.859	9747
581.885	9412
581.932	9741
581.940	9816
581.996	9328
582.004	9434
582.052	10102
582.077	9706
582.107	9203
582.150	9323
582.163	9360
582.219	9705
582.223	9740
582.274	10325
582.296	10100
582.330	9658
582.368	10616
582.386	11052
582.441	10245
582.441	10247
582.497	9730
582.514	9444
582.552	8928
582.587	9638
582.608	10003
582.659	9426
582.663	9385
582.719	10478
582.732	10319
582.774	9846
582.805	10047
582.830	10253
582.877	10304
582.885	10299
582.941	10442
582.950	10341
582.996	9937
583.023	10338
583.052	10686
583.095	10822
583.107	10887
583.162	10183
583.168	10211
583.218	10366
583.240	10531
583.273	10770
583.313	10332
583.328	10224
583.384	10204
583.385	10205
583.439	10110
583.458	10271
583.494	10542
583.531	10229
583.549	10059
583.603	11088
583.605	11122
583.660	9955
583.676	10089
583.715	10369
583.748	10457
583.770	10496
583.820	10801
583.825	10852
583.881	10236
583.893	10538
583.936	11534
583.965	10961
583.991	10396
584.038	10991
584.046	11132
584.101	11102
584.110	11188
584.156	11503
584.183	11187
584.211	10754
584.255	11382
584.266	11563
584.321	10737
584.328	10806
584.376	11423
584.400	11648
584.431	11911
584.472	11720
584.486	11662
584.541	11518
584.545	11587
584.596	12835
584.617	12750
584.651	12376
584.689	12196
584.706	12164
584.761	11794
584.762	11806
584.816	13081
584.834	13075
584.871	13275
584.906	13235
584.926	13050
584.978	13553
584.980	13575
585.035	13997
585.051	13974
585.090	14040
585.123	14191
585.145	14322
585.195	15017
585.200	15057
585.254	15833
585.267	16030
585.309	17063
585.340	18034
585.364	18690
585.412	20255
585.419	20479
585.473	25247
585.484	26473
585.528	31529
585.556	36048
585.583	40920
585.628	49033
585.637	51848
585.692	81817
585.700	91430
585.747	157151
585.772	152167
585.801	126017
585.845	74426
585.856	58951
585.910	27276
585.917	24086
585.965	20855
585.989	19779
586.019	19310
586.061	19057
586.074	19070
586.128	19048
586.133	19077
586.183	19531
586.205	19976
586.237	20407
586.277	19898
586.292	19926
586.346	21089
586.349	21125
586.401	21079
586.421	21265
586.455	21587
586.493	22542
586.509	22984
586.564	24045
586.565	24149
586.618	30456
586.637	32120
586.672	34922
586.709	32279
586.727	29116
586.781	25539
586.781	25535
586.835	25419
586.853	25343
586.889	24694
586.925	24369
586.944	24510
586.996	25119
586.998	25121
587.052	25782
587.068	25820
587.106	26656
587.140	27702
587.161	27941
587.212	28275
587.215	28302
587.269	29548
587.284	29682
587.323	30316
587.356	31052
587.377	31525
587.427	33090
587.431	33217
587.485	34708
587.499	35236
587.539	36167
587.571	36651
587.593	37170
587.643	38942
587.648	39148
587.702	41134
587.715	41735
587.755	43595
587.786	45304
587.810	46601
587.858	48897
587.864	49238
587.917	53601
587.930	54592
587.971	57533
588.001	59662
588.025	61937
588.073	67224
588.079	67870
588.133	73865
588.145	75579
588.187	83135
588.217	88381
588.241	92974
588.288	102949
588.295	104473
588.348	119525
588.360	123162
588.402	138429
588.431	150189
588.456	161079
588.503	185738
588.510	189601
588.564	225343
588.575	234122
588.617	274800
588.646	306461
588.671	338390
588.718	403982
588.725	417529
588.778	533518
588.789	559424
588.832	709889
588.861	814734
588.886	938247
588.932	1131178
588.939	1142004
588.993	1150459
589.004	1170361
589.047	1172224
589.075	1167150
589.100	1142428
589.147	1024773
589.154	990875
589.207	719139
589.218	666976
589.261	568945
589.290	509847
589.314	495963
589.361	480896
589.368	486776
589.421	549517
589.433	566496
589.475	710480
589.504	810393
589.528	930343
589.576	1110432
589.582	1109096
589.635	1103988
589.647	1101495
589.689	1003005
589.718	902162
589.742	761283
589.790	485734
589.795	469617
589.849	327938
589.861	296813
589.902	246393
589.932	210835
589.955	194422
590.004	160532
590.009	157933
590.062	132200
590.075	125986
590.115	113154
590.146	104041
590.168	99483
590.218	89708
590.222	89066
590.275	80698
590.289	78704
590.328	74507
590.360	70936
590.381	68961
590.431	64643
590.435	64389
590.488	60184
590.503	58960
590.541	56136
590.574	54018
590.594	53311
590.645	51077
590.647	50955
590.700	47836
590.716	46901
590.753	45602
590.787	44285
590.806	43527
590.859	41735
590.859	41720
590.912	40579
590.930	40246
590.965	39223
591.001	38261
591.018	38039
591.071	37275
591.072	37264
591.124	36200
591.143	35888
591.177	35525
591.214	35166
591.230	34997
591.283	34422
591.285	34391
591.336	33801
591.356	33599
591.389	33760
591.427	33767
591.442	33260
591.495	31511
591.498	31371
591.547	30792
591.569	30574
591.600	30258
591.640	29704
591.653	29615
591.706	29341
591.711	29307
591.759	29174
591.782	29083
591.811	29453
591.853	30048
591.864	30214
591.917	30791
591.924	30860
591.969	29501
591.995	28753
592.022	28897
592.066	29027
592.075	28925
592.127	28224
592.137	28094
592.180	28703
592.208	29069
592.233	29527
592.279	30238
592.285	30023
592.338	28059
592.350	27600
592.390	26653
592.421	25914
592.443	26271
592.491	27033
592.495	27008
592.548	26499
592.562	26344
592.600	26602
592.633	26815
592.653	26628
592.704	25952
592.705	26085
592.775	25328
592.846	25259
592.916	25619
592.987	25819
593.058	26127
593.128	24436
593.199	24538
593.270	24265
593.341	24142
593.411	24207
593.482	24915
593.553	24939
593.623	24710
593.694	24224
593.764	25042
593.835	24949
593.906	23934
593.976	23475
594.047	24858
594.117	24573
594.188	27815
594.258	25700
594.329	24542
594.399	24303
594.470	25356
594.540	24442
594.611	24893
594.681	25376
594.751	25528
594.822	24897
594.892	26781
594.963	27026
595.033	28171
595.103	27034
595.174	27500
595.244	29148
595.314	32486
595.384	33958
595.455	29041
595.525	28882
595.595	29192
595.665	30090
595.736	30135
595.806	28703
595.876	29818
595.946	29469
596.016	28453
596.087	28987
596.157	30641
596.227	29741
596.297	30347
596.367	31523
596.437	34058
596.507	35115
596.577	37939
596.647	39220
596.717	34907
596.787	35682
596.857	35861
596.927	35861
596.997	36128
597.067	35961
597.137	36721
597.207	36990
597.277	36928
597.347	36994
597.417	35497
597.487	35349
597.557	36141
597.626	36564
597.696	36993
597.766	36947
597.836	39897
597.906	39549
597.975	33704
598.045	32955
598.115	33377
598.185	34513
598.254	36433
598.324	40122
598.394	42426
598.464	42639
598.533	41699
598.603	40391
598.672	38203
598.742	37987
598.812	38442
598.881	37372
598.951	39252
599.020	38572
599.090	38504
599.159	39400
599.229	39663
599.299	38383
599.368	38334
599.437	40177
599.507	37792
599.576	36697
599.646	36047
599.715	35292
599.785	33841
599.854	34708
599.924	35012
599.993	34243
600.062	32790
600.132	34468
600.201	34633
600.270	36935
600.340	41260
600.409	42158
600.478	41194
600.547	42327
600.617	41753
600.686	37685
600.755	32466
600.824	31240
600.894	30333
600.963	28483
601.032	29252
601.101	28290
601.170	27611
601.239	27509
601.308	27021
601.378	27866
601.447	27339
601.516	26551
601.585	27429
601.654	27713
601.723	28431
601.792	27446
601.861	28893
601.930	28194
601.999	30742
602.068	30456
602.137	29822
602.206	30680
602.275	31696
602.343	30478
602.412	32889
602.481	31316
602.550	30941
602.619	30264
602.688	31853
602.756	32704
602.825	31946
602.894	31962
602.963	32597
603.032	32665
603.100	33410
603.169	33493
603.238	33383
603.307	33112
603.375	33799
603.444	33384
603.513	34699
603.581	34314
603.650	35263
603.719	34397
603.787	33551
603.856	34429
603.924	35564
603.993	36849
604.061	37306
604.130	38014
604.198	40144
604.267	39998
604.335	41103
604.404	41048
604.472	41232
604.541	42362
604.609	41945
604.678	42785
604.746	42141
604.815	41671
604.883	44211
604.951	44400
605.020	44574
605.088	45256
605.156	46244
605.225	46373
605.293	47158
605.361	46981
605.429	46730
605.498	47497
605.566	47938
605.634	50237
605.702	50954
605.771	53181
605.839	54214
605.907	54469
605.975	52913
606.043	50796
606.111	50426
606.180	50654
606.248	50978
606.316	49137
606.384	49141
606.452	51408
606.520	51648
606.588	53680
606.656	52647
606.724	52470
606.792	49623
606.860	47088
606.928	42562
606.996	40316
607.064	38556
607.132	37646
607.200	38520
607.267	41040
607.335	42330
607.403	42472
607.471	43739
607.539	42481
607.607	41956
607.674	40358
607.742	37181
607.810	37582
607.878	38182
607.946	36229
608.013	38798
608.081	39284
608.149	41694
608.216	39877
608.284	41566
608.352	42338
608.419	42093
608.487	42646
608.555	43649
608.622	40611
608.690	41469
608.757	44821
608.825	47857
608.893	48623
608.960	49472
609.028	47160
609.095	47673
609.163	45912
609.230	43789
609.298	38069
609.365	36897
609.432	38643
609.500	41577
609.567	45971
609.635	51282
609.702	59864
609.769	60045
609.837	56877
609.904	45313
609.971	40473
610.039	43646
610.106	47599
610.173	64348
610.241	120519
610.308	256409
610.375	171029
610.442	90184
610.509	49268
610.577	42699
610.644	41253
610.711	41658
610.778	43447
610.845	43912
610.912	46503
610.980	47473
611.047	48597
611.114	50100
611.181	48964
611.248	47045
611.315	47188
611.382	49660
611.449	49859
611.516	52136
611.583	52873
611.650	52440
611.717	53348
611.784	53037
611.851	54840
611.918	55512
611.984	61040
612.051	72929
612.118	103772
612.185	207427
612.252	479837
612.319	207252
612.386	73026
612.452	66497
612.519	61160
612.586	59216
612.653	61538
612.719	60125
612.786	61269
612.853	58069
612.919	54411
612.986	54185
613.053	53916
613.120	50990
613.186	47217
613.253	47231
613.319	46997
613.386	47849
613.453	47022
613.519	49910
613.586	49207
613.652	52538
613.719	54811
613.785	52777
613.852	51396
613.918	49441
613.985	47733
614.051	49773
614.118	50854
614.184	50022
614.250	48396
614.317	48628
614.383	49625
614.449	49093
614.516	49944
614.582	49446
614.648	50129
614.715	49380
614.781	47880
614.847	47447
614.914	48578
614.980	48400
615.046	47285
615.112	46591
615.179	48220
615.245	48485
615.311	50335
615.377	53049
615.443	64737
615.509	60572
615.575	53206
615.642	50764
615.708	50964
615.774	52925
615.840	56158
615.906	61036
615.972	68233
616.038	90954
616.104	151759
616.170	266325
616.236	602461
616.302	363685
616.368	97363
616.434	78645
616.500	61769
616.565	60226
616.631	65325
616.697	74477
616.763	62541
616.829	66166
616.895	95543
616.961	153362
617.026	125682
617.092	61502
617.158	52653
617.224	51388
617.289	49281
617.355	46841
617.421	45573
617.487	45079
617.552	45792
617.618	43351
617.684	42826
617.749	43277
617.815	43199
617.880	41785
617.946	41687
618.012	40864
618.077	41725
618.143	42531
618.208	41008
618.274	41506
618.339	45389
618.405	44778
618.470	37585
618.536	38062
618.601	38286
618.667	38907
618.732	36688
618.798	35263
618.863	34964
618.928	34041
618.994	34610
619.059	34707
619.124	36028
619.190	39542
619.255	34535
619.320	34628
619.386	33481
619.451	34034
619.516	34565
619.581	33577
619.647	33757
619.712	34966
619.777	34429
619.842	33433
619.907	33070
619.972	33306
620.038	34583
620.103	33331
620.168	32907
620.233	33834
620.298	32876
620.363	33838
620.428	33562
620.493	34192
620.558	35714
620.623	34663
620.688	35259
620.753	35287
620.818	35168
620.883	36298
620.948	36758
621.013	35903
621.078	35506
621.143	35036
621.207	36919
621.272	36409
621.337	36999
621.402	35724
621.467	36751
621.532	39060
621.596	38236
621.661	37168
621.726	34652
621.791	34702
621.855	35065
621.920	35329
621.985	36303
622.049	36954
622.114	37892
622.179	37958
622.243	36592
622.308	39094
622.373	39056
622.437	39588
622.502	39061
622.566	37403
622.631	36573
622.695	37234
622.760	37438
622.824	36464
622.889	37451
622.953	38026
623.018	39741
623.082	44442
623.147	42973
623.211	38281
623.276	36688
623.340	37672
623.404	35926
623.469	35834
623.533	35550
623.597	35504
623.662	35371
623.726	35795
623.790	32913
623.854	30667
623.919	31512
623.983	30822
624.047	32566
624.111	31960
624.176	31848
624.240	33226
624.304	35252
624.368	35043
624.432	32784
624.496	32976
624.560	33148
624.625	35353
624.689	35253
624.753	34628
624.817	35476
624.881	33239
624.945	32683
625.009	30295
625.073	29412
625.137	31328
625.201	33060
625.265	35599
625.329	34338
625.393	31946
625.456	30942
625.520	30969
625.584	32625
625.648	33821
625.712	36623
625.776	42044
625.839	59485
625.903	60941
625.967	34074
626.031	30524
626.095	35564
626.158	45061
626.222	30838
626.286	24271
626.349	23546
626.413	23732
626.477	22008
626.540	22484
626.604	21932
626.668	21224
626.731	20633
626.795	21969
626.858	21884
626.922	21414
626.986	20556
627.049	20438
627.113	20421
627.176	20570
627.240	20395
627.303	20209
627.366	20993
627.430	20612
627.493	20132
627.557	19448
627.620	20029
627.684	20454
627.747	19902
627.810	20193
627.874	18572
627.937	17787
628.000	17915
628.064	17681
628.127	17334
628.190	16538
628.253	15697
628.317	16414
628.380	15006
628.443	14647
628.506	15380
628.569	14589
628.632	13716
628.696	13193
628.759	13976
628.822	14026
628.885	13492
628.948	13062
629.011	12044
629.074	12861
629.137	12129
629.200	12045
629.263	12613
629.326	12936
629.389	12473
629.452	12600
629.515	12146
629.578	12612
629.641	12111
629.704	12497
629.767	13305
629.830	12383
629.892	11109
629.955	10992
630.018	11186
630.081	12448
630.144	12770
630.207	13185
630.269	12120
630.332	11605
630.395	10803
630.458	11632
630.520	10410
630.583	11044
630.646	10853
630.708	10876
630.771	10621
630.834	10354
630.896	10095
630.959	10480
631.021	10038
631.084	10392
631.146	11528
631.209	10631
631.272	11097
631.334	11156
631.397	9700
631.459	10538
631.522	11175
631.584	10962
631.646	10611
631.709	11206
631.771	11141
631.834	12491
631.896	11868
631.958	10298
632.021	9942
632.083	9577
632.145	10074
632.208	9862
632.270	10158
632.332	9508
632.395	9633
632.457	9524
632.519	10171
632.581	10470
632.643	9144
632.706	10355
632.768	9114
632.830	8674
632.892	8838
632.954	10101
633.016	10096
633.078	9496
633.141	9426
633.203	9971
633.265	10015
633.327	10034
633.389	9608
633.451	9348
633.513	10281
633.575	11087
633.637	9700
633.698	10265
633.760	9978
633.822	9371
633.884	9442
633.946	9344
634.008	9331
634.070	10201
634.132	9885
634.193	9625
634.255	10498
634.317	11494
634.379	10839
634.441	10347
634.502	10752
634.564	9150
634.626	9136
634.687	8739
634.749	8508
634.811	8676
634.873	8352
634.934	8162
634.996	8223
635.057	8695
635.119	8012
635.181	8392
635.242	8916
635.304	8255
635.365	8659
635.427	8676
635.488	8620
635.550	8789
635.611	8200
635.673	8568
635.734	8435
635.796	8468
635.857	9143
635.918	9852
635.980	9472
636.041	10250
636.102	9655
636.164	10369
636.225	10362
636.286	10037
636.348	9468
636.409	8306
636.470	8163
636.531	7932
636.593	8102
636.654	8682
636.715	8042
636.776	7669
636.838	7718
636.899	7697
636.960	8209
637.021	7927
637.082	7623
637.143	7729
637.204	7492
637.265	6908
637.326	7675
637.387	7158
637.448	7246
637.509	7294
637.570	6689
637.631	7213
637.692	7004
637.753	6377
637.814	6431
637.875	7189
637.936	7359
637.997	6678
638.058	6841
638.119	7470
638.179	6751
638.240	7184
638.301	6447
638.362	6716
638.423	6499
638.483	6797
638.544	6644
638.605	6014
638.666	6653
638.726	6403
638.787	6853
638.848	6666
638.908	6380
638.969	6618
639.030	6513
639.090	6125
639.151	5733
639.211	6430
639.272	6819
639.332	7702
639.393	10977
639.453	6448
639.514	6012
639.574	6658
639.635	6320
639.695	6028
639.756	5374
639.816	6301
639.877	6065
639.937	6596
639.997	8935
640.058	10746
640.118	5816
640.178	5748
640.239	5782
640.299	5568
640.359	5560
640.420	5786
640.480	5634
640.540	5876
640.600	5749
640.661	6324
640.721	5812
640.781	6638
640.841	6659
640.901	6686
640.961	5405
641.021	6125
641.082	6395
641.142	7118
641.202	7082
641.262	6245
641.322	6173
641.382	4966
641.442	5203
641.502	5406
641.562	5611
641.622	5727
641.682	5755
641.742	5523
641.802	6413
641.861	4977
641.921	5720
641.981	5303
642.041	6189
642.101	5684
642.161	6996
642.221	5167
642.280	4800
642.340	5011
642.400	5636
642.460	4934
642.519	4444
642.579	4987
642.639	4432
642.698	5179
642.758	5031
642.818	4444
642.877	5874
642.937	5483
642.997	5762
643.056	5439
643.116	6477
643.175	6005
643.235	5438
643.294	4573
643.354	5551
643.414	5979
643.473	6002
643.532	7081
643.592	7969
643.651	11944
643.711	17552
643.770	30697
643.830	60008
643.889	137706
643.948	305421
644.008	69874
644.067	12795
644.126	9115
644.186	7192
644.245	5935
644.304	5467
644.363	5206
644.423	5095
644.482	5516
644.541	4980
644.600	5149
644.659	5589
644.719	6110
644.778	7196
644.837	10009
644.896	15119
644.955	30275
645.014	70374
645.073	25107
645.132	7081
645.191	5657
645.250	5273
645.309	5695
645.368	5556
645.427	5531
645.486	5783
645.545	9317
645.604	14603
645.663	6409
645.722	4775
645.781	4760
645.840	5163
645.898	6347
645.957	7526
646.016	9573
646.075	16412
646.134	28235
646.192	52332
646.251	135394
646.310	211986
646.369	30185
646.427	9331
646.486	7748
646.545	5727
646.603	4747
646.662	4304
646.721	4375
646.779	4575
646.838	3762
646.896	4751
646.955	5393
647.014	7415
647.072	9988
647.131	16881
647.189	43961
647.248	22907
647.306	5123
647.365	4322
647.423	4146
647.481	4148
647.540	3221
647.598	3730
647.657	3842
647.715	2540
647.773	3227
647.832	2969
647.890	2285
647.948	3657
648.007	3353
648.065	4005
648.123	2903
648.181	3515
648.240	3043
648.298	2730
648.356	3094
648.414	2959
648.472	3469
648.531	3130
648.589	3367
648.647	2678
648.705	3336
648.763	3372
648.821	3414
648.879	3161
648.937	3751
648.995	3640
649.053	4562
649.111	5216
649.169	8208
649.227	12415
649.285	21427
649.343	40903
649.401	122337
649.459	64687
649.516	13865
649.574	8354
649.632	4792
649.690	4691
649.748	5134
649.806	5269
649.863	7737
649.921	11164
649.979	29069
650.037	22318
650.094	4285
650.152	3248
650.210	4108
650.268	2613
650.325	3100
650.383	2504
650.440	2669
650.498	2640
650.556	2800
650.613	2216
650.671	2015
650.728	2695
650.786	2855
650.843	2698
650.901	2788
650.958	2669
651.016	2307
651.073	2464
651.131	1689
651.188	1585
651.246	2799
651.303	1914
651.360	2026
651.418	1748
651.475	1783
651.532	2091
651.590	2493
651.647	2111
651.704	1865
651.762	1921
651.819	1883
651.876	1912
651.933	2442
651.990	2168
652.048	1928
652.105	2050
652.162	2542
652.219	1655
652.276	1992
652.333	2211
652.390	2079
652.448	2601
652.505	2260
652.562	1778
652.619	1938
652.676	1704
652.733	1652
652.790	2050
652.847	1346
652.904	2055
652.961	1879
653.017	1397
653.074	2167
653.131	1778
653.188	2020
653.245	1170
653.302	1755
653.359	1031
653.415	1675
653.472	1348
653.529	2007
653.586	956
653.642	1659
653.699	1168
653.756	1706
653.813	764
653.869	1378
653.926	1027
653.983	1651
654.039	1751
654.096	1529
654.152	1584
654.209	1070
654.266	1744
654.322	1525
654.379	2096
654.435	1508
654.492	1380
654.548	2604
654.605	2986
654.661	4494
654.717	1518
654.774	2169
654.830	2088
654.887	2028
654.943	1190
655.000	1719
655.056	2074
655.112	1393
655.168	1510
655.225	1946
655.281	1602
655.337	1199
655.394	2482
655.450	4096
655.506	3694
655.562	1746
655.618	3367
655.675	3225
655.731	1716
655.787	1541
655.843	2235
655.899	1361
655.955	1979
656.011	1526
656.067	993
656.123	1863
656.179	1196
656.235	2226
656.291	985
656.347	1496
656.403	666
656.459	1477
656.515	1994
656.571	994
656.627	2009
656.683	2375
656.739	1126
656.795	2179
656.850	1386
656.906	1668
656.962	1547
657.018	1631
657.074	1669
657.129	830
657.185	2025
657.241	1970
657.297	4979
657.352	3931
657.408	1475
657.464	1722
657.519	1895
657.575	797
657.630	2011
657.686	1261
657.742	911
657.797	1355
657.853	1119
657.908	1496
657.964	1759
658.019	1405
658.075	1762
658.130	1937
658.186	1133
658.241	1046
658.297	804
658.352	1360
658.407	1093
658.463	530
658.518	1406
658.573	1515
658.629	1116
658.684	888
658.739	1179
658.795	1399
658.850	1692
658.905	893
658.960	1411
659.016	1183
659.071	1481
659.126	706
659.181	1265
659.236	2187
659.291	2123
659.346	3161
659.401	1657
659.457	2443
659.512	1760
659.567	1628
659.622	1424
659.677	483
659.732	937
659.787	1461
659.842	1111
659.897	1123
659.952	1467
660.007	912
660.061	1219
660.116	1419
660.171	1395
660.226	1312
660.281	1271
660.336	906
660.391	911
660.445	1681
660.500	394
660.555	1109
660.610	693
660.664	1385
660.719	1212
660.774	858
660.828	978
660.883	1038
660.938	1352
660.992	1126
661.047	1065
661.101	573
661.156	1401
661.211	702
661.265	657
661.320	899
661.374	736
661.429	1124
661.483	767
661.538	1264
661.592	902
661.647	1363
661.701	641
661.755	1851
661.810	1551
661.864	786
661.919	592
661.973	1828
662.027	1436
662.081	597
662.136	379
662.190	1537
662.244	1624
662.299	1314
662.353	1686
662.407	470
662.461	533
662.515	1337
662.569	833
662.624	1668
662.678	367
662.732	1231
662.786	639
662.840	799
662.894	1394
662.948	948
663.002	1429
663.056	880
663.110	156
663.164	696
663.218	549
663.272	682
663.326	722
663.380	2108
663.434	1238
663.488	1638
663.542	1272
663.595	1899
663.649	904
663.703	1328
663.757	552
663.811	740
663.864	1341
663.918	1341
663.972	518
664.026	1117
664.079	722
664.133	1282
664.187	835
664.240	1295
664.294	1211
664.348	1234
664.401	1080
664.455	1015
664.508	647
664.562	774
664.615	1129
664.669	937
664.722	1267
664.776	748
664.829	1023
664.883	671
664.936	674
664.990	567
665.043	1878
665.097	1236
665.150	1433
665.203	1441
665.257	1470
665.310	1455
665.363	1135
665.417	1318
665.470	1220
665.523	824
665.576	1520
665.630	1309
665.683	1152
665.736	1665
665.789	685
665.842	1411
665.895	710
665.949	976
666.002	167
666.055	1561
666.108	1183
666.161	1303
666.214	942
666.267	1419
666.320	1881
666.373	2224
666.426	1897
666.479	1139
666.532	1605
666.585	1417
666.638	1410
666.691	2002
666.744	1711
666.796	1180
666.849	1123
666.902	1888
666.955	1319
667.008	1006
667.060	974
667.113	886
667.166	1063
667.219	578
667.271	1062
667.324	1343
667.377	800
667.430	1589
667.482	987
667.535	893
667.587	1421
667.640	1817
667.693	828
667.745	1795
667.798	2606
667.850	3230
667.903	1519
667.955	633
668.008	1788
668.060	848
668.113	1062
668.165	1134
668.218	1299
668.270	1816
668.322	454
668.375	1355
668.427	1547
668.479	1547
668.532	1571
668.584	1626
668.636	1415
668.689	1062
668.741	1667
668.793	2119
668.845	1338
668.898	1665
668.950	1924
669.002	899
669.054	673
669.106	1098
669.158	1641
669.211	1308
669.263	1678
669.315	1863
669.367	1784
669.419	1323
669.471	1897
669.523	2017
669.575	2228
669.627	2706
669.679	2559
669.731	1330
669.783	2105
669.835	1024
669.886	1558
669.938	2055
669.990	1705
670.042	1749
670.094	1472
670.146	1754
670.197	3129
670.249	2861
670.301	3317
670.353	4752
670.404	6631
670.456	8165
670.508	12455
670.560	20778
670.611	35107
670.663	61992
670.715	108110
670.766	218226
670.818	440963
670.869	217787
670.921	39310
670.972	16538
671.024	10503
671.075	7269
671.127	4826
671.178	3856
671.230	4662
671.281	3116
671.333	2993
671.384	2736
671.436	2822
671.487	3118
671.538	2425
671.590	3669
671.641	4392
671.692	6214
671.744	8879
671.795	20340
671.846	16571
671.897	5920
671.949	1994
672.000	2224
672.051	1869
672.102	2160
672.153	1517
672.204	1680
672.256	1781
672.307	1898
672.358	950
672.409	1417
672.460	1984
672.511	1851
672.562	963
672.613	1744
672.664	1640
672.715	1568
672.766	1045
672.817	1302
672.868	1369
672.919	1139
672.970	786
673.021	1028
673.071	1097
673.122	1154
673.173	878
673.224	1143
673.275	462
673.326	1238
673.376	958
673.427	308
673.478	925
673.528	1163
673.579	1229
673.630	1272
673.680	1045
673.731	703
673.782	1202
673.832	1126
673.883	884
673.934	515
673.984	1458
674.035	513
674.085	899
674.136	1310
674.186	863
674.237	993
674.287	1179
674.338	1499
674.388	1031
674.438	1481
674.489	908
674.539	799
674.589	390
674.640	194
674.690	1204
674.740	724
674.791	693
674.841	1319
674.891	1175
674.942	1044
674.992	586
675.042	912
675.092	251
675.142	852
675.193	531
675.243	1121
675.293	699
675.343	857
675.393	442
675.443	1107
675.493	783
675.543	873
675.593	414
675.643	543
675.693	-118
675.743	-183
675.793	268
675.843	1027
675.893	1018
675.943	796
675.993	796
676.043	938
676.093	874
676.142	106
676.192	62
676.242	241
676.292	540
676.341	205
676.391	286
676.441	659
676.491	596
676.540	437
676.590	555
676.640	606
676.689	-152
676.739	49
676.789	354
676.838	304
676.888	378
676.937	416
676.987	244
677.037	905
677.086	836
677.136	709
677.185	-57
677.235	1409
677.284	1329
677.333	-30
677.383	-1
677.432	236
677.482	122
677.531	538
677.580	756
677.630	-390
677.679	391
677.728	1
677.778	486
677.827	1033
677.876	21
677.925	203
677.975	256
678.024	199
678.073	-7
678.122	482
678.171	131
678.220	540
678.269	37
678.319	594
678.368	87
678.417	108
678.466	645
678.515	682
678.564	425
678.613	676
678.662	393
678.711	535
678.760	510
678.809	542
678.857	529
678.906	81
678.955	529
679.004	276
679.053	502
679.102	397
679.151	695
679.199	607
679.248	295
679.297	106
679.346	-116
679.394	838
679.443	420
679.492	-194
679.540	394
679.589	232
679.638	-28
679.686	484
679.735	430
679.784	215
679.832	-53
679.881	-196
679.929	371
679.978	112
680.026	374
680.075	234
680.123	-198
680.172	461
680.220	-268
680.268	220
680.317	427
680.365	484
680.414	268
680.462	844
680.510	559
680.559	563
680.607	-33
680.655	249
680.703	541
680.752	655
680.800	699
680.848	-898
680.896	-384
680.945	231
680.993	-361
681.041	812
681.089	125
681.137	1110
681.185	-757
681.233	364
681.258	489
681.281	565
681.329	269
681.377	4
681.380	57
681.425	229
681.473	-72
681.502	217
681.521	348
681.569	683
681.617	1231
681.624	1291
681.665	1338
681.713	1180
681.745	1044
681.761	909
681.809	1173
681.857	1388
681.867	1403
681.904	1276
681.952	1414
681.989	1309
682.000	1226
682.048	1398
682.096	1526
682.111	1642
682.143	1746
682.191	1921
682.233	2105
682.239	2090
682.286	2130
682.334	2070
682.354	2076
682.382	1980
682.430	2222
682.476	2632
682.477	2604
682.525	2551
682.572	2017
682.598	2014
682.620	1955
682.667	2664
682.715	2754
682.720	2887
682.763	3706
682.810	2893
682.841	3039
682.857	3106
682.905	3087
682.952	3395
682.963	3442
683.000	3347
683.047	3392
683.085	3935
683.095	4048
683.142	3952
683.190	3373
683.206	3489
683.237	3631
683.284	3881
683.328	4436
683.332	4447
683.379	4233
683.426	4066
683.449	3962
683.473	3810
683.521	4438
683.568	4579
683.571	4547
683.615	3638
683.662	4511
683.693	4203
683.709	4023
683.757	4478
683.804	5158
683.814	5078
683.851	4664
683.898	5239
683.936	5264
683.945	5230
683.992	4673
684.039	5753
684.057	5584
684.086	5245
684.133	5429
684.179	5261
684.180	5232
684.227	5816
684.274	5659
684.300	5897
684.321	5996
684.368	5655
684.415	5779
684.422	5770
684.462	5586
684.509	5846
684.543	5842
684.556	5796
684.603	6014
684.649	5888
684.665	5911
684.696	5920
684.743	6335
684.786	6188
684.790	6160
684.837	6115
684.883	6332
684.908	6521
684.930	6680
684.977	6866
685.023	7104
685.029	7140
685.070	7426
685.117	7975
685.150	7955
685.164	7824
685.210	8279
685.257	8035
685.272	8039
685.303	8094
685.350	8177
685.393	8375
685.396	8369
685.443	8257
685.490	8457
685.514	8450
685.536	8418
685.583	8752
685.629	8974
685.636	8853
685.675	8103
685.722	8960
685.757	8852
685.768	8738
685.815	8964
685.861	8914
685.878	8874
685.908	8984
685.954	8795
686.000	9661
686.000	9660
686.047	9722
686.093	9128
686.121	8967
686.139	9001
686.185	9734
686.232	10086
686.242	10204
686.278	10328
686.324	10317
686.363	10048
686.370	9957
686.416	9933
686.463	9459
686.484	9541
686.509	9694
686.555	10097
686.601	9716
686.606	9705
686.647	9736
686.693	9960
686.727	9806
686.739	9700
686.785	9801
686.831	9681
686.848	9818
686.877	10122
686.923	9770
686.969	10831
686.969	10834
687.015	10182
687.061	10139
687.090	9952
687.107	9923
687.153	10252
687.199	10011
687.211	10187
687.245	10627
687.291	10800
687.332	10672
687.336	10640
687.382	10884
687.428	10782
687.453	10516
687.474	10496
687.520	10893
687.565	11781
687.574	11747
687.611	11162
687.657	10802
687.695	10570
687.702	10590
687.748	11182
687.794	10898
687.816	10956
687.839	11113
687.885	11542
687.931	12308
687.937	12265
687.976	11749
688.022	12155
688.058	11831
688.067	11784
688.113	12172
688.158	11694
688.179	12116
688.204	12549
688.249	11927
688.295	11726
688.300	11699
688.340	11570
688.386	12193
688.421	11697
688.431	11685
688.477	12103
688.522	12450
688.542	12837
688.567	13096
688.613	12767
688.658	13229
688.663	13210
688.703	13196
688.749	12654
688.784	12832
688.794	12862
688.839	12818
688.884	12892
688.905	12896
688.930	13002
688.975	12860
689.020	12979
689.026	12919
689.065	12522
689.110	12638
689.146	12409
689.155	12436
689.201	12930
689.246	13211
689.267	13513
689.291	13677
689.336	13214
689.381	13239
689.388	13167
689.426	12854
689.471	12833
689.509	12480
689.516	12506
689.561	12722
689.606	13419
689.630	13497
689.651	13306
689.696	13026
689.741	12574
689.750	12570
689.785	12946
689.830	12683
689.871	13033
689.875	13074
689.920	12742
689.965	12934
689.992	12951
690.010	13020
690.054	13152
690.099	12652
690.112	12687
690.144	12875
690.189	12788
690.233	13424
690.233	13448
690.278	13146
690.323	13667
690.354	13773
690.367	13742
690.412	13830
690.457	13506
690.474	13449
690.501	13518
690.546	13792
690.590	13867
690.595	13809
690.635	13290
690.680	13392
690.716	13467
690.724	13549
690.769	13043
690.813	13643
690.836	13444
690.857	13441
690.902	13680
690.946	14371
690.957	14313
690.991	13988
691.035	14632
691.077	14239
691.080	14249
691.124	14497
691.168	14575
691.198	14540
691.213	14695
691.257	15003
691.301	15948
691.318	15995
691.346	15761
691.390	16009
691.434	15766
691.439	15730
691.478	15577
691.522	15138
691.559	14861
691.567	14881
691.611	15131
691.655	15039
691.680	14987
691.699	15147
691.743	15519
691.787	15979
691.800	15965
691.831	15720
691.875	15882
691.919	15734
691.921	15698
691.964	16016
692.008	16571
692.041	16737
692.052	16744
692.096	16863
692.139	16841
692.162	16863
692.183	16916
692.227	16887
692.271	16696
692.282	16622
692.315	16622
692.359	17033
692.402	16701
692.403	16732
692.447	16640
692.490	16612
692.523	16509
692.534	16534
692.578	16376
692.622	16747
692.643	16565
692.666	16593
692.709	17033
692.753	17211
692.763	17208
692.797	17110
692.840	17186
692.884	16872
692.884	16905
692.928	17041
692.971	16850
693.004	16471
693.015	16405
693.059	16695
693.102	16498
693.124	16542
693.146	16781
693.189	16402
693.233	16829
693.245	16799
693.276	16569
693.320	16487
693.363	16050
693.365	16013
693.407	16906
693.450	17503
693.485	17925
693.493	17934
693.537	17866
693.580	17708
693.605	17669
693.624	17644
693.667	17666
693.710	17119
693.725	17114
693.753	17614
693.797	17725
693.840	18205
693.845	18195
693.883	18410
693.926	18866
693.966	19178
693.970	19247
694.013	19369
694.056	19540
694.086	19645
694.099	19439
694.142	18710
694.185	17906
694.206	17422
694.229	17607
694.272	17887
694.315	18460
694.326	18486
694.358	18466
694.401	18457
694.444	18413
694.446	18374
694.487	18804
694.530	19081
694.566	19319
694.573	19345
694.616	19185
694.659	19039
694.686	18845
694.702	18732
694.745	18496
694.787	18007
694.806	17864
694.830	17901
694.873	17554
694.916	17449
694.926	17394
694.959	17514
695.002	17411
695.044	17459
695.046	17414
695.087	17376
695.130	17287
695.166	17234
695.172	17315
695.215	17465
695.258	17772
695.286	17853
695.301	18066
695.343	18646
695.386	19192
695.406	19341
695.428	19301
695.471	19322
695.514	19289
695.526	19190
695.556	18844
695.599	18378
695.641	18031
695.646	17929
695.684	18330
695.726	18914
695.766	19225
695.769	19263
695.811	19071
695.854	19094
695.886	18994
695.896	19073
695.938	19102
695.981	19248
696.005	19246
696.023	19301
696.065	19316
696.108	19385
696.125	19310
696.150	19136
696.192	18993
696.235	18755
696.245	18635
696.277	19206
696.319	19759
696.361	20381
696.365	20382
696.404	20037
696.446	19736
696.485	19311
696.488	19383
696.530	19641
696.572	19966
696.604	20074
696.614	20047
696.656	19839
696.698	19461
696.724	19258
696.740	19408
696.783	19563
696.825	19721
696.844	19812
696.867	19830
696.909	19615
696.951	19542
696.964	19455
696.992	19758
697.034	19971
697.076	20256
697.083	20258
697.118	20171
697.160	19994
697.202	19788
697.203	19729
697.244	19760
697.286	19669
697.323	19537
697.327	19589
697.369	19559
697.411	19625
697.442	19590
697.453	19653
697.494	19620
697.536	19645
697.562	19647
697.578	19820
697.620	20029
697.661	20291
697.682	20347
697.703	20516
697.744	20752
697.786	21029
697.801	21066
697.828	21197
697.869	21253
697.911	21347
697.921	21309
697.952	21764
697.994	22368
698.035	22846
698.040	22850
698.077	22113
698.118	21133
698.160	20224
698.160	20163
698.201	20443
698.243	20724
698.279	20931
698.284	20979
698.325	20849
698.367	20722
698.399	20577
698.408	20785
698.449	21474
698.491	22158
698.518	22540
698.532	22433
698.573	21943
698.614	21425
698.638	21084
698.656	21243
698.697	21465
698.738	21688
698.757	21726
698.779	21678
698.820	21476
698.862	21277
698.877	21145
698.903	21521
698.944	22018
698.985	22521
698.996	22598
699.026	22391
699.067	22016
699.116	21509
699.235	22682
699.354	21509
699.474	21541
699.593	20270
699.713	22180
699.832	22213
699.951	20624
700.070	21385
700.190	21449
700.309	20596
700.428	20002
700.547	20548
700.667	21254
700.786	20619
700.905	21137
701.024	20372
701.143	19922
701.262	20695
701.381	18726
701.500	18862
701.619	19874
701.738	20765
701.857	20608
701.976	19038
702.095	19885
702.214	18298
702.333	19350
702.452	19864
702.571	19799
702.690	18791
702.809	18857
702.928	19026
703.047	18922
703.165	18049
703.284	18309
703.403	18239
703.522	17686
703.640	19010
703.759	18934
703.878	18394
703.997	22133
704.115	20332
704.234	18574
704.353	16903
704.471	17269
704.590	16522
704.708	16513
704.827	16554
704.946	16987
705.064	16603
705.183	18096
705.301	16303
705.420	18468
705.538	22963
705.656	25282
705.775	20984
705.893	19728
706.012	19381
706.130	22866
706.249	20853
706.367	21128
706.485	20270
706.604	21474
706.722	21514
706.840	20951
706.958	20688
707.077	22856
707.195	21632
707.313	19669
707.431	18841
707.549	18822
707.668	20010
707.786	19349
707.904	19192
708.022	18472
708.140	18381
708.258	19030
708.376	17988
708.494	18028
708.612	18089
708.730	19795
708.848	24001
708.966	26850
709.084	23616
709.202	23192
709.320	21112
709.438	21590
709.556	21818
709.674	23121
709.791	22201
709.909	21386
710.027	21077
710.145	20295
710.263	21605
710.380	20899
710.498	20526
710.616	21563
710.733	20490
710.851	20257
710.969	19546
711.086	20716
711.204	19469
711.322	21084
711.439	19709
711.557	20616
711.674	19373
711.792	19574
711.909	18904
712.027	18847
712.144	18194
712.262	18672
712.379	18593
712.497	19575
712.614	24496
712.732	30043
712.849	24497
712.966	23121
713.084	22771
713.201	26173
713.318	25511
713.436	23826
713.553	22889
713.670	24579
713.787	22602
713.905	24173
714.022	25741
714.139	22850
714.256	22721
714.373	23820
714.490	25502
714.608	31289
714.725	47350
714.842	149251
714.959	380614
715.076	60180
715.193	23898
715.310	21925
715.427	22130
715.544	20570
715.661	19490
715.778	19775
715.895	19900
716.011	21062
716.128	20574
716.245	21253
716.362	19980
716.479	20287
716.596	22538
716.713	19973
716.829	19458
716.946	18800
717.063	18272
717.180	18137
717.296	18420
717.413	18484
717.530	18407
717.646	18073
717.763	16979
717.880	18162
717.996	16258
718.113	18157
718.229	17915
718.346	15758
718.462	17094
718.579	16321
718.695	17815
718.812	22118
718.928	22542
719.045	19056
719.161	18175
719.277	16154
719.394	15923
719.510	15379
719.626	14645
719.743	16812
719.859	18678
719.975	19635
720.092	23892
720.208	47964
720.324	163727
720.440	67428
720.557	18681
720.673	17481
720.789	19791
720.905	23773
721.021	35053
721.137	31467
721.253	16483
721.369	15815
721.486	14485
721.602	16696
721.718	17963
721.834	17201
721.950	14009
722.066	14133
722.181	13867
722.297	14348
722.413	13939
722.529	13739
722.645	13720
722.761	13721
722.877	12830
722.993	14083
723.108	12743
723.224	14779
723.340	13527
723.456	13333
723.571	13034
723.687	12457
723.803	12280
723.918	12593
724.034	13146
724.150	12746
724.265	11714
724.381	13573
724.497	15449
724.612	26085
724.728	14730
724.843	13166
724.959	11340
725.074	12985
725.190	15522
725.305	23647
725.421	12765
725.536	13152
725.651	11128
725.767	11120
725.882	11358
725.997	11333
726.113	11603
726.228	11425
726.343	11191
726.459	11636
726.574	10385
726.689	10827
726.804	11571
726.920	10690
727.035	11219
727.150	11284
727.265	10777
727.380	11420
727.495	10795
727.610	10632
727.725	10122
727.841	10594
727.956	10604
728.071	9889
728.186	10845
728.301	11348
728.416	9500
728.531	11354
728.645	9677
728.760	10316
728.875	10092
728.990	10832
729.105	10188
729.220	9951
729.335	10541
729.449	10144
729.564	9380
729.679	9560
729.794	8495
729.908	9444
730.023	9731
730.138	9608
730.253	9144
730.367	8828
730.482	9540
730.596	8984
730.711	8897
730.826	9597
730.940	9593
731.055	10166
731.169	9523
731.284	9337
731.398	9282
731.513	9608
731.627	9636
731.742	10588
731.856	9975
731.970	12071
732.085	9847
732.199	10614
732.313	10927
732.428	13923
732.542	21329
732.656	60326
732.771	86892
732.885	19644
732.999	11012
733.113	11057
733.227	10895
733.342	11536
733.456	9407
733.570	9782
733.684	9524
733.798	9175
733.912	9254
734.026	9696
734.140	9215
734.254	8509
734.368	9333
734.482	11790
734.596	15201
734.710	9796
734.824	8744
734.938	8023
735.052	8009
735.166	9216
735.280	9085
735.393	8544
735.507	8476
735.621	9054
735.735	9603
735.849	12985
735.962	10852
736.076	7882
736.190	8740
736.303	9373
736.417	8750
736.531	12159
736.644	8670
736.758	9084
736.872	7867
736.985	7512
737.099	8064
737.212	9076
737.326	7470
737.439	8257
737.553	7825
737.666	9025
737.780	7500
737.893	7744
738.007	7286
738.120	7498
738.233	7219
738.347	7658
738.460	7238
738.573	7166
738.687	7549
738.800	8508
738.913	7644
739.026	8394
739.140	7961
739.253	8253
739.366	7270
739.479	7453
739.592	6750
739.705	7726
739.818	6538
739.932	7476
740.045	7103
740.158	7032
740.271	7575
740.384	7236
740.497	7041
740.610	7303
740.723	6265
740.836	7479
740.949	7696
741.062	7728
741.174	7299
741.287	8643
741.400	6106
741.513	7056
741.626	6653
741.739	7526
741.851	7488
741.964	7075
742.077	6531
742.189	6383
742.302	6093
742.415	7185
742.527	6293
742.640	6197
742.753	6337
742.865	6488
742.978	5577
743.090	6463
743.203	5699
743.316	6301
743.428	5737
743.541	6278
743.653	5528
743.766	6404
743.878	5856
743.990	7024
744.103	6534
744.215	8369
744.327	6106
744.440	6485
744.552	6757
744.664	8536
744.777	7688
744.889	6199
745.001	5590
745.113	5829
745.226	5552
745.338	5904
745.450	4932
745.562	6793
745.674	5731
745.786	5559
745.898	5746
746.010	6158
746.122	4573
746.234	6316
746.347	5110
746.459	6311
746.570	5334
746.682	5704
746.794	5464
746.906	6658
747.018	4870
747.130	5695
747.242	5897
747.354	5559
747.466	5538
747.577	6380
747.689	5347
747.801	6107
747.913	5547
748.024	5214
748.136	4947
748.248	5702
748.359	4787
748.471	5456
748.583	5038
748.694	5525
748.806	4904
748.918	4917
749.029	5634
749.141	5853
749.252	5907
749.364	6069
749.475	5534
749.587	8370
749.698	8587
749.809	6112
749.921	5351
750.032	5654
750.144	4720
750.255	4790
750.366	4563
750.478	5474
750.589	5010
750.700	5052
750.811	5699
750.923	6380
751.034	5660
751.145	7537
751.256	10856
751.367	5980
751.479	4299
751.590	5468
751.701	4238
751.812	4906
751.923	4565
752.034	4924
752.145	4656
752.256	4569
752.367	4679
752.478	5572
752.589	4634
752.700	5002
752.811	4521
752.922	4791
753.032	3922
753.143	5214
753.254	5373
753.365	4635
753.476	4216
753.586	5253
753.697	4628
753.808	5073
753.919	4184
754.029	4627
754.140	4588
754.251	4110
754.361	3867
754.472	5285
754.582	5172
754.693	4469
754.804	4523
754.914	4497
755.025	4275
755.135	4502
755.246	4355
755.356	4838
755.466	4016
755.577	4866
755.687	3508
755.798	3928
755.908	4092
756.018	4611
756.129	4029
756.239	5374
756.349	4343
756.460	4736
756.570	4429
756.680	4679
756.790	3966
756.900	4898
757.011	4452
757.121	4779
757.231	3820
757.341	4350
757.451	4490
757.561	4884
757.671	4004
757.781	4192
757.891	3758
758.001	5374
758.111	4338
758.221	3777
758.331	3862
758.441	4732
758.551	5077
758.661	5029
758.771	5592
758.880	4820
758.990	4009
759.100	4553
759.210	4026
759.320	4762
759.429	3899
759.539	4354
759.649	3388
759.758	4111
759.868	4841
759.978	4389
760.087	4478
760.197	5027
760.307	4836
760.416	5245
760.526	3510
760.635	4984
760.745	4008
760.854	4759
760.964	4348
761.073	5486
761.182	5004
761.292	5442
761.401	4820
761.511	4926
761.620	4532
761.729	4828
761.839	4414
761.948	4965
762.057	4404
762.166	4773
762.276	3917
762.385	4718
762.494	3537
762.603	4919
762.712	4327
762.822	4562
762.931	4379
763.040	4847
763.149	3857
763.258	4700
763.367	3514
763.476	4277
763.585	4145
763.694	5121
763.803	4380
763.912	4397
764.021	4600
764.130	4295
764.238	3798
764.347	4448
764.456	3896
764.565	4484
764.674	4088
764.783	4571
764.891	3554
765.000	4121
765.109	3537
765.217	5102
765.326	4798
765.435	5035
765.543	5657
765.652	5408
765.761	5297
765.869	6415
765.978	6035
766.086	8914
766.195	12577
766.303	22489
766.412	48013
766.520	160002
766.629	342459
766.737	103403
766.846	23865
766.954	13369
767.062	10444
767.171	8576
767.279	7556
767.387	6944
767.496	6146
767.604	5971
767.712	5265
767.820	4849
767.928	4931
768.037	5115
768.145	4582
768.253	5027
768.361	5097
768.469	4714
768.577	4958
768.685	5353
768.793	4681
768.901	5148
769.009	5018
769.117	4611
769.225	4483
769.333	5655
769.441	6269
769.549	8290
769.657	11341
769.765	20149
769.873	55084
769.981	197936
770.088	172783
770.196	25246
770.304	10362
770.412	8625
770.519	6235
770.627	6887
770.735	5226
770.842	5257
770.950	4539
771.058	5329
771.165	4541
771.273	4679
771.380	4663
771.488	5111
771.595	4141
771.703	5346
771.810	4554
771.918	4638
772.025	4358
772.133	3999
772.240	4448
772.348	5026
772.455	5062
772.562	5751
772.670	4812
772.777	5435
772.884	5339
772.991	5002
773.099	4407
773.206	4831
773.313	4354
773.420	4350
773.528	4866
773.635	5013
773.742	4982
773.849	4855
773.956	4342
774.063	4400
774.170	4177
774.277	4696
774.384	4342
774.491	4978
774.598	4418
774.705	5719
774.812	3915
774.919	5446
775.026	5186
775.133	4666
775.239	4798
775.346	5877
775.453	3878
775.560	4185
775.667	3908
775.773	4674
775.880	4191
775.987	3802
776.093	4600
776.200	3674
776.307	4749
776.413	4165
776.520	4296
776.627	4775
776.733	4924
776.840	4458
776.946	4258
777.053	4948
777.159	5327
777.266	4461
777.372	3769
777.478	4740
777.585	3956
777.691	4394
777.798	4178
777.904	5036
778.010	4379
778.117	4393
778.223	5598
778.329	4673
778.435	4344
778.542	4360
778.648	3351
778.754	4170
778.860	4154
778.966	4767
779.072	4731
779.178	4689
779.284	4013
779.391	4239
779.497	3057
779.603	4920
779.708	3215
779.815	4568
779.920	3885
780.026	5382
780.132	7294
780.238	6569
780.344	3867
780.450	3588
780.556	3574
780.661	3963
780.767	3251
780.873	4223
780.979	3504
781.085	3487
781.190	2874
781.296	4611
781.402	3299
781.507	3704
781.613	3352
781.719	3613
781.824	2770
781.930	3758
782.035	3052
782.141	3258
782.246	3487
782.352	4158
782.457	3414
782.563	3587
782.668	3737
782.773	3697
782.879	3637
782.984	3945
783.090	3487
783.195	4208
783.300	4573
783.405	5363
783.511	3003
783.616	3120
783.721	3122
783.826	3703
783.932	2721
784.037	3475
784.142	2938
784.247	3901
784.352	3375
784.457	4001
784.562	2949
784.667	3317
784.772	3286
784.877	3245
784.982	2887
785.087	3482
785.192	3164
785.297	3903
785.402	3378
785.507	3342
785.611	2620
785.716	3857
785.821	3197
785.926	3730
786.031	3065
786.135	3187
786.240	3095
786.345	3336
786.450	2881
786.554	3483
786.659	3524
786.763	2872
786.868	2688
786.973	2875
787.077	3337
787.182	2627
787.286	2210
787.391	3879
787.495	3119
787.600	3235
787.704	3222
787.809	3539
787.913	2295
788.017	2684
788.122	2495
788.226	4019
788.330	2922
788.435	2767
788.539	2563
788.643	3030
788.747	2004
788.852	3059
788.956	1702
789.060	2742
789.164	2377
789.268	3092
789.372	2743
789.476	2704
789.580	3129
789.684	2551
789.788	2378
789.892	2914
789.996	3021
790.100	3097
790.204	2452
790.308	2651
790.412	3176
790.516	3681
790.620	2292
790.724	2145
790.828	2330
790.931	2647
791.035	2797
791.139	1901
791.242	2116
791.346	2459
791.450	2232
791.554	2513
791.657	2339
791.761	3064
791.864	2215
791.968	2909
792.072	2656
792.175	3100
792.279	2006
792.382	2632
792.486	2122
792.589	2565
792.693	2357
792.796	2584
792.899	2475
793.003	2816
793.106	2349
793.209	2222
793.313	2154
793.416	3032
793.519	2045
793.623	2581
793.726	2743
793.829	4582
793.932	2938
794.035	2393
794.138	2090
794.242	2149
794.345	2444
794.448	2734
794.551	2803
794.654	3611
794.757	4212
794.860	4784
794.963	4269
795.066	3583
795.169	2230
795.272	2416
795.375	2535
795.477	1582
795.580	1734
795.683	1444
795.786	2119
795.889	2816
795.991	1857
796.094	2178
796.197	1947
796.300	2661
796.402	1718
796.505	3308
796.608	1959
796.710	2305
796.813	2074
796.915	2376
797.018	1940
797.120	2102
797.223	1908
797.326	2702
797.428	1856
797.530	2218
797.633	1752
797.735	2337
797.838	2172
797.940	2956
798.042	3381
798.145	2889
798.247	2153
798.349	2144
798.452	949
798.554	1897
798.656	1354
798.758	2496
798.860	1808
798.962	2716
799.065	1654
799.167	2290
799.269	1813
799.371	2087
799.473	1858
799.575	2407
799.677	2218
799.779	3767
799.881	3020
799.983	3410
800.085	3140
800.187	1651
800.289	2028
800.390	2090
800.492	2095
800.594	2340
800.696	2242
800.798	2279
800.899	1874
801.001	1734
801.103	1301
801.205	2217
801.306	2184
801.408	1327
801.509	1069
801.611	2026
801.713	1400
801.814	2257
801.916	1613
802.017	2402
802.119	1263
802.220	1835
802.322	723
802.423	2190
802.525	1738
802.626	2883
802.727	1502
802.829	2349
802.930	1870
803.031	2375
803.133	1646
803.234	1983
803.335	1552
803.436	2036
803.538	1196
803.639	1315
803.740	1626
803.841	1599
803.942	1337
804.043	1627
804.144	1337
804.245	1539
804.346	1614
804.447	1325
804.548	1405
804.649	2702
804.750	2791
804.851	2619
804.952	1390
805.053	1016
805.154	1325
805.255	2084
805.355	1149
805.456	1538
805.557	1539
805.658	1563
805.758	1235
805.859	2116
805.960	1482
806.061	1064
806.161	1110
806.262	2354
806.362	1326
806.463	717
806.564	827
806.664	1399
806.765	1572
806.865	1969
806.966	2262
807.066	1263
807.166	1280
807.267	1826
807.367	1362
807.468	2483
807.568	959
807.668	1582
807.769	325
807.869	1609
807.969	833
808.069	1088
808.170	1263
808.270	1764
808.370	878
808.470	1537
808.570	1014
808.670	2236
808.770	1141
808.870	1264
808.970	787
809.070	1495
809.170	1263
809.271	964
809.370	909
809.470	1323
809.570	787
809.670	648
809.770	1189
809.870	1451
809.970	280
810.070	1215
810.169	1207
810.269	272
810.369	588
810.469	1664
810.568	786
810.668	1255
810.768	930
810.867	1133
810.967	1364
811.066	1285
811.166	1309
811.265	1025
811.365	971
811.464	1746
811.564	1024
811.663	1179
811.763	885
811.862	1490
811.962	870
812.061	1575
812.160	1392
812.260	1609
812.359	1604
812.458	2953
812.557	2423
812.657	6194
812.756	13690
812.855	8648
812.954	2054
813.053	1566
813.153	1679
813.252	2082
813.351	976
813.450	1802
813.549	1728
813.648	1756
813.747	905
813.846	1419
813.945	1147
814.044	1339
814.143	827
814.242	1177
814.341	1384
814.439	1748
814.538	1691
814.637	2580
814.736	1242
814.835	1565
814.933	1507
815.032	2092
815.131	1586
815.229	1737
815.328	2353
815.427	3221
815.525	1984
815.624	2796
815.722	1496
815.821	3089
815.919	2679
816.018	2284
816.116	2691
816.215	3281
816.313	2464
816.412	3327
816.510	3145
816.609	2970
816.707	3250
816.805	3121
816.904	3448
817.002	3353
817.100	4329
817.198	3591
817.296	4269
817.395	4707
817.493	5541
817.591	6270
817.689	5853
817.787	8218
817.885	10637
817.983	16012
818.081	24621
818.179	47581
818.277	104842
818.375	239047
818.473	376612
818.571	177007
818.669	57188
818.767	31143
818.865	22809
818.963	22019
819.061	24376
819.158	31660
819.256	48092
819.354	88738
819.452	178478
819.549	369647
819.647	442400
819.745	209980
819.842	80660
819.940	42592
820.038	27553
820.135	20434
820.233	14419
820.330	12611
820.428	10502
820.525	8489
820.623	6631
820.720	7276
820.818	5647
820.915	5642
821.012	4326
821.110	5016
821.207	4003
821.304	3550
821.402	3031
821.499	3745
821.596	3128
821.693	3856
821.791	3264
821.888	3641
821.985	3655
822.082	3971
822.179	5369
822.276	3545
822.373	2023
822.470	2789
822.567	2342
822.664	2205
822.761	2028
822.858	1893
822.955	2444
823.052	2562
823.149	2202
823.246	2370
823.343	1899
823.440	2497
823.536	1673
823.633	2211
823.730	1922
823.827	1890
823.923	1085
824.020	2472
824.117	1331
824.213	1406
824.310	2216
824.407	2103
824.503	1460
824.600	2067
824.696	1649
824.793	1351
824.889	1455
824.986	2278
825.082	1435
825.179	1755
825.275	1375
825.371	1627
825.468	1409
825.564	1640
825.660	981
825.757	1791
825.853	1481
825.949	1334
826.045	522
826.142	1725
826.238	931
826.334	1412
826.430	1360
826.526	1681
826.622	1276
826.718	1518
826.814	1184
826.910	2050
827.006	1486
827.102	820
827.198	914
827.294	1247
827.390	1055
827.486	1569
827.582	1178
827.678	1052
827.774	1170
827.869	695
827.965	1531
828.061	1756
828.157	571
828.252	1613
828.348	1085
828.444	1977
828.539	357
828.635	1301
828.731	890
828.826	1237
828.922	329
829.017	695
829.113	582
829.208	1355
829.304	728
829.399	1460
829.495	1321
829.590	1848
829.685	663
829.781	708
829.876	543
829.971	1618
830.066	1115
830.162	641
830.257	1108
830.352	1897
830.447	1605
830.543	1689
830.638	62
830.733	1361
830.828	1683
830.923	1551
831.018	974
831.113	1200
831.208	1117
831.303	1671
831.398	875
831.493	1087
831.588	888
831.683	1291
831.778	511
831.873	1492
831.967	811
832.062	1272
832.157	197
832.252	1739
832.346	750
832.441	1373
832.536	628
832.631	2300
832.725	2287
832.820	4495
832.914	1074
833.009	1074
833.104	913
833.198	1788
833.293	1098
833.387	832
833.482	1101
833.576	621
833.670	1439
833.765	403
833.859	1326
833.954	1495
834.048	294
834.142	1186
834.237	-37
834.331	805
834.425	358
834.519	1607
834.613	923
834.708	851
834.802	730
834.896	1042
834.990	550
835.084	2316
835.178	268
835.272	789
835.366	302
835.460	2142
835.554	657
835.648	390
835.742	427
835.836	341
835.930	431
836.024	1041
836.117	1001
836.211	249
836.305	606
836.399	750
836.493	1282
836.586	1827
836.680	1072
836.774	1000
836.867	593
836.961	274
837.055	257
837.148	1083
837.242	306
837.335	566
837.429	446
837.522	851
837.616	-34
837.709	1519
837.803	1393
837.896	2193
837.989	841
838.083	1177
838.176	594
838.269	1471
838.363	3191
838.456	1852
838.549	323
838.642	1178
838.735	1892
838.829	3509
838.922	3454
839.015	903
839.108	309
839.201	701
839.294	-80
839.387	778
839.480	1009
839.573	474
839.666	372
839.759	1488
839.852	1018
839.945	1054
840.038	-120
840.131	1125
840.223	505
840.316	937
840.409	-280
840.502	957
840.594	622
840.687	920
840.780	-12
840.873	251
840.965	492
841.058	1216
841.150	886
841.243	1388
841.336	1895
841.428	690
841.521	418
841.613	781
841.706	196
841.798	738
841.890	182
841.983	255
842.075	158
842.167	978
842.260	237
842.352	1998
842.444	549
842.537	2041
842.629	1863
842.721	3789
842.813	2409
842.905	744
842.997	602
843.090	1339
843.182	-49
843.274	811
843.366	1793
843.458	3185
843.550	7160
843.642	10483
843.734	3024
843.826	883
843.918	487
844.009	1688
844.101	176
844.193	841
844.285	-282
844.377	1179
844.469	761
844.560	987
844.652	331
844.744	681
844.835	874
844.927	38
845.019	307
845.110	777
845.202	687
845.293	894
845.385	840
845.476	1591
845.568	727
845.659	763
845.751	775
845.842	858
845.934	-36
846.025	607
846.116	399
846.208	877
846.299	204
846.390	948
846.482	516
846.573	982
846.664	118
846.755	693
846.846	511
846.937	2104
847.029	720
847.120	994
847.211	313
847.302	1216
847.393	-7
847.484	297
847.575	-601
847.666	918
847.757	-112
847.847	416
847.938	265
848.029	1189
848.120	365
848.211	1320
848.302	-183
848.392	1096
848.483	277
848.574	565
848.664	182
848.755	724
848.846	279
848.936	657
849.027	41
849.118	812
849.208	707
849.299	1043
849.389	957
849.480	1075
849.570	1097
849.661	3272
849.751	4307
849.841	10676
849.932	8605
850.022	2242
850.112	1337
850.203	556
850.293	-220
850.383	498
850.474	727
850.564	737
850.654	258
850.744	720
850.834	672
850.924	688
851.014	461
851.104	1038
851.194	98
851.284	813
851.374	263
851.464	1053
851.554	638
851.644	334
851.734	348
851.824	1052
851.914	483
852.004	752
852.094	963
852.183	760
852.273	182
852.363	1016
852.452	15
852.542	716
852.632	-206
852.721	712
852.811	-65
852.901	1297
852.990	199
853.080	721
853.169	176
853.259	1059
853.348	-37
853.438	832
853.527	347
853.617	1086
853.706	599
853.795	2795
853.885	2869
853.974	7895
854.063	18469
854.152	29114
854.242	61188
854.331	54844
854.420	10411
854.509	2787
854.598	1610
854.687	1326
854.777	851
854.866	1526
854.955	1823
855.044	789
855.133	741
855.222	897
855.311	28
855.400	927
855.488	-202
855.577	324
855.666	-111
855.755	1033
855.844	647
855.933	411
856.021	-500
856.110	710
856.199	15
856.288	364
856.376	441
856.465	494
856.554	-162
856.642	304
856.731	-62
856.819	881
856.908	637
856.996	625
857.085	613
857.173	87
857.262	557
857.350	521
857.438	491
857.527	681
857.615	-44
857.703	646
857.792	-165
857.880	391
857.968	133
858.056	-20
858.145	132
858.233	115
858.321	-189
858.409	972
858.497	46
858.585	-54
858.673	486
858.761	776
858.849	-49
858.937	508
859.025	-446
859.113	755
859.201	138
859.289	597
859.377	-378
859.465	537
859.552	9
859.640	-320
859.728	6
859.816	274
859.903	493
859.991	458
860.079	-209
860.166	235
860.254	-117
860.342	515
860.429	-429
860.517	-194
860.604	30
860.692	489
860.779	-285
860.867	979
860.954	-216
861.042	867
861.129	168
861.216	562
861.304	361
861.391	204
861.478	712
861.565	357
861.653	255
861.740	-160
861.827	-465
861.914	-407
862.001	121
862.089	743
862.176	435
862.263	15
862.350	330
862.437	146
862.524	-409
862.611	307
862.698	-987
862.785	320
862.871	-417
862.958	659
863.045	-193
863.132	-385
863.219	52
863.306	299
863.392	28
863.479	309
863.566	-525
863.652	437
863.739	-806
863.826	-61
863.912	-93
863.999	-131
864.086	310
864.172	1115
864.259	395
864.345	430
864.432	244
864.518	-126
864.604	-543
864.691	844
864.777	-388
864.863	207
864.950	-245
865.036	761
865.122	883
865.209	879
865.295	1075
865.381	1386
865.467	876
865.553	1090
865.639	781
865.726	1929
865.812	2454
865.898	4060
865.984	8763
866.070	15757
866.156	21476
866.242	42485
866.328	24127
866.414	4722
866.499	1237
866.585	951
866.671	378
866.757	1767
866.843	953
866.928	906
867.014	902
867.100	1477
867.186	736
867.271	1192
867.357	1215
867.442	1256
867.528	1043
867.614	1324
867.699	886
867.785	1302
867.870	166
867.956	880
868.041	444
868.127	1285
868.212	358
868.297	2121
868.383	1478
868.468	2107
868.553	1234
868.639	1813
868.724	2412
868.809	4141
868.894	5483
868.979	3143
869.065	436
869.150	775
869.235	518
869.320	457
869.405	483
869.490	822
869.575	694
869.660	1088
869.745	-164
869.830	191
869.915	622
870.000	1222
870.085	140
870.169	948
870.254	147
870.339	772
870.424	-455
870.509	1370
870.593	1009
870.678	-70
870.763	486
870.847	690
870.932	-271
871.016	845
871.101	733
871.186	466
871.270	-74
871.355	833
871.439	555
871.523	142
871.608	676
871.692	620
871.777	848
871.861	473
871.945	-81
872.030	461
872.114	255
872.198	135
872.282	179
872.367	486
872.451	181
872.535	550
872.619	570
872.703	-96
872.787	305
872.871	200
872.955	861
873.039	548
873.123	213
873.207	441
873.291	-161
873.375	437
873.459	33
873.543	476
873.627	438
873.711	550
873.794	-65
873.878	508
873.962	514
874.045	809
874.129	668
874.137	652
874.213	493
874.245	355
874.296	137
874.352	222
874.380	261
874.460	-19
874.464	-30
874.547	68
874.568	-35
874.631	-342
874.676	-68
874.714	172
874.784	122
874.798	104
874.881	840
874.892	675
874.965	-462
874.999	-219
875.048	134
875.107	-337
875.131	-528
875.215	726
875.215	726
875.298	-267
875.323	-240
875.381	-110
875.430	-223
875.465	-339
875.538	143
875.548	213
875.631	66
875.646	121
875.714	373
875.753	-51
875.798	-499
875.861	178
875.881	361
875.964	10
875.968	34
876.047	539
876.076	263
876.130	-250
876.183	220
876.213	445
876.291	336
876.296	340
876.379	884
876.398	787
876.462	343
876.506	324
876.545	319
876.613	-98
876.628	-164
876.711	326
876.721	299
876.794	-69
876.828	165
876.877	596
876.935	334
876.960	182
877.043	128
877.043	127
877.125	116
877.150	303
877.208	757
877.258	314
877.291	71
877.365	835
877.374	919
877.456	-199
877.472	-8
877.539	655
877.579	291
877.622	-21
877.687	167
877.704	224
877.787	81
877.794	137
877.869	661
877.901	518
877.952	309
878.008	760
878.034	948
878.115	377
878.117	369
878.199	289
878.222	167
878.282	-240
878.329	346
878.364	787
878.437	658
878.447	625
878.529	346
878.544	262
878.611	64
878.651	340
878.694	522
878.758	-229
878.776	-386
878.858	773
878.865	706
878.941	-316
878.972	65
879.023	792
879.078	440
879.105	239
879.185	432
879.187	441
879.269	917
879.292	851
879.351	558
879.399	366
879.433	246
879.506	574
879.516	602
879.598	151
879.613	186
879.680	537
879.720	460
879.762	299
879.827	181
879.844	160
879.926	142
879.933	175
880.007	367
880.040	221
880.089	131
880.147	392
880.171	535
880.253	788
880.254	793
880.335	1623
880.360	1812
880.417	2512
880.467	3319
880.499	3884
880.574	4792
880.580	4866
880.662	8724
880.680	8224
880.744	5162
880.787	3110
880.825	1609
880.893	488
880.907	369
880.989	542
881.000	566
881.070	381
881.106	235
881.152	417
881.213	188
881.233	-21
881.315	244
881.319	237
881.396	537
881.426	561
881.478	412
881.532	317
881.559	348
881.639	763
881.641	761
881.722	477
881.745	301
881.803	298
881.852	307
881.885	166
881.958	37
881.966	52
882.047	36
882.064	174
882.129	740
882.171	685
882.210	542
882.277	957
882.291	1058
882.372	650
882.383	691
882.454	1114
882.489	901
882.535	368
882.596	46
882.616	67
882.697	373
882.702	378
882.778	262
882.808	283
882.859	381
882.914	488
882.940	416
883.020	21
883.021	24
883.102	320
883.127	392
883.183	189
883.233	145
883.264	312
883.339	372
883.345	341
883.426	217
883.445	125
883.507	237
883.551	258
883.587	122
883.657	312
883.668	451
883.749	1027
883.763	1184
883.830	653
883.869	140
883.910	354
883.975	474
883.991	397
884.072	771
884.081	738
884.152	545
884.187	660
884.233	713
884.292	557
884.314	534
884.394	522
884.398	505
884.475	159
884.504	203
884.555	381
884.610	325
884.636	148
884.716	-201
884.716	-197
884.797	-47
884.821	201
884.877	623
884.927	468
884.958	297
885.033	677
885.038	697
885.118	218
885.139	216
885.199	462
885.244	525
885.279	389
885.350	429
885.359	465
885.439	268
885.456	237
885.520	416
885.561	772
885.600	791
885.667	636
885.680	614
885.760	8
885.773	23
885.840	426
885.878	393
885.920	314
885.984	406
886.000	514
886.080	1009
886.089	1056
886.160	890
886.195	734
886.240	573
886.300	505
886.320	477
886.400	161
886.406	153
886.480	390
886.511	499
886.560	519
886.616	358
886.640	404
886.720	611
886.722	616
886.800	624
886.827	524
886.879	557
886.932	804
886.959	737
887.038	318
887.039	318
887.119	196
887.143	117
887.198	123
887.248	121
887.278	273
887.354	629
887.358	613
887.437	301
887.459	218
887.517	638
887.564	919
887.596	780
887.669	382
887.676	347
887.755	110
887.774	-15
887.835	-8
887.880	158
887.914	296
887.985	304
887.994	276
888.073	194
888.090	159
888.153	358
888.195	512
888.232	639
888.300	876
888.311	913
888.391	1019
888.405	1056
888.470	938
888.510	815
888.549	668
888.615	491
888.628	442
888.708	37
888.720	-18
888.787	172
888.825	285
888.866	339
888.930	393
888.945	461
889.024	816
889.035	859
889.103	567
889.140	429
889.182	728
889.245	1146
889.261	1073
889.340	715
889.349	671
889.419	729
889.454	761
889.498	505
889.559	159
889.577	225
889.656	507
889.664	535
889.735	790
889.768	908
889.814	626
889.873	247
889.978	775
890.083	1084
890.187	572
890.292	189
890.397	946
890.501	1380
890.606	-110
890.710	1278
890.815	1116
890.919	471
891.024	1014
891.128	773
891.233	837
891.337	277
891.442	-301
891.546	534
891.650	604
891.755	881
891.859	1182
891.963	1139
892.068	506
892.172	995
892.276	-32
892.380	1204
892.484	967
892.589	379
892.693	1384
892.797	979
892.901	769
893.005	561
893.109	436
893.213	1430
893.317	558
893.421	364
893.525	158
893.629	656
893.733	442
893.837	380
893.941	331
894.045	427
894.148	320
894.252	44
894.356	-725
894.460	758
894.564	369
894.667	1487
894.771	1138
894.875	1014
894.978	278
895.082	479
895.186	730
895.289	864
895.393	833
895.496	490
895.600	663
895.703	417
895.807	624
895.910	999
896.014	908
896.117	739
896.221	485
896.324	748
896.427	-678
896.531	1112
896.634	338
896.737	-31
896.840	199
896.944	-25
897.047	440
897.150	396
897.253	647
897.356	174
897.460	408
897.563	1443
897.666	-154
897.769	703
897.872	595
897.975	467
898.078	910
898.181	489
898.284	517
898.387	942
898.490	708
898.593	609
898.695	209
898.798	430
898.901	-44
899.004	1070
899.107	-63
899.209	314
899.312	119
899.415	1244
899.518	662
899.620	43
899.723	-170
899.826	453
899.928	714
900.031	620
900.133	576
900.236	698
900.338	659
900.441	663
900.543	98
900.646	719
900.748	471
900.851	487
900.953	433
901.055	-145
901.158	581
901.260	1058
901.362	491
901.465	597
901.567	781
901.669	1132
901.771	516
901.873	-83
901.976	680
902.078	84
902.180	-511
902.282	263
902.384	617
902.486	821
902.588	155
902.690	490
902.792	1412
902.894	759
902.996	414
903.098	-98
903.200	452
903.302	429
903.404	154
903.505	478
903.607	274
903.709	251
903.811	303
903.913	306
904.014	151
904.116	533
904.218	-22
904.319	107
904.421	48
904.523	530
904.624	243
904.726	285
904.827	48
904.929	-16
905.030	413
905.132	569
905.233	-18
905.335	737
905.436	43
905.537	510
905.639	674
905.740	607
905.841	-99
905.943	314
906.044	441
906.145	641
906.247	126
906.348	813
906.449	146
906.550	187
906.651	-259
906.752	797
906.854	-640
906.955	494
907.056	254
907.157	802
907.258	534
907.359	922
907.460	804
907.561	-639
907.662	-422
907.762	221
907.863	47
907.964	601
908.065	145
908.166	-111
908.267	276
908.367	231
908.468	-176
908.569	-155
908.670	109
908.770	776
908.871	60
908.971	590
909.072	1095
909.173	1016
909.273	237
909.374	-157
909.474	-630
909.575	321
909.675	-116
909.776	274
909.876	128
909.977	174
910.077	38
910.177	436
910.278	1012
910.378	825
910.478	247
910.579	-213
910.679	-163
910.779	-332
910.879	-42
910.980	589
911.080	-131
911.180	464
911.280	-497
911.380	-93
911.480	-257
911.580	-171
911.680	286
911.780	77
911.880	645
911.980	281
912.080	-113
912.180	471
912.280	608
912.380	1
912.480	148
912.580	186
912.679	-513
912.779	0
912.879	334
912.979	342
913.078	-49
913.178	-65
913.278	323
913.377	269
913.477	418
913.577	489
913.676	-173
913.776	123
913.875	-273
913.975	-13
914.074	652
914.174	742
914.273	-364
914.373	567
914.472	233
914.572	703
914.671	519
914.770	263
914.870	608
914.969	-133
915.068	126
915.167	-8
915.267	147
915.366	596
915.465	541
915.564	-65
915.663	75
915.763	579
915.862	-610
915.961	256
916.060	182
916.159	-141
916.258	65
916.357	2
916.456	-521
916.555	612
916.654	-105
916.752	642
916.851	692
916.950	217
917.049	-85
917.148	131
917.247	-177
917.345	-383
917.444	388
917.543	-171
917.642	195
917.740	25
917.839	-173
917.937	163
918.036	539
918.135	648
918.233	-947
918.332	1226
918.430	-245
918.529	-383
918.627	-418
918.726	428
918.824	241
918.923	354
919.021	-608
919.119	-633
919.218	-433
919.316	-824
919.414	-104
919.512	181
919.611	-309
919.709	537
919.807	-876
919.905	196
920.003	-332
920.102	557
920.200	-428
920.298	-734
920.396	266
920.494	298
920.592	-463
920.690	227
920.788	382
920.886	408
920.984	-104
921.082	-103
921.180	372
921.277	317
921.375	221
921.473	579
921.571	431
921.669	467
921.766	43
921.864	-298
921.962	35
922.060	56
922.157	277
922.255	-42
922.352	-224
922.450	403
922.548	-383
922.645	25
922.743	305
922.840	586
922.938	1244
923.035	1190
923.133	641
923.230	702
923.327	288
923.425	1586
923.522	812
923.619	1100
923.717	1102
923.814	1227
923.911	594
924.008	1214
924.106	134
924.203	788
924.300	233
924.397	580
924.494	-64
924.591	1183
924.688	505
924.786	904
924.883	1008
924.979	624
925.077	769
925.173	698
925.270	879
925.367	697
925.464	418
925.561	714
925.658	442
925.755	911
925.852	842
925.948	944
926.045	832
926.142	571
926.239	317
926.335	1071
926.432	649
926.529	1313
926.625	732
926.722	661
926.818	1047
926.915	993
927.011	165
927.108	502
927.204	235
927.301	625
927.397	593
927.494	795
927.590	844
927.687	764
927.783	637
927.879	1490
927.976	1602
928.072	913
928.168	185
928.264	652
928.361	501
928.457	576
928.553	798
928.649	381
928.745	377
928.841	617
928.937	-268
929.033	276
929.129	284
929.225	194
929.321	-32
929.417	-255
929.513	81
929.609	223
929.705	565
929.801	1190
929.897	-198
929.993	35
930.089	972
930.184	839
930.280	299
930.376	753
930.471	408
930.567	602
930.663	370
930.758	389
930.854	29
930.950	328
931.045	649
931.141	1114
931.236	189
931.332	747
931.427	512
931.523	-242
931.618	-855
931.714	808
931.809	154
931.905	1386
932.000	581
932.095	861
932.191	96
932.286	464
932.381	330
932.476	1132
932.572	807
932.667	266
932.762	-203
932.857	784
932.952	49
933.047	571
933.142	28
933.237	190
933.332	295
933.427	169
933.522	234
933.617	-220
933.712	388
933.807	917
933.902	-166
933.997	538
934.092	29
934.187	846
934.282	774
934.376	300
934.471	313
934.566	1475
934.661	199
934.755	397
934.850	447
934.945	222
935.039	-239
935.134	-181
935.228	534
935.323	-72
935.417	786
935.512	406
935.606	450
935.701	578
935.795	369
935.890	854
935.984	-120
936.079	-135
936.173	156
936.267	-231
936.362	-592
936.456	398
936.550	-207
936.644	1356
936.738	149
936.833	413
936.927	-362
937.021	504
937.115	-10
937.209	185
937.303	38
937.397	454
937.491	603
937.585	949
937.679	-396
937.773	743
937.867	55
937.961	327
938.055	152
938.149	1531
938.243	-46
938.337	630
938.430	-591
938.524	-37
938.618	492
938.712	639
938.805	449
938.899	-273
938.993	114
939.086	564
939.180	263
939.274	292
939.367	-876
939.461	1099
939.554	456
939.648	808
939.741	78
939.835	-447
939.928	-628
940.022	476
940.115	-347
940.208	101
940.302	-221
940.395	31
940.488	188
940.582	486
940.675	-582
940.768	-299
940.861	94
940.954	422
941.048	-115
941.141	218
941.234	-464
941.327	1021
941.420	-252
941.513	603
941.606	14
941.699	423
941.792	-661
941.885	814
941.978	56
942.071	347
942.164	48
942.257	378
942.349	449
942.442	1231
942.535	-555
942.628	504
942.721	-115
942.813	-336
942.906	636
942.999	-61
943.091	-46
943.184	637
943.277	-66
943.369	89
943.462	534
943.554	498
943.647	-449
943.739	-388
943.832	-126
943.924	543
944.017	-263
944.109	-625
944.201	-386
944.294	-741
944.386	796
944.478	470
944.571	-295
944.663	286
944.755	64
944.847	16
944.940	454
945.032	327
945.124	-18
945.216	138
945.308	1027
945.400	336
945.492	-197
945.584	-591
945.676	194
945.768	341
945.860	730
945.952	409
946.044	475
946.136	658
946.228	61
946.320	265
946.412	559
946.503	927
946.595	734
946.687	-399
946.779	148
946.870	-566
946.962	-12
947.054	282
947.145	-332
947.237	373
947.329	-20
947.420	-121
947.512	681
947.603	557
947.695	290
947.786	-763
947.878	-515
947.969	296
948.061	134
948.152	413
948.243	-428
948.335	113
948.426	-281
948.517	71
948.609	-601
948.700	67
948.791	-23
948.882	399
948.973	-607
949.065	371
949.156	82
949.247	964
949.338	-302
949.429	-62
949.520	324
949.611	-302
949.702	-37
949.793	-7
949.884	64
949.975	275
950.066	-465
950.157	-341
950.247	464
950.338	-22
950.429	-436
950.520	380
950.611	186
950.701	369
950.792	-50
950.883	891
950.973	746
951.064	-223
951.155	111
951.245	-118
951.336	181
951.427	145
951.517	178
951.608	-69
951.698	-989
951.788	-362
951.879	-324
951.969	797
952.060	272
952.150	-202
952.240	-333
952.331	194
952.421	105
952.511	-511
952.602	-392
952.692	-446
952.782	292
952.872	-210
952.962	-277
953.052	-514
953.143	-226
953.233	-37
953.323	-128
953.413	259
953.503	-172
953.593	753
953.683	-432
953.773	-17
953.863	-425
953.953	-193
954.042	-280
954.132	-263
954.222	-328
954.312	-151
954.402	-627
954.492	189
954.581	-436
954.671	550
954.761	-311
954.850	563
954.940	-683
955.030	-205
955.119	-612
955.209	-361
955.298	130
955.388	-492
955.477	73
955.567	-368
955.656	-217
955.746	144
955.835	-776
955.925	188
956.014	-745
956.103	-41
956.193	-497
956.282	1132
956.371	-182
956.461	-384
956.550	-405
956.639	562
956.728	-436
956.817	196
956.906	123
956.995	-819
957.085	253
957.174	205
957.263	-155
957.352	421
957.441	-44
957.530	225
957.619	13
957.708	-616
957.796	-312
957.885	168
957.974	3
958.063	494
958.152	-387
958.241	-352
958.329	-751
958.418	78
958.507	-955
958.596	185
958.684	286
958.773	-102
958.861	-431
958.950	-804
959.039	-395
959.127	323
959.216	618
959.304	225
959.393	-83
959.481	-691
959.570	-362
959.658	243
959.746	-659
959.835	-8
959.923	-387
960.011	157
960.100	-311
960.188	336
960.276	-343
960.365	-56
960.453	267
960.541	-1295
960.629	-338
960.717	-708
960.805	-532
960.893	-371
960.981	-251
961.069	609
961.158	-370
961.245	765
961.333	-440
961.421	-464
961.509	-67
961.597	-653
961.685	-234
961.773	-831
961.861	-128
961.949	85
962.036	-377
962.124	-80
962.212	-504
962.299	-50
962.387	-1133
962.475	261
962.562	-1182
962.650	-458
962.738	-305
962.825	300
962.913	-67
963.000	-252
963.088	-661
963.175	-387
963.263	-881
963.350	-389
963.438	-594
963.525	-42
963.612	548
963.700	291
963.787	1289
963.874	4188
963.962	2336
964.049	-203
964.136	-1145
964.223	-446
964.310	-523
964.398	-202
964.485	-740
964.572	-506
964.659	-236
964.746	71
964.833	211
964.920	-412
965.007	119
965.094	-579
965.181	-347
965.268	-197
965.355	-17
965.441	-410
965.528	-863
965.615	166
965.702	-649
965.789	-651
965.875	-893
965.962	-281
966.049	-233
966.136	75
966.222	-602
966.309	-972
966.395	-438
966.482	-148
966.569	-1306
966.655	-532
966.742	-1177
966.828	751
966.915	-870
967.001	-657
967.087	-873
967.174	33
967.260	-662
967.347	594
967.433	362
967.519	362
967.605	3197
967.692	1479
967.778	225
967.864	-247
967.950	-1118
968.036	-93
968.123	-975
968.209	272
968.295	-807
968.381	-21
968.467	-890
968.553	-803
968.639	-299
968.725	-542
968.811	-74
968.897	345
968.983	-660
969.069	-62
969.154	-131
969.240	-754
969.326	-347
969.412	-1083
969.497	-907
969.583	-406
969.669	-1081
969.755	-937
969.840	-351
969.926	573
970.012	-738
970.097	307
970.183	64
970.268	-903
970.354	270
970.439	-373
970.525	252
970.610	1701
970.696	417
970.781	-271
970.866	-792
970.952	-675
971.037	-916
971.122	-405
971.208	-623
971.293	-677
971.378	-745
971.463	-138
971.549	-550
971.634	-593
971.719	-293
971.804	-727
971.889	-143
971.974	-163
972.059	-103
972.144	34
972.229	-155
972.314	-740
972.399	-689
972.484	-334
972.569	-490
972.654	-474
972.739	221
972.824	-295
972.908	233
972.993	74
973.078	-1024
973.163	-324
973.247	-478
973.332	-714
973.417	-597
973.501	-845
973.586	-853
973.671	-652
973.755	-486
973.840	-393
973.924	-360
974.009	162
974.093	-794
974.178	24
974.262	-457
974.346	-220
974.431	-264
974.515	560
974.600	-849
974.684	-656
974.768	-431
974.852	-842
974.937	-221
975.021	-434
975.105	-1222
975.189	-483
975.273	279
975.358	-702
975.442	-1377
975.526	-926
975.610	-201
975.694	-741
975.778	-656
975.862	-581
975.946	115
976.030	-697
976.114	-615
976.198	-631
976.281	-1120
976.365	296
976.449	-805
976.533	-409
976.617	-511
976.700	90
976.784	-489
976.868	-812
976.951	-228
977.035	-125
977.119	-709
977.202	-743
977.286	-898
977.369	-194
977.453	-525
977.536	-805
977.620	-1190
977.703	-97
977.787	-1060
977.870	292
977.953	22
978.037	-353
978.120	35
978.203	612
978.287	376
978.370	788
978.453	835
978.536	-726
978.620	-900
978.703	-30
978.786	212
978.869	-395
978.952	-697
979.035	-1204
979.118	-463
979.201	-840
979.284	-1036
979.367	260
979.450	-1106
979.533	-535
979.616	-989
979.699	-749
979.782	-1089
979.865	28
979.948	-167
980.030	-227
980.113	-931
980.196	-602
980.279	-897
980.361	-241
980.444	-662
980.526	168
980.609	-526
980.692	-394
980.774	-1269
980.857	-1249
980.939	24
981.022	-112
981.104	-314
981.187	-658
981.269	-480
981.352	-1012
981.434	-263
981.516	-814
981.599	-424
981.681	322
981.763	-1090
981.846	-129
981.928	-301
982.010	-290
982.092	-354
982.174	-549
982.256	-1442
982.339	-730
982.421	-543
982.503	-1003
982.585	-1207
982.667	-982
982.749	-862
982.831	-1008
982.913	-895
982.995	-183
983.077	-184
983.158	-475
983.240	-625
983.322	-347
983.404	-42
983.486	-182
983.568	-568
983.649	-618
983.731	47
983.813	-329
983.894	-1397
983.976	-189
984.058	-364
984.139	-343
984.221	-152
984.302	-70
984.384	-649
984.465	-364
984.547	-789
984.628	-152
984.710	-681
984.791	-520
984.872	-280
984.954	-707
985.035	-1044
985.116	-204
985.198	-715
985.279	-1048
985.360	-581
985.441	-617
985.522	-1307
985.604	-840
985.685	-1313
985.766	-515
985.847	-1107
985.928	-643
986.009	-817
986.090	-351
986.171	-1280
986.252	-635
986.333	-931
986.414	-714
986.495	-1061
986.576	-838
986.656	-246
986.737	-599
986.818	-468
986.899	-561
986.980	-756
987.060	-237
987.141	-93
987.222	-651
987.302	-981
987.383	-44
987.464	342
987.544	137
987.625	-471
987.705	-291
987.786	-302
987.866	-845
987.947	-201
988.027	-705
988.108	-1120
988.188	-591
988.268	-110
988.349	-1172
988.429	-838
988.509	-387
988.589	-300
988.670	-640
988.750	-183
988.830	92
988.910	-314
988.990	-378
989.070	-52
989.151	96
989.231	-923
989.311	-317
989.391	-953
989.471	-544
989.551	-1693
989.631	-1107
989.711	-162
989.791	-182
989.870	-1565
989.950	-861
990.030	-833
990.110	-845
990.190	-709
990.269	-700
990.349	-570
990.429	-1117
990.509	-392
990.588	-109
990.668	-1048
990.747	-484
990.827	-990
990.907	-1111
990.986	-945
991.066	-312
991.145	-769
991.225	-6
991.304	-670
991.383	-347
991.463	-880
991.542	-1052
991.622	-154
991.701	182
991.780	-1209
991.859	-657
991.939	-906
992.018	-466
992.097	-527
992.176	-719
992.256	-1058
992.335	-1452
992.414	-805
992.493	-561
992.572	-1125
992.651	-908
992.730	-587
992.809	-1263
992.888	-1172
992.967	-694
993.046	-1236
993.125	115
993.203	-1638
993.282	-465
993.361	-1301
993.440	-221
993.519	-1801
993.597	-600
993.676	-1126
993.755	-854
993.834	-1144
993.912	-422
993.991	-1292
994.069	-1230
994.148	-1382
994.226	-1000
994.305	-849
994.384	-1126
994.462	-176
994.540	-1125
994.619	-904
994.697	-1030
994.776	-1183
994.854	-766
994.932	-1556
995.011	-936
995.089	-1074
995.167	-434
995.245	-722
995.324	-884
995.402	-711
995.480	-682
995.558	-826
995.636	-123
995.714	-1058
995.792	-983
995.870	-612
995.948	-611
996.026	-633
996.104	-323
996.182	-414
996.260	-581
996.338	-914
996.416	-499
996.494	-1020
996.572	-499
996.649	-1300
996.727	-1180
996.805	-1066
996.883	-983
996.960	-1132
997.038	-1201
997.116	-1483
997.193	-397
997.271	-322
997.348	-999
997.426	-732
997.504	-764
997.581	-1239
997.658	-126
997.736	-1000
997.813	-1642
997.891	-1795
997.968	-1107
998.046	-1051
998.123	-676
998.200	-695
998.277	-1280
998.355	-1485
998.432	-1151
998.509	-1251
998.586	-536
998.663	-1114
998.741	-1068
998.818	-800
998.895	-898
998.972	-283
999.049	-285
999.126	-1679
999.203	-875
999.280	-1708
999.357	-881
999.434	-1726
999.511	20
999.587	-1509
999.664	-832
999.741	-1465
999.818	-1212
999.895	-998
999.971	-700
1000.048	-1205
1000.125	-879
1000.202	-1533
1000.278	-950
1000.355	-1867
1000.431	-1418
1000.508	-1708
1000.584	-709
1000.661	-1109
1000.738	-1366
1000.814	-1035
1000.890	-711
1000.967	-1453
1001.043	-683
1001.120	-1149
1001.196	-1279
1001.272	-970
1001.349	-1449
1001.425	-759
1001.501	-1586
1001.577	-1498
1001.654	-792
1001.730	-2085
1001.806	-1680
1001.882	-1881
1001.958	-900
1002.034	-706
1002.110	-430
1002.186	-1090
1002.262	-959
1002.338	-1493
1002.414	-951
1002.490	-898
1002.566	-1443
1002.642	-1789
1002.718	-1209
1002.794	-1366
1002.870	-865
1002.945	-1011
1003.021	-1063
1003.097	-1596
1003.173	-647
1003.248	-1527
1003.324	-1704
1003.400	-1495
1003.475	-1633
1003.551	-1855
1003.626	-2160
1003.702	-232
1003.777	-614
1003.853	-758
1003.928	-2240
1004.004	-1351
1004.079	-1158
1004.155	-991
1004.230	-1097
1004.305	-1510
1004.381	-1206
1004.456	-1895
1004.531	-1331
1004.607	-1750
1004.682	-1888
1004.757	-1357
1004.832	-1135
1004.907	-1394
1004.982	-889
1005.057	-1588
1005.133	-493
1005.208	-1907
1005.283	-710
1005.358	-1047
1005.433	-1734
1005.508	-1794
1005.583	-1719
1005.657	-1657
1005.732	-715
1005.807	-1787
1005.882	-935
1005.957	-380
1006.032	-1318
1006.106	-1628
1006.181	-1658
1006.256	-1254
1006.331	-1012
1006.405	-2196
1006.480	-714
1006.554	-1474
1006.629	-1135
1006.704	-1359
1006.778	-1470
1006.853	-1104
1006.927	-1085
1007.002	-1932
1007.076	-1448
1007.150	-1918
1007.225	-3
1007.299	-1965
1007.373	-1542
1007.448	-1342
1007.522	-637
1007.596	-1389
1007.671	-742
1007.745	-1601
1007.819	-719
1007.893	-1814
1007.967	-1009
1008.041	-1788
1008.115	-991
1008.190	-986
1008.264	-908
1008.338	-1695
1008.412	-1359
1008.486	-1059
1008.560	-2249
1008.633	-2026
1008.707	-2345
1008.781	-1789
1008.855	-1552
1008.929	-1373
1009.003	-863
1009.076	-1511
1009.150	-747
1009.224	-911
1009.298	-1351
1009.371	-2186
1009.445	-1441
1009.519	-1654
1009.592	-1301
1009.666	-1295
1009.739	-1452
1009.813	-1809
1009.886	-1119
1009.960	-2034
1010.033	-1074
1010.107	-1933
1010.180	-1587
1010.253	-1503
1010.327	-801
1010.400	-2264
1010.473	-1165
1010.547	-1040
1010.620	-1201
1010.693	-1741
1010.766	-1373
1010.840	-1142
1010.913	-1073
1010.986	-1949
1011.059	-709
1011.132	-1771
1011.205	-796
1011.278	-1430
1011.351	-1245
1011.424	-940
1011.497	-1793
1011.570	-828
1011.643	-1130
1011.716	-2072
1011.789	-1256
1011.862	-2035
1011.934	-1241
1012.007	-1785
1012.080	-1447
1012.153	-1271
1012.225	-730
1012.298	-1874
1012.371	-480
1012.443	-561
1012.516	-1457
1012.588	-1936
1012.661	-1536
1012.733	-1870
1012.806	-1284
1012.879	-1135
1012.951	-567
1013.023	-1294
1013.096	-1170
1013.168	-1391
1013.241	-435
1013.313	-1027
1013.385	-1353
1013.458	-1729
1013.530	-426
1013.602	-2057
1013.674	-415
1013.746	-1868
1013.819	-1398
1013.891	-2001
1013.963	-768
1014.035	-1061
1014.107	-1386
1014.179	-1784
1014.251	-904
1014.323	-719
1014.395	-1641
1014.467	-1039
1014.539	-1380
1014.611	-1298
1014.683	-1314
1014.754	-1282
1014.826	-1228
1014.898	-1779
1014.970	-1555
1015.042	-1704
1015.113	-2200
1015.185	-1636
1015.257	-1949
1015.328	-1136
1015.400	-1038
1015.471	-1232
1015.543	-1867
1015.615	-1163
1015.686	-1616
1015.757	-1548
1015.829	-700
1015.901	-1551
1015.972	-688
1016.043	-2107
1016.115	-2364
1016.186	-1517
1016.257	-1392
1016.328	-1726
1016.400	-1311
1016.471	-2055
1016.542	-1180
1016.613	-1504
1016.685	-1608
1016.756	-1277
1016.827	-1796
1016.898	-2022
1016.969	-767
1017.040	-1599
1017.111	-1342
1017.182	-1427
1017.253	-1439
1017.324	-1423
1017.395	-2220
1017.466	-801
1017.537	-1913
1017.608	-917
1017.678	-1580
1017.749	-1169
1017.820	-654
1017.891	-1488
1017.961	-993
1018.032	-1503
1018.103	-1275
1018.173	-1205
1018.244	-828
1018.315	-2105
1018.385	-1337
1018.456	-1622
1018.526	-1957
1018.597	-1385
1018.667	-1377
1018.738	-1330
1018.808	-2061
1018.878	-1041
1018.949	-1098
1019.019	-1348
1019.089	-1939
1019.160	-1837
1019.230	-1786
1019.300	-1226
1019.371	-1388
1019.441	-1384
1019.511	-1303
1019.581	-2109
1019.651	-956
1019.721	-1266
1019.791	-994
1019.861	-1186
1019.931	-1189
1020.001	-1590
1020.071	-831
1020.141	-1714
1020.211	-602
1020.281	-1775
1020.351	-1457
1020.421	-1446
1020.491	-1283
1020.560	-899
1020.630	-709
1020.700	-1653
1020.770	-977
1020.839	-1539
1020.909	-1198
1020.979	-1594
1021.048	-1240
1021.118	-1457
1021.187	-1783
1021.257	-1853
1021.326	-2046
1021.396	-1970
1021.465	-1164
1021.535	-584
1021.604	-1674
1021.674	-2001
1021.743	-1501
1021.812	-1214
1021.882	-1480
1021.951	-938
1022.020	-1397
1022.089	-1402
1022.159	-1136
1022.228	-1820
1022.297	-1977
1022.366	-924
1022.435	-702
1022.504	-1781
1022.573	-1980
1022.642	-1263
1022.711	-960
1022.781	-1249
1022.849	-914
1022.918	-1817
1022.987	-1302
1023.056	-1330
1023.125	-853
1023.194	-1201
1023.263	-1312
1023.331	-1806
1023.400	-2864
1023.469	-1673
1023.538	-1440
1023.606	-2250
1023.675	-1689
1023.744	-1681
1023.812	-1242
1023.881	-1518
1023.949	-1221
1024.018	-2466
1024.086	-1469
1024.155	-2077
1024.223	-1344
1024.292	-1153
1024.360	-1466
1024.429	-1479
1024.497	-1592
1024.565	-1124
1024.634	-1631
1024.702	-1493
1024.770	-1775
1024.838	-2783
1024.907	-1834
1024.975	-1379
1025.043	-1283
1025.111	-1490
1025.179	-1379
1025.247	-1073
1025.315	-1803
1025.383	-1583
1025.451	-885
1025.519	-2248
1025.587	-2128
1025.655	-1644
1025.723	-1943
1025.791	-1028
1025.859	-1808
1025.927	-1797
1025.995	-2072
1026.062	-1226
1026.130	-1403
1026.198	-1457
1026.266	-1536
1026.333	-2284
1026.401	-950
1026.469	-1490
1026.536	-1079
1026.604	-1088
1026.671	-1851
1026.739	-1808
1026.806	-2398
1026.874	-2076
1026.941	-1453
1027.009	-1749
1027.076	-1750
1027.144	-1329
1027.211	-1734
1027.278	-1714
1027.345	-1237
1027.413	-1190
1027.480	-1645
1027.547	-2308
1027.614	-1867
1027.682	-1539
1027.749	-1559
1027.816	-703
1027.883	-1430
1027.950	-2028
1028.017	-1406
1028.084	-1572
1028.151	-988
1028.218	-1847
1028.285	-1787
1028.352	-1657
1028.419	-1244
1028.486	-1443
1028.553	-559
1028.619	-1512
1028.686	-854
1028.753	-1720
1028.820	-1753
1028.886	-1690
1028.953	-1416
1029.020	-963
1029.086	-1224
1029.153	-1286
1029.220	-808
1029.286	-1274
1029.353	-1538
1029.419	-1029
1029.486	-1540
1029.552	-1982
1029.619	-953
1029.685	-1217
1029.751	-1250
1029.818	-1151
1029.884	-1058
1029.951	-1032
1030.017	-2067
1030.083	-1296
1030.149	-1894
1030.216	-885
1030.282	-1066
1030.348	-982
1030.414	-1025
1030.480	-986
1030.546	-1239
1030.612	-1398
1030.678	-1402
1030.744	-2014
1030.810	-1091
1030.876	-2687
1030.942	-1253
1031.008	-1948
1031.074	-1793
1031.140	-1245
1031.206	-1425
1031.272	-1772
1031.337	-2158
1031.403	-1458
1031.469	-1485
1031.534	-2276
1031.600	-1093
1031.666	-1548
1031.731	-1669
1031.797	-1712
1031.863	-1657
1031.928	-1596
1031.994	-1828
1032.059	-1861
1032.125	-1695
1032.190	-1571
1032.256	-1304
1032.321	-1389
1032.386	-1954
1032.452	-1959
1032.517	-2005
1032.582	-2646
1032.647	-2014
1032.713	-1107
1032.778	-1392
1032.843	-1695
1032.908	-850
1032.974	-1562
1033.039	-1882
1033.104	-1321
1033.169	-1448
1033.234	-1329
1033.299	-1388
1033.364	-1447
1033.429	-1195
1033.494	-1110
1033.559	-1270
1033.624	-1383
1033.688	-1876
1033.753	-2366
1033.818	-1326
1033.883	-2483
1033.948	-1415
1034.013	-1532
1034.077	-1332
1034.142	-1082
1034.207	-1253
1034.271	-1307
1034.336	-1310
1034.400	-1134
1034.465	-364
1034.530	-1097
1034.594	-575
1034.658	-2239
1034.723	-748
1034.787	-1343
1034.852	-1089
1034.916	-1688
1034.981	-1536
1035.045	-1212
1035.109	-2197
1035.173	-2112
1035.238	-1532
1035.302	-1125
1035.366	-1110
1035.430	-1608
1035.495	-1556
1035.559	-485
1035.623	-1368
1035.687	-1653
1035.751	-1699
1035.815	-1587
1035.879	-1078
1035.943	-2027
1036.007	-1398
1036.071	-1839
1036.135	-1614
1036.198	-1890
1036.262	-1471
1036.326	-1464
1036.390	-1532
1036.454	-1671
1036.517	-838
1036.581	-1592
1036.645	-1249
1036.709	-1218
1036.772	-959
1036.836	-536
1036.900	-1024
1036.963	-1351
1037.026	-1199
1037.090	-1805
1037.154	-1895
1037.217	-2393
1037.280	-1858
1037.344	-2048
1037.407	-1490
1037.471	-1763
1037.534	-2066
1037.597	-1606
1037.661	-1215
1037.724	-1726
1037.787	-1271
1037.850	-2164
1037.913	-2073
1037.977	-1158
1038.040	-2033
1038.103	-2140
1038.166	-2338
1038.229	-1337
1038.292	-1649
1038.355	-1922
1038.418	-2354
1038.481	-1461
1038.544	-1941
1038.607	-2038
1038.670	-1312
1038.732	-1303
1038.795	-1210
1038.858	-1793
1038.921	-1271
1038.984	-1838
1039.046	-2127
1039.109	-2080
1039.172	-1104
1039.234	-2185
1039.297	-1684
1039.360	-1483
1039.422	-2000
1039.485	-1637
1039.547	-1895
1039.610	-1814
1039.672	-1820
1039.734	-2158
1039.797	-2198
1039.859	-2110
1039.922	-1334
1039.984	-1994
1040.046	-1240
1040.109	-1584
1040.171	-1227
1040.233	-1459
1040.295	-2295
1040.358	-1410
1040.420	-1547
1040.482	-1375
1040.544	-1387
1040.606	-2222
1040.668	-1469
1040.730	-1919
1040.792	-998
1040.854	-2171
1040.916	-1767
1040.978	-1326
1041.040	-1482
1041.102	-1907
1041.164	-1533
1041.225	-1352
1041.287	-1013
1041.349	-2296
1041.411	-1165
1041.472	-1908
1041.534	-1810
1041.596	-1609
1041.657	-2074
1041.719	-2223
1041.781	-1855
1041.842	-1450
1041.904	-1326
1041.965	-2287
1042.027	-1731
1042.088	-1356
1042.150	-1879
1042.211	-1946
1042.272	-1633
1042.334	-1834
1042.395	-1448
1042.456	-1204
1042.518	-1538
1042.579	-1690
1042.640	-1413
1042.701	-1565
1042.763	-1964
1042.824	-1991
1042.885	-2101
1042.946	-1876
1043.007	-1291
1043.068	-2101
1043.129	-1989
1043.190	-1254
1043.251	-1410
1043.312	-2018
1043.373	-1290
1043.434	-2098
1043.495	-1235
1043.556	-1623
1043.616	-1328
1043.677	-1787
1043.738	-1023
1043.799	-2379
1043.859	-1119
1043.920	-2090
1043.981	-822
1044.041	-2159
1044.102	-1361
1044.162	-1582
1044.223	-1387
1044.284	-2278
1044.344	-1429
1044.405	-1310
1044.465	-1634
1044.525	-1861
1044.586	-2124
1044.646	-1343
1044.707	-1779
1044.767	-1938
1044.827	-1314
1044.887	-2255
1044.948	-1735
1045.008	-1336
1045.068	-2123
1045.128	-1941
1045.188	-1509
1045.249	-1323
1045.309	-1376
1045.369	-1378
1045.429	-1572
1045.489	-1456
1045.549	-1947
1045.609	-1837
1045.669	-1320
1045.729	-1151
1045.789	-1321
1045.848	-1348
1045.908	-1399
1045.968	-1227
1046.028	-727
1046.088	-1826
1046.147	-1580
1046.207	-1842
1046.267	-954
1046.326	-1650
1046.386	-1349
1046.446	-474
1046.505	-1704
1046.565	-1576
1046.624	-1128
1046.684	-667
1046.743	-266
1046.803	-822
1046.862	-270
1046.922	0
