'Start Wavelength	183.907
'End Wavelength	1046.922
'Gate Delay	5.000
'Gate Width (ms)	1.050
'Laser Output Level	0.000
'X Position	0.000
'Y Position	0.000
'Z Position	0.000
'Grid Point Number	1.000
'Shot Number	100.000
183.907	717.000
183.977	325.000
184.047	887
184.116	255
184.186	76
184.256	241
184.325	472
184.395	-241
184.465	526
184.534	451
184.604	331
184.674	659
184.743	460
184.813	905
184.883	23
184.952	151
185.022	863
185.092	264
185.161	-77
185.231	931
185.301	654
185.370	975
185.440	-125
185.509	257
185.579	584
185.649	937
185.718	243
185.788	867
185.857	867
185.927	646
185.996	195
186.066	-44
186.136	614
186.205	394
186.275	709
186.344	841
186.414	882
186.483	554
186.553	1114
186.622	488
186.692	-216
186.761	965
186.831	38
186.900	707
186.970	394
187.039	1318
187.109	1117
187.178	367
187.248	794
187.317	1634
187.387	566
187.456	1454
187.526	1162
187.595	1138
187.664	728
187.734	1676
187.803	761
187.873	1414
187.942	1870
188.012	668
188.081	1143
188.150	775
188.220	1918
188.289	1450
188.358	898
188.428	894
188.497	573
188.567	1167
188.636	1424
188.705	426
188.775	726
188.844	680
188.913	757
188.983	651
189.052	-26
189.121	583
189.191	714
189.260	1115
189.329	1229
189.399	181
189.468	916
189.537	700
189.606	1087
189.676	1146
189.745	994
189.814	1246
189.883	1107
189.953	1197
190.022	1709
190.091	5434
190.161	3664
190.230	1542
190.299	1459
190.368	565
190.437	959
190.507	996
190.576	1034
190.645	889
190.714	929
190.783	724
190.853	1362
190.922	1632
190.991	1487
191.060	1770
191.129	970
191.198	435
191.268	736
191.337	1546
191.406	935
191.475	832
191.544	1229
191.613	962
191.682	21
191.752	1066
191.821	1177
191.890	1708
191.959	731
192.028	824
192.097	1517
192.166	987
192.235	1141
192.304	1283
192.373	791
192.442	1276
192.511	1155
192.580	407
192.650	1110
192.719	1491
192.788	994
192.857	1853
192.926	1286
192.995	1245
193.064	3023
193.133	3910
193.202	3521
193.271	3242
193.340	2933
193.409	3694
193.478	3533
193.547	5256
193.615	6081
193.684	5077
193.753	3531
193.822	2817
193.891	2370
193.960	1714
194.029	1358
194.098	1913
194.167	1330
194.236	2109
194.305	1105
194.374	1274
194.443	1453
194.512	1154
194.580	2420
194.649	3039
194.718	2336
194.787	2268
194.856	1905
194.925	2658
194.994	2647
195.062	2470
195.131	3093
195.200	3487
195.269	2995
195.338	2085
195.407	1649
195.475	1626
195.544	3397
195.613	2280
195.682	2154
195.751	4122
195.819	3096
195.888	1817
195.957	3704
196.026	3420
196.094	3142
196.163	3723
196.232	3076
196.301	2843
196.369	2828
196.438	2473
196.507	1731
196.576	1314
196.644	1179
196.713	2301
196.782	1237
196.850	2073
196.919	1480
196.988	1614
197.056	2320
197.125	1430
197.194	1602
197.262	1172
197.331	1612
197.400	1344
197.468	1592
197.537	1577
197.606	2387
197.674	4738
197.743	5020
197.812	2754
197.880	6539
197.949	3762
198.017	5240
198.086	2937
198.155	1942
198.223	3727
198.292	6413
198.360	2587
198.429	2157
198.497	2738
198.566	5571
198.635	3897
198.703	2624
198.772	3431
198.840	8740
198.909	4623
198.977	2580
199.046	2582
199.114	2871
199.183	2307
199.251	2753
199.320	1566
199.388	2171
199.457	2521
199.525	2590
199.594	2007
199.662	2110
199.731	2518
199.799	2798
199.867	3676
199.936	2622
200.004	2770
200.073	2510
200.141	2005
200.210	1754
200.278	1929
200.346	3109
200.415	3666
200.483	3603
200.552	2823
200.620	2668
200.688	3168
200.757	2621
200.825	2988
200.893	2832
200.962	2197
201.030	2188
201.098	2771
201.167	2693
201.235	2465
201.303	2377
201.372	3301
201.440	2596
201.508	4275
201.577	3694
201.645	3010
201.713	2460
201.781	3762
201.850	4006
201.918	3123
201.986	2886
202.055	2703
202.123	2936
202.191	2380
202.259	2826
202.327	2439
202.396	2666
202.464	2479
202.532	5776
202.600	10878
202.669	4822
202.737	3698
202.805	2856
202.873	2361
202.941	3089
203.009	3215
203.078	2615
203.146	2647
203.214	2365
203.282	2325
203.350	2402
203.418	3538
203.487	2900
203.555	2218
203.623	3165
203.691	2807
203.759	2787
203.827	2876
203.895	2194
203.963	3076
204.031	3465
204.099	2917
204.168	2771
204.236	2959
204.304	3450
204.372	3708
204.440	3099
204.508	2798
204.576	2858
204.644	3127
204.712	2512
204.780	3407
204.848	3747
204.916	3140
204.984	3267
205.052	2361
205.120	3519
205.188	3198
205.256	3429
205.324	3188
205.392	3291
205.460	3846
205.528	3133
205.596	3038
205.664	3065
205.732	3927
205.799	11599
205.867	7850
205.935	3980
206.003	3249
206.071	3446
206.139	4087
206.207	3428
206.275	3456
206.343	3218
206.411	3483
206.478	3058
206.546	3693
206.614	4015
206.682	3942
206.750	3352
206.818	5120
206.885	3535
206.953	3390
207.021	2649
207.089	2800
207.157	3305
207.225	2827
207.292	3743
207.360	4082
207.428	3893
207.496	2827
207.563	3490
207.631	3270
207.699	3503
207.767	3247
207.834	3469
207.902	4058
207.970	3100
208.038	3802
208.105	3878
208.173	4185
208.241	5615
208.309	5324
208.376	6001
208.444	6775
208.512	4541
208.579	3512
208.647	4725
208.715	4945
208.782	4479
208.850	3524
208.918	3800
208.985	3805
209.053	4200
209.120	4182
209.188	4364
209.256	3616
209.323	4781
209.391	5172
209.459	4469
209.526	3798
209.594	4140
209.661	4342
209.729	4141
209.796	4721
209.864	4270
209.932	4531
209.999	4425
210.067	4808
210.134	4624
210.202	5785
210.269	6043
210.337	5912
210.404	3913
210.472	3889
210.539	4694
210.607	5701
210.674	4983
210.742	4131
210.809	4975
210.877	6081
210.944	5139
211.012	6678
211.079	4950
211.146	4708
211.214	4891
211.281	6452
211.349	4432
211.416	5301
211.484	5246
211.551	4319
211.618	4511
211.686	4785
211.753	4303
211.821	4517
211.888	4634
211.955	4785
212.023	4654
212.090	4389
212.157	5286
212.225	5618
212.292	9512
212.359	21125
212.427	28072
212.494	10760
212.561	6257
212.629	5960
212.696	6001
212.763	5653
212.831	4934
212.898	4781
212.965	4834
213.032	5640
213.100	6060
213.167	6536
213.234	5142
213.301	5231
213.369	5101
213.436	5271
213.503	5977
213.570	5046
213.638	5675
213.705	5177
213.772	4687
213.839	6898
213.906	5934
213.973	6141
214.041	4790
214.108	4685
214.175	5641
214.242	5279
214.309	4932
214.376	5829
214.444	6783
214.511	7277
214.578	5743
214.645	6249
214.712	5924
214.779	6660
214.846	6637
214.913	6542
214.980	8584
215.048	8542
215.115	8284
215.182	7875
215.249	6589
215.316	5944
215.383	5407
215.450	5447
215.517	5068
215.584	5304
215.651	4830
215.718	5190
215.785	6781
215.852	7485
215.919	7982
215.986	7396
216.053	5342
216.120	4823
216.187	6099
216.254	5134
216.321	6136
216.388	7161
216.455	6812
216.522	6036
216.589	9098
216.656	14206
216.722	10419
216.789	10639
216.856	10372
216.923	8717
216.990	7928
217.057	7862
217.124	10133
217.191	9757
217.258	11723
217.324	13798
217.391	13414
217.458	10026
217.525	8323
217.592	7608
217.659	7685
217.725	8093
217.792	10199
217.859	7391
217.926	5904
217.993	4747
218.059	5131
218.126	4151
218.193	4679
218.260	4510
218.327	4434
218.393	4855
218.460	4453
218.527	4253
218.594	6976
218.660	10090
218.727	7171
218.794	4996
218.860	4349
218.927	4088
218.994	3599
219.061	5481
219.127	7233
219.194	7731
219.261	4163
219.327	3491
219.394	3415
219.461	4027
219.527	4824
219.594	7098
219.661	3902
219.727	3568
219.794	3711
219.860	4431
219.927	5245
219.994	9580
220.060	10065
220.127	7336
220.193	6730
220.260	8207
220.326	10997
220.393	19494
220.460	20143
220.526	12471
220.593	8041
220.659	8375
220.726	10844
220.792	20109
220.859	19036
220.925	30423
220.992	30933
221.058	29618
221.125	21747
221.191	15041
221.258	7461
221.324	7190
221.391	6857
221.457	4880
221.524	5984
221.590	11122
221.657	22302
221.723	10855
221.789	15095
221.856	10265
221.922	6926
221.989	5575
222.055	5447
222.121	4931
222.188	5925
222.254	4333
222.321	4537
222.387	3728
222.453	4368
222.520	4141
222.586	3992
222.652	4031
222.719	4439
222.785	4460
222.851	4110
222.918	3654
222.984	4284
223.050	5082
223.116	4192
223.183	3424
223.249	2941
223.315	3314
223.382	3333
223.448	3403
223.514	2902
223.580	3222
223.647	3244
223.713	2845
223.779	3262
223.845	3974
223.911	3135
223.978	3479
224.044	2992
224.110	3272
224.176	3422
224.242	3617
224.309	2443
224.375	3174
224.441	3106
224.507	4051
224.573	3916
224.639	3101
224.705	2731
224.772	2771
224.838	3649
224.904	4013
224.970	3804
225.036	4030
225.102	4317
225.168	3746
225.234	4056
225.300	3819
225.366	3530
225.432	3024
225.499	3290
225.565	5208
225.631	4373
225.697	4766
225.763	5861
225.829	6127
225.895	7583
225.961	10783
226.027	8656
226.093	8488
226.159	9680
226.225	17388
226.291	41728
226.357	40425
226.423	21811
226.489	13500
226.554	9796
226.620	10243
226.686	15456
226.752	21121
226.818	37836
226.884	59559
226.950	37259
227.016	17165
227.082	11491
227.148	11237
227.214	9727
227.279	8635
227.345	7263
227.411	6769
227.477	8033
227.543	13244
227.609	10427
227.674	8027
227.740	6684
227.806	5828
227.872	5179
227.938	7565
228.003	8757
228.069	4809
228.135	4472
228.201	4744
228.267	5451
228.332	7248
228.398	7956
228.464	4952
228.530	3932
228.595	4211
228.661	5728
228.727	8825
228.792	5404
228.858	5151
228.924	5546
228.990	7032
229.055	7970
229.121	6437
229.187	4520
229.252	6276
229.318	3844
229.384	6386
229.449	6147
229.515	4361
229.581	2683
229.646	5176
229.712	6792
229.777	15555
229.843	9928
229.909	10252
229.974	9188
230.040	7354
230.105	7400
230.171	7578
230.236	10801
230.302	14516
230.368	8855
230.433	6723
230.499	5853
230.564	7416
230.630	5140
230.695	4759
230.761	4731
230.826	5117
230.892	8101
230.957	4562
231.023	4471
231.088	5178
231.154	4521
231.219	5877
231.284	9700
231.350	6727
231.415	4919
231.481	4321
231.546	4268
231.612	4115
231.677	3529
231.742	4813
231.808	4467
231.873	4089
231.939	5131
232.004	11052
232.069	6349
232.135	5341
232.200	4221
232.265	3690
232.331	3320
232.396	3936
232.461	3876
232.527	3490
232.592	3839
232.657	5501
232.723	11580
232.788	5201
232.853	3812
232.918	3952
232.984	3677
233.049	4717
233.114	11156
233.179	6714
233.245	17516
233.310	9695
233.375	4634
233.440	4868
233.506	4294
233.571	3605
233.636	3573
233.701	5220
233.766	14839
233.832	9012
233.897	6946
233.962	8255
234.027	8509
234.092	5966
234.157	6128
234.222	6431
234.288	17059
234.353	31183
234.418	23724
234.483	13950
234.548	11042
234.613	8364
234.678	8145
234.743	15954
234.808	33452
234.873	13825
234.938	8515
235.004	7422
235.069	6943
235.134	6399
235.199	5308
235.264	5616
235.329	5486
235.394	6847
235.459	9301
235.524	7299
235.589	5389
235.654	5881
235.719	5215
235.784	5236
235.849	11809
235.913	17508
235.978	25405
236.043	16181
236.108	8011
236.173	10655
236.238	7334
236.303	6637
236.368	6613
236.433	16423
236.498	17268
236.563	13949
236.627	37600
236.692	77034
236.757	40103
236.822	25758
236.887	19519
236.952	13316
237.017	13806
237.081	14215
237.146	22620
237.211	42134
237.276	92390
237.341	93376
237.405	39655
237.470	22935
237.535	16279
237.600	10089
237.664	9725
237.729	8773
237.794	19304
237.859	22320
237.923	16635
237.988	10195
238.053	18103
238.118	19215
238.182	45520
238.247	23975
238.312	19107
238.376	12090
238.441	11438
238.506	8227
238.570	5608
238.635	5127
238.700	6033
238.764	7779
238.829	26287
238.893	14732
238.958	11095
239.023	8703
239.087	7056
239.152	7141
239.216	5131
239.281	5536
239.346	5144
239.410	6102
239.475	14857
239.539	44427
239.604	16469
239.668	8129
239.733	6064
239.797	11177
239.862	24373
239.926	25621
239.991	9294
240.055	6676
240.120	7176
240.184	6630
240.249	6238
240.313	5854
240.378	9462
240.442	35645
240.507	23702
240.571	10745
240.635	25604
240.700	15579
240.764	8185
240.829	5524
240.893	4653
240.957	7846
241.022	31717
241.086	32335
241.151	12747
241.215	7377
241.279	17040
241.344	16618
241.408	9203
241.472	9118
241.537	7087
241.601	7751
241.665	6810
241.730	6375
241.794	7696
241.858	7458
241.922	7390
241.987	7442
242.051	6103
242.115	6410
242.179	5580
242.244	6413
242.308	6202
242.372	9394
242.436	8589
242.501	7693
242.565	6659
242.629	5877
242.693	6765
242.757	6310
242.822	6896
242.886	6567
242.950	7863
243.014	7921
243.078	10742
243.142	8421
243.206	9079
243.271	7853
243.335	8203
243.399	14547
243.463	69139
243.527	71141
243.591	22840
243.655	12873
243.719	8966
243.783	12047
243.847	20164
243.911	22228
243.975	30231
244.040	14625
244.104	8276
244.168	8882
244.232	20733
244.296	19661
244.360	16085
244.424	11470
244.488	9247
244.552	8601
244.615	7000
244.679	6942
244.743	12782
244.807	8959
244.871	6606
244.935	6277
244.999	6793
245.063	7733
245.127	9493
245.191	15678
245.255	11405
245.319	14993
245.383	9630
245.446	8192
245.510	9046
245.574	9042
245.638	8642
245.702	14108
245.766	17819
245.829	12510
245.893	9978
245.957	8715
246.021	9584
246.085	11860
246.149	15407
246.212	37174
246.276	31416
246.340	17866
246.404	12256
246.467	19286
246.531	18092
246.595	12196
246.659	13548
246.722	14927
246.786	15958
246.850	20474
246.913	15051
246.977	10001
247.041	11356
247.104	11041
247.168	13823
247.232	38171
247.295	45258
247.359	18361
247.423	18146
247.486	22835
247.550	13220
247.614	15985
247.677	16122
247.741	10462
247.804	10054
247.868	13427
247.932	41472
247.995	38125
248.059	15250
248.122	11704
248.186	15406
248.249	40033
248.313	89234
248.376	67690
248.440	39300
248.503	19071
248.567	20166
248.630	31736
248.694	37125
248.757	58125
248.821	74843
248.884	43346
248.948	59031
249.011	72014
249.075	99601
249.138	59205
249.202	30351
249.265	25996
249.328	27698
249.392	20742
249.455	14561
249.519	13833
249.582	22547
249.645	27802
249.709	15950
249.772	14999
249.835	15523
249.899	16426
249.962	13374
250.025	16963
250.089	46216
250.152	35368
250.215	21425
250.279	16964
250.342	17304
250.405	14898
250.468	16151
250.532	21643
250.595	36315
250.658	137496
250.721	96275
250.785	42718
250.848	25465
250.911	17848
250.974	16503
251.038	37650
251.101	39823
251.164	27307
251.227	29097
251.290	24173
251.354	52621
251.417	149149
251.480	80212
251.543	122863
251.606	221122
251.669	102439
251.732	61164
251.795	69602
251.859	87531
251.922	135054
251.985	50093
252.048	30054
252.111	25360
252.174	30490
252.237	71509
252.300	89268
252.363	143503
252.426	143184
252.489	63837
252.552	39471
252.615	30769
252.678	42681
252.741	76974
252.804	132049
252.867	160953
252.930	94969
252.993	52121
253.056	39572
253.119	28437
253.182	29887
253.245	39524
253.308	30129
253.371	38665
253.434	29324
253.497	35938
253.559	48998
253.622	37383
253.685	65017
253.748	40083
253.811	25672
253.874	36463
253.937	26893
254.000	24501
254.062	51373
254.125	45001
254.188	58043
254.251	29004
254.314	26714
254.376	51636
254.439	44464
254.502	36052
254.565	54265
254.628	58596
254.690	38785
254.753	24062
254.816	23169
254.878	25495
254.941	48176
255.004	26517
255.067	23144
255.129	17889
255.192	12120
255.255	14124
255.317	14851
255.380	9367
255.443	8999
255.505	10180
255.568	9733
255.631	11133
255.693	11124
255.756	8669
255.819	8807
255.881	8676
255.944	7880
256.006	8344
256.069	8368
256.132	9075
256.194	22676
256.257	35596
256.319	29247
256.382	18292
256.444	11924
256.507	9939
256.569	9378
256.632	12642
256.694	21917
256.757	74787
256.819	87702
256.882	31951
256.944	18987
257.007	19204
257.069	18553
257.132	10466
257.194	9991
257.257	12892
257.319	10794
257.381	15485
257.444	53607
257.506	158043
257.569	116555
257.631	69530
257.693	32403
257.756	22602
257.818	18015
257.880	11824
257.943	11687
258.005	10728
258.067	9849
258.130	9689
258.192	23185
258.254	30888
258.317	12891
258.379	15498
258.441	36595
258.503	20905
258.566	60636
258.628	29735
258.690	12745
258.753	20390
258.815	27156
258.877	11867
258.939	8413
259.001	8871
259.064	9755
259.126	19429
259.188	16048
259.250	13981
259.312	27038
259.375	49721
259.437	18636
259.499	10772
259.561	11312
259.623	11513
259.685	9827
259.747	13645
259.809	62250
259.872	60582
259.934	118037
259.996	51132
260.058	18165
260.120	12050
260.182	9420
260.244	8354
260.306	8396
260.368	9159
260.430	11309
260.492	27984
260.554	46614
260.616	28878
260.678	79534
260.740	43501
260.802	17102
260.864	15826
260.926	13002
260.988	11647
261.050	14382
261.112	40371
261.174	83536
261.236	32145
261.298	18813
261.359	52978
261.421	30704
261.483	13141
261.545	11261
261.607	8819
261.669	9747
261.731	41525
261.793	44972
261.854	19230
261.916	13148
261.978	13489
262.040	12179
262.102	13857
262.164	26129
262.225	11710
262.287	15148
262.349	32305
262.411	14745
262.472	10917
262.534	45038
262.596	32341
262.658	12833
262.719	10852
262.781	29472
262.843	42582
262.904	15226
262.966	14281
263.028	21351
263.090	146100
263.151	123678
263.213	48123
263.275	25722
263.336	13803
263.398	9888
263.459	9209
263.521	14315
263.583	28373
263.644	13838
263.706	7964
263.767	7222
263.829	6719
263.891	5828
263.952	6268
264.014	6059
264.075	20002
264.137	23286
264.198	10451
264.260	6089
264.321	8031
264.383	36268
264.444	30544
264.506	11374
264.567	9612
264.629	26825
264.690	24633
264.752	13738
264.813	9461
264.875	7611
264.936	6725
264.998	6470
265.059	6135
265.120	7700
265.182	23547
265.243	82199
265.305	31754
265.366	12523
265.427	8884
265.489	7315
265.550	6300
265.611	11724
265.673	9439
265.734	6594
265.795	6109
265.857	6650
265.918	8050
265.979	34860
266.040	113497
266.102	41371
266.163	23034
266.224	18363
266.286	9701
266.347	8586
266.408	9734
266.469	9980
266.530	7401
266.592	8923
266.653	29240
266.714	21593
266.775	9721
266.836	7798
266.898	8795
266.959	13799
267.020	8216
267.081	7439
267.142	7053
267.203	7070
267.264	7424
267.326	8214
267.387	6729
267.448	6642
267.509	7724
267.570	7651
267.631	6438
267.692	5411
267.753	5945
267.814	6382
267.875	28521
267.936	24688
267.997	16696
268.058	12983
268.119	9404
268.180	9637
268.241	6264
268.302	5663
268.363	8434
268.424	8899
268.485	8036
268.546	5433
268.607	5145
268.668	5740
268.729	5715
268.790	6923
268.851	10182
268.912	31207
268.972	22474
269.033	11658
269.094	6296
269.155	5583
269.216	7502
269.277	7372
269.338	6024
269.398	7319
269.459	10338
269.520	15036
269.581	22873
269.642	19730
269.702	12901
269.763	8266
269.824	8299
269.885	18354
269.945	13886
270.006	7291
270.067	5760
270.128	5733
270.188	6372
270.249	6647
270.310	5051
270.370	6997
270.431	6373
270.492	5368
270.553	10404
270.613	28449
270.674	30579
270.734	10796
270.795	9190
270.856	17365
270.916	8870
270.977	9401
271.038	11757
271.098	10928
271.159	23979
271.219	12118
271.280	6836
271.340	8003
271.401	19468
271.462	27078
271.522	12303
271.583	9018
271.643	9402
271.704	8072
271.764	12278
271.825	41236
271.885	104171
271.946	65579
272.006	30365
272.066	72715
272.127	49583
272.187	18437
272.248	13404
272.308	27116
272.369	49194
272.429	21329
272.489	34270
272.550	24284
272.610	31150
272.671	16365
272.731	33448
272.791	31795
272.852	19282
272.912	14799
272.972	8636
273.033	13082
273.093	21226
273.153	14163
273.214	10993
273.274	17514
273.334	69189
273.394	59103
273.455	30466
273.515	54261
273.575	57231
273.635	28658
273.696	69063
273.756	60320
273.816	25510
273.876	22999
273.936	78483
273.997	48416
274.057	17754
274.117	17784
274.177	43329
274.237	109132
274.297	69125
274.358	60579
274.418	63155
274.478	34880
274.538	17137
274.598	31265
274.658	90750
274.718	65057
274.778	22868
274.838	16917
274.898	82978
274.958	102397
275.018	78058
275.078	36408
275.138	18612
275.198	11755
275.258	11527
275.318	20991
275.378	33723
275.438	24370
275.498	21223
275.558	86897
275.618	84429
275.678	38445
275.738	40383
275.798	22386
275.858	12202
275.918	9549
275.978	14994
276.038	9845
276.098	10919
276.157	44372
276.217	50307
276.277	25232
276.337	18225
276.397	14949
276.457	15377
276.517	8954
276.576	8427
276.636	11050
276.696	23166
276.756	43210
276.815	18586
276.875	14995
276.935	18991
276.995	10961
277.055	9174
277.114	8890
277.174	29993
277.234	40255
277.293	16954
277.353	11910
277.413	9854
277.472	13081
277.532	11248
277.592	16710
277.651	81833
277.711	49947
277.771	43389
277.830	114644
277.890	46088
277.950	101676
278.009	108686
278.069	39644
278.128	90814
278.188	56784
278.248	52033
278.307	97868
278.367	31459
278.426	18086
278.486	13226
278.545	10000
278.605	10010
278.664	9696
278.724	12961
278.783	57470
278.843	49976
278.902	18211
278.962	19470
279.021	19980
279.081	32945
279.140	23284
279.199	20457
279.259	19732
279.318	20830
279.378	28745
279.437	70510
279.496	241671
279.556	467913
279.615	204645
279.675	80231
279.734	62348
279.793	112942
279.853	79172
279.912	32042
279.971	24835
280.031	24469
280.090	58381
280.149	52424
280.208	122395
280.268	372178
280.327	170171
280.386	63722
280.445	65177
280.505	36293
280.564	22568
280.623	19254
280.682	42689
280.742	28502
280.801	14716
280.860	13042
280.919	12236
280.978	12250
281.037	11498
281.097	10431
281.156	10514
281.215	10206
281.274	21754
281.333	57269
281.392	19460
281.451	10401
281.510	10385
281.569	9873
281.628	8374
281.688	8025
281.747	11936
281.806	9454
281.865	8563
281.924	9871
281.983	7339
282.042	6622
282.101	7375
282.160	7861
282.219	7239
282.278	16168
282.337	35331
282.396	13637
282.454	9303
282.513	25304
282.572	49948
282.631	15845
282.690	10393
282.749	10943
282.808	12395
282.867	14127
282.926	9588
282.985	7406
283.043	7976
283.102	8362
283.161	11117
283.220	42539
283.279	33846
283.338	12921
283.396	11769
283.455	11274
283.514	15654
283.573	18753
283.631	12095
283.690	9658
283.749	12644
283.808	31875
283.866	17822
283.925	10738
283.984	12612
284.043	19405
284.101	13705
284.160	13312
284.219	15468
284.277	13675
284.336	36642
284.395	75602
284.453	33274
284.512	24961
284.570	33775
284.629	25294
284.688	29563
284.746	31880
284.805	39136
284.863	53070
284.922	58884
284.981	70254
285.039	105376
285.098	195016
285.156	325461
285.215	292488
285.273	336600
285.332	239511
285.390	148798
285.449	98080
285.507	69680
285.566	51098
285.624	38797
285.683	30808
285.741	25994
285.799	24037
285.858	22300
285.916	19438
285.975	15439
286.033	13719
286.091	12571
286.150	11481
286.208	13275
286.267	13612
286.325	18375
286.383	23842
286.442	14214
286.500	10176
286.558	9173
286.616	10516
286.675	14527
286.733	12040
286.791	10738
286.850	13906
286.908	24494
286.966	21866
287.024	10909
287.083	8630
287.141	7947
287.199	12544
287.257	13991
287.315	10175
287.374	18502
287.432	29640
287.490	13645
287.548	12009
287.606	8825
287.664	9899
287.723	19451
287.781	13749
287.839	10066
287.897	11072
287.955	13348
288.013	17325
288.071	58651
288.129	309619
288.187	348675
288.245	109352
288.303	49630
288.361	33504
288.419	25388
288.477	15881
288.535	12020
288.593	10330
288.651	9093
288.709	6815
288.767	9351
288.825	7285
288.883	6918
288.941	6656
288.999	6501
289.057	6776
289.115	6982
289.173	7255
289.231	8082
289.289	7987
289.346	7522
289.404	11411
289.462	21003
289.520	14293
289.578	7152
289.636	5885
289.694	4843
289.751	4859
289.809	5937
289.867	7030
289.925	11445
289.983	7401
290.040	5248
290.098	7492
290.156	10760
290.214	9485
290.271	4965
290.329	4638
290.387	5017
290.444	4552
290.502	3525
290.560	4727
290.617	5364
290.675	5425
290.733	7019
290.790	5883
290.848	5908
290.906	7758
290.963	6547
291.021	5653
291.078	5793
291.136	7523
291.194	42845
291.251	32332
291.309	10101
291.366	6225
291.424	8210
291.481	7375
291.539	8944
291.596	5458
291.654	3933
291.711	4121
291.769	12836
291.826	18840
291.884	8395
291.941	6200
291.999	7495
292.056	9985
292.114	7984
292.171	6519
292.228	7163
292.286	13387
292.343	24254
292.401	20578
292.458	11377
292.515	11713
292.573	12673
292.630	12120
292.687	10453
292.745	8164
292.802	17178
292.859	40754
292.917	51929
292.974	18947
293.031	8483
293.089	7755
293.146	7059
293.203	6232
293.260	7006
293.318	13606
293.375	11205
293.432	6300
293.489	5797
293.546	5881
293.604	14796
293.661	59941
293.718	63001
293.775	29977
293.832	21388
293.889	20673
293.947	19457
294.004	12089
294.061	14443
294.118	38261
294.175	57076
294.232	41551
294.289	17008
294.346	12476
294.403	12631
294.460	11765
294.517	8734
294.574	6877
294.631	6090
294.688	10088
294.745	47026
294.802	101540
294.859	60733
294.916	34462
294.973	22629
295.030	21637
295.087	13686
295.144	9622
295.201	7793
295.258	7011
295.315	14841
295.372	57406
295.429	43644
295.486	19152
295.542	17672
295.599	55176
295.656	45353
295.713	54277
295.770	41581
295.827	16132
295.883	11884
295.940	16334
295.997	28128
296.054	16558
296.111	8786
296.167	6970
296.224	6398
296.281	6326
296.338	5557
296.394	6821
296.451	12681
296.508	44451
296.564	38630
296.621	38205
296.678	100062
296.734	64027
296.791	24243
296.848	17322
296.904	32838
296.961	59803
297.018	68768
297.074	30417
297.131	14984
297.187	13455
297.244	28149
297.301	105732
297.357	73645
297.414	25826
297.470	14787
297.527	11252
297.583	10904
297.640	10807
297.696	7498
297.753	6926
297.809	6092
297.866	5530
297.922	6268
297.979	6377
298.035	9645
298.092	22228
298.148	46608
298.204	24880
298.261	17087
298.317	57529
298.374	73484
298.430	31827
298.486	24905
298.543	17472
298.599	13909
298.656	15907
298.712	49634
298.768	68375
298.824	27527
298.881	13284
298.937	9627
298.993	12610
299.050	15118
299.106	11150
299.162	10819
299.218	8883
299.275	7448
299.331	8368
299.387	37032
299.443	87399
299.500	46426
299.556	19289
299.612	15223
299.668	14020
299.724	16151
299.780	11298
299.837	9839
299.893	31086
299.949	77811
300.005	55186
300.061	84995
300.117	77732
300.173	32111
300.229	26987
300.285	40025
300.341	27709
300.397	15126
300.453	10311
300.510	9891
300.566	8331
300.622	13774
300.678	46725
300.734	60785
300.790	67821
300.845	52815
300.901	51994
300.957	68573
301.013	32411
301.069	17320
301.125	17867
301.181	17306
301.237	11603
301.293	8274
301.349	7233
301.405	6748
301.461	7234
301.516	8704
301.572	17282
301.628	23274
301.684	19352
301.740	40691
301.796	33801
301.851	37694
301.907	51024
301.963	43165
302.019	125923
302.074	209315
302.130	133275
302.186	54335
302.242	30488
302.297	21873
302.353	32062
302.409	43618
302.464	25449
302.520	48758
302.576	93975
302.631	72882
302.687	37480
302.743	18686
302.798	13372
302.854	10261
302.910	12360
302.965	22142
303.021	30889
303.076	29609
303.132	47471
303.187	35401
303.243	16527
303.299	11918
303.354	10174
303.410	8675
303.465	8565
303.521	8113
303.576	8561
303.632	11633
303.687	41018
303.743	69319
303.798	36049
303.853	16516
303.909	12502
303.964	14240
304.020	29612
304.075	26856
304.130	38646
304.186	58581
304.241	50704
304.297	34120
304.352	18699
304.358	18268
304.407	14749
304.449	15328
304.463	15541
304.518	14202
304.539	12633
304.573	10084
304.629	11191
304.630	11563
304.684	28546
304.720	56893
304.739	71590
304.794	55559
304.811	47960
304.850	27927
304.902	16639
304.905	16002
304.960	14693
304.992	14698
305.015	14820
305.071	14169
305.083	13310
305.126	9878
305.173	7657
305.181	7327
305.236	8351
305.264	9477
305.292	10810
305.347	12577
305.354	12659
305.402	12960
305.445	16043
305.457	17033
305.512	20792
305.535	19093
305.567	16094
305.622	17971
305.626	19327
305.678	45245
305.716	76321
305.733	89064
305.788	67414
305.807	65563
305.843	58044
305.897	75470
305.898	75759
305.953	52688
305.988	40536
306.008	32289
306.063	21376
306.078	18639
306.118	13929
306.168	10905
306.173	10697
306.228	9048
306.259	8393
306.283	7973
306.338	8951
306.349	9351
306.393	11603
306.440	11947
306.448	11820
306.503	10255
306.530	14627
306.558	21987
306.613	46134
306.620	48807
306.668	68099
306.711	82139
306.723	83185
306.778	55347
306.801	46844
306.833	33293
306.888	16600
306.892	15784
306.943	13130
306.982	11373
306.997	10954
307.052	9964
307.072	10317
307.107	11587
307.162	17366
307.163	17441
307.217	26562
307.253	33776
307.272	36645
307.327	32944
307.343	31355
307.381	24754
307.434	23191
307.436	23766
307.491	54015
307.524	71432
307.546	81044
307.600	72590
307.614	69584
307.655	42359
307.704	20740
307.710	20420
307.765	23975
307.795	34068
307.819	46328
307.874	61556
307.885	61267
307.929	43921
307.975	32161
307.984	32346
308.038	39430
308.065	49784
308.093	78241
308.148	185716
308.156	203994
308.202	349535
308.246	395163
308.257	369649
308.312	216562
308.336	162189
308.366	134374
308.421	85006
308.426	80765
308.475	52409
308.517	33048
308.530	31169
308.585	26740
308.607	25498
308.639	25606
308.694	28093
308.697	28985
308.748	55804
308.787	72510
308.803	74608
308.857	61368
308.877	58700
308.912	50566
308.967	42515
308.967	42409
309.021	59587
309.058	76626
309.076	95389
309.130	162136
309.148	190224
309.185	288821
309.238	463627
309.239	466919
309.293	555180
309.328	565828
309.348	488758
309.402	276911
309.418	222047
309.457	162351
309.508	94358
309.511	93682
309.566	89880
309.598	94444
309.620	118254
309.674	189226
309.688	202751
309.729	208011
309.778	198436
309.783	192505
309.837	122921
309.868	87392
309.892	87246
309.946	101052
309.959	105020
310.001	152614
310.049	190610
310.055	183695
310.109	112680
310.139	77214
310.163	62552
310.218	33901
310.229	28459
310.272	23587
310.319	19437
310.326	19085
310.381	16564
310.409	15451
310.435	14808
310.489	13700
310.499	13576
310.543	13904
310.589	14358
310.598	14499
310.652	14923
310.679	14970
310.706	13707
310.760	11260
310.769	10891
310.814	9741
310.859	8747
310.868	8841
310.923	9393
310.948	9784
310.977	11143
311.031	13859
311.038	14177
311.085	14338
311.128	14240
311.139	13975
311.193	12899
311.218	12239
311.247	11320
311.301	9627
311.308	9447
311.356	9913
311.398	10180
311.410	10135
311.464	9784
311.488	9647
311.518	9610
311.572	9702
311.578	9740
311.626	16195
311.668	21586
311.680	21081
311.734	18495
311.758	17333
311.788	17117
311.842	16722
311.847	16671
311.896	18335
311.937	19803
311.950	20662
312.004	24201
312.027	25695
312.058	22109
312.112	15670
312.117	14994
312.165	12682
312.207	10665
312.297	14891
312.386	14880
312.476	13088
312.566	32892
312.656	23730
312.745	9690
312.835	10398
312.925	13340
313.015	11631
313.104	12714
313.194	9617
313.284	12541
313.374	16377
313.463	21510
313.553	10565
313.643	10895
313.732	9008
313.822	8347
313.912	10155
314.001	13658
314.091	14235
314.180	17458
314.270	19915
314.360	21011
314.449	22050
314.539	12451
314.628	9731
314.718	11254
314.808	16299
314.897	11862
314.987	10954
315.076	15296
315.166	24166
315.255	18446
315.345	19220
315.434	19237
315.524	15347
315.613	19320
315.703	25771
315.792	32162
315.881	52665
315.971	38904
316.060	34013
316.150	47827
316.239	50394
316.328	26996
316.418	11419
316.507	12868
316.597	18069
316.686	19002
316.775	19425
316.865	48439
316.954	18591
317.043	8677
317.133	11859
317.222	12474
317.311	9495
317.400	12469
317.490	13996
317.579	27052
317.668	13765
317.757	18881
317.847	39632
317.936	97035
318.025	84322
318.114	39984
318.203	27639
318.293	26851
318.382	51323
318.471	48992
318.560	57470
318.649	88093
318.738	40484
318.828	18718
318.917	26278
319.006	19166
319.095	52283
319.184	114575
319.273	109455
319.362	75954
319.451	20815
319.540	17293
319.629	39303
319.718	92419
319.807	29601
319.896	42110
319.985	146902
320.074	108606
320.163	22619
320.252	29161
320.341	23920
320.430	24731
320.519	34964
320.608	31758
320.697	14407
320.786	16502
320.875	23990
320.964	33682
321.053	53146
321.142	78697
321.230	104220
321.319	52977
321.408	132061
321.497	77858
321.586	50834
321.675	53712
321.764	61907
321.852	33925
321.941	69010
322.030	73033
322.119	42186
322.207	139577
322.296	99633
322.385	39530
322.474	44398
322.562	148936
322.651	128301
322.740	51840
322.829	99083
322.917	73075
323.006	59517
323.095	48099
323.183	30773
323.272	39817
323.361	66571
323.449	178062
323.538	94034
323.626	108463
323.715	122332
323.804	29781
323.892	103855
323.981	116748
324.069	24772
324.158	47287
324.246	81561
324.335	27776
324.424	57838
324.512	25079
324.601	21822
324.689	37260
324.778	81168
324.866	64444
324.954	23204
325.043	15068
325.131	30473
325.220	50834
325.308	62831
325.397	45679
325.485	44072
325.574	12784
325.662	13513
325.750	15985
325.839	13295
325.927	10052
326.015	15552
326.104	18414
326.192	36180
326.280	13178
326.369	10762
326.457	19600
326.545	42331
326.634	29356
326.722	8854
326.810	11296
326.898	10903
326.987	10646
327.075	31338
327.163	44314
327.251	18360
327.340	18950
327.428	43673
327.516	13077
327.604	10141
327.692	12467
327.781	11748
327.869	22287
327.957	19534
328.045	22047
328.133	10131
328.221	11272
328.309	14499
328.397	10368
328.485	14708
328.574	19856
328.662	75625
328.750	68543
328.838	19186
328.926	11024
329.014	9075
329.102	15269
329.190	35019
329.278	42510
329.366	10654
329.454	7119
329.542	8248
329.630	6762
329.718	8692
329.806	13246
329.893	12700
329.981	10735
330.069	8785
330.157	25946
330.245	110605
330.333	92909
330.421	18515
330.509	17125
330.597	91858
330.684	105293
330.772	23955
330.860	20151
330.948	26415
331.036	19447
331.123	8354
331.211	7175
331.299	9974
331.387	17030
331.475	52021
331.562	22848
331.650	9170
331.738	10694
331.825	16267
331.913	9803
332.001	7814
332.089	11202
332.176	21837
332.264	48846
332.352	67642
332.439	21490
332.527	14224
332.614	10224
332.702	15065
332.790	9959
332.877	23417
332.965	69312
333.052	39516
333.140	21158
333.228	78194
333.315	36188
333.403	12283
333.490	29062
333.578	47513
333.665	90527
333.753	74078
333.840	16121
333.928	13651
334.015	29865
334.103	46005
334.190	142206
334.278	74741
334.365	17697
334.452	16057
334.540	10804
334.627	11896
334.715	18983
334.802	26622
334.889	143869
334.977	267916
335.064	40855
335.151	14379
335.239	13130
335.326	15382
335.413	46322
335.501	126194
335.588	26298
335.675	12797
335.762	12566
335.850	23431
335.937	16995
336.024	30909
336.111	173181
336.199	139043
336.286	22342
336.373	11718
336.460	9093
336.547	8320
336.635	12420
336.722	15873
336.809	10255
336.896	15110
336.983	42365
337.070	105319
337.157	162298
337.245	122276
337.332	141031
337.419	18751
337.506	10308
337.593	9332
337.680	21418
337.767	100620
337.854	49008
337.941	41156
338.028	55510
338.115	32391
338.202	15379
338.289	29214
338.376	127042
338.463	78429
338.550	41890
338.637	86251
338.724	22733
338.811	50615
338.898	16792
338.984	8987
339.071	11636
339.158	14128
339.245	44952
339.332	46258
339.419	24956
339.506	42178
339.593	9969
339.679	9467
339.766	10952
339.853	11877
339.940	40314
340.027	20794
340.113	11509
340.200	21157
340.287	17159
340.374	14263
340.460	40878
340.547	20764
340.634	18088
340.720	79996
340.807	96573
340.894	12547
340.980	10881
341.067	12851
341.154	12689
341.240	17065
341.327	57208
341.414	25853
341.500	24343
341.587	15238
341.674	9438
341.760	26785
341.847	53667
341.933	22575
342.020	7262
342.106	6390
342.193	9275
342.279	31783
342.366	20273
342.452	40572
342.539	24267
342.625	31479
342.712	111383
342.798	68784
342.885	29471
342.971	8923
343.058	6472
343.144	9189
343.230	10843
343.317	9343
343.403	12182
343.490	7107
343.576	7303
343.662	8323
343.749	13277
343.835	14984
343.921	18063
344.008	84250
344.094	320138
344.180	126820
344.267	33231
344.353	63804
344.439	127052
344.525	61319
344.612	29465
344.698	19242
344.784	18572
344.870	8559
344.957	10406
345.043	20105
345.129	15952
345.215	33652
345.301	26769
345.387	17985
345.474	7026
345.560	7396
345.646	10250
345.732	9932
345.818	13750
345.904	16172
345.990	14546
346.076	13810
346.162	25713
346.249	17525
346.335	9566
346.421	8755
346.507	19197
346.593	116761
346.679	61387
346.765	11419
346.851	9048
346.937	14058
347.023	9593
347.108	11779
347.194	15012
347.280	10516
347.366	12114
347.452	25390
347.538	120877
347.624	128843
347.710	121632
347.796	29473
347.882	11014
347.967	8557
348.053	10823
348.139	11240
348.225	9200
348.311	11655
348.397	10176
348.482	10768
348.568	19098
348.654	10215
348.740	8893
348.825	11102
348.911	14182
348.997	43936
349.083	145824
349.168	46734
349.254	11397
349.340	16919
349.425	9189
349.511	12702
349.597	19342
349.682	24029
349.768	87135
349.854	79964
349.939	12426
350.025	7535
350.110	10235
350.196	7799
350.282	9146
350.367	6087
350.453	11915
350.538	20844
350.624	14827
350.709	18647
350.795	8329
350.880	11744
350.966	10818
351.051	17805
351.137	15633
351.222	10006
351.308	21725
351.393	98358
351.479	49633
351.564	16451
351.649	11729
351.735	9727
351.820	7539
351.906	10223
351.991	12263
352.076	36612
352.162	114499
352.247	33397
352.332	15554
352.418	27449
352.503	39524
352.588	100133
352.673	184505
352.759	43236
352.844	21447
352.929	14435
353.014	29831
353.100	17851
353.185	25658
353.270	45268
353.355	60391
353.441	17283
353.526	12913
353.611	28101
353.696	62036
353.781	30555
353.866	18252
353.952	10624
354.037	26436
354.122	86235
354.207	92916
354.292	49655
354.377	14631
354.462	11472
354.547	16792
354.632	19259
354.717	17722
354.802	39367
354.887	23241
354.972	9739
355.057	8431
355.142	8534
355.227	12322
355.312	21610
355.397	46885
355.482	124107
355.567	114273
355.652	38769
355.737	56189
355.822	79675
355.907	142485
355.991	25894
356.076	13296
356.161	10824
356.246	10128
356.331	9699
356.416	17679
356.501	101249
356.585	238518
356.670	53976
356.755	21928
356.840	22384
356.924	80714
357.009	387672
357.094	311307
357.179	53544
357.263	40711
357.348	26124
357.433	36757
357.517	27807
357.602	28388
357.687	19159
357.771	20398
357.856	30692
357.941	27905
358.025	50574
358.110	311954
358.195	311852
358.279	55539
358.364	25496
358.448	59449
358.533	215994
358.617	228015
358.702	171719
358.787	109086
358.871	41647
358.956	46853
359.040	17145
359.125	10667
359.209	10086
359.294	12463
359.378	21953
359.462	30860
359.547	27175
359.631	15243
359.716	11765
359.800	10804
359.885	15627
359.969	17376
360.053	11388
360.138	10113
360.222	16855
360.306	37635
360.391	40456
360.475	24715
360.559	81161
360.644	89692
360.728	103805
360.812	56754
360.896	236434
360.981	158322
361.065	102674
361.149	26868
361.233	22461
361.318	18232
361.402	17937
361.486	20084
361.570	14722
361.654	16923
361.739	33527
361.823	118783
361.907	292497
361.991	98190
362.075	27500
362.159	73809
362.243	74242
362.327	38948
362.411	42911
362.495	29632
362.580	21177
362.664	11295
362.748	10821
362.832	12859
362.916	15353
363.000	34728
363.084	123536
363.168	314500
363.252	138426
363.336	34461
363.420	33673
363.503	74106
363.587	154112
363.671	45903
363.755	22689
363.839	38925
363.923	24456
364.007	27240
364.091	53759
364.175	30262
364.258	118737
364.342	138976
364.426	90086
364.510	76606
364.594	41856
364.677	36090
364.761	147497
364.845	229601
364.929	65384
365.013	76285
365.096	42961
365.180	67847
365.264	35042
365.347	128126
365.431	115092
365.515	29374
365.598	20596
365.682	14321
365.766	15980
365.849	28749
365.933	17979
366.017	21028
366.100	17054
366.184	9269
366.267	10071
366.351	11857
366.435	10779
366.518	10856
366.602	6878
366.685	10211
366.769	14113
366.852	16732
366.936	38901
367.019	40291
367.103	17164
367.186	25507
367.270	14634
367.353	8968
367.436	9343
367.520	11529
367.603	12681
367.687	22491
367.770	50547
367.853	34222
367.937	37890
368.020	122554
368.104	54088
368.187	27939
368.270	53275
368.353	50257
368.437	46746
368.520	85278
368.603	88182
368.687	61756
368.770	170491
368.853	76032
368.936	36317
369.020	46236
369.103	23774
369.186	12332
369.269	12507
369.352	22293
369.436	54108
369.519	35548
369.602	19377
369.685	12035
369.768	19974
369.851	15487
369.934	11775
370.018	12009
370.101	37262
370.184	42515
370.267	19682
370.350	26719
370.433	47564
370.516	78570
370.599	160556
370.682	65284
370.765	82496
370.848	118225
370.931	169801
371.014	122863
371.097	23994
371.180	19079
371.263	10943
371.346	9781
371.429	10795
371.511	11353
371.594	22345
371.677	39940
371.760	37247
371.843	32105
371.926	77780
372.009	308408
372.091	187010
372.174	67783
372.257	142990
372.340	109808
372.423	46146
372.505	66078
372.588	35599
372.671	39067
372.754	158680
372.836	158701
372.919	42126
373.002	102190
373.085	64899
373.167	33801
373.250	70003
373.332	149882
373.415	171325
373.498	408103
373.580	281161
373.663	131964
373.746	311013
373.828	124523
373.911	42868
373.993	31123
374.076	66317
374.159	119566
374.241	48694
374.324	125188
374.406	166124
374.489	75531
374.571	291617
374.654	243924
374.736	65072
374.819	155854
374.901	261735
374.983	378215
375.066	124216
375.148	25373
375.231	42719
375.313	145834
375.395	97764
375.478	28165
375.560	15637
375.643	17628
375.725	40377
375.807	190138
375.890	276781
375.972	125056
376.054	63700
376.136	77235
376.219	56939
376.301	38557
376.383	198326
376.465	159160
376.548	66550
376.630	77253
376.712	156080
376.794	165745
376.877	23789
376.959	11870
377.041	14653
377.123	16306
377.205	29970
377.287	12702
377.369	8442
377.452	10542
377.534	12409
377.616	10589
377.698	12898
377.780	10981
377.862	12479
377.944	13404
378.026	9950
378.108	8231
378.190	9536
378.272	9809
378.354	7346
378.436	6691
378.518	10583
378.600	43117
378.682	57239
378.764	81704
378.846	135551
378.928	34727
379.010	41115
379.091	36931
379.173	14099
379.255	11584
379.337	15462
379.419	33991
379.501	135725
379.583	119438
379.664	21191
379.746	36968
379.828	91440
379.910	156350
379.991	172877
380.073	53585
380.155	18732
380.237	19057
380.318	11683
380.400	12799
380.482	20921
380.564	56069
380.645	48743
380.727	60336
380.809	35348
380.890	22024
380.972	18853
381.053	16831
381.135	17730
381.217	27176
381.298	105058
381.380	106910
381.461	43163
381.543	118785
381.624	307685
381.706	107607
381.787	33180
381.869	33283
381.951	50429
382.032	247460
382.113	322169
382.195	97227
382.276	42481
382.358	55872
382.439	158749
382.521	194761
382.602	301744
382.684	214575
382.765	217444
382.846	377805
382.928	611683
383.009	613165
383.090	242910
383.172	527402
383.253	1292788
383.334	702915
383.416	332440
383.497	273808
383.578	128086
383.659	182570
383.741	444263
383.822	1329172
383.903	1274029
383.984	399666
384.066	356960
384.147	360609
384.228	111041
384.309	56804
384.390	56655
384.471	34962
384.553	35144
384.634	40143
384.715	54833
384.796	32479
384.877	27596
384.958	68059
385.039	162620
385.120	90093
385.201	31263
385.282	31098
385.363	31142
385.444	32650
385.525	35964
385.606	93112
385.687	159182
385.768	49065
385.849	33607
385.930	90300
386.011	267304
386.092	144514
386.173	29707
386.254	16969
386.335	16559
386.416	18918
386.496	37352
386.577	126157
386.658	70922
386.739	31378
386.820	24560
386.901	19151
386.981	18273
387.062	14098
387.143	17232
387.224	72119
387.304	142213
387.385	54044
387.466	27767
387.547	23415
387.627	21570
387.708	22602
387.789	110062
387.869	255385
387.950	119148
388.031	17869
388.111	11814
388.192	20419
388.273	37740
388.353	35924
388.434	20421
388.514	24522
388.595	92484
388.676	225249
388.756	162546
388.837	100606
388.917	119312
388.998	27972
389.078	14756
389.159	14680
389.239	16011
389.320	19744
389.400	28345
389.480	25011
389.561	87708
389.641	95553
389.722	21957
389.802	38613
389.883	41548
389.963	92019
390.043	118514
390.124	38800
390.204	23743
390.284	99622
390.365	136103
390.445	55942
390.525	142761
390.605	236470
390.686	112876
390.766	36980
390.846	16923
390.927	10066
391.007	13836
391.087	12798
391.167	14126
391.247	11906
391.328	15591
391.408	26706
391.488	24355
391.568	11849
391.648	14380
391.728	28164
391.808	26658
391.888	31208
391.969	36455
392.049	105702
392.129	66078
392.209	30721
392.289	93650
392.369	102763
392.449	41921
392.529	40335
392.609	30668
392.689	28558
392.769	74065
392.849	136603
392.929	55029
393.009	109718
393.089	157966
393.169	75210
393.248	124522
393.328	558128
393.408	1136493
393.488	476309
393.568	106454
393.648	53048
393.728	33010
393.807	26816
393.887	22095
393.967	20642
394.047	22729
394.127	30713
394.206	40463
394.286	85195
394.366	397518
394.446	858849
394.525	361079
394.605	76841
394.685	39190
394.764	52089
394.844	92122
394.924	109845
395.003	45373
395.083	27780
395.163	25780
395.242	21223
395.322	23887
395.402	18461
395.481	17630
395.561	28226
395.640	100004
395.720	128446
395.799	98386
395.879	138384
395.958	70178
396.038	124218
396.117	539094
396.197	1091080
396.276	529545
396.356	147771
396.435	76640
396.515	55432
396.594	47518
396.673	74251
396.753	138205
396.832	589674
396.912	880874
396.991	340426
397.070	77248
397.150	38041
397.229	25592
397.308	20045
397.388	32696
397.467	28410
397.546	14127
397.625	12688
397.705	16401
397.784	23520
397.863	20057
397.942	9338
398.022	8814
398.101	15703
398.180	79453
398.259	87657
398.338	24406
398.417	16483
398.497	12748
398.576	11322
398.655	10360
398.734	8521
398.813	7277
398.892	13493
398.971	76439
399.050	97127
399.129	17494
399.208	6290
399.287	6841
399.366	5832
399.445	6970
399.524	7105
399.603	8324
399.682	11891
399.761	35135
399.840	85592
399.919	133604
399.998	32049
400.077	8756
400.156	6366
400.235	7952
400.313	7470
400.392	8634
400.471	27519
400.550	115972
400.629	67137
400.708	15605
400.786	11292
400.865	16018
400.944	33171
401.023	25203
401.102	7796
401.180	4549
401.259	5254
401.338	7051
401.416	11207
401.495	15829
401.574	10120
401.652	7296
401.731	11510
401.810	14217
401.888	10620
401.967	4792
402.046	4870
402.124	6927
402.203	17503
402.281	13973
402.360	6901
402.438	19669
402.517	34098
402.596	12376
402.674	8876
402.753	7964
402.831	5064
402.910	6419
402.988	15651
403.066	97680
403.145	136284
403.223	36038
403.302	86945
403.380	118196
403.459	90203
403.537	69876
403.615	21122
403.694	6969
403.772	5143
403.850	4268
403.929	4275
404.007	5514
404.085	11362
404.164	28773
404.242	16181
404.320	7378
404.398	13941
404.477	30557
404.555	135704
404.633	301320
404.711	90013
404.789	15193
404.868	10485
404.946	11600
405.024	5795
405.102	4137
405.180	5135
405.258	5012
405.336	5478
405.415	5667
405.493	11411
405.571	20113
405.649	11656
405.727	6032
405.805	8800
405.883	11837
405.961	11543
406.039	12701
406.117	9656
406.195	10017
406.273	27286
406.351	147964
406.429	223118
406.507	46756
406.585	12633
406.663	8594
406.740	15938
406.818	17865
406.896	11633
406.974	7314
407.052	10607
407.130	55673
407.208	213957
407.285	99428
407.363	12493
407.441	9484
407.519	9363
407.596	7636
407.674	16647
407.752	45994
407.830	84935
407.907	40677
407.985	17933
408.063	9791
408.141	4293
408.218	6003
408.296	13407
408.373	12731
408.451	12390
408.529	14063
408.606	9513
408.684	3741
408.762	3336
408.839	3155
408.917	2495
408.994	2934
409.072	4490
409.149	4162
409.227	5135
409.304	8970
409.382	6631
409.459	5406
409.537	7901
409.614	11397
409.692	8079
409.769	5827
409.846	9402
409.924	12279
410.001	12882
410.079	10085
410.156	6757
410.233	4759
410.311	5144
410.388	4784
410.465	5921
410.543	7161
410.620	5466
410.697	4623
410.775	12255
410.852	8618
410.929	5465
411.006	12197
411.083	8831
411.161	10174
411.238	19043
411.315	12589
411.392	6869
411.469	6487
411.547	10723
411.624	6595
411.701	5685
411.778	4874
411.855	18334
411.932	24488
412.009	6933
412.086	5754
412.163	5326
412.240	8396
412.317	7970
412.394	9559
412.471	5190
412.548	3195
412.625	5382
412.702	5823
412.779	13677
412.856	14734
412.933	5368
413.010	4035
413.087	6127
413.164	23951
413.241	101476
413.318	56229
413.395	12990
413.471	19610
413.548	19335
413.625	5196
413.702	7265
413.779	9833
413.855	4106
413.932	2192
414.009	2820
414.086	3872
414.162	3886
414.239	5502
414.316	22275
414.393	110832
414.469	112872
414.546	15785
414.623	4575
414.699	3859
414.776	6633
414.853	7504
414.929	4781
415.006	6241
415.082	5833
415.159	5223
415.236	4540
415.312	4827
415.389	8849
415.465	25099
415.542	21544
415.618	6970
415.695	13115
415.771	13739
415.848	10590
415.924	8773
416.000	6123
416.077	4209
416.153	2036
416.230	1337
416.306	1717
416.383	3456
416.459	3512
416.535	2502
416.612	2312
416.688	3701
416.764	4403
416.841	5571
416.917	5119
416.993	4749
417.069	6180
417.146	9394
417.222	13793
417.298	14832
417.374	7336
417.451	5536
417.527	7642
417.603	14139
417.679	11778
417.755	8084
417.831	4261
417.908	3753
417.984	2808
418.060	3021
418.136	7951
418.212	30158
418.288	19446
418.364	5262
418.440	3589
418.516	10708
418.592	10388
418.668	17509
418.744	42533
418.820	53028
418.896	21196
418.972	4947
419.048	3580
419.124	11128
419.200	26374
419.276	10478
419.352	3338
419.428	2681
419.504	3422
419.579	10014
419.655	9858
419.731	6715
419.807	14720
419.883	48091
419.959	63513
420.034	21324
420.110	9851
420.186	41657
420.262	102930
420.337	30585
420.413	10157
420.489	8563
420.565	4359
420.640	3883
420.716	5298
420.792	4739
420.867	4799
420.943	4905
421.019	8582
421.094	16698
421.170	7262
421.245	3567
421.321	3957
421.397	4450
421.472	7960
421.548	23186
421.623	43918
421.699	17351
421.774	9318
421.850	8673
421.925	11222
422.001	20247
422.076	10616
422.152	8262
422.227	15278
422.302	21753
422.378	18159
422.453	32309
422.529	57642
422.604	159972
422.679	474479
422.755	525768
422.830	229239
422.905	65356
422.981	31395
423.056	20057
423.131	13781
423.207	10640
423.282	10284
423.357	21060
423.432	33380
423.508	16136
423.583	30883
423.658	58514
423.733	20409
423.808	9783
423.883	13875
423.959	16214
424.034	11885
424.109	7654
424.184	4761
424.259	3518
424.334	4084
424.409	3595
424.484	3115
424.559	6260
424.634	5791
424.709	7079
424.784	14089
424.859	11648
424.934	7475
425.009	28774
425.084	93450
425.159	85841
425.234	15751
425.309	4505
425.384	3927
425.459	6687
425.534	6219
425.609	3992
425.683	5174
425.758	3500
425.833	4963
425.908	6156
425.983	12898
426.058	75847
426.132	107505
426.207	20871
426.282	7654
426.357	10785
426.431	6815
426.506	3948
426.581	4082
426.655	5560
426.730	3296
426.805	5331
426.879	5317
426.954	5240
427.029	7266
427.103	32451
427.178	152776
427.253	185446
427.327	35811
427.402	7636
427.476	13103
427.551	13321
427.625	5334
427.700	6627
427.774	4181
427.849	5312
427.923	4503
427.998	3807
428.072	4116
428.147	7375
428.221	19113
428.296	81722
428.370	109042
428.444	24808
428.519	8261
428.593	16701
428.667	25535
428.742	18881
428.816	24196
428.890	27541
428.965	99792
429.039	71791
429.113	27893
429.188	22541
429.262	7288
429.336	6193
429.410	27430
429.485	52915
429.559	20030
429.633	22299
429.707	9690
429.781	7771
429.855	32748
429.930	125901
430.004	114765
430.078	79230
430.152	108969
430.226	85872
430.300	179885
430.374	79083
430.448	12037
430.522	13005
430.596	63161
430.670	99922
430.744	62980
430.818	236814
430.892	170081
430.966	23289
431.040	8545
431.114	4382
431.188	3487
431.262	4206
431.336	4263
431.410	5084
431.484	19295
431.557	43320
431.631	15222
431.705	3845
431.779	6226
431.853	39998
431.927	100493
432.000	31781
432.074	4443
432.148	4307
432.222	6180
432.295	3726
432.369	2995
432.443	4368
432.516	20873
432.590	132864
432.664	172283
432.737	30646
432.811	6134
432.885	2354
432.958	2093
433.032	1360
433.106	2285
433.179	1152
433.253	1636
433.326	1983
433.400	1278
433.473	1703
433.547	1396
433.620	2012
433.694	5737
433.767	15769
433.841	7221
433.914	2954
433.988	1282
434.061	1671
434.134	2015
434.208	1888
434.281	1195
434.355	1250
434.428	2140
434.501	2110
434.575	1931
434.648	2203
434.721	2417
434.795	1420
434.868	1326
434.941	1063
435.014	1868
435.088	1842
435.161	3297
435.234	9031
435.307	17362
435.381	13236
435.454	6363
435.527	5640
435.600	5635
435.673	4669
435.746	2711
435.819	2481
435.892	1790
435.966	1644
436.039	1444
436.112	2812
436.185	1577
436.258	1184
436.331	549
436.404	1818
436.477	465
436.550	681
436.623	1404
436.696	1267
436.769	2466
436.842	4436
436.915	3136
436.987	5228
437.060	6812
437.133	2127
437.206	1019
437.279	2543
437.352	1229
437.425	2161
437.498	1531
437.570	5598
437.643	17203
437.716	9463
437.789	2479
437.861	2495
437.934	12837
438.007	22014
438.080	6067
438.152	3969
438.225	6018
438.298	23965
438.370	168977
438.443	239331
438.516	59385
438.588	16259
438.661	3680
438.734	3044
438.806	3869
438.879	6806
438.951	5666
439.024	9573
439.096	10494
439.169	4246
439.241	1684
439.314	1415
439.386	3231
439.459	6709
439.531	10814
439.604	13520
439.676	4020
439.749	1955
439.821	1050
439.893	1667
439.966	1272
440.038	3310
440.110	5488
440.183	4969
440.255	3209
440.327	4192
440.400	10274
440.472	76263
440.544	198938
440.617	65325
440.689	10176
440.761	9409
440.833	15915
440.905	20814
440.978	9191
441.050	2032
441.122	1871
441.194	1892
441.266	2147
441.338	2850
441.411	3572
441.483	16790
441.555	97327
441.627	72077
441.699	11893
441.771	8400
441.843	6877
441.915	3285
441.987	1755
442.059	2757
442.131	2738
442.203	5274
442.275	8203
442.347	10654
442.419	6380
442.491	11447
442.563	60220
442.635	88142
442.706	31827
442.778	41880
442.850	20945
442.922	4106
442.994	3922
443.066	6506
443.137	10855
443.209	5892
443.281	4933
443.353	8678
443.425	18840
443.496	83061
443.568	204807
443.640	134129
443.711	36459
443.783	9340
443.855	5640
443.926	4409
443.998	3142
444.070	5025
444.141	6088
444.213	7287
444.285	15172
444.356	15795
444.428	12433
444.499	7052
444.571	2902
444.642	2214
444.714	2731
444.785	7759
444.857	12363
444.928	13328
445.000	21278
445.071	11387
445.143	18805
445.214	17546
445.285	11588
445.357	22594
445.428	54813
445.500	190639
445.571	280568
445.642	143778
445.714	61051
445.785	38374
445.856	31649
445.928	14712
445.999	18174
446.070	11777
446.141	7767
446.213	15470
446.284	15365
446.355	7012
446.426	5865
446.497	3980
446.569	5189
446.640	10845
446.711	20111
446.782	12541
446.853	4243
446.924	7896
446.995	8829
447.066	6802
447.138	6836
447.209	8418
447.280	3366
447.351	2781
447.422	1741
447.493	2612
447.564	5340
447.635	11017
447.706	14287
447.777	3603
447.847	1498
447.918	2312
447.989	3561
448.060	5926
448.131	8399
448.202	17799
448.273	18751
448.344	12763
448.414	4276
448.485	4452
448.556	2692
448.627	2852
448.698	1966
448.768	508
448.839	1130
448.910	4178
448.981	8937
449.051	7547
449.122	4487
449.193	1883
449.263	1795
449.334	1642
449.405	2317
449.475	9746
449.546	20780
449.616	10527
449.687	10135
449.758	5965
449.828	2437
449.899	2649
449.969	3013
450.040	1894
450.110	2667
450.181	4591
450.251	5708
450.322	3109
450.392	2036
450.463	2311
450.533	1649
450.604	2174
450.674	2421
450.744	2291
450.815	2434
450.885	2374
450.955	2368
451.026	1542
451.096	2636
451.166	2265
451.237	3609
451.307	13654
451.377	22018
451.447	6825
451.518	3098
451.588	2454
451.658	2348
451.728	3617
451.799	8956
451.869	30393
451.939	22585
452.009	5398
452.079	2042
452.149	2305
452.219	3256
452.289	11233
452.360	31074
452.430	15846
452.500	4919
452.570	6941
452.640	7256
452.710	9888
452.780	26805
452.850	31031
452.920	38599
452.990	30045
453.060	8372
453.129	6837
453.199	11829
453.269	12230
453.339	77751
453.409	143314
453.479	91142
453.549	118443
453.619	155825
453.688	143257
453.758	43818
453.828	7942
453.898	5677
453.968	3967
454.037	3990
454.087	2991
454.107	2567
454.168	3419
454.177	3528
454.247	2674
454.249	2716
454.316	3230
454.330	3197
454.386	2990
454.411	4046
454.456	5207
454.492	12049
454.525	18082
454.574	18369
454.595	18663
454.655	7687
454.665	5920
454.734	4508
454.736	4629
454.804	6892
454.817	8438
454.873	13174
454.898	19811
454.943	31306
454.979	28822
455.013	27059
455.060	17610
455.082	13671
455.141	8272
455.152	7275
455.221	11044
455.222	11415
455.291	27090
455.303	29004
455.360	38006
455.384	40794
455.430	42165
455.465	53307
455.499	65212
455.546	41146
455.569	29027
455.627	25322
455.638	24962
455.707	14371
455.708	14325
455.777	5063
455.789	4990
455.846	4415
455.869	4106
455.916	3585
455.950	3729
455.985	3795
456.031	3964
456.054	4035
456.112	4197
456.124	4231
456.193	3686
456.193	3666
456.262	3830
456.274	4119
456.332	5184
456.355	5603
456.401	5604
456.436	6019
456.470	6596
456.516	5031
456.540	4351
456.597	3486
456.609	3317
456.678	3029
456.678	3013
456.747	2395
456.759	2476
456.817	2764
456.840	2710
456.886	2674
456.920	2751
456.955	3050
457.001	3474
457.024	3843
457.082	4301
457.093	4420
457.162	8041
457.163	8088
457.232	8240
457.243	8340
457.301	8279
457.324	6545
457.370	4362
457.405	3645
457.439	2861
457.485	3487
457.508	3934
457.566	3966
457.577	3952
457.646	4072
457.647	4103
457.715	6711
457.727	7188
457.784	10531
457.808	11925
457.853	12438
457.889	15432
457.922	16607
457.969	15579
457.991	17251
458.050	16617
458.060	16599
458.129	22497
458.130	22802
458.198	21930
458.211	21170
458.267	20862
458.292	16311
458.336	11073
458.372	9023
458.405	8900
458.453	12101
458.474	14839
458.533	23505
458.543	23927
458.611	31587
458.614	32217
458.680	30526
458.694	26268
458.749	19769
458.775	14829
458.818	8027
458.855	6382
458.887	5168
458.936	4912
458.955	4805
459.016	4605
459.024	4556
459.093	5281
459.097	5289
459.162	5662
459.177	5778
459.230	6508
459.257	7077
459.299	7183
459.338	7831
459.368	8471
459.418	8260
459.437	7794
459.499	7017
459.505	7065
459.574	6416
459.579	6402
459.643	6126
459.659	6138
459.711	6170
459.740	6211
459.780	6516
459.820	6913
459.849	6955
459.900	7637
459.917	7848
459.981	8099
459.986	8086
460.054	8067
460.061	8030
460.123	8953
460.141	9284
460.191	11156
460.222	12361
460.260	13495
460.302	16050
460.328	15112
460.382	14034
460.397	14654
460.462	12027
460.465	12020
460.534	12551
460.543	12825
460.602	25297
460.623	29854
460.671	47411
460.703	61036
460.739	50113
460.783	46455
460.808	45954
460.864	23683
460.876	22371
460.944	8423
460.945	8262
461.013	6852
461.024	6812
461.081	7342
461.104	7916
461.150	7395
461.184	6980
461.218	7159
461.264	6728
461.286	6716
461.345	6204
461.355	6072
461.423	6623
461.425	6622
461.491	7234
461.505	7388
461.559	12437
461.585	14941
461.628	24063
461.665	32061
461.696	33428
461.745	38277
461.764	32820
461.825	17748
461.832	18484
461.901	12417
461.905	12146
461.969	6872
461.985	6681
462.037	6960
462.065	6645
462.105	7578
462.145	8717
462.173	11637
462.225	17323
462.241	19368
462.305	27623
462.310	26658
462.378	14877
462.385	13255
462.446	12416
462.465	10887
462.514	8253
462.545	7948
462.582	7390
462.625	7140
462.650	7009
462.705	6459
462.718	6710
462.785	8094
462.786	8147
462.854	11275
462.865	11804
462.922	13845
462.945	14924
462.990	11312
463.025	8585
463.058	8623
463.104	7103
463.126	6777
463.184	6064
463.194	6029
463.262	6413
463.264	6449
463.330	7630
463.344	7815
463.398	7831
463.424	7733
463.466	7775
463.504	7909
463.533	8057
463.583	8198
463.601	8531
463.663	9967
463.669	10353
463.737	14148
463.743	14550
463.805	20190
463.823	21916
463.873	33950
463.903	40949
463.940	41028
463.982	42138
464.008	33637
464.062	16466
464.076	16309
464.142	9851
464.144	9763
464.211	7235
464.221	7164
464.279	7255
464.301	7428
464.347	8418
464.381	9275
464.414	10536
464.461	12116
464.482	12021
464.540	11790
464.550	11564
464.617	10139
464.620	10059
464.685	12412
464.699	12926
464.753	14937
464.779	16140
464.820	17101
464.859	18011
464.888	17688
464.938	16871
464.956	16885
465.018	16436
465.023	16129
465.091	12355
465.098	11925
465.158	11444
465.177	11246
465.226	11216
465.257	11327
465.293	12676
465.336	14252
465.361	15770
465.416	19064
465.428	19983
465.495	25029
465.496	25156
465.563	39896
465.575	42288
465.631	49662
465.654	53037
465.698	33285
465.734	17264
465.765	16336
465.813	12731
465.833	12135
465.893	11149
465.900	11119
465.968	11534
465.972	11545
466.035	11742
466.052	11816
466.102	11941
466.131	11954
466.170	12326
466.210	12709
466.237	12582
466.290	12238
466.304	12325
466.369	12634
466.372	12677
466.439	13544
466.449	13637
466.506	15114
466.528	15664
466.573	22527
466.607	27610
466.641	41430
466.687	60661
466.708	66070
466.766	80594
466.775	74431
466.842	27854
466.845	25608
466.909	19558
466.925	17925
466.977	15828
467.004	14991
467.044	16177
467.083	17424
467.111	19073
467.163	22111
467.178	22529
467.242	24119
467.245	24095
467.312	22783
467.321	22575
467.379	21517
467.400	21073
467.446	22706
467.480	23829
467.559	19437
467.638	17281
467.717	18400
467.796	21385
467.875	23796
467.955	21242
468.034	30620
468.113	68619
468.192	100291
468.271	24041
468.350	18753
468.429	19443
468.508	20735
468.588	18321
468.667	17620
468.746	19189
468.825	19455
468.904	15688
468.983	19431
469.062	29730
469.141	34750
469.220	15762
469.299	15744
469.378	18527
469.456	21971
469.535	19399
469.614	18503
469.693	19775
469.772	24275
469.851	34458
469.930	23267
470.009	19230
470.088	19834
470.166	26483
470.245	42862
470.324	53901
470.403	30685
470.482	20359
470.560	18188
470.639	19347
470.718	23356
470.797	18032
470.875	22152
470.954	29740
471.033	30516
471.111	14278
471.190	13951
471.269	13548
471.347	14434
471.426	15037
471.505	17572
471.583	18612
471.662	17976
471.740	15278
471.819	15874
471.898	14919
471.976	14060
472.055	15088
472.133	16614
472.212	22422
472.290	22873
472.369	15331
472.447	13909
472.526	13233
472.604	14829
472.683	16483
472.761	18004
472.839	16315
472.918	14627
472.996	14749
473.075	18000
473.153	17247
473.231	14294
473.310	17889
473.388	16555
473.466	16691
473.545	18932
473.623	27458
473.701	25870
473.780	14955
473.858	15707
473.936	16435
474.014	14323
474.093	17874
474.171	23145
474.249	34833
474.327	20244
474.405	14009
474.484	14147
474.562	14365
474.640	13378
474.718	15114
474.796	15501
474.874	13513
474.952	12235
475.030	13104
475.108	13348
475.187	15056
475.265	16409
475.343	27436
475.421	30273
475.499	14322
475.577	13891
475.655	19416
475.733	38252
475.811	67726
475.889	61098
475.966	36459
476.044	16274
476.122	20025
476.200	28824
476.278	21124
476.356	13433
476.434	15352
476.512	19724
476.590	27778
476.667	21661
476.745	13206
476.823	14427
476.901	13488
476.979	13985
477.056	13689
477.134	14721
477.212	14976
477.290	14737
477.367	11910
477.445	12058
477.523	12270
477.601	13724
477.678	12434
477.756	15608
477.834	17000
477.911	12165
477.989	13251
478.066	12396
478.144	15851
478.222	20032
478.299	34424
478.377	29129
478.454	11811
478.532	12217
478.609	12310
478.687	15001
478.764	11829
478.842	13747
478.919	15828
478.997	13560
479.074	10842
479.152	13486
479.229	18608
479.307	11822
479.384	9979
479.461	9644
479.539	10779
479.616	14213
479.694	11244
479.771	13494
479.848	14139
479.926	19711
480.003	19689
480.080	11588
480.157	10370
480.235	10729
480.312	11098
480.389	12960
480.467	21771
480.544	27687
480.621	13258
480.698	12287
480.775	14964
480.853	15760
480.930	12037
481.007	11776
481.084	14940
481.161	16818
481.238	13870
481.315	10018
481.392	10695
481.470	11527
481.547	11323
481.624	10239
481.701	10496
481.778	11103
481.855	13916
481.932	19340
482.009	36865
482.086	22376
482.163	13065
482.240	21173
482.317	44221
482.393	30642
482.470	12428
482.547	12042
482.624	12009
482.701	11562
482.778	11677
482.855	9475
482.932	10007
483.009	9088
483.085	11656
483.162	14343
483.239	14302
483.316	11816
483.393	10374
483.469	10430
483.546	12774
483.623	13410
483.699	9953
483.776	10696
483.853	13522
483.930	20902
484.006	52140
484.083	96855
484.160	46002
484.236	70017
484.313	52584
484.389	39598
484.466	33500
484.543	33228
484.619	33376
484.696	35593
484.772	36684
484.849	38708
484.925	31937
485.002	30672
485.078	32728
485.155	33196
485.231	30015
485.308	29482
485.384	30598
485.461	37306
485.537	60471
485.614	70307
485.690	31335
485.766	28645
485.843	32713
485.919	47161
485.995	49726
486.072	26856
486.148	25544
486.224	27022
486.301	27083
486.377	31451
486.453	32409
486.530	29836
486.606	40051
486.682	46080
486.758	53259
486.835	62213
486.911	48206
486.987	82016
487.063	90521
487.139	126857
487.215	85006
487.292	36161
487.368	29940
487.444	32598
487.520	38171
487.596	37258
487.672	49024
487.748	109437
487.824	160524
487.900	51932
487.976	32094
488.052	32473
488.128	39352
488.204	32763
488.280	28647
488.356	35093
488.432	67144
488.508	106406
488.584	37529
488.660	27025
488.736	27427
488.812	29225
488.888	38321
488.964	53878
489.039	121002
489.115	190384
489.191	104635
489.267	29694
489.343	26705
489.418	22650
489.494	23653
489.570	21422
489.646	21614
489.722	22015
489.797	24665
489.873	35581
489.949	79509
490.024	63983
490.100	22274
490.176	22903
490.251	30331
490.327	41597
490.403	22296
490.478	20154
490.554	17419
490.629	18647
490.705	18552
490.781	21333
490.856	20958
490.932	26444
491.007	24792
491.083	24007
491.158	21416
491.234	27739
491.309	58305
491.385	60772
491.460	21374
491.536	22053
491.611	19957
491.686	22378
491.762	34154
491.837	74644
491.913	130941
491.988	173485
492.063	232332
492.139	53421
492.214	30731
492.289	17909
492.365	18511
492.440	21938
492.515	21368
492.590	20330
492.666	16490
492.741	23843
492.816	36437
492.891	19597
492.967	17341
493.042	15290
493.117	17188
493.192	18222
493.267	33412
493.342	95420
493.418	135686
493.493	25443
493.568	13912
493.643	15179
493.718	20027
493.793	32692
493.868	39417
493.943	24543
494.018	17497
494.093	14917
494.168	14416
494.243	14365
494.318	13335
494.393	13279
494.468	12472
494.543	14287
494.618	17875
494.693	15073
494.768	13140
494.842	16139
494.917	12605
494.992	15542
495.067	13525
495.142	11943
495.217	14271
495.292	12967
495.366	15439
495.441	20150
495.516	25807
495.591	47576
495.665	160026
495.740	403444
495.815	149208
495.890	24060
495.964	17605
496.039	18245
496.114	17728
496.188	19282
496.263	19945
496.338	15909
496.412	19100
496.487	22790
496.561	25633
496.636	26886
496.710	19125
496.785	21226
496.860	24764
496.934	19276
497.009	18859
497.083	19369
497.158	21209
497.232	23105
497.307	29913
497.381	21985
497.455	24763
497.530	34330
497.604	21496
497.679	21721
497.753	35445
497.827	49841
497.902	40909
497.976	54041
498.050	137275
498.125	524427
498.199	536203
498.273	81322
498.348	57302
498.422	43127
498.496	41701
498.570	35635
498.645	23576
498.719	22489
498.793	26766
498.867	47968
498.941	73547
499.016	197488
499.090	593301
499.164	182187
499.238	21182
499.312	19108
499.386	26198
499.460	23347
499.534	19403
499.609	24896
499.683	37705
499.757	38800
499.831	91253
499.905	366601
499.979	343062
500.053	49260
500.127	50012
500.201	41703
500.275	22364
500.349	19096
500.422	24470
500.496	41654
500.570	100461
500.644	203462
500.718	396882
500.792	75594
500.866	18989
500.940	25255
501.013	19482
501.087	19933
501.161	40798
501.235	57848
501.309	113587
501.382	319721
501.456	281040
501.530	59880
501.603	100393
501.677	36075
501.751	16236
501.825	21789
501.898	41457
501.972	124444
502.046	74584
502.119	24396
502.193	54966
502.266	139212
502.340	62963
502.413	55213
502.487	115970
502.561	66633
502.634	19923
502.708	18764
502.781	17482
502.855	12724
502.928	11569
503.002	10777
503.075	10985
503.149	11787
503.222	11443
503.295	12701
503.369	15197
503.442	26620
503.516	85999
503.589	235374
503.662	148436
503.736	41827
503.809	102539
503.882	86010
503.956	120928
504.029	114299
504.102	71029
504.175	89076
504.249	28653
504.322	18132
504.395	17966
504.468	12155
504.542	14172
504.615	10569
504.688	9612
504.761	10258
504.834	13627
504.907	19466
504.980	36033
505.053	17365
505.127	23049
505.200	22657
505.273	20385
505.346	12996
505.419	10564
505.492	9040
505.565	8242
505.638	8018
505.711	8364
505.784	8892
505.857	7905
505.930	9089
506.003	8589
506.076	9502
506.149	13127
506.221	18313
506.294	17622
506.367	49134
506.440	168133
506.513	91004
506.586	20234
506.659	12026
506.731	11884
506.804	15038
506.877	24631
506.950	14155
507.022	9188
507.095	13525
507.168	17571
507.241	10570
507.313	9553
507.386	11692
507.459	20098
507.531	12245
507.604	9920
507.677	9359
507.749	8495
507.822	13868
507.894	31787
507.967	35047
508.040	18577
508.112	15302
508.185	14951
508.257	14215
508.330	22107
508.402	15154
508.475	14312
508.547	14107
508.620	15101
508.692	22966
508.765	14993
508.837	10634
508.909	10635
508.982	11433
509.054	13631
509.127	12482
509.199	10073
509.271	10281
509.344	10987
509.416	9626
509.488	10987
509.560	11810
509.633	13202
509.705	16845
509.777	14911
509.849	22140
509.922	15976
509.994	10971
510.066	11072
510.138	13012
510.210	24836
510.283	24810
510.355	20489
510.427	17463
510.499	17316
510.571	17792
510.643	17844
510.715	26167
510.787	27239
510.859	16124
510.931	20792
511.003	25041
511.076	24409
511.148	14099
511.219	15283
511.291	22438
511.363	26416
511.435	14038
511.507	12132
511.579	12432
511.651	12145
511.723	12700
511.795	12230
511.867	13312
511.939	16550
512.010	33161
512.082	25885
512.154	15167
512.226	15000
512.298	20875
512.369	34266
512.441	26910
512.513	27318
512.585	21002
512.656	19408
512.728	22633
512.800	17807
512.871	16109
512.943	15848
513.015	14657
513.086	15397
513.158	18236
513.230	19180
513.301	28872
513.373	36277
513.444	19049
513.516	14143
513.588	15155
513.659	17580
513.731	23977
513.802	22740
513.874	40728
513.945	82068
514.016	27774
514.088	15410
514.159	18868
514.231	24863
514.302	31631
514.374	23054
514.445	21727
514.516	35492
514.588	30456
514.659	19825
514.730	33666
514.802	28498
514.873	21579
514.944	18470
515.016	18863
515.087	23754
515.158	25562
515.229	35532
515.301	21038
515.372	23072
515.443	16926
515.514	15818
515.585	14586
515.656	14581
515.728	14212
515.799	14522
515.870	15907
515.941	16847
516.012	18004
516.083	22306
516.154	26396
516.225	35105
516.296	30868
516.367	24667
516.438	28558
516.509	43373
516.580	79589
516.651	231928
516.722	812150
516.793	378738
516.864	52828
516.935	46847
517.006	55674
517.077	98001
517.148	259420
517.219	851736
517.289	1462278
517.360	315547
517.431	84828
517.502	29684
517.573	26956
517.643	24934
517.714	27669
517.785	27058
517.856	26522
517.926	31314
517.997	36003
518.068	49942
518.138	83396
518.209	175049
518.280	581401
518.350	2006378
518.421	857684
518.492	78564
518.562	38826
518.633	35088
518.703	31663
518.774	44571
518.845	89923
518.915	93190
518.986	36246
519.056	34305
519.127	65491
519.197	101377
519.268	188869
519.338	121867
519.408	31554
519.479	41614
519.549	33981
519.620	19807
519.690	15426
519.760	16685
519.831	17061
519.901	17289
519.971	13935
520.042	15510
520.112	18878
520.182	20681
520.253	25035
520.323	16352
520.393	16717
520.463	19588
520.534	16483
520.604	23135
520.674	17315
520.744	18222
520.814	30068
520.885	38001
520.955	59345
521.025	203270
521.095	87926
521.165	14832
521.235	14950
521.305	14059
521.375	13310
521.445	15482
521.515	23074
521.585	25472
521.655	27951
521.725	20095
521.795	18361
521.865	13939
521.935	18396
522.005	18398
522.075	11899
522.145	12311
522.215	15521
522.285	21810
522.355	29305
522.424	56065
522.494	49443
522.564	30379
522.634	60749
522.704	169740
522.774	76256
522.843	16012
522.913	14488
522.983	21933
523.053	16165
523.122	16467
523.192	28869
523.262	91528
523.331	103113
523.401	17589
523.471	11459
523.540	12760
523.610	10010
523.680	9638
523.749	10585
523.819	13730
523.888	15022
523.958	10355
524.027	10875
524.097	11313
524.166	11306
524.236	13678
524.305	12989
524.375	10760
524.444	10152
524.514	10928
524.583	10957
524.653	15680
524.722	15984
524.791	10790
524.861	10584
524.930	11421
524.999	11825
525.069	17852
525.138	14171
525.207	15774
525.277	11261
525.346	12447
525.415	10238
525.484	11649
525.554	14345
525.623	12798
525.692	10437
525.761	11472
525.830	11538
525.900	13015
525.969	19008
526.038	32272
526.107	56683
526.176	154367
526.245	140092
526.314	52774
526.383	85174
526.452	126258
526.522	180875
526.591	221467
526.660	88980
526.729	43218
526.797	50107
526.867	120855
526.935	443464
527.004	596747
527.073	313126
527.142	28447
527.211	14720
527.280	16864
527.349	18952
527.418	9495
527.487	9410
527.555	9659
527.624	8220
527.693	9148
527.762	8242
527.831	7988
527.899	8115
527.968	9293
528.037	10379
528.106	13802
528.174	27560
528.243	23420
528.312	29124
528.380	45544
528.449	13144
528.518	7779
528.586	7171
528.655	7234
528.723	7155
528.792	7011
528.861	9437
528.929	8236
528.998	7404
529.066	6572
529.135	6135
529.203	6385
529.272	7219
529.340	7321
529.409	8339
529.477	7036
529.545	10591
529.614	12278
529.682	11673
529.751	14702
529.819	13106
529.887	10575
529.956	6992
530.024	8254
530.092	6627
530.161	10425
530.229	20276
530.297	9975
530.365	6275
530.434	5804
530.502	6839
530.570	6148
530.638	5511
530.707	9144
530.775	9643
530.843	6347
530.911	6438
530.979	6466
531.047	6552
531.115	7428
531.183	6299
531.252	7592
531.320	6830
531.388	7067
531.456	6862
531.524	6311
531.592	7322
531.660	8050
531.728	7116
531.796	6707
531.864	6532
531.932	8023
532.000	7188
532.067	8090
532.135	7695
532.203	10166
532.271	13071
532.339	24559
532.407	70148
532.475	45252
532.542	15137
532.610	19283
532.678	36687
532.746	112669
532.814	321282
532.881	94043
532.949	11606
533.017	8966
533.084	7627
533.152	8429
533.220	8041
533.287	11282
533.355	8362
533.423	6852
533.490	6613
533.558	7409
533.625	8928
533.693	10323
533.761	8505
533.828	10629
533.896	10628
533.963	22536
534.031	30196
534.098	39740
534.166	20313
534.233	8335
534.300	8547
534.368	8853
534.435	8087
534.503	8121
534.570	7770
534.637	8036
534.705	9235
534.772	12894
534.840	21987
534.907	65832
534.974	100811
535.041	17146
535.109	12230
535.176	8967
535.243	8056
535.310	9114
535.378	9255
535.445	6920
535.512	7895
535.579	8541
535.646	7735
535.714	8834
535.781	11031
535.848	10517
535.915	9676
535.982	9737
536.049	9393
536.116	9642
536.183	9518
536.250	9379
536.317	10179
536.384	13246
536.451	21377
536.518	24540
536.585	15538
536.652	18051
536.719	28162
536.786	26855
536.853	16472
536.920	25981
536.987	49353
537.053	52841
537.120	141205
537.187	157084
537.254	15580
537.321	10631
537.388	12036
537.454	8943
537.521	8478
537.588	8849
537.654	11067
537.721	13147
537.788	13939
537.855	11023
537.921	10048
537.988	11162
538.055	10832
538.121	11639
538.188	13452
538.254	21008
538.321	47847
538.388	33502
538.454	12230
538.521	10664
538.587	10342
538.654	9438
538.720	9563
538.787	10055
538.853	10990
538.920	15042
538.986	15371
539.053	12462
539.119	12744
539.185	13024
539.252	14146
539.318	25735
539.385	17387
539.451	14914
539.517	17023
539.583	22644
539.650	42792
539.716	115917
539.782	42592
539.849	13781
539.915	12886
539.981	13866
540.047	16820
540.114	14257
540.180	13479
540.246	15860
540.312	22710
540.378	44850
540.444	56564
540.510	45823
540.576	128540
540.643	55192
540.709	11662
540.775	12190
540.841	12283
540.907	15787
540.973	23270
541.039	23930
541.105	29116
541.171	15165
541.237	12252
541.303	13508
541.369	16481
541.435	21351
541.500	42011
541.566	30234
541.632	12381
541.698	9689
541.764	10939
541.830	10138
541.896	10660
541.961	11040
542.027	11748
542.093	11565
542.159	13459
542.224	16499
542.290	23181
542.356	38082
542.421	54708
542.487	21116
542.553	13237
542.618	14974
542.684	13392
542.750	13539
542.815	19598
542.881	34810
542.947	101369
543.012	100624
543.078	13350
543.143	10599
543.209	13007
543.274	14860
543.340	19149
543.405	38690
543.471	75390
543.536	20062
543.602	12345
543.667	12588
543.732	10602
543.798	9976
543.863	11285
543.928	10594
543.994	10105
544.059	10053
544.124	10670
544.190	10721
544.255	10832
544.320	11461
544.386	13542
544.451	18711
544.516	27122
544.581	28061
544.646	62751
544.712	120281
544.777	27272
544.842	14992
544.907	15512
544.972	12866
545.037	12707
545.102	13537
545.168	13684
545.233	14814
545.298	16419
545.363	20857
545.428	25909
545.493	41405
545.558	93152
545.623	48965
545.688	14909
545.753	14764
545.818	14559
545.883	15076
545.947	14481
546.012	15948
546.077	16348
546.142	16454
546.207	16877
546.272	23150
546.337	25391
546.401	19423
546.466	17937
546.531	16184
546.596	17886
546.661	18022
546.725	16790
546.790	15486
546.855	16921
546.919	16845
546.984	18145
547.049	20025
547.113	22950
547.178	22373
547.243	24478
547.307	28176
547.372	32519
547.436	35132
547.501	29554
547.565	31028
547.630	35761
547.695	36175
547.759	34225
547.823	31257
547.888	27289
547.952	28840
548.017	30709
548.081	35434
548.146	39158
548.210	36535
548.274	32025
548.339	31268
548.403	28245
548.468	27099
548.532	26495
548.596	28175
548.660	28597
548.725	30983
548.789	35784
548.853	38215
548.917	30930
548.982	35674
549.046	36255
549.110	26172
549.174	24821
549.238	28047
549.303	29700
549.367	30664
549.431	29744
549.495	28138
549.559	28278
549.623	32223
549.687	38875
549.751	47041
549.815	43536
549.879	40981
549.943	37727
550.007	40919
550.071	40298
550.135	43623
550.199	39143
550.263	34577
550.327	35535
550.391	41401
550.455	38562
550.519	37829
550.582	42135
550.646	52017
550.710	57162
550.774	44196
550.838	43553
550.901	44025
550.965	47382
551.029	49482
551.093	54349
551.156	63190
551.220	86533
551.284	109611
551.347	70628
551.411	81432
551.475	98321
551.538	51927
551.602	44422
551.666	42058
551.729	38742
551.793	38071
551.856	39117
551.920	38079
551.983	37570
552.047	36362
552.110	37793
552.174	36438
552.237	37982
552.301	35424
552.364	34462
552.428	34000
552.491	34556
552.554	37777
552.618	37773
552.681	42669
552.745	48430
552.808	69168
552.871	99758
552.934	60456
552.998	40432
553.061	38344
553.124	35983
553.187	34422
553.251	36751
553.314	38652
553.377	39147
553.440	44710
553.503	64296
553.567	101899
553.630	49336
553.693	36450
553.756	36752
553.819	36219
553.882	34912
553.945	34450
554.008	33779
554.071	33720
554.134	34913
554.197	33424
554.260	31523
554.323	33943
554.386	35026
554.449	35377
554.512	34631
554.575	34553
554.638	33431
554.701	34272
554.764	32515
554.827	31268
554.889	30864
554.952	29639
555.015	28212
555.078	28709
555.141	29857
555.203	28546
555.266	28700
555.329	29803
555.391	29494
555.454	28757
555.517	29995
555.580	27108
555.642	25029
555.705	25405
555.768	25444
555.830	24751
555.893	23618
555.955	23614
556.018	23870
556.080	24080
556.143	23726
556.206	24112
556.268	25328
556.330	25907
556.393	25638
556.455	24766
556.518	29074
556.580	33251
556.643	22389
556.705	21093
556.767	21914
556.830	23660
556.892	25006
556.955	35217
557.017	31294
557.079	22317
557.142	22558
557.204	26715
557.266	43357
557.328	45193
557.391	20053
557.453	18379
557.515	19546
557.577	22489
557.639	24876
557.701	17508
557.764	16946
557.826	16237
557.888	18491
557.950	20162
558.012	21013
558.074	29128
558.136	44893
558.198	108646
558.260	56487
558.322	20354
558.384	19772
558.446	23372
558.508	27635
558.570	38272
558.632	61024
558.694	111324
558.756	115378
558.818	206081
558.880	576137
558.942	245487
559.003	106995
559.065	72255
559.127	24935
559.189	27376
559.251	38587
559.312	59851
559.374	103238
559.436	314246
559.498	228017
559.559	32476
559.621	29295
559.683	39458
559.744	63460
559.806	136480
559.868	264101
559.929	67985
559.991	34526
560.052	44784
560.114	100070
560.176	93358
560.237	58487
560.299	114494
560.360	39946
560.422	16361
560.483	15224
560.545	15246
560.606	14824
560.667	14497
560.729	13214
560.790	13978
560.852	14038
560.913	14147
560.974	13677
561.036	13858
561.097	13826
561.158	13710
561.220	14469
561.281	14764
561.342	17818
561.403	22288
561.465	29605
561.526	53683
561.587	91677
561.648	29711
561.709	15122
561.771	15021
561.832	13920
561.893	14197
561.954	14075
562.015	13978
562.076	14384
562.137	13727
562.198	13667
562.259	13924
562.320	15005
562.381	17173
562.442	23591
562.503	22162
562.564	13817
562.625	13375
562.686	13360
562.747	13698
562.808	14759
562.869	13230
562.930	16063
562.991	15381
563.051	14985
563.112	14217
563.173	14023
563.234	13140
563.294	13956
563.355	14667
563.416	15111
563.477	14005
563.537	14725
563.598	15007
563.659	14758
563.720	15249
563.780	15765
563.841	15688
563.901	14284
563.962	14217
564.023	12454
564.083	13520
564.144	14536
564.204	14549
564.265	15925
564.325	18459
564.386	26233
564.446	30121
564.507	14392
564.567	14162
564.628	13449
564.688	14161
564.749	13771
564.809	14624
564.869	18246
564.930	14589
564.990	14971
565.050	13849
565.111	14130
565.171	12529
565.231	13603
565.292	14093
565.352	13426
565.412	14567
565.472	14483
565.532	16982
565.593	15747
565.653	13998
565.713	15170
565.773	16829
565.833	18173
565.893	26568
565.953	17114
566.013	14982
566.074	16795
566.134	20210
566.194	27455
566.254	32471
566.314	21201
566.374	14528
566.434	14247
566.494	15205
566.554	14196
566.614	16398
566.673	15061
566.733	15117
566.793	16608
566.853	16903
566.913	16312
566.973	16902
567.033	17102
567.092	17161
567.152	16743
567.212	16887
567.272	16863
567.331	18362
567.391	17427
567.451	19997
567.511	22551
567.570	24937
567.630	17223
567.690	16844
567.749	16986
567.809	17113
567.868	18524
567.928	19994
567.988	22620
568.047	25308
568.107	29612
568.166	37907
568.226	53375
568.285	79223
568.345	64911
568.404	44740
568.464	38001
568.523	33894
568.582	37094
568.642	45030
568.701	57574
568.761	78865
568.820	128901
568.879	132189
568.939	84420
568.998	57390
569.057	40933
569.116	32693
569.176	26988
569.235	22111
569.294	21359
569.353	20119
569.413	19334
569.472	18568
569.531	17093
569.590	15884
569.649	15862
569.708	15550
569.767	15290
569.827	18456
569.886	18506
569.945	14218
570.004	15256
570.063	14942
570.122	17033
570.181	17744
570.240	16559
570.299	17622
570.358	18688
570.417	14932
570.475	14098
570.534	15297
570.593	16876
570.652	16152
570.711	16979
570.770	15370
570.829	16840
570.887	17545
570.946	19524
571.005	16164
571.064	15436
571.122	17903
571.181	17028
571.240	15911
571.299	12938
571.357	13835
571.416	14999
571.475	16023
571.533	17373
571.592	13986
571.650	14722
571.709	14078
571.768	14198
571.826	13726
571.885	12262
571.943	13115
572.002	12778
572.060	14337
572.119	12424
572.177	12059
572.236	11276
572.294	11261
572.352	11961
572.411	12548
572.469	11864
572.528	12126
572.586	13293
572.644	13644
572.703	16620
572.761	15086
572.819	12882
572.877	12286
572.936	11945
572.994	11548
573.052	10524
573.110	12055
573.169	12454
573.227	11230
573.285	11560
573.343	11172
573.401	11209
573.459	10566
573.517	11243
573.576	11162
573.634	11794
573.692	11799
573.750	11297
573.808	11692
573.866	13005
573.924	14819
573.982	16156
574.040	12564
574.098	11618
574.155	10371
574.213	10627
574.271	10741
574.329	11528
574.387	11201
574.445	10510
574.503	10499
574.560	10091
574.618	9841
574.676	9677
574.734	9533
574.792	10293
574.849	10140
574.907	9272
574.965	9877
575.022	10195
575.080	11069
575.138	10470
575.195	11597
575.253	12802
575.311	13364
575.368	11613
575.426	10216
575.483	10297
575.541	10396
575.598	10179
575.656	10699
575.713	10255
575.771	10450
575.828	10200
575.886	10392
575.943	10890
576.001	11765
576.058	11800
576.115	12458
576.173	14853
576.230	15717
576.287	19175
576.345	16352
576.402	12461
576.459	11749
576.517	12373
576.574	12895
576.631	13886
576.688	13047
576.746	11045
576.803	12054
576.860	11009
576.917	11373
576.974	10959
577.031	11188
577.089	10823
577.146	11498
577.203	12058
577.260	12746
577.317	12790
577.374	13729
577.431	14272
577.488	12188
577.545	11867
577.602	11096
577.659	10902
577.716	11207
577.773	11493
577.830	10613
577.886	11329
577.943	10375
578.000	11092
578.057	11565
578.114	11904
578.171	11113
578.227	11139
578.284	10960
578.341	11340
578.398	12082
578.454	11748
578.511	11868
578.568	15298
578.625	13416
578.681	11680
578.738	10859
578.794	11374
578.851	11087
578.908	11566
578.964	12869
579.021	13503
579.077	12402
579.134	12532
579.190	11087
579.247	11341
579.303	11255
579.360	10289
579.416	11514
579.473	10468
579.529	11265
579.586	10051
579.642	10776
579.698	11994
579.755	11957
579.811	11520
579.867	11143
579.924	11194
579.980	11126
580.036	12050
580.093	12568
580.149	12021
580.205	13126
580.261	12314
580.317	11893
580.374	12813
580.430	14937
580.486	14927
580.542	12872
580.598	12758
580.619	12932
580.654	13236
580.692	12688
580.710	12419
580.765	12443
580.767	12442
580.823	12701
580.838	12687
580.879	12624
580.911	12619
580.935	12613
580.984	11983
580.991	11894
581.047	12424
581.057	12353
581.103	12012
581.130	12577
581.159	13203
581.203	12566
581.215	12386
581.270	13060
581.276	13087
581.326	13269
581.349	13112
581.382	12861
581.422	13180
581.438	13309
581.494	13640
581.494	13649
581.550	14185
581.567	14225
581.606	14318
581.640	14884
581.661	15163
581.713	14364
581.717	14297
581.773	13069
581.786	13216
581.829	13715
581.859	14032
581.885	14300
581.932	14324
581.940	14312
581.996	14517
582.004	14575
582.052	14776
582.077	14262
582.107	13707
582.150	14553
582.163	14790
582.219	15144
582.223	15145
582.274	15164
582.296	15030
582.330	14804
582.368	15822
582.386	16215
582.441	15048
582.441	15041
582.497	14964
582.514	15227
582.552	15590
582.587	15801
582.608	16044
582.659	17050
582.663	17094
582.719	16049
582.732	15924
582.774	15604
582.805	16098
582.830	16600
582.877	16608
582.885	16556
582.941	15662
582.950	15840
582.996	16954
583.023	16708
583.052	16491
583.095	17231
583.107	17371
583.162	17862
583.168	17915
583.218	18444
583.240	18352
583.273	18211
583.313	17740
583.328	17611
583.384	17503
583.385	17542
583.439	18406
583.458	18426
583.494	18466
583.531	18322
583.549	18285
583.603	18148
583.605	18150
583.660	18923
583.676	18862
583.715	18665
583.748	19025
583.770	19382
583.820	20091
583.825	20132
583.881	19786
583.893	19897
583.936	20403
583.965	20457
583.991	20464
584.038	19779
584.046	19688
584.101	20050
584.110	20107
584.156	20523
584.183	20526
584.211	20511
584.255	20983
584.266	21102
584.321	20706
584.328	20763
584.376	21305
584.400	21373
584.431	21657
584.472	21417
584.486	21328
584.541	22635
584.545	22603
584.596	22402
584.617	22950
584.651	24012
584.689	24286
584.706	24432
584.761	24141
584.762	24131
584.816	25553
584.834	25666
584.871	25798
584.906	25359
584.926	25360
584.978	27042
584.980	27114
585.035	27349
585.051	27439
585.090	28269
585.123	29210
585.145	29963
585.195	30806
585.200	30930
585.254	32820
585.267	33261
585.309	35842
585.340	38776
585.364	41561
585.412	45517
585.419	45511
585.473	45207
585.484	45994
585.528	51964
585.556	56474
585.583	63516
585.628	75348
585.637	81633
585.692	134236
585.700	148121
585.747	263757
585.772	279867
585.801	231396
585.845	150082
585.856	127110
585.910	58386
585.917	50655
585.965	46557
585.989	44047
586.019	42423
586.061	41112
586.074	41230
586.128	40975
586.133	40981
586.183	43492
586.205	44401
586.237	45591
586.277	45854
586.292	45308
586.346	43898
586.349	43760
586.401	44010
586.421	44196
586.455	44983
586.493	45575
586.509	46682
586.564	50344
586.565	50455
586.618	66627
586.637	71018
586.672	76854
586.709	75168
586.727	67878
586.781	52728
586.781	52833
586.835	52324
586.853	52384
586.889	52132
586.925	51212
586.944	51246
586.996	51026
586.998	51162
587.052	52933
587.068	53318
587.106	54852
587.140	55442
587.161	55899
587.212	57435
587.215	57658
587.269	59537
587.284	59953
587.323	62443
587.356	64157
587.377	64875
587.427	66096
587.431	66370
587.485	67988
587.499	68253
587.539	70431
587.571	72220
587.593	73797
587.643	76478
587.648	76980
587.702	80250
587.715	80952
587.755	84161
587.786	86642
587.810	89393
587.858	93485
587.864	94210
587.917	100118
587.930	101306
587.971	108809
588.001	113477
588.025	118407
588.073	127558
588.079	128997
588.133	139673
588.145	141691
588.187	155776
588.217	165478
588.241	175561
588.288	194858
588.295	198693
588.348	227592
588.360	233629
588.402	264619
588.431	284980
588.456	306133
588.503	349414
588.510	358221
588.564	426971
588.575	441996
588.617	523366
588.646	582789
588.671	656359
588.718	802827
588.725	840807
588.778	1139816
588.789	1203024
588.832	1683784
588.861	2025646
588.886	2468346
588.932	3295691
588.939	3344349
588.993	3484998
589.004	3513917
589.047	3497044
589.075	3423793
589.100	3161793
589.147	2595353
589.154	2486219
589.207	1622306
589.218	1445879
589.261	1211650
589.290	1057462
589.314	1042390
589.361	1018470
589.368	1043504
589.421	1246165
589.433	1291357
589.475	1796489
589.504	2163479
589.528	2604928
589.576	3403482
589.582	3417816
589.635	3370804
589.647	3335414
589.689	2767178
589.718	2341777
589.742	1898012
589.790	1030614
589.795	997082
589.849	666776
589.861	589913
589.902	494548
589.932	422148
589.955	391791
590.004	323001
590.009	318831
590.062	264942
590.075	250890
590.115	229503
590.146	212146
590.168	205098
590.218	186896
590.222	186529
590.275	174222
590.289	170440
590.328	163166
590.360	156187
590.381	152563
590.431	142202
590.435	142261
590.488	135259
590.503	132967
590.541	131680
590.574	129517
590.594	128135
590.645	123068
590.647	123253
590.700	116849
590.716	114426
590.753	112006
590.787	109153
590.806	108928
590.859	107088
590.859	107429
590.912	104981
590.930	103794
590.965	102580
591.001	100781
591.018	100913
591.071	100103
591.072	99740
591.124	100518
591.143	100282
591.177	100004
591.214	99135
591.230	99723
591.283	100232
591.285	99899
591.336	102118
591.356	102485
591.389	105731
591.427	108583
591.442	106882
591.495	98893
591.498	97946
591.547	94187
591.569	92008
591.600	91724
591.640	90452
591.653	90639
591.706	90090
591.711	89692
591.759	90027
591.782	89692
591.811	91139
591.853	92638
591.864	93438
591.917	95273
591.924	95209
591.969	91972
591.995	89501
592.022	89407
592.066	88436
592.075	88989
592.127	90307
592.137	90229
592.180	94949
592.208	97451
592.233	98214
592.279	98361
592.285	97891
592.338	90814
592.350	88843
592.390	88380
592.421	87460
592.443	87638
592.491	86936
592.495	87290
592.548	87492
592.562	87207
592.600	87571
592.633	87259
592.653	87617
592.704	87175
592.705	87648
592.775	86018
592.846	87206
592.916	90492
592.987	96746
593.058	99607
593.128	87537
593.199	82693
593.270	82342
593.341	82676
593.411	82612
593.482	88206
593.553	85765
593.623	81586
593.694	82137
593.764	83882
593.835	84874
593.906	81975
593.976	79641
594.047	81782
594.117	85856
594.188	92365
594.258	87912
594.329	80390
594.399	80007
594.470	80186
594.540	80570
594.611	80993
594.681	81413
594.751	81857
594.822	83163
594.892	86895
594.963	90953
595.033	88080
595.103	87343
595.174	88040
595.244	96671
595.314	117527
595.384	111418
595.455	87014
595.525	88727
595.595	89950
595.665	92729
595.736	91056
595.806	88860
595.876	89870
595.946	89662
596.016	89154
596.087	90226
596.157	91582
596.227	91561
596.297	92803
596.367	96858
596.437	100360
596.507	106282
596.577	120509
596.647	120932
596.717	101181
596.787	103333
596.857	102886
596.927	104094
596.997	103787
597.067	103034
597.137	104828
597.207	110901
597.277	107767
597.347	106950
597.417	103611
597.487	105326
597.557	106610
597.626	109208
597.696	110188
597.766	114667
597.836	123275
597.906	123234
597.975	99251
598.045	96531
598.115	97371
598.185	100544
598.254	105283
598.324	116486
598.394	126572
598.464	127559
598.533	123246
598.603	114638
598.672	108674
598.742	110896
598.812	106681
598.881	107456
598.951	107846
599.020	105527
599.090	106052
599.159	108783
599.229	109472
599.299	105673
599.368	104787
599.437	107428
599.507	104260
599.576	98608
599.646	98731
599.715	100295
599.785	97786
599.854	97679
599.924	98168
599.993	99300
600.062	94698
600.132	94128
600.201	96115
600.270	106106
600.340	120275
600.409	113450
600.478	110392
600.547	109270
600.617	111546
600.686	101605
600.755	92997
600.824	92715
600.894	94880
600.963	84596
601.032	80525
601.101	79793
601.170	78191
601.239	76681
601.308	79444
601.378	88718
601.447	79583
601.516	76352
601.585	77679
601.654	86596
601.723	92945
601.792	78228
601.861	80413
601.930	85363
601.999	97170
602.068	97739
602.137	91542
602.206	108273
602.275	94305
602.343	96443
602.412	114975
602.481	100099
602.550	84648
602.619	84167
602.688	85963
602.756	90420
602.825	86067
602.894	83799
602.963	85756
603.032	86352
603.100	85847
603.169	84741
603.238	86661
603.307	85801
603.375	86543
603.444	86318
603.513	89440
603.581	91302
603.650	90587
603.719	91015
603.787	88864
603.856	92031
603.924	93574
603.993	98260
604.061	98319
604.130	99478
604.198	104996
604.267	107212
604.335	106544
604.404	104878
604.472	106720
604.541	107565
604.609	108638
604.678	108075
604.746	108717
604.815	109966
604.883	113760
604.951	112845
605.020	112361
605.088	115163
605.156	116681
605.225	117975
605.293	118658
605.361	118746
605.429	121147
605.498	122260
605.566	127062
605.634	134024
605.702	131178
605.771	135389
605.839	138420
605.907	136236
605.975	133432
606.043	127919
606.111	129656
606.180	127461
606.248	128374
606.316	133612
606.384	131099
606.452	133558
606.520	149807
606.588	173305
606.656	137664
606.724	131218
606.792	127253
606.860	119947
606.928	108540
606.996	101522
607.064	98236
607.132	99561
607.200	101804
607.267	108275
607.335	106948
607.403	112234
607.471	111537
607.539	109551
607.607	106950
607.674	104769
607.742	99081
607.810	103012
607.878	107074
607.946	99878
608.013	100993
608.081	104418
608.149	106846
608.216	106015
608.284	108788
608.352	109803
608.419	112094
608.487	113319
608.555	120801
608.622	106953
608.690	108260
608.757	116715
608.825	125151
608.893	126474
608.960	127112
609.028	131919
609.095	128968
609.163	128302
609.230	112706
609.298	105276
609.365	98851
609.432	104787
609.500	111281
609.567	123278
609.635	136458
609.702	154720
609.769	156930
609.837	149139
609.904	125445
609.971	117143
610.039	130112
610.106	159897
610.173	241081
610.241	499408
610.308	1052924
610.375	1155446
610.442	530417
610.509	180682
610.577	133984
610.644	121502
610.711	118829
610.778	120154
610.845	119637
610.912	123057
610.980	130003
611.047	135063
611.114	140749
611.181	128513
611.248	120700
611.315	120879
611.382	125977
611.449	128179
611.516	132149
611.583	133536
611.650	132780
611.717	133308
611.784	134089
611.851	139097
611.918	148241
611.984	166006
612.051	194506
612.118	296055
612.185	645757
612.252	1400464
612.319	496831
612.386	187436
612.452	167581
612.519	155990
612.586	154098
612.653	160806
612.719	150977
612.786	154982
612.853	144968
612.919	134223
612.986	134526
613.053	133305
613.120	126841
613.186	119011
613.253	117089
613.319	119049
613.386	119709
613.453	121485
613.519	127851
613.586	141934
613.652	177519
613.719	202738
613.785	182528
613.852	145769
613.918	126289
613.985	126089
614.051	134122
614.118	162017
614.184	240247
614.250	176480
614.317	126012
614.383	121564
614.449	122834
614.516	122151
614.582	122726
614.648	124171
614.715	120746
614.781	120718
614.847	119954
614.914	120610
614.980	120364
615.046	117773
615.112	116528
615.179	120919
615.245	120934
615.311	126906
615.377	137249
615.443	167493
615.509	153773
615.575	131948
615.642	129632
615.708	130026
615.774	138369
615.840	145045
615.906	157050
615.972	181337
616.038	253818
616.104	448177
616.170	822891
616.236	1888028
616.302	925093
616.368	250718
616.434	198164
616.500	157991
616.565	154554
616.631	168657
616.697	187613
616.763	159946
616.829	174024
616.895	264615
616.961	413475
617.026	320189
617.092	161599
617.158	133775
617.224	126729
617.289	123819
617.355	120210
617.421	115318
617.487	114715
617.552	111245
617.618	105742
617.684	105556
617.749	106970
617.815	105417
617.880	101164
617.946	100648
618.012	101986
618.077	107343
618.143	105694
618.208	101154
618.274	102935
618.339	112842
618.405	107869
618.470	94971
618.536	94900
618.601	98230
618.667	99378
618.732	93332
618.798	89389
618.863	88843
618.928	86716
618.994	88293
619.059	95596
619.124	114893
619.190	148249
619.255	97129
619.320	86792
619.386	86510
619.451	86311
619.516	85151
619.581	83598
619.647	84438
619.712	87302
619.777	85580
619.842	81449
619.907	85380
619.972	87396
620.038	89625
620.103	86739
620.168	82026
620.233	81911
620.298	83647
620.363	81634
620.428	84372
620.493	85081
620.558	87425
620.623	86888
620.688	88497
620.753	88129
620.818	86485
620.883	87676
620.948	89753
621.013	88564
621.078	89373
621.143	88349
621.207	91090
621.272	91917
621.337	95990
621.402	96566
621.467	95810
621.532	107399
621.596	100510
621.661	97318
621.726	89810
621.791	88872
621.855	92605
621.920	99100
621.985	98679
622.049	96970
622.114	99898
622.179	99212
622.243	93815
622.308	98575
622.373	98926
622.437	101949
622.502	99775
622.566	95254
622.631	95792
622.695	97118
622.760	97345
622.824	97800
622.889	99227
622.953	104525
623.018	119866
623.082	184148
623.147	139983
623.211	103510
623.276	105023
623.340	104438
623.404	93821
623.469	91673
623.533	92348
623.597	90821
623.662	90299
623.726	89889
623.790	85282
623.854	81862
623.919	83354
623.983	82964
624.047	86385
624.111	85505
624.176	86047
624.240	87420
624.304	96257
624.368	95102
624.432	86358
624.496	86463
624.560	93630
624.625	108020
624.689	111391
624.753	91551
624.817	93503
624.881	87878
624.945	86106
625.009	80352
625.073	81602
625.137	84811
625.201	98829
625.265	124985
625.329	105965
625.393	88170
625.456	95377
625.520	86709
625.584	90953
625.648	100173
625.712	106082
625.776	135349
625.839	215808
625.903	204828
625.967	95668
626.031	85868
626.095	116342
626.158	140513
626.222	82475
626.286	68547
626.349	66081
626.413	63819
626.477	65652
626.540	71479
626.604	64615
626.668	62595
626.731	61726
626.795	61089
626.858	64200
626.922	62596
626.986	61907
627.049	61656
627.113	62525
627.176	60686
627.240	58229
627.303	58222
627.366	59583
627.430	59888
627.493	61432
627.557	59959
627.620	59485
627.684	60309
627.747	60926
627.810	59872
627.874	58395
627.937	54862
628.000	54798
628.064	57309
628.127	56125
628.190	50552
628.253	51295
628.317	50564
628.380	50000
628.443	47896
628.506	48393
628.569	49017
628.632	46047
628.696	46287
628.759	44947
628.822	43971
628.885	44510
628.948	43418
629.011	44823
629.074	45893
629.137	45595
629.200	42359
629.263	44148
629.326	44906
629.389	41788
629.452	41342
629.515	42821
629.578	42200
629.641	41876
629.704	43745
629.767	45666
629.830	46753
629.892	41519
629.955	42653
630.018	42803
630.081	46688
630.144	60622
630.207	65594
630.269	52015
630.332	44983
630.395	45236
630.458	39697
630.520	38461
630.583	39830
630.646	38065
630.708	37897
630.771	37511
630.834	38832
630.896	37439
630.959	37608
631.021	37786
631.084	38364
631.146	38562
631.209	40761
631.272	41406
631.334	37905
631.397	37772
631.459	37757
631.522	40257
631.584	43373
631.646	40917
631.709	42633
631.771	48136
631.834	60668
631.896	42764
631.958	38154
632.021	36474
632.083	36586
632.145	36569
632.208	37759
632.270	39614
632.332	38373
632.395	35644
632.457	34707
632.519	35514
632.581	35503
632.643	34640
632.706	34877
632.768	33361
632.830	33533
632.892	32838
632.954	33207
633.016	34872
633.078	35402
633.141	34677
633.203	33875
633.265	34499
633.327	34200
633.389	34984
633.451	36104
633.513	43519
633.575	53237
633.637	43526
633.698	51684
633.760	44557
633.822	35999
633.884	35807
633.946	36925
634.008	35323
634.070	36443
634.132	36208
634.193	39467
634.255	39251
634.317	39256
634.379	39397
634.441	40562
634.502	37186
634.564	36131
634.626	32329
634.687	32387
634.749	32647
634.811	32465
634.873	31673
634.934	29915
634.996	30312
635.057	30513
635.119	31218
635.181	30955
635.242	31389
635.304	31630
635.365	30548
635.427	30942
635.488	32965
635.550	33296
635.611	30998
635.673	29536
635.734	31858
635.796	32529
635.857	34380
635.918	35584
635.980	34889
636.041	36285
636.102	37374
636.164	38374
636.225	37646
636.286	37186
636.348	35261
636.409	33142
636.470	31835
636.531	29961
636.593	30602
636.654	31874
636.715	30487
636.776	27299
636.838	27033
636.899	27600
636.960	27978
637.021	26907
637.082	25870
637.143	27277
637.204	26824
637.265	25110
637.326	26090
637.387	25285
637.448	25894
637.509	25215
637.570	26117
637.631	25836
637.692	25157
637.753	24144
637.814	25259
637.875	26172
637.936	24334
637.997	24869
638.058	25776
638.119	27065
638.179	26263
638.240	24305
638.301	24867
638.362	23844
638.423	24918
638.483	24421
638.544	23917
638.605	23246
638.666	23385
638.726	23751
638.787	24008
638.848	22939
638.908	23072
638.969	22542
639.030	23114
639.090	23759
639.151	23665
639.211	25313
639.272	30518
639.332	42338
639.393	70992
639.453	31705
639.514	24176
639.574	24379
639.635	22230
639.695	22199
639.756	23167
639.816	24642
639.877	27841
639.937	37966
639.997	70820
640.058	77928
640.118	29552
640.178	22524
640.239	20761
640.299	20288
640.359	20983
640.420	21037
640.480	21593
640.540	21663
640.600	23661
640.661	24037
640.721	23347
640.781	27697
640.841	35704
640.901	26385
640.961	22591
641.021	23353
641.082	26704
641.142	35118
641.202	52214
641.262	26689
641.322	21286
641.382	19847
641.442	19510
641.502	19190
641.562	19445
641.622	19912
641.682	20611
641.742	21426
641.802	22883
641.861	22278
641.921	23790
641.981	25998
642.041	29142
642.101	30026
642.161	40151
642.221	23664
642.280	18364
642.340	17685
642.400	18101
642.460	19651
642.519	19207
642.579	18415
642.639	19600
642.698	18703
642.758	20131
642.818	18266
642.877	19432
642.937	21956
642.997	23201
643.056	30259
643.116	46287
643.175	24593
643.235	19670
643.294	20843
643.354	20588
643.414	20772
643.473	22707
643.532	24272
643.592	30146
643.651	40598
643.711	61731
643.770	108115
643.830	212956
643.889	515598
643.948	937367
644.008	158672
644.067	40344
644.126	30234
644.186	25337
644.245	22661
644.304	19837
644.363	20007
644.423	18871
644.482	18000
644.541	17737
644.600	19172
644.659	20259
644.719	22688
644.778	27028
644.837	35066
644.896	54290
644.955	103857
645.014	207327
645.073	60523
645.132	25476
645.191	21351
645.250	19876
645.309	19474
645.368	19592
645.427	20009
645.486	23141
645.545	33069
645.604	44271
645.663	20646
645.722	17472
645.781	19311
645.840	19602
645.898	20695
645.957	26419
646.016	36199
646.075	54486
646.134	97287
646.192	180716
646.251	496987
646.310	593425
646.369	72601
646.427	30373
646.486	25280
646.545	21719
646.603	18878
646.662	18539
646.721	17115
646.779	16987
646.838	16203
646.896	18166
646.955	21509
647.014	24937
647.072	33476
647.131	56802
647.189	136547
647.248	55540
647.306	17955
647.365	15849
647.423	14904
647.481	15027
647.540	14759
647.598	15732
647.657	14705
647.715	14134
647.773	14475
647.832	13816
647.890	12987
647.948	14447
648.007	13540
648.065	13865
648.123	14902
648.181	15701
648.240	16488
648.298	16324
648.356	15208
648.414	14441
648.472	13676
648.531	13414
648.589	13759
648.647	14430
648.705	13320
648.763	14136
648.821	13094
648.879	13702
648.937	14288
648.995	16357
649.053	17353
649.111	21219
649.169	28931
649.227	45262
649.285	75602
649.343	145574
649.401	399541
649.459	169475
649.516	105869
649.574	58150
649.632	35543
649.690	60013
649.748	59972
649.806	27044
649.863	33804
649.921	50420
649.979	97226
650.037	55985
650.094	15554
650.152	13570
650.210	14014
650.268	13661
650.325	12021
650.383	13029
650.440	14586
650.498	11709
650.556	11871
650.613	11961
650.671	11331
650.728	11919
650.786	11813
650.843	13069
650.901	12102
650.958	11830
651.016	11034
651.073	10843
651.131	10837
651.188	10870
651.246	10792
651.303	11159
651.360	10430
651.418	10030
651.475	10771
651.532	10735
651.590	10679
651.647	10293
651.704	10807
651.762	10844
651.819	11062
651.876	11559
651.933	10722
651.990	10616
652.048	10548
652.105	10318
652.162	10501
652.219	10013
652.276	9941
652.333	10259
652.390	9431
652.448	10176
652.505	10063
652.562	9920
652.619	10794
652.676	10942
652.733	14628
652.790	14287
652.847	9695
652.904	10382
652.961	9570
653.017	9827
653.074	10731
653.131	10626
653.188	10438
653.245	10468
653.302	9483
653.359	10254
653.415	10747
653.472	9853
653.529	10169
653.586	9668
653.642	9120
653.699	9733
653.756	8876
653.813	9297
653.869	9174
653.926	9501
653.983	8974
654.039	8731
654.096	9425
654.152	9236
654.209	9409
654.266	9284
654.322	9971
654.379	10514
654.435	10889
654.492	12387
654.548	13479
654.605	19924
654.661	31463
654.717	13010
654.774	10647
654.830	10793
654.887	10983
654.943	9814
655.000	10080
655.056	10731
655.112	9757
655.168	9521
655.225	9993
655.281	9905
655.337	10988
655.394	12820
655.450	18400
655.506	14543
655.562	13421
655.618	19281
655.675	13539
655.731	10076
655.787	9705
655.843	9645
655.899	8622
655.955	9437
656.011	8813
656.067	9018
656.123	10541
656.179	10275
656.235	10085
656.291	10078
656.347	9407
656.403	10303
656.459	9708
656.515	10472
656.571	10529
656.627	11689
656.683	8975
656.739	10883
656.795	10367
656.850	10921
656.906	12672
656.962	14651
657.018	11686
657.074	9960
657.129	10412
657.185	11230
657.241	12670
657.297	17578
657.352	13968
657.408	10036
657.464	11105
657.519	11345
657.575	8916
657.630	9218
657.686	8990
657.742	9145
657.797	9568
657.853	8907
657.908	9711
657.964	8644
658.019	8872
658.075	9206
658.130	9325
658.186	9118
658.241	9125
658.297	8728
658.352	8239
658.407	9568
658.463	7730
658.518	8840
658.573	9320
658.629	9078
658.684	8399
658.739	8743
658.795	8544
658.850	8739
658.905	8033
658.960	8957
659.016	8102
659.071	9125
659.126	9688
659.181	10906
659.236	13539
659.291	23407
659.346	24203
659.401	14646
659.457	12659
659.512	10813
659.567	13259
659.622	9573
659.677	9292
659.732	8439
659.787	9012
659.842	9896
659.897	10229
659.952	11675
660.007	9144
660.061	8736
660.116	9270
660.171	9085
660.226	8241
660.281	9158
660.336	8519
660.391	9000
660.445	8128
660.500	9657
660.555	9953
660.610	8393
660.664	10226
660.719	8840
660.774	8735
660.828	8772
660.883	9759
660.938	10654
660.992	9707
661.047	9266
661.101	8098
661.156	8869
661.211	8568
661.265	8141
661.320	7907
661.374	8869
661.429	8013
661.483	8588
661.538	9116
661.592	7759
661.647	9130
661.701	9230
661.755	8949
661.810	9039
661.864	8699
661.919	7659
661.973	8198
662.027	8840
662.081	7821
662.136	8099
662.190	8075
662.244	8749
662.299	8438
662.353	8678
662.407	8332
662.461	8039
662.515	9062
662.569	8723
662.624	8772
662.678	8981
662.732	9031
662.786	8828
662.840	8624
662.894	9946
662.948	8996
663.002	7557
663.056	7465
663.110	7938
663.164	8557
663.218	9171
663.272	8370
663.326	9161
663.380	10543
663.434	9930
663.488	9283
663.542	8739
663.595	9539
663.649	8219
663.703	8888
663.757	8157
663.811	8265
663.864	8467
663.918	8266
663.972	8112
664.026	8325
664.079	7787
664.133	8422
664.187	8693
664.240	7901
664.294	8862
664.348	8040
664.401	8428
664.455	7808
664.508	8218
664.562	7162
664.615	8264
664.669	8140
664.722	8134
664.776	8103
664.829	8280
664.883	8655
664.936	7952
664.990	8468
665.043	9229
665.097	8535
665.150	10075
665.203	9030
665.257	8897
665.310	8564
665.363	9064
665.417	8230
665.470	9104
665.523	8581
665.576	9829
665.630	8474
665.683	8342
665.736	9256
665.789	8730
665.842	8408
665.895	8820
665.949	9437
666.002	8872
666.055	8617
666.108	9175
666.161	8890
666.214	9542
666.267	8769
666.320	10871
666.373	13287
666.426	9832
666.479	9275
666.532	9648
666.585	9757
666.638	9950
666.691	10649
666.744	10803
666.796	10548
666.849	10979
666.902	10591
666.955	9494
667.008	8862
667.060	7708
667.113	8363
667.166	7844
667.219	8561
667.271	8872
667.324	8418
667.377	7853
667.430	9458
667.482	8323
667.535	9575
667.587	10043
667.640	10308
667.693	11447
667.745	14835
667.798	25537
667.850	26781
667.903	11418
667.955	8940
668.008	9280
668.060	9646
668.113	9860
668.165	10005
668.218	10161
668.270	9463
668.322	9306
668.375	9653
668.427	9235
668.479	8446
668.532	9286
668.584	9116
668.636	9639
668.689	9000
668.741	9133
668.793	9819
668.845	9284
668.898	9922
668.950	9057
669.002	9444
669.054	9143
669.106	9569
669.158	10339
669.211	10278
669.263	9840
669.315	10701
669.367	12345
669.419	12303
669.471	12937
669.523	12680
669.575	14436
669.627	17600
669.679	16793
669.731	12369
669.783	12277
669.835	12332
669.886	15021
669.938	15378
669.990	14740
670.042	13925
670.094	14272
670.146	15234
670.197	17961
670.249	20376
670.301	23897
670.353	30805
670.404	41547
670.456	56372
670.508	83639
670.560	130385
670.611	210060
670.663	347267
670.715	591031
670.766	1164737
670.818	1633509
670.869	841543
670.921	211733
670.972	99347
671.024	64332
671.075	45883
671.127	34286
671.178	27336
671.230	23990
671.281	22032
671.333	19170
671.384	17646
671.436	17751
671.487	17832
671.538	17773
671.590	18137
671.641	21566
671.692	25116
671.744	35828
671.795	61818
671.846	45002
671.897	20117
671.949	14758
672.000	13368
672.051	11634
672.102	11044
672.153	10951
672.204	10332
672.256	10585
672.307	10482
672.358	10389
672.409	10214
672.460	9704
672.511	9764
672.562	8879
672.613	8882
672.664	9559
672.715	9358
672.766	9388
672.817	9499
672.868	8809
672.919	8746
672.970	8452
673.021	8699
673.071	8058
673.122	8336
673.173	8177
673.224	8300
673.275	8835
673.326	8244
673.376	8769
673.427	7971
673.478	8259
673.528	8217
673.579	7972
673.630	7927
673.680	7329
673.731	7428
673.782	8307
673.832	7839
673.883	8072
673.934	8078
673.984	9037
674.035	7512
674.085	8325
674.136	8292
674.186	8134
674.237	8124
674.287	9414
674.338	12314
674.388	9131
674.438	8319
674.489	7927
674.539	7014
674.589	8241
674.640	7966
674.690	8203
674.740	8234
674.791	8700
674.841	8500
674.891	8564
674.942	8602
674.992	7474
675.042	8679
675.092	6680
675.142	6120
675.193	6905
675.243	7513
675.293	7418
675.343	7235
675.393	8418
675.443	7404
675.493	7655
675.543	6869
675.593	7161
675.643	7539
675.693	7758
675.743	6757
675.793	7781
675.843	6401
675.893	6906
675.943	7349
675.993	6570
676.043	6746
676.093	6806
676.142	5573
676.192	6706
676.242	6578
676.292	6452
676.341	5883
676.391	6788
676.441	6862
676.491	6593
676.540	6452
676.590	5852
676.640	6415
676.689	6595
676.739	6546
676.789	6577
676.838	5788
676.888	6612
676.937	6689
676.987	6821
677.037	6316
677.086	5981
677.136	5794
677.185	5383
677.235	6973
677.284	5334
677.333	5182
677.383	6003
677.432	5565
677.482	5714
677.531	6060
677.580	6324
677.630	5926
677.679	6008
677.728	4984
677.778	5989
677.827	5734
677.876	5314
677.925	5101
677.975	5710
678.024	5590
678.073	5977
678.122	5994
678.171	6392
678.220	5807
678.269	6153
678.319	6724
678.368	6780
678.417	6995
678.466	6364
678.515	6589
678.564	6304
678.613	6803
678.662	6037
678.711	6346
678.760	5892
678.809	5638
678.857	6305
678.906	6104
678.955	6202
679.004	6370
679.053	6566
679.102	5678
679.151	6358
679.199	5840
679.248	7112
679.297	5386
679.346	6513
679.394	6314
679.443	5957
679.492	5868
679.540	5610
679.589	5807
679.638	6799
679.686	6031
679.735	5728
679.784	5834
679.832	5841
679.881	6163
679.929	5823
679.978	5582
680.026	4880
680.075	5451
680.123	5572
680.172	5328
680.220	6084
680.268	4828
680.317	4688
680.365	5156
680.414	5361
680.462	5856
680.510	4955
680.559	5529
680.607	5980
680.655	5510
680.703	5423
680.752	5621
680.800	5199
680.848	5063
680.896	4722
680.945	4961
680.993	4779
681.041	5133
681.089	5481
681.137	5386
681.185	4470
681.233	4850
681.258	5055
681.281	5174
681.329	4656
681.377	4953
681.380	5057
681.425	5520
681.473	5824
681.502	5808
681.521	5668
681.569	6565
681.617	6516
681.624	6621
681.665	6749
681.713	6465
681.745	7270
681.761	7542
681.809	6392
681.857	6517
681.867	6724
681.904	7138
681.952	7306
681.989	7377
682.000	7309
682.048	7278
682.096	7975
682.111	7961
682.143	7707
682.191	8007
682.233	7930
682.239	7823
682.286	8797
682.334	7822
682.354	7966
682.382	8057
682.430	8473
682.476	9042
682.477	8987
682.525	9334
682.572	8827
682.598	8705
682.620	8490
682.667	8944
682.715	9224
682.720	9340
682.763	9740
682.810	9750
682.841	9714
682.857	9682
682.905	10857
682.952	10906
682.963	11011
683.000	10753
683.047	10904
683.085	11405
683.095	11501
683.142	11145
683.190	10867
683.206	11123
683.237	11369
683.284	10558
683.328	10500
683.332	10452
683.379	11347
683.426	10958
683.449	11376
683.473	11632
683.521	11968
683.568	11687
683.571	11756
683.615	11948
683.662	12312
683.693	12666
683.709	12779
683.757	12813
683.804	12728
683.814	12855
683.851	13067
683.898	13482
683.936	13543
683.945	13514
683.992	12999
684.039	14468
684.057	14641
684.086	14895
684.133	16587
684.179	16091
684.180	16030
684.227	15878
684.274	16945
684.300	17492
684.321	17511
684.368	17325
684.415	17228
684.422	17116
684.462	16305
684.509	16708
684.543	16404
684.556	16118
684.603	15792
684.649	15105
684.665	15021
684.696	15107
684.743	15691
684.786	16047
684.790	16049
684.837	15770
684.883	15171
684.908	15733
684.930	16281
684.977	17139
685.023	17953
685.029	17977
685.070	17859
685.117	18580
685.150	18738
685.164	18565
685.210	18671
685.257	19013
685.272	19034
685.303	19585
685.350	19108
685.393	20260
685.396	20288
685.443	20520
685.490	21542
685.514	21818
685.536	22451
685.583	22875
685.629	23446
685.636	23631
685.675	22979
685.722	23169
685.757	22110
685.768	21849
685.815	22068
685.861	21410
685.878	21375
685.908	21544
685.954	21690
686.000	21850
686.000	21826
686.047	22147
686.093	22118
686.121	22176
686.139	22579
686.185	23700
686.232	24583
686.242	24620
686.278	23822
686.324	23761
686.363	23612
686.370	23502
686.416	22587
686.463	22023
686.484	21729
686.509	21800
686.555	22361
686.601	21637
686.606	21598
686.647	21140
686.693	21911
686.727	21731
686.739	21624
686.785	21854
686.831	22098
686.848	22065
686.877	22029
686.923	22144
686.969	22096
686.969	22092
687.015	22148
687.061	22402
687.090	22055
687.107	21987
687.153	22089
687.199	22871
687.211	22883
687.245	22725
687.291	22804
687.332	22888
687.336	22895
687.382	23584
687.428	23169
687.453	23337
687.474	23734
687.520	23712
687.565	24682
687.574	24828
687.611	24542
687.657	23797
687.695	23651
687.702	23750
687.748	24086
687.794	24629
687.816	24947
687.839	25447
687.885	25579
687.931	25667
687.937	25747
687.976	25408
688.022	25193
688.058	24618
688.067	24592
688.113	25155
688.158	25022
688.179	25055
688.204	25256
688.249	25220
688.295	26073
688.300	26104
688.340	26015
688.386	26080
688.421	25917
688.431	26066
688.477	26181
688.522	27448
688.542	27788
688.567	27818
688.613	27713
688.658	27584
688.663	27515
688.703	27322
688.749	27714
688.784	27808
688.794	27819
688.839	27331
688.884	27857
688.905	27566
688.930	27341
688.975	27423
689.020	27428
689.026	27454
689.065	27628
689.110	27196
689.146	26937
689.155	27042
689.201	27600
689.246	27876
689.267	28225
689.291	28083
689.336	27581
689.381	26981
689.388	26798
689.426	26775
689.471	27570
689.509	27339
689.516	27327
689.561	27780
689.606	28175
689.630	28498
689.651	28579
689.696	27704
689.741	27712
689.750	27621
689.785	27730
689.830	28359
689.871	28437
689.875	28488
689.920	28053
689.965	28823
689.992	28627
690.010	28382
690.054	28139
690.099	27938
690.112	27940
690.144	28350
690.189	28419
690.233	28456
690.233	28493
690.278	28541
690.323	28632
690.354	28641
690.367	28676
690.412	28989
690.457	28751
690.474	28825
690.501	28989
690.546	28958
690.590	28981
690.595	28932
690.635	28897
690.680	28861
690.716	28771
690.724	28829
690.769	29082
690.813	29071
690.836	28951
690.857	29043
690.902	29887
690.946	30148
690.957	30164
690.991	30252
691.035	30412
691.077	30953
691.080	31157
691.124	33917
691.168	36359
691.198	38026
691.213	38193
691.257	38427
691.301	38828
691.318	38832
691.346	37841
691.390	36106
691.434	34978
691.439	34720
691.478	33689
691.522	32599
691.559	32240
691.567	32459
691.611	33087
691.655	33231
691.680	33624
691.699	34157
691.743	34416
691.787	35329
691.800	35457
691.831	34880
691.875	34093
691.919	33619
691.921	33541
691.964	34051
692.008	34000
692.041	34446
692.052	34591
692.096	34157
692.139	34666
692.162	34585
692.183	34621
692.227	34494
692.271	34691
692.282	34631
692.315	34426
692.359	34361
692.402	34015
692.403	34077
692.447	34035
692.490	34148
692.523	34133
692.534	34157
692.578	33985
692.622	34042
692.643	33753
692.666	33857
692.709	34053
692.753	34878
692.763	34907
692.797	34922
692.840	34656
692.884	34467
692.884	34532
692.928	34351
692.971	34301
693.004	34247
693.015	34447
693.059	34932
693.102	35362
693.124	35392
693.146	35315
693.189	35342
693.233	35300
693.245	35275
693.276	35954
693.320	36313
693.363	36863
693.365	36818
693.407	37594
693.450	38059
693.485	38268
693.493	38268
693.537	38350
693.580	37974
693.605	37876
693.624	38103
693.667	38004
693.710	38355
693.725	38312
693.753	39190
693.797	40565
693.840	42242
693.845	42328
693.883	46570
693.926	51363
693.966	55144
693.970	55169
694.013	54463
694.056	54002
694.086	53640
694.099	52222
694.142	46921
694.185	41907
694.206	39435
694.229	39605
694.272	39687
694.315	39884
694.326	39849
694.358	39952
694.401	39679
694.444	39691
694.446	39604
694.487	41283
694.530	43115
694.566	44091
694.573	44238
694.616	45010
694.659	45591
694.686	45921
694.702	44930
694.745	41893
694.787	38858
694.806	37358
694.830	37103
694.873	36973
694.916	36233
694.926	36106
694.959	36749
695.002	37030
695.044	37702
695.046	37638
695.087	37753
695.130	37826
695.166	37705
695.172	37947
695.215	39092
695.258	40320
695.286	41038
695.301	40815
695.343	39738
695.386	38655
695.406	38071
695.428	38211
695.471	38294
695.514	38423
695.526	38357
695.556	38331
695.599	38453
695.641	38210
695.646	38109
695.684	38594
695.726	38855
695.766	39250
695.769	39321
695.811	38883
695.854	38542
695.886	38052
695.896	38209
695.938	38656
695.981	38904
696.005	39057
696.023	39139
696.065	39016
696.108	39122
696.125	38976
696.150	38997
696.192	38981
696.235	38829
696.245	38762
696.277	39317
696.319	39657
696.361	40185
696.365	40116
696.404	39853
696.446	39531
696.485	39285
696.488	39398
696.530	39368
696.572	39550
696.604	39557
696.614	39640
696.656	39590
696.698	39456
696.724	39321
696.740	39366
696.783	39205
696.825	39032
696.844	38833
696.867	38779
696.909	38593
696.951	38354
696.964	38186
696.992	38599
697.034	39026
697.076	39572
697.083	39540
697.118	39621
697.160	39711
697.202	39740
697.203	39639
697.244	39755
697.286	39834
697.323	39777
697.327	39897
697.369	40141
697.411	40263
697.442	40321
697.453	40354
697.494	40044
697.536	39678
697.562	39353
697.578	39975
697.620	41411
697.661	42792
697.682	43390
697.703	43541
697.744	43605
697.786	43695
697.801	43607
697.828	44694
697.869	46222
697.911	47744
697.921	47986
697.952	48866
697.994	49860
698.035	50944
698.040	50941
698.077	48410
698.118	45303
698.160	42248
698.160	42120
698.201	41836
698.243	41402
698.279	40974
698.284	41072
698.325	40957
698.367	40796
698.399	40609
698.408	40791
698.449	41101
698.491	41416
698.518	41529
698.532	41475
698.573	40964
698.614	40467
698.638	40063
698.656	40427
698.697	41039
698.738	41640
698.757	41822
698.779	42069
698.820	42318
698.862	42580
698.877	42557
698.903	43218
698.944	44105
698.985	44993
698.996	45120
699.026	44849
699.067	44308
699.116	43546
699.235	42721
699.354	42227
699.474	41617
699.593	43093
699.713	44886
699.832	44231
699.951	42267
700.070	47079
700.190	43576
700.309	41255
700.428	41517
700.547	43069
700.667	42146
700.786	42008
700.905	43240
701.024	41187
701.143	41167
701.262	43393
701.381	38436
701.500	38520
701.619	42445
701.738	49166
701.857	42262
701.976	37470
702.095	38594
702.214	38707
702.333	42002
702.452	46675
702.571	42565
702.690	39526
702.809	38426
702.928	39143
703.047	37413
703.165	38522
703.284	37620
703.403	36802
703.522	36110
703.640	40394
703.759	39672
703.878	43268
703.997	53220
704.115	39042
704.234	35417
704.353	35787
704.471	36865
704.590	35018
704.708	34179
704.827	34430
704.946	32739
705.064	34622
705.183	36591
705.301	34711
705.420	38168
705.538	48407
705.656	46158
705.775	41085
705.893	40688
706.012	49428
706.130	59809
706.249	42079
706.367	41025
706.485	40975
706.604	42815
706.722	41767
706.840	42288
706.958	50820
707.077	47674
707.195	42042
707.313	39125
707.431	38998
707.549	39342
707.668	38710
707.786	38648
707.904	38527
708.022	36169
708.140	38431
708.258	36152
708.376	36724
708.494	36654
708.612	37041
708.730	39199
708.848	50424
708.966	51496
709.084	48853
709.202	47571
709.320	42175
709.438	43818
709.556	44566
709.674	43870
709.791	42895
709.909	42968
710.027	41797
710.145	41299
710.263	41640
710.380	41509
710.498	40826
710.616	40872
710.733	41142
710.851	40930
710.969	41542
711.086	41366
711.204	40282
711.322	40186
711.439	40191
711.557	39950
711.674	39983
711.792	37736
711.909	39478
712.027	39564
712.144	40114
712.262	38196
712.379	37572
712.497	39955
712.614	50248
712.732	54515
712.849	47349
712.966	44025
713.084	47516
713.201	62251
713.318	50992
713.436	47355
713.553	44483
713.670	45319
713.787	44285
713.905	47129
714.022	49314
714.139	44591
714.256	43954
714.373	47544
714.490	52357
714.608	66056
714.725	110017
714.842	408061
714.959	633963
715.076	75756
715.193	47421
715.310	43214
715.427	43429
715.544	39790
715.661	38372
715.778	39395
715.895	38686
716.011	43068
716.128	42041
716.245	39972
716.362	40865
716.479	48029
716.596	57698
716.713	38681
716.829	39834
716.946	37335
717.063	38871
717.180	35311
717.296	36106
717.413	34613
717.530	36206
717.646	36092
717.763	37945
717.880	35824
717.996	34102
718.113	34840
718.229	39009
718.346	34901
718.462	34067
718.579	36069
718.695	45703
718.812	85833
718.928	66460
719.045	44029
719.161	37167
719.277	32817
719.394	32206
719.510	32002
719.626	32851
719.743	32634
719.859	38230
719.975	38189
720.092	48162
720.208	113997
720.324	317151
720.440	74347
720.557	36431
720.673	39056
720.789	61248
720.905	73356
721.021	97366
721.137	55399
721.253	32515
721.369	32187
721.486	33048
721.602	33635
721.718	41781
721.834	31456
721.950	28308
722.066	31634
722.181	31475
722.297	29177
722.413	30733
722.529	30861
722.645	28751
722.761	27562
722.877	27759
722.993	28518
723.108	26869
723.224	29580
723.340	27462
723.456	27860
723.571	27401
723.687	26882
723.803	26842
723.918	26108
724.034	27958
724.150	28245
724.265	26333
724.381	26797
724.497	41214
724.612	60082
724.728	27048
724.843	25202
724.959	24514
725.074	25901
725.190	39355
725.305	53802
725.421	27291
725.536	26904
725.651	24826
725.767	23614
725.882	24127
725.997	22932
726.113	24434
726.228	24421
726.343	24027
726.459	23178
726.574	21907
726.689	24132
726.804	23622
726.920	22784
727.035	23514
727.150	22984
727.265	24034
727.380	22709
727.495	23689
727.610	22378
727.725	22230
727.841	22515
727.956	24137
728.071	28492
728.186	29537
728.301	22862
728.416	22476
728.531	24055
728.645	23583
728.760	21075
728.875	22936
728.990	26795
729.105	23519
729.220	23074
729.335	24767
729.449	26362
729.564	21969
729.679	20011
729.794	19953
729.908	20886
730.023	21736
730.138	20505
730.253	19674
730.367	20185
730.482	20890
730.596	19363
730.711	21783
730.826	21702
730.940	22653
731.055	19919
731.169	21962
731.284	21972
731.398	18922
731.513	19261
731.627	21059
731.742	21443
731.856	22033
731.970	24646
732.085	21064
732.199	23005
732.313	24042
732.428	29746
732.542	49384
732.656	131439
732.771	120855
732.885	30678
732.999	22766
733.113	21544
733.227	22297
733.342	21781
733.456	20529
733.570	19721
733.684	19345
733.798	19310
733.912	19910
734.026	19414
734.140	18646
734.254	18888
734.368	19737
734.482	26032
734.596	34584
734.710	19677
734.824	17957
734.938	18611
735.052	18220
735.166	19488
735.280	21304
735.393	20529
735.507	19436
735.621	17716
735.735	21738
735.849	30872
735.962	22262
736.076	17449
736.190	19793
736.303	18292
736.417	21560
736.531	27966
736.644	18501
736.758	17613
736.872	17168
736.985	16425
737.099	17719
737.212	17049
737.326	16856
737.439	17020
737.553	17272
737.666	17312
737.780	17370
737.893	16870
738.007	16207
738.120	16723
738.233	16462
738.347	16667
738.460	16931
738.573	17494
738.687	19030
738.800	19519
738.913	18716
739.026	25974
739.140	20790
739.253	17022
739.366	16357
739.479	15231
739.592	16199
739.705	15354
739.818	15610
739.932	15762
740.045	14564
740.158	15207
740.271	16937
740.384	15953
740.497	15302
740.610	15650
740.723	16271
740.836	16401
740.949	17471
741.062	17243
741.174	25998
741.287	24987
741.400	16167
741.513	14959
741.626	15814
741.739	17099
741.851	17116
741.964	15868
742.077	15528
742.189	15144
742.302	15614
742.415	16280
742.527	16951
742.640	15436
742.753	15288
742.865	13810
742.978	13880
743.090	15036
743.203	14357
743.316	14302
743.428	14026
743.541	13073
743.653	13796
743.766	12755
743.878	13705
743.990	14128
744.103	15806
744.215	17615
744.327	15216
744.440	15539
744.552	18092
744.664	33049
744.777	21293
744.889	14539
745.001	13984
745.113	13711
745.226	13535
745.338	13090
745.450	12765
745.562	13133
745.674	13506
745.786	12529
745.898	13171
746.010	11941
746.122	12669
746.234	13636
746.347	12957
746.459	12565
746.570	12710
746.682	12481
746.794	12691
746.906	12378
747.018	11640
747.130	11540
747.242	12331
747.354	11584
747.466	12490
747.577	13057
747.689	13927
747.801	12427
747.913	11839
748.024	11673
748.136	11889
748.248	11737
748.359	12217
748.471	11142
748.583	12191
748.694	11686
748.806	11693
748.918	12525
749.029	14299
749.141	13033
749.252	15915
749.364	14179
749.475	17394
749.587	35978
749.698	28386
749.809	12909
749.921	12839
750.032	11973
750.144	11856
750.255	11314
750.366	11623
750.478	11259
750.589	11873
750.700	11945
750.811	14145
750.923	13560
751.034	16397
751.145	36686
751.256	53116
751.367	14601
751.479	12002
751.590	10821
751.701	10765
751.812	10511
751.923	10694
752.034	10978
752.145	11500
752.256	10536
752.367	11520
752.478	9880
752.589	10082
752.700	10222
752.811	9875
752.922	10236
753.032	11648
753.143	12485
753.254	16039
753.365	10992
753.476	10765
753.586	10540
753.697	10539
753.808	10385
753.919	10515
754.029	10380
754.140	10551
754.251	9830
754.361	9860
754.472	9640
754.582	10550
754.693	10671
754.804	10303
754.914	10533
755.025	10037
755.135	9607
755.246	10996
755.356	10201
755.466	9975
755.577	10099
755.687	9464
755.798	9079
755.908	9723
756.018	9536
756.129	9440
756.239	8671
756.349	10220
756.460	9632
756.570	9995
756.680	11000
756.790	10749
756.900	12184
757.011	14271
757.121	10964
757.231	8372
757.341	10058
757.451	10337
757.561	10015
757.671	9556
757.781	9785
757.891	9737
758.001	9380
758.111	10496
758.221	10625
758.331	10973
758.441	13225
758.551	13774
758.661	19043
758.771	21175
758.880	11119
758.990	11761
759.100	10557
759.210	10854
759.320	9784
759.429	10172
759.539	9994
759.649	11053
759.758	10670
759.868	10882
759.978	11300
760.087	10719
760.197	11037
760.307	11217
760.416	10661
760.526	11212
760.635	10593
760.745	10654
760.854	10312
760.964	11062
761.073	10633
761.182	11387
761.292	10900
761.401	11647
761.511	10671
761.620	11520
761.729	10334
761.839	11212
761.948	11091
762.057	10816
762.166	12603
762.276	11379
762.385	10858
762.494	9436
762.603	10214
762.712	10724
762.822	10067
762.931	11054
763.040	10151
763.149	10432
763.258	10391
763.367	10128
763.476	9750
763.585	10338
763.694	10477
763.803	10745
763.912	11029
764.021	11609
764.130	11058
764.238	10910
764.347	11472
764.456	11235
764.565	12542
764.674	12325
764.783	13195
764.891	13216
765.000	12928
765.109	12795
765.217	13450
765.326	13801
765.435	16714
765.543	19412
765.652	18974
765.761	20618
765.869	23587
765.978	31278
766.086	43768
766.195	74514
766.303	138782
766.412	333213
766.520	960470
766.629	1166866
766.737	364886
766.846	114982
766.954	62897
767.062	44254
767.171	33423
767.279	30735
767.387	22750
767.496	20429
767.604	17591
767.712	17330
767.820	15598
767.928	15397
768.037	14700
768.145	14415
768.253	13440
768.361	13913
768.469	13429
768.577	13174
768.685	13913
768.793	13640
768.901	14375
769.009	15491
769.117	15508
769.225	16135
769.333	18800
769.441	25129
769.549	32808
769.657	57839
769.765	120121
769.873	361823
769.981	960939
770.088	508005
770.196	99176
770.304	45723
770.412	31357
770.519	24256
770.627	19894
770.735	17034
770.842	15657
770.950	15779
771.058	15271
771.165	15692
771.273	13512
771.380	13555
771.488	11799
771.595	12529
771.703	13150
771.810	12902
771.918	12044
772.025	11334
772.133	10885
772.240	11620
772.348	11527
772.455	13073
772.562	10928
772.670	11927
772.777	11467
772.884	11645
772.991	11086
773.099	10950
773.206	11168
773.313	10820
773.420	10762
773.528	10324
773.635	9476
773.742	9787
773.849	10626
773.956	10152
774.063	10116
774.170	10464
774.277	10712
774.384	11815
774.491	10364
774.598	11779
774.705	9824
774.812	11891
774.919	15869
775.026	12399
775.133	10727
775.239	11004
775.346	10052
775.453	9738
775.560	9286
775.667	10173
775.773	9007
775.880	9479
775.987	9421
776.093	10400
776.200	9369
776.307	9611
776.413	9432
776.520	9369
776.627	9549
776.733	10344
776.840	9327
776.946	10474
777.053	9638
777.159	9462
777.266	10701
777.372	10046
777.478	10115
777.585	10620
777.691	10050
777.798	9902
777.904	10053
778.010	11230
778.117	15874
778.223	18696
778.329	9369
778.435	9706
778.542	9169
778.648	9015
778.754	8573
778.860	7961
778.966	9137
779.072	9689
779.178	9401
779.284	9320
779.391	8663
779.497	7792
779.603	8574
779.708	8925
779.815	9948
779.920	10074
780.026	16627
780.132	36164
780.238	15118
780.344	9125
780.450	8345
780.556	8672
780.661	8746
780.767	8857
780.873	9274
780.979	9485
781.085	7902
781.190	8563
781.296	8523
781.402	8449
781.507	8099
781.613	8608
781.719	8025
781.824	7956
781.930	8575
782.035	8089
782.141	8449
782.246	8121
782.352	8419
782.457	8081
782.563	8481
782.668	8909
782.773	8136
782.879	9335
782.984	8868
783.090	9281
783.195	11549
783.300	17434
783.405	15386
783.511	9344
783.616	9159
783.721	8194
783.826	8779
783.932	9514
784.037	8089
784.142	8812
784.247	8556
784.352	8507
784.457	8852
784.562	8655
784.667	7341
784.772	8707
784.877	8197
784.982	8465
785.087	7616
785.192	8227
785.297	7582
785.402	8086
785.507	7769
785.611	8257
785.716	7150
785.821	7970
785.926	7196
786.031	8525
786.135	6792
786.240	8050
786.345	7016
786.450	7066
786.554	6581
786.659	7127
786.763	6687
786.868	7030
786.973	7863
787.077	7886
787.182	6449
787.286	6893
787.391	6886
787.495	7477
787.600	7138
787.704	7459
787.809	6569
787.913	7484
788.017	7033
788.122	6818
788.226	6822
788.330	6642
788.435	7077
788.539	7073
788.643	6934
788.747	6621
788.852	5764
788.956	6648
789.060	6518
789.164	7106
789.268	6935
789.372	6032
789.476	5942
789.580	6553
789.684	5845
789.788	6083
789.892	6202
789.996	6554
790.100	6263
790.204	6257
790.308	6651
790.412	7430
790.516	6799
790.620	6282
790.724	7184
790.828	7738
790.931	7033
791.035	6531
791.139	6368
791.242	6761
791.346	6858
791.450	7001
791.554	6236
791.657	6293
791.761	6595
791.864	7107
791.968	6080
792.072	6602
792.175	6586
792.279	6730
792.382	6557
792.486	6462
792.589	6180
792.693	7122
792.796	6567
792.899	7062
793.003	5765
793.106	6394
793.209	5800
793.313	6784
793.416	5645
793.519	6199
793.623	6996
793.726	11218
793.829	20842
793.932	11284
794.035	6371
794.138	6664
794.242	6874
794.345	7274
794.448	8276
794.551	9461
794.654	16574
794.757	19619
794.860	19437
794.963	10762
795.066	7920
795.169	6509
795.272	5876
795.375	6194
795.477	5753
795.580	6092
795.683	5520
795.786	5506
795.889	4903
795.991	6814
796.094	5404
796.197	6051
796.300	6544
796.402	5605
796.505	5377
796.608	5066
796.710	4855
796.813	5240
796.915	5041
797.018	5854
797.120	4993
797.223	5475
797.326	5342
797.428	5401
797.530	5677
797.633	5337
797.735	5915
797.838	6011
797.940	8325
798.042	9538
798.145	5218
798.247	5553
798.349	4765
798.452	5227
798.554	4843
798.656	4956
798.758	4981
798.860	5219
798.962	5065
799.065	5408
799.167	4462
799.269	5472
799.371	5956
799.473	5935
799.575	5967
799.677	7023
799.779	8485
799.881	8082
799.983	15771
800.085	12261
800.187	5601
800.289	5300
800.390	5176
800.492	5715
800.594	5258
800.696	5724
800.798	4841
800.899	5024
801.001	4663
801.103	5141
801.205	3550
801.306	5010
801.408	4950
801.509	4414
801.611	4921
801.713	5374
801.814	4804
801.916	4306
802.017	4499
802.119	4426
802.220	4587
802.322	4451
802.423	5128
802.525	6208
802.626	6572
802.727	5087
802.829	5191
802.930	5199
803.031	6221
803.133	4371
803.234	3586
803.335	5153
803.436	4221
803.538	5392
803.639	4664
803.740	4861
803.841	4208
803.942	4539
804.043	3921
804.144	4858
804.245	4654
804.346	4831
804.447	4644
804.548	6187
804.649	8265
804.750	12752
804.851	5272
804.952	4866
805.053	3952
805.154	4226
805.255	3969
805.355	4143
805.456	3726
805.557	3743
805.658	4065
805.758	4221
805.859	4598
805.960	3901
806.061	3945
806.161	4850
806.262	4295
806.362	4987
806.463	3828
806.564	4343
806.664	3241
806.765	3928
806.865	4377
806.966	6063
807.066	4214
807.166	5194
807.267	4039
807.367	4763
807.468	4246
807.568	4572
807.668	4055
807.769	4151
807.869	3693
807.969	4874
808.069	4094
808.170	4099
808.270	4453
808.370	4287
808.470	5803
808.570	6857
808.670	9499
808.770	4859
808.870	3025
808.970	4409
809.070	4205
809.170	4345
809.271	3675
809.370	3880
809.470	3679
809.570	3878
809.670	3921
809.770	4702
809.870	4165
809.970	5116
810.070	3668
810.169	4008
810.269	2970
810.369	3897
810.469	2884
810.568	3668
810.668	3667
810.768	2669
810.867	3987
810.967	3683
811.066	3843
811.166	2853
811.265	3705
811.365	4181
811.464	3945
811.564	3396
811.663	4251
811.763	5246
811.862	4492
811.962	4330
812.061	3780
812.160	4602
812.260	4395
812.359	5708
812.458	7511
812.557	14554
812.657	33281
812.756	73455
812.855	31257
812.954	8420
813.053	5106
813.153	4781
813.252	4237
813.351	5023
813.450	4553
813.549	4241
813.648	3873
813.747	4204
813.846	3065
813.945	4396
814.044	4267
814.143	4320
814.242	4249
814.341	3849
814.439	4072
814.538	4763
814.637	3976
814.736	4294
814.835	3430
814.933	4897
815.032	4272
815.131	5440
815.229	4964
815.328	5079
815.427	5062
815.525	5772
815.624	5755
815.722	5037
815.821	4801
815.919	5350
816.018	4945
816.116	6090
816.215	6464
816.313	6590
816.412	5622
816.510	5483
816.609	6825
816.707	6229
816.805	6474
816.904	7455
817.002	6726
817.100	7192
817.198	8255
817.296	8781
817.395	8888
817.493	10106
817.591	10985
817.689	12151
817.787	15033
817.885	19748
817.983	27296
818.081	48102
818.179	93587
818.277	216674
818.375	526527
818.473	672610
818.571	227315
818.669	74972
818.767	44486
818.865	37154
818.963	35598
819.061	41011
819.158	55560
819.256	89389
819.354	176275
819.452	387188
819.549	864269
819.647	825416
819.745	279897
819.842	104634
819.940	58936
820.038	40456
820.135	29162
820.233	24144
820.330	19022
820.428	16547
820.525	13056
820.623	12480
820.720	11068
820.818	11686
820.915	9887
821.012	9038
821.110	7881
821.207	8054
821.304	7417
821.402	6992
821.499	7653
821.596	6799
821.693	6951
821.791	7780
821.888	7472
821.985	11278
822.082	18881
822.179	24572
822.276	8125
822.373	6693
822.470	6211
822.567	5198
822.664	5421
822.761	5617
822.858	4618
822.955	5379
823.052	5006
823.149	4883
823.246	5132
823.343	5618
823.440	4784
823.536	4352
823.633	3774
823.730	5089
823.827	4446
823.923	4204
824.020	4848
824.117	4384
824.213	3740
824.310	5431
824.407	3640
824.503	4771
824.600	4010
824.696	4208
824.793	4021
824.889	4659
824.986	4335
825.082	4747
825.179	3824
825.275	4796
825.371	3166
825.468	4549
825.564	3820
825.660	3957
825.757	3347
825.853	4536
825.949	3915
826.045	3397
826.142	2416
826.238	3455
826.334	3777
826.430	3484
826.526	3039
826.622	3298
826.718	3184
826.814	3657
826.910	4135
827.006	3534
827.102	3208
827.198	3007
827.294	3448
827.390	4394
827.486	3644
827.582	2998
827.678	2533
827.774	3662
827.869	3459
827.965	3771
828.061	3293
828.157	3539
828.252	3731
828.348	3517
828.444	3225
828.539	3317
828.635	2461
828.731	3324
828.826	3219
828.922	2727
829.017	2804
829.113	3325
829.208	2844
829.304	4199
829.399	3691
829.495	4841
829.590	3204
829.685	3495
829.781	3380
829.876	3429
829.971	3528
830.066	2801
830.162	2488
830.257	2797
830.352	4123
830.447	4069
830.543	3345
830.638	3859
830.733	3709
830.828	3896
830.923	3499
831.018	2663
831.113	3475
831.208	3249
831.303	3884
831.398	3240
831.493	2183
831.588	3668
831.683	2514
831.778	2739
831.873	2536
831.967	2804
832.062	2918
832.157	2980
832.252	3680
832.346	3892
832.441	4167
832.536	5396
832.631	8133
832.725	16195
832.820	24249
832.914	6026
833.009	2337
833.104	4289
833.198	5034
833.293	7285
833.387	4958
833.482	3808
833.576	3129
833.670	3477
833.765	3439
833.859	4253
833.954	4097
834.048	5251
834.142	3698
834.237	3417
834.331	2723
834.425	2717
834.519	3134
834.613	3445
834.708	2990
834.802	2947
834.896	2872
834.990	3168
835.084	2349
835.178	3925
835.272	2641
835.366	2267
835.460	2958
835.554	3697
835.648	2717
835.742	2718
835.836	2206
835.930	3211
836.024	2747
836.117	3739
836.211	3270
836.305	4055
836.399	3609
836.493	5902
836.586	4872
836.680	3451
836.774	2170
836.867	2940
836.961	2318
837.055	3867
837.148	2571
837.242	2340
837.335	2682
837.429	2895
837.522	1760
837.616	2921
837.709	3835
837.803	5373
837.896	5844
837.989	3739
838.083	3378
838.176	4348
838.269	5884
838.363	9183
838.456	4851
838.549	4467
838.642	5960
838.735	10693
838.829	22559
838.922	15783
839.015	3728
839.108	3122
839.201	2982
839.294	3449
839.387	3060
839.480	3257
839.573	3559
839.666	3746
839.759	4947
839.852	3366
839.945	2470
840.038	2943
840.131	3020
840.223	3081
840.316	3806
840.409	2802
840.502	2552
840.594	3912
840.687	2416
840.780	2399
840.873	2239
840.965	2786
841.058	3074
841.150	3622
841.243	5406
841.336	7026
841.428	3343
841.521	2986
841.613	2801
841.706	3923
841.798	2675
841.890	3064
841.983	2513
842.075	3297
842.167	2879
842.260	3668
842.352	3476
842.444	3997
842.537	4800
842.629	6603
842.721	10339
842.813	5806
842.905	2458
842.997	2665
843.090	2136
843.182	3522
843.274	4291
843.366	8145
843.458	12302
843.550	25105
843.642	23430
843.734	7553
843.826	3076
843.918	4640
844.009	3897
844.101	3539
844.193	2698
844.285	2676
844.377	3174
844.469	3691
844.560	2703
844.652	3306
844.744	3637
844.835	2961
844.927	2686
845.019	3001
845.110	3215
845.202	3623
845.293	3111
845.385	2900
845.476	2641
845.568	3311
845.659	2672
845.751	2752
845.842	2612
845.934	2605
846.025	2219
846.116	2620
846.208	2151
846.299	1806
846.390	2086
846.482	3024
846.573	2286
846.664	4525
846.755	5167
846.846	7947
846.937	8341
847.029	3535
847.120	2259
847.211	2776
847.302	3627
847.393	2744
847.484	2687
847.575	2055
847.666	2413
847.757	2048
847.847	2354
847.938	2922
848.029	1744
848.120	2567
848.211	1297
848.302	2986
848.392	1883
848.483	2494
848.574	2249
848.664	1936
848.755	2366
848.846	3094
848.936	2103
849.027	2369
849.118	2643
849.208	2974
849.299	2579
849.389	3074
849.480	4162
849.570	6929
849.661	11702
849.751	17610
849.841	35302
849.932	22386
850.022	4837
850.112	3118
850.203	2368
850.293	2809
850.383	2495
850.474	2740
850.564	2074
850.654	2544
850.744	1881
850.834	2914
850.924	2492
851.014	2236
851.104	2604
851.194	3056
851.284	2831
851.374	5288
851.464	7187
851.554	5037
851.644	3061
851.734	2965
851.824	3966
851.914	4235
852.004	2886
852.094	2347
852.183	1905
852.273	2641
852.363	1772
852.452	2667
852.542	1988
852.632	2454
852.721	3056
852.811	2275
852.901	3165
852.990	2106
853.080	2509
853.169	2305
853.259	2126
853.348	2853
853.438	2458
853.527	3765
853.617	3978
853.706	5411
853.795	8088
853.885	16021
853.974	31836
854.063	64254
854.152	101715
854.242	207280
854.331	126678
854.420	22095
854.509	8492
854.598	5729
854.687	4978
854.777	4530
854.866	4510
854.955	4095
855.044	2827
855.133	2671
855.222	2445
855.311	3279
855.400	2778
855.488	3314
855.577	2386
855.666	3146
855.755	3188
855.844	2410
855.933	3576
856.021	3495
856.110	2967
856.199	2753
856.288	1523
856.376	2583
856.465	2431
856.554	2672
856.642	1726
856.731	2723
856.819	1748
856.908	2760
856.996	2242
857.085	2744
857.173	2779
857.262	2309
857.350	2006
857.438	2816
857.527	1654
857.615	2639
857.703	2043
857.792	2049
857.880	2189
857.968	1398
858.056	2064
858.145	2132
858.233	2755
858.321	2247
858.409	2097
858.497	2342
858.585	2310
858.673	2463
858.761	1473
858.849	2135
858.937	1806
859.025	2027
859.113	2702
859.201	2728
859.289	2695
859.377	2294
859.465	2478
859.552	1910
859.640	1592
859.728	2244
859.816	2431
859.903	2602
859.991	1812
860.079	2426
860.166	2230
860.254	2172
860.342	2042
860.429	2318
860.517	1470
860.604	2547
860.692	1782
860.779	1912
860.867	1568
860.954	3089
861.042	2700
861.129	3489
861.216	4599
861.304	3561
861.391	2179
861.478	1730
861.565	2393
861.653	2561
861.740	1924
861.827	3047
861.914	1207
862.001	1742
862.089	1821
862.176	3127
862.263	2581
862.350	1665
862.437	2167
862.524	2640
862.611	1309
862.698	2357
862.785	2080
862.871	1694
862.958	1333
863.045	2450
863.132	1937
863.219	1838
863.306	1503
863.392	1642
863.479	2089
863.566	2759
863.652	2415
863.739	2047
863.826	2103
863.912	2255
863.999	1245
864.086	2331
864.172	1402
864.259	2145
864.345	1543
864.432	2210
864.518	2311
864.604	2419
864.691	2401
864.777	2580
864.863	2087
864.950	2609
865.036	1714
865.122	3408
865.209	3942
865.295	4354
865.381	4330
865.467	4051
865.553	4234
865.639	4875
865.726	6549
865.812	10035
865.898	16993
865.984	34107
866.070	51996
866.156	82451
866.242	131785
866.328	53591
866.414	10401
866.499	5745
866.585	4154
866.671	4770
866.757	3787
866.843	4231
866.928	3507
867.014	3352
867.100	2812
867.186	4411
867.271	4129
867.357	4410
867.442	5479
867.528	7354
867.614	3891
867.699	3210
867.785	2401
867.870	2647
867.956	2268
868.041	3505
868.127	3471
868.212	3428
868.297	4187
868.383	4209
868.468	3890
868.553	6108
868.639	10345
868.724	14318
868.809	20304
868.894	32236
868.979	11020
869.065	3749
869.150	2474
869.235	3169
869.320	2415
869.405	2950
869.490	2264
869.575	2720
869.660	2866
869.745	3063
869.830	2187
869.915	3605
870.000	2213
870.085	2417
870.169	2771
870.254	3091
870.339	2457
870.424	2722
870.509	2529
870.593	2145
870.678	2531
870.763	2766
870.847	2963
870.932	2388
871.016	2673
871.101	3256
871.186	1929
871.270	3025
871.355	2628
871.439	2908
871.523	2881
871.608	2572
871.692	2056
871.777	2640
871.861	2265
871.945	2765
872.030	1649
872.114	2337
872.198	2427
872.282	2280
872.367	2385
872.451	2201
872.535	2172
872.619	2632
872.703	2219
872.787	2138
872.871	2484
872.955	2424
873.039	2060
873.123	1999
873.207	2215
873.291	2036
873.375	1781
873.459	3139
873.543	1961
873.627	2232
873.711	1588
873.794	2384
873.878	2630
873.962	2479
874.045	2089
874.129	2022
874.137	2047
874.213	2294
874.245	2206
874.296	2061
874.352	1750
874.380	1609
874.460	2352
874.464	2380
874.547	1753
874.568	1747
874.631	1752
874.676	2115
874.714	2431
874.784	2226
874.798	2184
874.881	2903
874.892	2812
874.965	2146
874.999	1864
875.048	1499
875.107	1888
875.131	2040
875.215	2488
875.215	2488
875.298	1944
875.323	1875
875.381	1674
875.430	2426
875.465	2989
875.538	2177
875.548	2057
875.631	2169
875.646	2251
875.714	2682
875.753	2499
875.798	2311
875.861	1896
875.881	1757
875.964	2417
875.968	2418
876.047	2400
876.076	2546
876.130	2851
876.183	3027
876.213	3125
876.291	3216
876.296	3221
876.379	3207
876.398	3180
876.462	3049
876.506	2457
876.545	1973
876.613	1865
876.628	1821
876.711	1845
876.721	1883
876.794	2269
876.828	2191
876.877	2085
876.935	2336
876.960	2427
877.043	2104
877.043	2106
877.125	2590
877.150	2406
877.208	2103
877.258	2821
877.291	3209
877.365	3112
877.374	3112
877.456	3768
877.472	3540
877.539	2506
877.579	2570
877.622	2677
877.687	2346
877.704	2261
877.787	2849
877.794	2820
877.869	2445
877.901	2600
877.952	2750
878.008	2552
878.034	2585
878.115	2585
878.117	2576
878.199	2184
878.222	2263
878.282	2783
878.329	2524
878.364	2129
878.437	2139
878.447	2180
878.529	1806
878.544	1914
878.611	2288
878.651	2144
878.694	2100
878.758	1865
878.776	1739
878.858	1667
878.865	1696
878.941	2116
878.972	1977
879.023	1763
879.078	2098
879.105	2234
879.185	2110
879.187	2108
879.269	2199
879.292	2290
879.351	2415
879.399	2265
879.433	2175
879.506	1979
879.516	1966
879.598	1594
879.613	1603
879.680	1433
879.720	1486
879.762	1672
879.827	1839
879.844	1869
879.926	2104
879.933	2073
880.007	1556
880.040	1698
880.089	2126
880.147	3145
880.171	3572
880.253	5349
880.254	5378
880.335	9675
880.360	11596
880.417	15748
880.467	17754
880.499	19970
880.574	29012
880.580	29567
880.662	46716
880.680	42266
880.744	23192
880.787	12914
880.825	5452
880.893	2888
880.907	2371
880.989	1474
881.000	1445
881.070	1985
881.106	2080
881.152	1786
881.213	1540
881.233	1559
881.315	1320
881.319	1350
881.396	1730
881.426	1565
881.478	1216
881.532	1480
881.559	1675
881.639	956
881.641	938
881.722	1290
881.745	1305
881.803	1206
881.852	1349
881.885	1477
881.958	1470
881.966	1451
882.047	1644
882.064	1764
882.129	2670
882.171	3147
882.210	3420
882.277	3215
882.291	3261
882.372	6816
882.383	6686
882.454	4721
882.489	3473
882.535	2078
882.596	1260
882.616	1057
882.697	1541
882.702	1526
882.778	1372
882.808	1445
882.859	1524
882.914	1402
882.940	1281
883.020	1460
883.021	1461
883.102	1248
883.127	1198
883.183	1213
883.233	1229
883.264	1353
883.339	1516
883.345	1485
883.426	1363
883.445	1334
883.507	1023
883.551	678
883.587	792
883.657	846
883.668	856
883.749	1613
883.763	1736
883.830	1756
883.869	1541
883.910	1410
883.975	957
883.991	932
884.072	1214
884.081	1250
884.152	1173
884.187	1094
884.233	1132
884.292	1537
884.314	1525
884.394	848
884.398	827
884.475	573
884.504	476
884.555	639
884.610	948
884.636	1014
884.716	746
884.716	743
884.797	781
884.821	746
884.877	881
884.927	974
884.958	984
885.033	779
885.038	774
885.118	1015
885.139	1052
885.199	1113
885.244	1189
885.279	986
885.350	410
885.359	441
885.439	860
885.456	927
885.520	1148
885.561	1439
885.600	1350
885.667	871
885.680	856
885.760	1007
885.773	1012
885.840	1071
885.878	1190
885.920	1046
885.984	754
886.000	813
886.080	1112
886.089	1137
886.160	1154
886.195	1187
886.240	1079
886.300	1024
886.320	1027
886.400	1068
886.406	1059
886.480	1119
886.511	1189
886.560	1411
886.616	1888
886.640	1863
886.720	1332
886.722	1322
886.800	1276
886.827	1382
886.879	1168
886.932	764
886.959	738
887.038	1114
887.039	1111
887.119	749
887.143	724
887.198	858
887.248	806
887.278	762
887.354	829
887.358	840
887.437	1142
887.459	1200
887.517	1121
887.564	1078
887.596	1184
887.669	1370
887.676	1291
887.755	327
887.774	103
887.835	535
887.880	876
887.914	644
887.985	124
887.994	205
888.073	953
888.090	1130
888.153	1060
888.195	956
888.232	1169
888.300	1631
888.311	1556
888.391	938
888.405	839
888.470	651
888.510	526
888.549	628
888.615	783
888.628	806
888.708	974
888.720	1011
888.787	1191
888.825	1243
888.866	1076
888.930	919
888.945	841
889.024	367
889.035	306
889.103	917
889.140	1266
889.182	890
889.245	338
889.261	491
889.340	1216
889.349	1303
889.419	806
889.454	550
889.498	533
889.559	520
889.577	530
889.656	586
889.664	597
889.735	957
889.768	1122
889.814	1142
889.873	1175
889.978	1331
890.083	1600
890.187	877
890.292	519
890.397	488
890.501	1342
890.606	870
890.710	1009
890.815	327
890.919	313
891.024	962
891.128	727
891.233	807
891.337	1187
891.442	965
891.546	265
891.650	993
891.755	214
891.859	2090
891.963	800
892.068	1292
892.172	419
892.276	1051
892.380	645
892.484	1317
892.589	930
892.693	1577
892.797	799
892.901	728
893.005	-251
893.109	896
893.213	1529
893.317	1086
893.421	1168
893.525	889
893.629	847
893.733	469
893.837	1140
893.941	1543
894.045	921
894.148	998
894.252	1137
894.356	871
894.460	725
894.564	1024
894.667	805
894.771	873
894.875	363
894.978	583
895.082	1158
895.186	997
895.289	1948
895.393	910
895.496	363
895.600	1360
895.703	486
895.807	797
895.910	609
896.014	708
896.117	785
896.221	953
896.324	830
896.427	1131
896.531	458
896.634	1049
896.737	629
896.840	918
896.944	866
897.047	1199
897.150	877
897.253	943
897.356	1633
897.460	1191
897.563	1077
897.666	1117
897.769	1632
897.872	921
897.975	1218
898.078	1029
898.181	541
898.284	645
898.387	436
898.490	1659
898.593	1138
898.695	173
898.798	785
898.901	1202
899.004	886
899.107	821
899.209	725
899.312	931
899.415	113
899.518	590
899.620	764
899.723	1115
899.826	1298
899.928	2095
900.031	2185
900.133	597
900.236	849
900.338	852
900.441	1562
900.543	844
900.646	293
900.748	213
900.851	985
900.953	-30
901.055	1184
901.158	1013
901.260	1253
901.362	1135
901.465	473
901.567	320
901.669	550
901.771	614
901.873	687
901.976	21
902.078	730
902.180	624
902.282	320
902.384	828
902.486	656
902.588	646
902.690	409
902.792	572
902.894	313
902.996	1340
903.098	557
903.200	546
903.302	647
903.404	-59
903.505	643
903.607	434
903.709	1176
903.811	618
903.913	1313
904.014	1124
904.116	539
904.218	100
904.319	964
904.421	1184
904.523	785
904.624	1211
904.726	1146
904.827	243
904.929	151
905.030	649
905.132	175
905.233	1260
905.335	685
905.436	408
905.537	399
905.639	1249
905.740	639
905.841	60
905.943	657
906.044	526
906.145	1241
906.247	509
906.348	75
906.449	458
906.550	1224
906.651	1166
906.752	181
906.854	354
906.955	-260
907.056	759
907.157	270
907.258	288
907.359	506
907.460	558
907.561	-50
907.662	536
907.762	435
907.863	535
907.964	385
908.065	1492
908.166	684
908.267	364
908.367	705
908.468	1387
908.569	373
908.670	556
908.770	1321
908.871	1044
908.971	825
909.072	1081
909.173	454
909.273	171
909.374	430
909.474	979
909.575	935
909.675	691
909.776	622
909.876	17
909.977	823
910.077	680
910.177	229
910.278	624
910.378	571
910.478	768
910.579	91
910.679	262
910.779	471
910.879	972
910.980	-38
911.080	768
911.180	813
911.280	109
911.380	110
911.480	575
911.580	-153
911.680	1308
911.780	680
911.880	1044
911.980	767
912.080	51
912.180	1266
912.280	337
912.380	232
912.480	864
912.580	315
912.679	600
912.779	787
912.879	1106
912.979	347
913.078	26
913.178	762
913.278	-802
913.377	511
913.477	598
913.577	434
913.676	893
913.776	860
913.875	847
913.975	-229
914.074	188
914.174	659
914.273	892
914.373	816
914.472	683
914.572	-369
914.671	263
914.770	116
914.870	873
914.969	-85
915.068	316
915.167	481
915.267	-36
915.366	-174
915.465	626
915.564	-577
915.663	-467
915.763	426
915.862	-199
915.961	110
916.060	-406
916.159	246
916.258	713
916.357	-124
916.456	310
916.555	304
916.654	313
916.752	113
916.851	344
916.950	977
917.049	33
917.148	-458
917.247	287
917.345	-72
917.444	466
917.543	596
917.642	416
917.740	277
917.839	258
917.937	856
918.036	55
918.135	637
918.233	-199
918.332	167
918.430	266
918.529	390
918.627	841
918.726	863
918.824	1254
918.923	257
919.021	-49
919.119	-142
919.218	243
919.316	-42
919.414	353
919.512	259
919.611	507
919.709	439
919.807	645
919.905	-559
920.003	173
920.102	316
920.200	475
920.298	251
920.396	598
920.494	848
920.592	616
920.690	833
920.788	807
920.886	-11
920.984	231
921.082	220
921.180	1
921.277	440
921.375	-121
921.473	1033
921.571	1560
921.669	426
921.766	704
921.864	1264
921.962	1263
922.060	718
922.157	367
922.255	1295
922.352	1337
922.450	696
922.548	33
922.645	615
922.743	782
922.840	1065
922.938	1514
923.035	1879
923.133	1203
923.230	1065
923.327	1559
923.425	1375
923.522	1662
923.619	1398
923.717	901
923.814	1339
923.911	874
924.008	1936
924.106	1176
924.203	1044
924.300	762
924.397	1446
924.494	1672
924.591	1643
924.688	1415
924.786	1792
924.883	1169
924.979	1748
925.077	814
925.173	1075
925.270	-57
925.367	999
925.464	1501
925.561	1516
925.658	1246
925.755	1099
925.852	1799
925.948	1221
926.045	1399
926.142	701
926.239	1514
926.335	1504
926.432	515
926.529	2118
926.625	1269
926.722	955
926.818	1322
926.915	1472
927.011	519
927.108	1483
927.204	1179
927.301	982
927.397	992
927.494	513
927.590	1257
927.687	409
927.783	346
927.879	1112
927.976	1330
928.072	1305
928.168	1187
928.264	1448
928.361	1144
928.457	1489
928.553	375
928.649	1588
928.745	694
928.841	1422
928.937	1013
929.033	1543
929.129	1373
929.225	635
929.321	1034
929.417	513
929.513	1076
929.609	1408
929.705	1268
929.801	569
929.897	1100
929.993	919
930.089	1120
930.184	823
930.280	706
930.376	432
930.471	1220
930.567	1470
930.663	822
930.758	1086
930.854	1196
930.950	329
931.045	464
931.141	1015
931.236	1018
931.332	1128
931.427	950
931.523	340
931.618	942
931.714	540
931.809	372
931.905	375
932.000	1465
932.095	185
932.191	1060
932.286	335
932.381	890
932.476	124
932.572	550
932.667	600
932.762	39
932.857	768
932.952	1189
933.047	289
933.142	-37
933.237	343
933.332	376
933.427	1246
933.522	714
933.617	386
933.712	1339
933.807	1424
933.902	1243
933.997	1275
934.092	-158
934.187	913
934.282	1016
934.376	276
934.471	382
934.566	548
934.661	524
934.755	186
934.850	218
934.945	576
935.039	158
935.134	560
935.228	442
935.323	734
935.417	992
935.512	591
935.606	-28
935.701	492
935.795	738
935.890	498
935.984	760
936.079	-46
936.173	237
936.267	364
936.362	584
936.456	854
936.550	882
936.644	190
936.738	687
936.833	-344
936.927	669
937.021	-238
937.115	1249
937.209	190
937.303	985
937.397	396
937.491	291
937.585	-235
937.679	131
937.773	-128
937.867	300
937.961	910
938.055	683
938.149	658
938.243	234
938.337	-230
938.430	819
938.524	55
938.618	547
938.712	782
938.805	1696
938.899	394
938.993	1266
939.086	777
939.180	-98
939.274	587
939.367	670
939.461	591
939.554	640
939.648	670
939.741	510
939.835	109
939.928	588
940.022	123
940.115	1122
940.208	480
940.302	617
940.395	525
940.488	878
940.582	337
940.675	-28
940.768	413
940.861	902
940.954	-43
941.048	987
941.141	91
941.234	65
941.327	1125
941.420	936
941.513	1771
941.606	-2
941.699	220
941.792	790
941.885	-113
941.978	379
942.071	363
942.164	130
942.257	474
942.349	623
942.442	-1017
942.535	43
942.628	-512
942.721	446
942.813	211
942.906	318
942.999	905
943.091	191
943.184	-115
943.277	-371
943.369	14
943.462	446
943.554	916
943.647	-266
943.739	442
943.832	148
943.924	-473
944.017	-58
944.109	-233
944.201	96
944.294	-209
944.386	919
944.478	-197
944.571	476
944.663	43
944.755	-128
944.847	-60
944.940	471
945.032	459
945.124	227
945.216	903
945.308	477
945.400	89
945.492	108
945.584	81
945.676	515
945.768	1372
945.860	165
945.952	313
946.044	569
946.136	31
946.228	194
946.320	-155
946.412	109
946.503	649
946.595	864
946.687	172
946.779	256
946.870	-62
946.962	709
947.054	141
947.145	152
947.237	-8
947.329	235
947.420	-304
947.512	-202
947.603	-604
947.695	593
947.786	166
947.878	-1053
947.969	92
948.061	-466
948.152	-90
948.243	262
948.335	-28
948.426	-335
948.517	-149
948.609	464
948.700	-95
948.791	-586
948.882	72
948.973	-524
949.065	-163
949.156	-409
949.247	311
949.338	-573
949.429	-420
949.520	-749
949.611	243
949.702	354
949.793	-366
949.884	426
949.975	-259
950.066	-121
950.157	-193
950.247	-499
950.338	-438
950.429	-542
950.520	201
950.611	-169
950.701	56
950.792	-450
950.883	-228
950.973	-236
951.064	427
951.155	46
951.245	97
951.336	357
951.427	-395
951.517	197
951.608	130
951.698	231
951.788	79
951.879	-422
951.969	403
952.060	-1060
952.150	109
952.240	-445
952.331	-757
952.421	406
952.511	-814
952.602	-352
952.692	334
952.782	-594
952.872	73
952.962	-645
953.052	301
953.143	131
953.233	439
953.323	405
953.413	435
953.503	-83
953.593	-87
953.683	-3
953.773	-434
953.863	-943
953.953	84
954.042	292
954.132	-53
954.222	515
954.312	-147
954.402	120
954.492	443
954.581	-188
954.671	132
954.761	715
954.850	-141
954.940	426
955.030	-381
955.119	-893
955.209	-424
955.298	-139
955.388	48
955.477	-525
955.567	-532
955.656	-85
955.746	-551
955.835	-309
955.925	-257
956.014	57
956.103	-392
956.193	-468
956.282	25
956.371	-1018
956.461	58
956.550	-580
956.639	-500
956.728	31
956.817	603
956.906	-857
956.995	578
957.085	-23
957.174	-742
957.263	373
957.352	-595
957.441	-582
957.530	-1141
957.619	706
957.708	-836
957.796	2
957.885	-1130
957.974	181
958.063	-275
958.152	-1114
958.241	-480
958.329	-733
958.418	-206
958.507	-366
958.596	48
958.684	212
958.773	-393
958.861	-252
958.950	-247
959.039	-207
959.127	-665
959.216	572
959.304	-308
959.393	-33
959.481	56
959.570	268
959.658	-174
959.746	-346
959.835	18
959.923	330
960.011	1787
960.100	715
960.188	-205
960.276	-587
960.365	-1090
960.453	-235
960.541	-7
960.629	-279
960.717	-39
960.805	-339
960.893	-185
960.981	-267
961.069	263
961.158	-12
961.245	-1083
961.333	61
961.421	392
961.509	-147
961.597	-445
961.685	573
961.773	-526
961.861	-451
961.949	-169
962.036	-384
962.124	-589
962.212	-537
962.299	-43
962.387	91
962.475	-308
962.562	-378
962.650	-442
962.738	-693
962.825	34
962.913	-99
963.000	-960
963.088	-146
963.175	-152
963.263	179
963.350	1592
963.438	45
963.525	636
963.612	56
963.700	989
963.787	2703
963.874	6662
963.962	3555
964.049	-626
964.136	-103
964.223	-509
964.310	-521
964.398	-557
964.485	-278
964.572	-169
964.659	14
964.746	448
964.833	194
964.920	33
965.007	-623
965.094	225
965.181	0
965.268	-186
965.355	-1160
965.441	-261
965.528	-427
965.615	-712
965.702	-526
965.789	-72
965.875	-505
965.962	-527
966.049	238
966.136	138
966.222	-692
966.309	-478
966.395	-230
966.482	-458
966.569	-232
966.655	-520
966.742	0
966.828	-455
966.915	-726
967.001	-567
967.087	-458
967.174	-701
967.260	-148
967.347	-125
967.433	314
967.519	1598
967.605	3682
967.692	999
967.778	-304
967.864	-561
967.950	-807
968.036	-415
968.123	102
968.209	-186
968.295	-611
968.381	54
968.467	-1067
968.553	-556
968.639	-43
968.725	175
968.811	55
968.897	919
968.983	594
969.069	-419
969.154	-438
969.240	-535
969.326	-154
969.412	-1458
969.497	-296
969.583	-923
969.669	-439
969.755	-905
969.840	-801
969.926	-231
970.012	-388
970.097	-73
970.183	-225
970.268	384
970.354	64
970.439	111
970.525	264
970.610	1708
970.696	722
970.781	-684
970.866	-1006
970.952	-116
971.037	-1134
971.122	-679
971.208	-270
971.293	-486
971.378	-398
971.463	-375
971.549	248
971.634	-685
971.719	-301
971.804	-1134
971.889	144
971.974	-454
972.059	-157
972.144	-382
972.229	-494
972.314	-586
972.399	235
972.484	-352
972.569	-352
972.654	88
972.739	231
972.824	478
972.908	711
972.993	-885
973.078	711
973.163	-858
973.247	-664
973.332	-1003
973.417	-377
973.501	-139
973.586	-771
973.671	-948
973.755	-668
973.840	451
973.924	160
974.009	48
974.093	-333
974.178	-127
974.262	-194
974.346	482
974.431	1055
974.515	-13
974.600	-690
974.684	612
974.768	-554
974.852	284
974.937	-352
975.021	-293
975.105	-452
975.189	-800
975.273	-786
975.358	-1199
975.442	-243
975.526	-209
975.610	-730
975.694	-1286
975.778	-655
975.862	-944
975.946	-1217
976.030	-411
976.114	-161
976.198	-573
976.281	-863
976.365	-639
976.449	-503
976.533	-749
976.617	-152
976.700	-514
976.784	-517
976.868	-997
976.951	343
977.035	-786
977.119	-142
977.202	-327
977.286	-814
977.369	-187
977.453	-316
977.536	-305
977.620	-271
977.703	-446
977.787	-142
977.870	-28
977.953	66
978.037	-646
978.120	-865
978.203	-592
978.287	311
978.370	668
978.453	72
978.536	-637
978.620	65
978.703	-649
978.786	234
978.869	-203
978.952	-356
979.035	-176
979.118	-673
979.201	313
979.284	-740
979.367	-433
979.450	-1369
979.533	-718
979.616	-402
979.699	-549
979.782	-1479
979.865	-1064
979.948	132
980.030	-876
980.113	-444
980.196	-1021
980.279	445
980.361	66
980.444	-658
980.526	-865
980.609	-426
980.692	-760
980.774	288
980.857	-638
980.939	-555
981.022	-563
981.104	375
981.187	-606
981.269	739
981.352	-730
981.434	-386
981.516	-900
981.599	-324
981.681	-1022
981.763	-752
981.846	-1303
981.928	-671
982.010	-1001
982.092	-640
982.174	-594
982.256	-1850
982.339	-634
982.421	-435
982.503	-946
982.585	-424
982.667	-794
982.749	-426
982.831	-1145
982.913	-812
982.995	-509
983.077	-1341
983.158	-297
983.240	-783
983.322	-401
983.404	-209
983.486	-666
983.568	-93
983.649	-567
983.731	-800
983.813	-953
983.894	-128
983.976	-759
984.058	-1336
984.139	-540
984.221	-472
984.302	-690
984.384	-315
984.465	-1197
984.547	-17
984.628	-1293
984.710	99
984.791	-573
984.872	-467
984.954	-685
985.035	-947
985.116	-836
985.198	-573
985.279	-1337
985.360	-739
985.441	-1156
985.522	177
985.604	-164
985.685	-1580
985.766	-819
985.847	-720
985.928	-822
986.009	-808
986.090	-306
986.171	-748
986.252	-1005
986.333	-360
986.414	-92
986.495	-225
986.576	-580
986.656	-309
986.737	-496
986.818	-1031
986.899	-447
986.980	-453
987.060	-132
987.141	-486
987.222	-387
987.302	-679
987.383	-505
987.464	-783
987.544	-122
987.625	1241
987.705	-214
987.786	90
987.866	-1062
987.947	-1151
988.027	-379
988.108	-627
988.188	-464
988.268	-47
988.349	-778
988.429	-1580
988.509	-689
988.589	-278
988.670	-1208
988.750	780
988.830	-521
988.910	-498
988.990	-736
989.070	-146
989.151	-1429
989.231	-941
989.311	-627
989.391	-49
989.471	-1221
989.551	-1247
989.631	-785
989.711	-150
989.791	-777
989.870	-726
989.950	-855
990.030	-395
990.110	-805
990.190	-1109
990.269	-1218
990.349	-1057
990.429	-912
990.509	-72
990.588	-399
990.668	-963
990.747	-992
990.827	-106
990.907	-555
990.986	-874
991.066	-811
991.145	203
991.225	-1202
991.304	-1043
991.383	-298
991.463	-1266
991.542	-1398
991.622	-896
991.701	-645
991.780	-467
991.859	-901
991.939	-303
992.018	-965
992.097	-781
992.176	-425
992.256	-1047
992.335	-1540
992.414	-804
992.493	-16
992.572	-496
992.651	-644
992.730	-1507
992.809	-937
992.888	-1215
992.967	-1266
993.046	-1261
993.125	-1157
993.203	-215
993.282	-729
993.361	-847
993.440	-1283
993.519	-970
993.597	-701
993.676	-289
993.755	-1082
993.834	-1045
993.912	-1008
993.991	-839
994.069	-567
994.148	-796
994.226	-1673
994.305	-229
994.384	-1304
994.462	-14
994.540	-611
994.619	-818
994.697	-699
994.776	-1265
994.854	-798
994.932	-1470
995.011	-1368
995.089	-291
995.167	-1562
995.245	-414
995.324	-1058
995.402	-791
995.480	-734
995.558	-1033
995.636	-1467
995.714	-1166
995.792	-760
995.870	-1181
995.948	-536
996.026	-347
996.104	-1438
996.182	-838
996.260	-470
996.338	-1169
996.416	-947
996.494	-865
996.572	-1074
996.649	-836
996.727	-1497
996.805	-1344
996.883	-1436
996.960	-963
997.038	-1165
997.116	-1074
997.193	-1922
997.271	-1090
997.348	-316
997.426	-973
997.504	-1663
997.581	-967
997.658	-818
997.736	-924
997.813	-1007
997.891	-673
997.968	-1103
998.046	-1014
998.123	-481
998.200	-940
998.277	-1479
998.355	-1016
998.432	-1276
998.509	-599
998.586	-1358
998.663	-1535
998.741	-1241
998.818	-1205
998.895	-1573
998.972	-1108
999.049	-1336
999.126	-1096
999.203	-779
999.280	-1102
999.357	-1703
999.434	-854
999.511	-678
999.587	-1190
999.664	-775
999.741	-774
999.818	-1114
999.895	-1372
999.971	-1523
1000.048	-1016
1000.125	-1764
1000.202	-1635
1000.278	-862
1000.355	-1020
1000.431	-884
1000.508	-1164
1000.584	-1840
1000.661	-2094
1000.738	-2059
1000.814	-1208
1000.890	-1305
1000.967	-1257
1001.043	-1331
1001.120	-1640
1001.196	-964
1001.272	-1148
1001.349	-1409
1001.425	-1567
1001.501	-1476
1001.577	-1306
1001.654	-1751
1001.730	-995
1001.806	-1622
1001.882	-1905
1001.958	-1774
1002.034	-2037
1002.110	-1399
1002.186	-1099
1002.262	-1600
1002.338	-1687
1002.414	-765
1002.490	-1445
1002.566	-943
1002.642	-2001
1002.718	-947
1002.794	-610
1002.870	-1527
1002.945	-986
1003.021	-877
1003.097	-1338
1003.173	-1022
1003.248	-2064
1003.324	-1454
1003.400	-1740
1003.475	-836
1003.551	-1327
1003.626	-1663
1003.702	-1326
1003.777	-2018
1003.853	-1496
1003.928	-1671
1004.004	-971
1004.079	-1534
1004.155	-1908
1004.230	-2246
1004.305	-1563
1004.381	-1514
1004.456	-2064
1004.531	-1238
1004.607	-538
1004.682	-1405
1004.757	-1234
1004.832	-1110
1004.907	-1372
1004.982	-1048
1005.057	-1207
1005.133	-1522
1005.208	-2306
1005.283	-2351
1005.358	-1645
1005.433	-1031
1005.508	-936
1005.583	-2083
1005.657	-2048
1005.732	-1582
1005.807	-1306
1005.882	-1727
1005.957	-1614
1006.032	-1392
1006.106	-1641
1006.181	-1161
1006.256	-1375
1006.331	-1985
1006.405	-1223
1006.480	-1686
1006.554	-1590
1006.629	-1340
1006.704	-1476
1006.778	-1888
1006.853	-1193
1006.927	-864
1007.002	-1698
1007.076	-949
1007.150	-1356
1007.225	-1672
1007.299	-1250
1007.373	-1768
1007.448	-820
1007.522	-1469
1007.596	-1781
1007.671	-2058
1007.745	-1877
1007.819	-1543
1007.893	-1414
1007.967	-1150
1008.041	-2371
1008.115	-1341
1008.190	-1752
1008.264	-1007
1008.338	-1353
1008.412	-1868
1008.486	-2028
1008.560	-1650
1008.633	-2155
1008.707	-1106
1008.781	-1287
1008.855	-1646
1008.929	-1938
1009.003	-1668
1009.076	-1685
1009.150	-1639
1009.224	-1952
1009.298	-1148
1009.371	-2159
1009.445	-1594
1009.519	-1393
1009.592	-1611
1009.666	-1459
1009.739	-1749
1009.813	-1551
1009.886	-1150
1009.960	-1339
1010.033	-1752
1010.107	-1668
1010.180	-2051
1010.253	-1868
1010.327	-860
1010.400	-1316
1010.473	-2297
1010.547	-1577
1010.620	-1527
1010.693	-1170
1010.766	-1277
1010.840	-1305
1010.913	-1157
1010.986	-1611
1011.059	-1378
1011.132	-1642
1011.205	-1650
1011.278	-1060
1011.351	-1848
1011.424	-1359
1011.497	-1535
1011.570	-1047
1011.643	-1993
1011.716	-1107
1011.789	-1192
1011.862	-1101
1011.934	-2090
1012.007	-1948
1012.080	-1635
1012.153	-1962
1012.225	-741
1012.298	-976
1012.371	-1734
1012.443	-1805
1012.516	-1383
1012.588	-1035
1012.661	-1901
1012.733	-1650
1012.806	-967
1012.879	-1727
1012.951	-1296
1013.023	-894
1013.096	-1549
1013.168	-1312
1013.241	-904
1013.313	-1529
1013.385	-1467
1013.458	-2179
1013.530	-1367
1013.602	-819
1013.674	-1024
1013.746	-1173
1013.819	-1745
1013.891	-1718
1013.963	-1790
1014.035	-1147
1014.107	-1391
1014.179	-946
1014.251	-1840
1014.323	-1180
1014.395	-2052
1014.467	-2063
1014.539	-1578
1014.611	-1740
1014.683	-1814
1014.754	-1909
1014.826	-1472
1014.898	-1759
1014.970	-1727
1015.042	-1256
1015.113	-1516
1015.185	-1591
1015.257	-1717
1015.328	-921
1015.400	-1988
1015.471	-1133
1015.543	-2385
1015.615	-977
1015.686	-1537
1015.757	-1169
1015.829	-1339
1015.901	-2080
1015.972	-1356
1016.043	-1736
1016.115	-1112
1016.186	-1029
1016.257	-1277
1016.328	-1484
1016.400	-1576
1016.471	-1684
1016.542	-2068
1016.613	-2033
1016.685	-1535
1016.756	-999
1016.827	-1621
1016.898	-1854
1016.969	-1109
1017.040	-797
1017.111	-1048
1017.182	-1512
1017.253	-636
1017.324	-1185
1017.395	-1016
1017.466	-1980
1017.537	-2235
1017.608	-1582
1017.678	-1432
1017.749	-1624
1017.820	-1723
1017.891	-1683
1017.961	-745
1018.032	-1492
1018.103	-1014
1018.173	-1218
1018.244	-2331
1018.315	-1134
1018.385	-1424
1018.456	-1582
1018.526	-1838
1018.597	-1231
1018.667	-2340
1018.738	-1772
1018.808	-1631
1018.878	-1792
1018.949	-1490
1019.019	-2369
1019.089	-2326
1019.160	-1415
1019.230	-1706
1019.300	-1372
1019.371	-1279
1019.441	-1766
1019.511	-1129
1019.581	-2220
1019.651	-1257
1019.721	-1116
1019.791	-1469
1019.861	-1639
1019.931	-1714
1020.001	-610
1020.071	-1418
1020.141	-1892
1020.211	-844
1020.281	-1709
1020.351	-1988
1020.421	-841
1020.491	-1764
1020.560	-1351
1020.630	-1738
1020.700	-948
1020.770	-1819
1020.839	-1599
1020.909	-1160
1020.979	-1151
1021.048	-1229
1021.118	-1534
1021.187	-1337
1021.257	-1372
1021.326	-513
1021.396	-1419
1021.465	-1376
1021.535	-1820
1021.604	-1099
1021.674	-1637
1021.743	-1124
1021.812	-2046
1021.882	-1654
1021.951	-900
1022.020	-1437
1022.089	-1252
1022.159	-1779
1022.228	-2427
1022.297	-1362
1022.366	-1564
1022.435	-1660
1022.504	-1545
1022.573	-1944
1022.642	-1821
1022.711	-1768
1022.781	-340
1022.849	-2219
1022.918	-1951
1022.987	-1510
1023.056	-1586
1023.125	-1160
1023.194	-1768
1023.263	-1438
1023.331	-828
1023.400	-2361
1023.469	-1683
1023.538	-1133
1023.606	-1777
1023.675	-1453
1023.744	-465
1023.812	-1160
1023.881	-1438
1023.949	-2015
1024.018	-2088
1024.086	-744
1024.155	-1432
1024.223	-1823
1024.292	-1153
1024.360	-1358
1024.429	-1426
1024.497	-1776
1024.565	-1536
1024.634	-1131
1024.702	-1477
1024.770	-1114
1024.838	-1931
1024.907	-1705
1024.975	-1366
1025.043	-971
1025.111	-1345
1025.179	-1914
1025.247	-1603
1025.315	-1233
1025.383	-1112
1025.451	-1880
1025.519	-1667
1025.587	-1872
1025.655	-1318
1025.723	-1691
1025.791	-1520
1025.859	-1508
1025.927	-1184
1025.995	-1711
1026.062	-867
1026.130	-1683
1026.198	-1074
1026.266	-2488
1026.333	-965
1026.401	-1440
1026.469	-1521
1026.536	-958
1026.604	-1745
1026.671	-1366
1026.739	-1831
1026.806	-1716
1026.874	-2149
1026.941	-1385
1027.009	-1369
1027.076	-2122
1027.144	-1251
1027.211	-2174
1027.278	-1449
1027.345	-848
1027.413	-1658
1027.480	-1079
1027.547	-2124
1027.614	-2553
1027.682	-1162
1027.749	-1725
1027.816	-759
1027.883	-1700
1027.950	-1086
1028.017	-1275
1028.084	-1800
1028.151	-2265
1028.218	-2406
1028.285	-1009
1028.352	-1392
1028.419	-2276
1028.486	-1250
1028.553	-1375
1028.619	-917
1028.686	-951
1028.753	-1786
1028.820	-2247
1028.886	-1971
1028.953	-1420
1029.020	-2143
1029.086	-2037
1029.153	-1008
1029.220	-1959
1029.286	-1259
1029.353	-1376
1029.419	-1690
1029.486	-1030
1029.552	-1799
1029.619	-1951
1029.685	-1920
1029.751	-1755
1029.818	-1490
1029.884	-1308
1029.951	-866
1030.017	-1955
1030.083	-2006
1030.149	-2299
1030.216	-1548
1030.282	-1778
1030.348	-1549
1030.414	-2290
1030.480	-2227
1030.546	-1016
1030.612	-1301
1030.678	-1454
1030.744	-1947
1030.810	-1990
1030.876	-1048
1030.942	-2163
1031.008	-1670
1031.074	-2441
1031.140	-1473
1031.206	-1486
1031.272	-1742
1031.337	-1292
1031.403	-684
1031.469	-1809
1031.534	-1797
1031.600	-889
1031.666	-1462
1031.731	-1804
1031.797	-1815
1031.863	-1748
1031.928	-1948
1031.994	-1947
1032.059	-442
1032.125	-2121
1032.190	-1670
1032.256	-1681
1032.321	-1359
1032.386	-1516
1032.452	-1183
1032.517	-593
1032.582	-2515
1032.647	-1182
1032.713	-1904
1032.778	-1353
1032.843	-1613
1032.908	-1869
1032.974	-1834
1033.039	-1429
1033.104	-1338
1033.169	-1085
1033.234	-1707
1033.299	-768
1033.364	-785
1033.429	-1296
1033.494	-479
1033.559	-537
1033.624	-1050
1033.688	-1525
1033.753	-1773
1033.818	-1400
1033.883	-2087
1033.948	-1456
1034.013	-1304
1034.077	-847
1034.142	-1660
1034.207	-444
1034.271	-1070
1034.336	-1159
1034.400	-30
1034.465	-450
1034.530	-910
1034.594	-549
1034.658	-1011
1034.723	-1550
1034.787	-1901
1034.852	-1021
1034.916	-1566
1034.981	-1858
1035.045	-1847
1035.109	-2422
1035.173	-1505
1035.238	-1356
1035.302	-781
1035.366	-1541
1035.430	-1733
1035.495	-2004
1035.559	-1567
1035.623	-1622
1035.687	-2270
1035.751	-1329
1035.815	-2305
1035.879	-1644
1035.943	-1980
1036.007	-1465
1036.071	-1276
1036.135	-1868
1036.198	-919
1036.262	-2094
1036.326	-1797
1036.390	-1173
1036.454	-1667
1036.517	-1738
1036.581	-1406
1036.645	-1407
1036.709	-654
1036.772	-472
1036.836	-518
1036.900	-1269
1036.963	-1869
1037.026	-1259
1037.090	-809
1037.154	-820
1037.217	-1922
1037.280	-1822
1037.344	-806
1037.407	-1418
1037.471	-1633
1037.534	-1822
1037.597	-1819
1037.661	-1536
1037.724	-1728
1037.787	-1922
1037.850	-1718
1037.913	-2013
1037.977	-916
1038.040	-1126
1038.103	-1711
1038.166	-1640
1038.229	-2110
1038.292	-1749
1038.355	-2380
1038.418	-2059
1038.481	-1997
1038.544	-1961
1038.607	-1030
1038.670	-2113
1038.732	-681
1038.795	-1294
1038.858	-1408
1038.921	-1268
1038.984	-2106
1039.046	-2269
1039.109	-2219
1039.172	-2055
1039.234	-1557
1039.297	-1451
1039.360	-1315
1039.422	-1908
1039.485	-2659
1039.547	-1532
1039.610	-1853
1039.672	-1848
1039.734	-1809
1039.797	-1905
1039.859	-1533
1039.922	-1677
1039.984	-1262
1040.046	-1822
1040.109	-1929
1040.171	-2472
1040.233	-1366
1040.295	-1677
1040.358	-1257
1040.420	-1751
1040.482	-1894
1040.544	-1831
1040.606	-2429
1040.668	-1714
1040.730	-2659
1040.792	-1831
1040.854	-1701
1040.916	-1203
1040.978	-1218
1041.040	-1669
1041.102	-1168
1041.164	-2370
1041.225	-1604
1041.287	-2090
1041.349	-1808
1041.411	-1741
1041.472	-1915
1041.534	-3096
1041.596	-1933
1041.657	-1920
1041.719	-1362
1041.781	-2199
1041.842	-1316
1041.904	-1530
1041.965	-1123
1042.027	-1668
1042.088	-1377
1042.150	-1502
1042.211	-1758
1042.272	-782
1042.334	-1820
1042.395	-1118
1042.456	-1858
1042.518	-624
1042.579	-2278
1042.640	-1804
1042.701	-1457
1042.763	-1741
1042.824	-1300
1042.885	-1724
1042.946	-2113
1043.007	-2447
1043.068	-1071
1043.129	-1892
1043.190	-2021
1043.251	-1490
1043.312	-1549
1043.373	-968
1043.434	-2024
1043.495	-2129
1043.556	-1343
1043.616	-1297
1043.677	-1219
1043.738	-1026
1043.799	-1469
1043.859	-1486
1043.920	-1395
1043.981	-2100
1044.041	-1634
1044.102	-1775
1044.162	-1173
1044.223	-1405
1044.284	-2115
1044.344	-1205
1044.405	-2032
1044.465	-1455
1044.525	-1793
1044.586	-1607
1044.646	-2312
1044.707	-1571
1044.767	-1481
1044.827	-2238
1044.887	-1270
1044.948	-1741
1045.008	-1167
1045.068	-2497
1045.128	-2073
1045.188	-2457
1045.249	-1040
1045.309	-1493
1045.369	-1461
1045.429	-1362
1045.489	-1922
1045.549	-1697
1045.609	-1665
1045.669	-2200
1045.729	-1872
1045.789	-1648
1045.848	-1379
1045.908	-1593
1045.968	-1004
1046.028	-1992
1046.088	-1269
1046.147	-1090
1046.207	-1712
1046.267	-1728
1046.326	-908
1046.386	-1755
1046.446	-1117
1046.505	-1910
1046.565	-390
1046.624	-1156
1046.684	-625
1046.743	-1124
1046.803	-694
1046.862	-834
1046.922	0
