'Start Wavelength	183.907
'End Wavelength	1046.922
'Gate Delay	5.000
'Gate Width (ms)	1.050
'Laser Output Level	0.000
'X Position	0.000
'Y Position	0.000
'Z Position	0.000
'Grid Point Number	1.000
'Shot Number	100.000
183.907	-369.000
183.977	494.000
184.047	1027
184.116	499
184.186	8
184.256	418
184.325	289
184.395	408
184.465	742
184.534	746
184.604	-576
184.674	538
184.743	338
184.813	496
184.883	268
184.952	1393
185.022	402
185.092	226
185.161	213
185.231	-359
185.301	861
185.370	434
185.440	611
185.509	-414
185.579	613
185.649	1335
185.718	600
185.788	664
185.857	226
185.927	385
185.996	736
186.066	128
186.136	44
186.205	805
186.275	962
186.344	295
186.414	392
186.483	148
186.553	606
186.622	1413
186.692	712
186.761	750
186.831	969
186.900	916
186.970	1018
187.039	106
187.109	1037
187.178	79
187.248	248
187.317	754
187.387	965
187.456	864
187.526	658
187.595	509
187.664	579
187.734	368
187.803	640
187.873	456
187.942	1099
188.012	875
188.081	-293
188.150	372
188.220	1876
188.289	1281
188.358	342
188.428	289
188.497	644
188.567	402
188.636	855
188.705	332
188.775	952
188.844	624
188.913	504
188.983	629
189.052	314
189.121	369
189.191	927
189.260	615
189.329	767
189.399	564
189.468	221
189.537	436
189.606	959
189.676	832
189.745	1191
189.814	933
189.883	914
189.953	780
190.022	1487
190.091	3633
190.161	2196
190.230	709
190.299	1002
190.368	54
190.437	938
190.507	866
190.576	366
190.645	640
190.714	196
190.783	754
190.853	354
190.922	716
190.991	516
191.060	1212
191.129	503
191.198	850
191.268	1261
191.337	371
191.406	1004
191.475	576
191.544	386
191.613	484
191.682	596
191.752	73
191.821	807
191.890	615
191.959	667
192.028	-141
192.097	764
192.166	893
192.235	462
192.304	355
192.373	584
192.442	437
192.511	1028
192.580	561
192.650	1163
192.719	1219
192.788	1081
192.857	801
192.926	746
192.995	960
193.064	1553
193.133	2179
193.202	2588
193.271	1534
193.340	1439
193.409	1948
193.478	2332
193.547	2835
193.615	3221
193.684	2887
193.753	2263
193.822	882
193.891	891
193.960	1232
194.029	981
194.098	666
194.167	240
194.236	732
194.305	846
194.374	943
194.443	881
194.512	1106
194.580	1122
194.649	1468
194.718	1246
194.787	226
194.856	630
194.925	911
194.994	1006
195.062	381
195.131	1445
195.200	1872
195.269	2024
195.338	886
195.407	1230
195.475	1630
195.544	1793
195.613	1726
195.682	1740
195.751	1922
195.819	1252
195.888	1300
195.957	2365
196.026	1775
196.094	2009
196.163	1732
196.232	1438
196.301	1595
196.369	1380
196.438	912
196.507	1856
196.576	328
196.644	562
196.713	627
196.782	665
196.850	740
196.919	1200
196.988	811
197.056	1345
197.125	1091
197.194	1218
197.262	1180
197.331	1358
197.400	1361
197.468	1227
197.537	1266
197.606	1691
197.674	2550
197.743	2765
197.812	1577
197.880	3612
197.949	1681
198.017	2837
198.086	1221
198.155	1190
198.223	2774
198.292	3561
198.360	2323
198.429	849
198.497	1221
198.566	3661
198.635	3022
198.703	1521
198.772	2046
198.840	4201
198.909	3080
198.977	975
199.046	1071
199.114	2042
199.183	1106
199.251	773
199.320	751
199.388	1424
199.457	891
199.525	1308
199.594	1262
199.662	1095
199.731	1308
199.799	1646
199.867	1602
199.936	1191
200.004	923
200.073	1680
200.141	1140
200.210	950
200.278	1606
200.346	1983
200.415	1468
200.483	2369
200.552	1027
200.620	1690
200.688	1496
200.757	1090
200.825	1414
200.893	1246
200.962	1515
201.030	1483
201.098	1721
201.167	1616
201.235	1481
201.303	1472
201.372	1760
201.440	1555
201.508	2626
201.577	1532
201.645	1808
201.713	1891
201.781	2525
201.850	2079
201.918	1551
201.986	1303
202.055	1553
202.123	1886
202.191	1378
202.259	1681
202.327	857
202.396	1734
202.464	2018
202.532	3481
202.600	6980
202.669	3177
202.737	1701
202.805	1193
202.873	1215
202.941	1492
203.009	1383
203.078	2376
203.146	1582
203.214	1665
203.282	946
203.350	1701
203.418	1669
203.487	1580
203.555	1839
203.623	2119
203.691	1524
203.759	814
203.827	1374
203.895	2552
203.963	2074
204.031	2362
204.099	1429
204.168	1021
204.236	1421
204.304	2385
204.372	1879
204.440	1869
204.508	1349
204.576	813
204.644	1417
204.712	1664
204.780	1859
204.848	1619
204.916	1503
204.984	1566
205.052	1713
205.120	1956
205.188	2167
205.256	845
205.324	1966
205.392	2022
205.460	2417
205.528	1146
205.596	1850
205.664	1955
205.732	2136
205.799	7192
205.867	4915
205.935	2514
206.003	2127
206.071	948
206.139	2413
206.207	1845
206.275	1803
206.343	1772
206.411	2136
206.478	1761
206.546	1767
206.614	1643
206.682	2028
206.750	1854
206.818	2473
206.885	2525
206.953	2039
207.021	2236
207.089	1237
207.157	1044
207.225	1833
207.292	1330
207.360	2321
207.428	2588
207.496	1068
207.563	1599
207.631	1616
207.699	1680
207.767	2328
207.834	2083
207.902	1796
207.970	2006
208.038	1176
208.105	1977
208.173	2742
208.241	2157
208.309	2849
208.376	3225
208.444	4718
208.512	2251
208.579	1585
208.647	3597
208.715	2562
208.782	2411
208.850	2080
208.918	1719
208.985	2913
209.053	2286
209.120	3091
209.188	2176
209.256	2534
209.323	2497
209.391	3819
209.459	1886
209.526	2386
209.594	1763
209.661	2727
209.729	1635
209.796	2395
209.864	3433
209.932	2328
209.999	2802
210.067	3209
210.134	2087
210.202	2808
210.269	3902
210.337	3668
210.404	3167
210.472	2223
210.539	2854
210.607	2905
210.674	3371
210.742	2839
210.809	1668
210.877	3170
210.944	3542
211.012	3240
211.079	3408
211.146	1994
211.214	2883
211.281	4241
211.349	2896
211.416	3144
211.484	2473
211.551	2179
211.618	3021
211.686	2381
211.753	1867
211.821	2900
211.888	3615
211.955	2310
212.023	2304
212.090	2863
212.157	3044
212.225	3416
212.292	5375
212.359	11806
212.427	17615
212.494	6547
212.561	4350
212.629	2845
212.696	3739
212.763	2982
212.831	2222
212.898	2084
212.965	2684
213.032	3132
213.100	3633
213.167	3987
213.234	2992
213.301	3488
213.369	2994
213.436	3686
213.503	2708
213.570	2893
213.638	3532
213.705	2945
213.772	2784
213.839	3981
213.906	3427
213.973	3427
214.041	3396
214.108	2757
214.175	3198
214.242	2829
214.309	2699
214.376	2766
214.444	3862
214.511	2887
214.578	2971
214.645	3394
214.712	3556
214.779	3180
214.846	3941
214.913	3811
214.980	4138
215.048	4604
215.115	4248
215.182	3912
215.249	3593
215.316	3020
215.383	2494
215.450	3148
215.517	2533
215.584	2265
215.651	2651
215.718	3188
215.785	3498
215.852	3561
215.919	3379
215.986	3515
216.053	2219
216.120	3363
216.187	3639
216.254	2954
216.321	3297
216.388	3712
216.455	3980
216.522	3892
216.589	4583
216.656	8507
216.722	5203
216.789	5391
216.856	5602
216.923	4590
216.990	4277
217.057	4272
217.124	5579
217.191	5118
217.258	6651
217.324	6999
217.391	6949
217.458	4990
217.525	3898
217.592	3817
217.659	4240
217.725	4046
217.792	6130
217.859	3954
217.926	2620
217.993	2568
218.059	2051
218.126	2848
218.193	2821
218.260	2501
218.327	2201
218.393	2684
218.460	2606
218.527	2539
218.594	3343
218.660	5910
218.727	4785
218.794	2521
218.860	2129
218.927	2496
218.994	2645
219.061	2871
219.127	3926
219.194	4509
219.261	2343
219.327	2125
219.394	2284
219.461	1033
219.527	2637
219.594	4353
219.661	2357
219.727	1587
219.794	2723
219.860	2692
219.927	2977
219.994	6225
220.060	7939
220.127	4395
220.193	4592
220.260	4295
220.326	5673
220.393	10136
220.460	10806
220.526	6247
220.593	4674
220.659	5429
220.726	5246
220.792	11662
220.859	10295
220.925	16105
220.992	17806
221.058	16388
221.125	13366
221.191	8497
221.258	4154
221.324	4440
221.391	3340
221.457	3033
221.524	2909
221.590	5421
221.657	13643
221.723	6685
221.789	8778
221.856	6387
221.922	3711
221.989	3425
222.055	3188
222.121	3106
222.188	4231
222.254	3041
222.321	2388
222.387	1646
222.453	2582
222.520	2380
222.586	2619
222.652	1898
222.719	2398
222.785	2139
222.851	2371
222.918	2258
222.984	2749
223.050	2794
223.116	2238
223.183	2201
223.249	1205
223.315	1019
223.382	1742
223.448	1728
223.514	1557
223.580	1318
223.647	2450
223.713	1934
223.779	1656
223.845	1946
223.911	1953
223.978	1687
224.044	1953
224.110	1875
224.176	1886
224.242	2073
224.309	2187
224.375	1693
224.441	2014
224.507	1240
224.573	2354
224.639	1045
224.705	1529
224.772	1456
224.838	2267
224.904	2492
224.970	1932
225.036	2265
225.102	2952
225.168	1962
225.234	1866
225.300	1985
225.366	2155
225.432	1312
225.499	2855
225.565	2891
225.631	3005
225.697	3275
225.763	3648
225.829	4064
225.895	5545
225.961	5964
226.027	5297
226.093	4276
226.159	5589
226.225	8823
226.291	23686
226.357	23836
226.423	12268
226.489	8043
226.554	5096
226.620	5829
226.686	8287
226.752	12054
226.818	21627
226.884	39501
226.950	24050
227.016	10389
227.082	7549
227.148	5609
227.214	5639
227.279	5402
227.345	3526
227.411	4079
227.477	6397
227.543	11240
227.609	8347
227.674	4811
227.740	4384
227.806	3052
227.872	2925
227.938	4890
228.003	4976
228.069	3040
228.135	2552
228.201	2751
228.267	2320
228.332	3785
228.398	6030
228.464	3195
228.530	1680
228.595	1868
228.661	3374
228.727	5208
228.792	3239
228.858	3173
228.924	2891
228.990	3451
229.055	4254
229.121	3269
229.187	2678
229.252	3798
229.318	2398
229.384	4361
229.449	4168
229.515	2244
229.581	1414
229.646	3224
229.712	4034
229.777	8598
229.843	5945
229.909	5298
229.974	5801
230.040	4251
230.105	4735
230.171	5171
230.236	6389
230.302	8876
230.368	5299
230.433	4197
230.499	3377
230.564	4227
230.630	3233
230.695	2751
230.761	2673
230.826	2564
230.892	5040
230.957	2955
231.023	2409
231.088	3061
231.154	2542
231.219	2783
231.284	5727
231.350	4123
231.415	2895
231.481	2215
231.546	2529
231.612	2857
231.677	2534
231.742	2358
231.808	3230
231.873	2189
231.939	2321
232.004	6315
232.069	3872
232.135	2737
232.200	1804
232.265	1708
232.331	1635
232.396	2277
232.461	2151
232.527	2284
232.592	2729
232.657	2887
232.723	5330
232.788	2154
232.853	1692
232.918	2299
232.984	1714
233.049	2733
233.114	4129
233.179	3818
233.245	8627
233.310	4570
233.375	2781
233.440	2422
233.506	2583
233.571	1629
233.636	2449
233.701	2835
233.766	6424
233.832	4050
233.897	3163
233.962	3374
234.027	3722
234.092	4045
234.157	3110
234.222	3080
234.288	7465
234.353	12908
234.418	10096
234.483	6440
234.548	5646
234.613	4103
234.678	4664
234.743	6806
234.808	14865
234.873	7136
234.938	4433
235.004	3659
235.069	3851
235.134	3497
235.199	3339
235.264	2998
235.329	3240
235.394	3107
235.459	4588
235.524	3039
235.589	3498
235.654	2679
235.719	2350
235.784	2667
235.849	4176
235.913	7220
235.978	9988
236.043	6754
236.108	4590
236.173	4205
236.238	3928
236.303	2663
236.368	3783
236.433	7571
236.498	8299
236.563	6767
236.627	20618
236.692	49198
236.757	25801
236.822	13053
236.887	9282
236.952	8310
237.017	7219
237.081	7006
237.146	12219
237.211	23278
237.276	56995
237.341	58843
237.405	23203
237.470	12297
237.535	8022
237.600	5564
237.664	4366
237.729	5084
237.794	9968
237.859	12598
237.923	7186
237.988	5711
238.053	7881
238.118	8638
238.182	20592
238.247	10580
238.312	8324
238.376	5826
238.441	4366
238.506	3735
238.570	2339
238.635	3224
238.700	2499
238.764	3601
238.829	10439
238.893	7217
238.958	6015
239.023	5660
239.087	3925
239.152	3747
239.216	3468
239.281	3293
239.346	3366
239.410	3190
239.475	5717
239.539	18969
239.604	7881
239.668	4392
239.733	3276
239.797	8851
239.862	17322
239.926	12994
239.991	4943
240.055	3357
240.120	3404
240.184	3555
240.249	3727
240.313	2775
240.378	4016
240.442	13832
240.507	10692
240.571	4699
240.635	10524
240.700	6831
240.764	4257
240.829	3267
240.893	2938
240.957	3510
241.022	12865
241.086	13514
241.151	5385
241.215	3823
241.279	7598
241.344	7847
241.408	5146
241.472	4782
241.537	4924
241.601	4143
241.665	3824
241.730	3472
241.794	4005
241.858	4222
241.922	4017
241.987	3796
242.051	3060
242.115	3476
242.179	3292
242.244	3198
242.308	3063
242.372	3678
242.436	4286
242.501	3905
242.565	3273
242.629	3731
242.693	4144
242.757	3341
242.822	3125
242.886	3459
242.950	3239
243.014	3608
243.078	5406
243.142	3911
243.206	3878
243.271	3887
243.335	4485
243.399	7738
243.463	39746
243.527	45064
243.591	14590
243.655	7467
243.719	5895
243.783	6937
243.847	11552
243.911	10971
243.975	16591
244.040	7760
244.104	5033
244.168	4577
244.232	9790
244.296	10672
244.360	10436
244.424	5470
244.488	4117
244.552	4381
244.615	3678
244.679	3642
244.743	7236
244.807	4543
244.871	3001
244.935	3320
244.999	4184
245.063	4278
245.127	5089
245.191	10026
245.255	6715
245.319	7911
245.383	5478
245.446	4405
245.510	3494
245.574	4449
245.638	5158
245.702	7212
245.766	11235
245.829	6049
245.893	4775
245.957	4192
246.021	5464
246.085	5860
246.149	7603
246.212	19274
246.276	18107
246.340	9471
246.404	6627
246.467	10406
246.531	9569
246.595	5993
246.659	6441
246.722	6865
246.786	8110
246.850	11669
246.913	8627
246.977	5260
247.041	5153
247.104	5569
247.168	7414
247.232	20590
247.295	27603
247.359	10332
247.423	9327
247.486	12692
247.550	7099
247.614	7517
247.677	8325
247.741	5165
247.804	5007
247.868	6864
247.932	20572
247.995	22073
248.059	8747
248.122	5245
248.186	7855
248.249	19797
248.313	52458
248.376	38979
248.440	21994
248.503	9699
248.567	10472
248.630	16498
248.694	20192
248.757	31635
248.821	44067
248.884	23690
248.948	30795
249.011	38947
249.075	58331
249.138	35271
249.202	16252
249.265	12472
249.328	11445
249.392	10559
249.455	8531
249.519	7360
249.582	11620
249.645	15635
249.709	9471
249.772	8175
249.835	8315
249.899	8004
249.962	6805
250.025	7465
250.089	24637
250.152	19938
250.215	11271
250.279	9123
250.342	9512
250.405	7997
250.468	8593
250.532	12005
250.595	21247
250.658	80838
250.721	61156
250.785	27286
250.848	14989
250.911	10822
250.974	9727
251.038	21209
251.101	23785
251.164	13894
251.227	15962
251.290	13164
251.354	29932
251.417	90187
251.480	51953
251.543	72282
251.606	139732
251.669	68337
251.732	36686
251.795	40251
251.859	50710
251.922	83390
251.985	32846
252.048	17286
252.111	14075
252.174	15312
252.237	37439
252.300	51417
252.363	79979
252.426	90103
252.489	35851
252.552	21266
252.615	15491
252.678	22094
252.741	43990
252.804	74762
252.867	98953
252.930	54635
252.993	30771
253.056	21443
253.119	14744
253.182	15294
253.245	21939
253.308	14877
253.371	17757
253.434	13727
253.497	17609
253.559	26839
253.622	17223
253.685	29579
253.748	19371
253.811	11833
253.874	14680
253.937	12052
254.000	11806
254.062	25946
254.125	23300
254.188	29286
254.251	16731
254.314	11800
254.376	25387
254.439	21611
254.502	17375
254.565	26886
254.628	30046
254.690	18058
254.753	11575
254.816	9729
254.878	11342
254.941	24981
255.004	14750
255.067	10229
255.129	9892
255.192	6101
255.255	6807
255.317	6950
255.380	4849
255.443	4639
255.505	4714
255.568	4811
255.631	5731
255.693	5287
255.756	3737
255.819	5373
255.881	4391
255.944	4554
256.006	4787
256.069	4060
256.132	4381
256.194	9072
256.257	13986
256.319	11345
256.382	8101
256.444	6154
256.507	5951
256.569	4640
256.632	6126
256.694	9621
256.757	42736
256.819	57015
256.882	19712
256.944	10129
257.007	9812
257.069	9754
257.132	5898
257.194	5705
257.257	6548
257.319	5954
257.381	7774
257.444	28180
257.506	97243
257.569	66464
257.631	37084
257.693	17989
257.756	11223
257.818	8491
257.880	6414
257.943	5464
258.005	5892
258.067	5647
258.130	4548
258.192	9292
258.254	13255
258.317	6422
258.379	8271
258.441	21187
258.503	11597
258.566	25050
258.628	14302
258.690	5691
258.753	9633
258.815	13125
258.877	6623
258.939	5379
259.001	4974
259.064	4433
259.126	8269
259.188	6496
259.250	6463
259.312	11410
259.375	24561
259.437	9720
259.499	5798
259.561	5701
259.623	5870
259.685	5237
259.747	6153
259.809	25683
259.872	26763
259.934	54934
259.996	26047
260.058	9705
260.120	5745
260.182	4948
260.244	4690
260.306	4163
260.368	5201
260.430	4697
260.492	12856
260.554	21585
260.616	13972
260.678	36550
260.740	21849
260.802	7544
260.864	6758
260.926	6761
260.988	6214
261.050	6918
261.112	18078
261.174	38206
261.236	15748
261.298	8882
261.359	20114
261.421	13865
261.483	6399
261.545	5348
261.607	4541
261.669	4947
261.731	16239
261.793	21218
261.854	8759
261.916	6509
261.978	6443
262.040	6181
262.102	5440
262.164	10581
262.225	5478
262.287	7221
262.349	18478
262.411	8999
262.472	5537
262.534	17299
262.596	14780
262.658	5805
262.719	4066
262.781	11272
262.843	17719
262.904	7055
262.966	6150
263.028	9313
263.090	67415
263.151	67528
263.213	24684
263.275	13405
263.336	7101
263.398	5089
263.459	4693
263.521	7471
263.583	15583
263.644	7404
263.706	4345
263.767	3264
263.829	2888
263.891	2736
263.952	2831
264.014	2877
264.075	9705
264.137	12857
264.198	5438
264.260	2706
264.321	3690
264.383	18571
264.444	18348
264.506	6063
264.567	4799
264.629	14945
264.690	14483
264.752	6458
264.813	4898
264.875	3883
264.936	4218
264.998	3686
265.059	3722
265.120	4376
265.182	11136
265.243	48624
265.305	20231
265.366	7010
265.427	5725
265.489	3763
265.550	3495
265.611	5534
265.673	4371
265.734	2810
265.795	3292
265.857	3268
265.918	4594
265.979	17838
266.040	70566
266.102	26284
266.163	12901
266.224	9063
266.286	5682
266.347	4367
266.408	4437
266.469	4757
266.530	3772
266.592	4589
266.653	13645
266.714	12043
266.775	5235
266.836	4153
266.898	5169
266.959	7612
267.020	4192
267.081	4584
267.142	3230
267.203	3682
267.264	3360
267.326	4951
267.387	4584
267.448	3429
267.509	4235
267.570	3070
267.631	2758
267.692	3427
267.753	3694
267.814	3268
267.875	14907
267.936	15421
267.997	9218
268.058	6412
268.119	4756
268.180	5087
268.241	4090
268.302	3328
268.363	3077
268.424	4012
268.485	3788
268.546	2311
268.607	3192
268.668	2362
268.729	2092
268.790	3902
268.851	4706
268.912	17245
268.972	11663
269.033	5761
269.094	2134
269.155	3233
269.216	3058
269.277	3390
269.338	2934
269.398	3920
269.459	4879
269.520	7190
269.581	10156
269.642	9121
269.702	6448
269.763	3863
269.824	3840
269.885	8671
269.945	7138
270.006	4445
270.067	2699
270.128	2765
270.188	3028
270.249	2154
270.310	2411
270.370	3494
270.431	2437
270.492	2097
270.553	5005
270.613	13299
270.674	17481
270.734	6305
270.795	5185
270.856	8711
270.916	3714
270.977	4703
271.038	6190
271.098	5414
271.159	11959
271.219	5984
271.280	4051
271.340	3346
271.401	6788
271.462	10386
271.522	6093
271.583	4440
271.643	4820
271.704	4241
271.764	6053
271.825	19995
271.885	59149
271.946	38871
272.006	15902
272.066	39029
272.127	30942
272.187	10941
272.248	8107
272.308	13413
272.369	29901
272.429	11269
272.489	16776
272.550	11739
272.610	16277
272.671	9098
272.731	12730
272.791	14418
272.852	9071
272.912	8231
272.972	4512
273.033	6185
273.093	8887
273.153	7934
273.214	5966
273.274	8705
273.334	38843
273.394	35165
273.455	16067
273.515	29092
273.575	34512
273.635	14390
273.696	32912
273.756	35005
273.816	13913
273.876	11109
273.936	30624
273.997	22047
274.057	8343
274.117	7710
274.177	21523
274.237	61324
274.297	32152
274.358	29869
274.418	37444
274.478	19093
274.538	8821
274.598	11763
274.658	33387
274.718	27398
274.778	10164
274.838	6630
274.898	29289
274.958	42288
275.018	42548
275.078	19448
275.138	9297
275.198	6086
275.258	5221
275.318	8399
275.378	15922
275.438	12129
275.498	9380
275.558	34694
275.618	44164
275.678	21609
275.738	21232
275.798	11544
275.858	6504
275.918	4300
275.978	7816
276.038	4736
276.098	5591
276.157	21548
276.217	29243
276.277	12449
276.337	9522
276.397	7134
276.457	8413
276.517	4765
276.576	4809
276.636	5373
276.696	12020
276.756	23091
276.815	10699
276.875	7701
276.935	9063
276.995	6304
277.055	5212
277.114	5097
277.174	15391
277.234	24903
277.293	8580
277.353	6663
277.413	5277
277.472	6813
277.532	5971
277.592	8433
277.651	49640
277.711	34328
277.771	24216
277.830	72756
277.890	28709
277.950	57741
278.009	72785
278.069	23663
278.128	56308
278.188	37272
278.248	30736
278.307	64716
278.367	19865
278.426	10179
278.486	7599
278.545	6054
278.605	5455
278.664	5545
278.724	7140
278.783	31218
278.843	32872
278.902	10499
278.962	10211
279.021	9694
279.081	13339
279.140	11253
279.199	10605
279.259	10268
279.318	10789
279.378	14203
279.437	36681
279.496	125666
279.556	257073
279.615	114355
279.675	43217
279.734	30826
279.793	55413
279.853	48156
279.912	18392
279.971	13931
280.031	12520
280.090	37552
280.149	32573
280.208	57062
280.268	199541
280.327	95949
280.386	34490
280.445	34391
280.505	19641
280.564	12154
280.623	9886
280.682	24033
280.742	17949
280.801	7652
280.860	6950
280.919	7067
280.978	6159
281.037	5204
281.097	5358
281.156	5724
281.215	5216
281.274	10661
281.333	37736
281.392	12749
281.451	6600
281.510	5487
281.569	5529
281.628	4447
281.688	5008
281.747	6703
281.806	5098
281.865	4043
281.924	4427
281.983	4459
282.042	3465
282.101	3519
282.160	4243
282.219	3539
282.278	8269
282.337	21209
282.396	7857
282.454	5614
282.513	13040
282.572	30484
282.631	10334
282.690	5414
282.749	5311
282.808	6934
282.867	7614
282.926	5438
282.985	3493
283.043	4567
283.102	4929
283.161	5726
283.220	24578
283.279	23510
283.338	7364
283.396	6363
283.455	6330
283.514	8821
283.573	11290
283.631	7397
283.690	5140
283.749	7246
283.808	17605
283.866	10974
283.925	6832
283.984	6409
284.043	10629
284.101	8375
284.160	7706
284.219	8678
284.277	8911
284.336	20840
284.395	46685
284.453	21480
284.512	14737
284.570	19914
284.629	16328
284.688	17746
284.746	19336
284.805	23824
284.863	32177
284.922	37460
284.981	45121
285.039	68859
285.098	130774
285.156	246257
285.215	228016
285.273	263007
285.332	181773
285.390	107744
285.449	69541
285.507	47840
285.566	35222
285.624	26615
285.683	20457
285.741	17002
285.799	15413
285.858	13720
285.916	12230
285.975	10358
286.033	8672
286.091	7777
286.150	6997
286.208	8253
286.267	8739
286.325	10451
286.383	14700
286.442	8731
286.500	6947
286.558	5702
286.616	6568
286.675	8795
286.733	6706
286.791	6070
286.850	7680
286.908	13687
286.966	13245
287.024	7271
287.083	5254
287.141	4456
287.199	7014
287.257	8406
287.315	6110
287.374	9910
287.432	18171
287.490	8698
287.548	7258
287.606	5905
287.664	5903
287.723	10157
287.781	7858
287.839	5979
287.897	7305
287.955	7717
288.013	10862
288.071	34513
288.129	189839
288.187	243336
288.245	78571
288.303	34496
288.361	21941
288.419	16314
288.477	10071
288.535	7663
288.593	6244
288.651	5473
288.709	4695
288.767	4939
288.825	4840
288.883	3595
288.941	4805
288.999	3802
289.057	3143
289.115	3679
289.173	4174
289.231	4796
289.289	3761
289.346	4719
289.404	5982
289.462	11101
289.520	8170
289.578	4220
289.636	3423
289.694	2966
289.751	3067
289.809	3613
289.867	3796
289.925	6885
289.983	5106
290.040	2224
290.098	3309
290.156	5881
290.214	5256
290.271	3209
290.329	2358
290.387	2181
290.444	3204
290.502	2110
290.560	2510
290.617	3130
290.675	3034
290.733	4197
290.790	3531
290.848	3161
290.906	4582
290.963	4055
291.021	3265
291.078	3471
291.136	4878
291.194	25933
291.251	23071
291.309	6671
291.366	4552
291.424	4096
291.481	4544
291.539	5439
291.596	3305
291.654	2000
291.711	2327
291.769	5981
291.826	9111
291.884	4745
291.941	3470
291.999	4376
292.056	6005
292.114	4078
292.171	3467
292.228	3969
292.286	7054
292.343	12710
292.401	11699
292.458	6445
292.515	5866
292.573	7528
292.630	5351
292.687	5286
292.745	3861
292.802	8434
292.859	22947
292.917	32791
292.974	11794
293.031	5959
293.089	4401
293.146	3245
293.203	3337
293.260	3468
293.318	6214
293.375	6731
293.432	3759
293.489	3005
293.546	3194
293.604	7970
293.661	34008
293.718	43194
293.775	18782
293.832	12322
293.889	11904
293.947	9655
294.004	6567
294.061	7646
294.118	22783
294.175	36065
294.232	29898
294.289	11519
294.346	8526
294.403	7722
294.460	6134
294.517	5552
294.574	4445
294.631	3545
294.688	5437
294.745	25894
294.802	64699
294.859	41156
294.916	19771
294.973	12431
295.030	11986
295.087	7753
295.144	6170
295.201	4560
295.258	4537
295.315	7749
295.372	33988
295.429	31311
295.486	13202
295.542	9821
295.599	35145
295.656	30429
295.713	36721
295.770	30095
295.827	12219
295.883	7344
295.940	9077
295.997	16134
296.054	9966
296.111	4988
296.167	4979
296.224	3889
296.281	5322
296.338	3843
296.394	3957
296.451	6931
296.508	28886
296.564	27064
296.621	22406
296.678	63665
296.734	45291
296.791	17744
296.848	10564
296.904	18626
296.961	36828
297.018	48467
297.074	21408
297.131	10066
297.187	9104
297.244	16478
297.301	71020
297.357	55766
297.414	18397
297.470	10260
297.527	8010
297.583	7313
297.640	7314
297.696	5420
297.753	4861
297.809	3876
297.866	3503
297.922	3680
297.979	4013
298.035	5497
298.092	14491
298.148	33196
298.204	17930
298.261	11424
298.317	34904
298.374	50493
298.430	21783
298.486	13473
298.543	10540
298.599	10357
298.656	13439
298.712	30793
298.768	47180
298.824	20651
298.881	9394
298.937	6521
298.993	7380
299.050	9177
299.106	7083
299.162	6422
299.218	6187
299.275	4211
299.331	5787
299.387	21632
299.443	62085
299.500	39864
299.556	16704
299.612	11332
299.668	11629
299.724	17976
299.780	12053
299.837	7657
299.893	20938
299.949	57698
300.005	41047
300.061	58069
300.117	59959
300.173	24762
300.229	15977
300.285	22626
300.341	18016
300.397	9441
300.453	7036
300.510	6055
300.566	5775
300.622	12414
300.678	44418
300.734	48436
300.790	49112
300.845	41624
300.901	39715
300.957	51877
301.013	26361
301.069	12621
301.125	11306
301.181	10360
301.237	7754
301.293	5908
301.349	4681
301.405	5456
301.461	8120
301.516	8712
301.572	10766
301.628	15397
301.684	12256
301.740	28884
301.796	26256
301.851	24815
301.907	33597
301.963	27874
302.019	82168
302.074	147801
302.130	102337
302.186	44274
302.242	22305
302.297	15255
302.353	21763
302.409	33586
302.464	20233
302.520	29485
302.576	61699
302.631	50815
302.687	25194
302.743	12784
302.798	8452
302.854	6834
302.910	8518
302.965	12299
303.021	19085
303.076	17286
303.132	27725
303.187	22123
303.243	10741
303.299	7843
303.354	6893
303.410	5951
303.465	5580
303.521	6009
303.576	6013
303.632	6634
303.687	25916
303.743	47547
303.798	26473
303.853	12215
303.909	8891
303.964	8302
304.020	17409
304.075	17755
304.130	23618
304.186	35402
304.241	32263
304.297	22273
304.352	12400
304.358	12084
304.407	9521
304.449	9781
304.463	9878
304.518	9454
304.539	8664
304.573	7393
304.629	6490
304.630	6693
304.684	15950
304.720	35662
304.739	45808
304.794	39253
304.811	33463
304.850	19071
304.902	9926
304.905	9368
304.960	8363
304.992	8407
305.015	8458
305.071	7678
305.083	7241
305.126	5601
305.173	4733
305.181	4602
305.236	4043
305.264	5165
305.292	6358
305.347	8283
305.354	8327
305.402	8501
305.445	9144
305.457	9362
305.512	11102
305.535	10336
305.567	9071
305.622	9637
305.626	10479
305.678	25619
305.716	47178
305.733	56011
305.788	42191
305.807	40121
305.843	35013
305.897	46969
305.898	47143
305.953	33621
305.988	24957
306.008	19545
306.063	12673
306.078	11141
306.118	8157
306.168	6503
306.173	6361
306.228	4798
306.259	4687
306.283	4613
306.338	4457
306.349	4709
306.393	5954
306.440	6219
306.448	6216
306.503	5729
306.530	7461
306.558	10230
306.613	21501
306.620	23185
306.668	34665
306.711	44853
306.723	46602
306.778	30815
306.801	25606
306.833	17744
306.888	8888
306.892	8519
306.943	6935
306.982	6636
306.997	6519
307.052	5953
307.072	5686
307.107	5559
307.162	7572
307.163	7609
307.217	11387
307.253	14321
307.272	15454
307.327	14272
307.343	13617
307.381	11208
307.434	10294
307.436	10486
307.491	23724
307.524	34244
307.546	40006
307.600	35180
307.614	32669
307.655	19575
307.704	10095
307.710	9709
307.765	10877
307.795	14790
307.819	19536
307.874	26234
307.885	26041
307.929	18873
307.975	13857
307.984	13779
308.038	17112
308.065	22714
308.093	34799
308.148	92294
308.156	103922
308.202	187124
308.246	200226
308.257	187720
308.312	101737
308.336	74129
308.366	60149
308.421	38342
308.426	36741
308.475	23503
308.517	16014
308.530	14830
308.585	12384
308.607	11876
308.639	11622
308.694	12202
308.697	12586
308.748	23155
308.787	30411
308.803	31347
308.857	25021
308.877	23533
308.912	19894
308.967	17210
308.967	17215
309.021	22945
309.058	30238
309.076	37121
309.130	65008
309.148	78694
309.185	126381
309.238	221506
309.239	223054
309.293	276567
309.328	273567
309.348	229982
309.402	112475
309.418	83442
309.457	58889
309.508	36247
309.511	35663
309.566	34097
309.598	37064
309.620	45511
309.674	74625
309.688	79715
309.729	78618
309.778	67492
309.783	65194
309.837	41197
309.868	30056
309.892	29993
309.946	38595
309.959	41467
310.001	59746
310.049	70991
310.055	68451
310.109	41342
310.139	27984
310.163	22086
310.218	12569
310.229	10946
310.272	8875
310.319	7213
310.326	7025
310.381	6228
310.409	5910
310.435	5374
310.489	4377
310.499	4236
310.543	4374
310.589	4663
310.598	4769
310.652	5556
310.679	5784
310.706	5228
310.760	4291
310.769	4149
310.814	3547
310.859	3148
310.868	3223
310.923	3535
310.948	3860
310.977	4125
311.031	4525
311.038	4597
311.085	4840
311.128	4799
311.139	4640
311.193	4115
311.218	3883
311.247	3596
311.301	2925
311.308	2874
311.356	3269
311.398	3617
311.410	3690
311.464	4061
311.488	4238
311.518	3870
311.572	3247
311.578	3210
311.626	4912
311.668	6285
311.680	6224
311.734	5955
311.758	5840
311.788	5839
311.842	5907
311.847	5926
311.896	6339
311.937	6800
311.950	6886
312.004	7235
312.027	7405
312.058	6369
312.112	4563
312.117	4392
312.165	3975
312.207	3643
312.297	4609
312.386	5424
312.476	4334
312.566	8840
312.656	5702
312.745	3679
312.835	3185
312.925	4561
313.015	4030
313.104	4453
313.194	2695
313.284	3619
313.374	4212
313.463	5241
313.553	3106
313.643	3196
313.732	3311
313.822	2332
313.912	3834
314.001	3960
314.091	4995
314.180	5789
314.270	5430
314.360	5823
314.449	6099
314.539	3580
314.628	3522
314.718	4116
314.808	5107
314.897	4108
314.987	3697
315.076	5077
315.166	7068
315.255	6822
315.345	6053
315.434	5995
315.524	4895
315.613	5929
315.703	8660
315.792	12505
315.881	34298
315.971	21254
316.060	9859
316.150	15844
316.239	16328
316.328	8841
316.418	3810
316.507	4365
316.597	4927
316.686	6176
316.775	6389
316.865	16787
316.954	6419
317.043	2819
317.133	3590
317.222	3202
317.311	2776
317.400	3892
317.490	5131
317.579	7711
317.668	4061
317.757	6935
317.847	18827
317.936	62597
318.025	36442
318.114	15859
318.203	10428
318.293	9043
318.382	19514
318.471	17446
318.560	20682
318.649	33783
318.738	13278
318.828	5297
318.917	6647
319.006	5805
319.095	17843
319.184	41482
319.273	34893
319.362	19723
319.451	5483
319.540	5030
319.629	10591
319.718	22341
319.807	8546
319.896	14377
319.985	54513
320.074	33123
320.163	6503
320.252	9440
320.341	7937
320.430	7031
320.519	9597
320.608	8120
320.697	4984
320.786	5528
320.875	7046
320.964	9026
321.053	13050
321.142	19988
321.230	24700
321.319	14541
321.408	34567
321.497	21688
321.586	14442
321.675	15971
321.764	18092
321.852	10057
321.941	17492
322.030	17316
322.119	11594
322.207	36634
322.296	29180
322.385	12795
322.474	14539
322.562	41542
322.651	33695
322.740	14984
322.829	25628
322.917	22393
323.006	16310
323.095	12399
323.183	8548
323.272	10344
323.361	20297
323.449	65553
323.538	32967
323.626	39571
323.715	42742
323.804	9842
323.892	36173
323.981	35079
324.069	7793
324.158	17927
324.246	29038
324.335	7986
324.424	14745
324.512	6917
324.601	5844
324.689	14008
324.778	34768
324.866	20601
324.954	7044
325.043	4186
325.131	8977
325.220	16853
325.308	20894
325.397	13844
325.485	12241
325.574	3267
325.662	3821
325.750	4276
325.839	3544
325.927	3212
326.015	4279
326.104	6047
326.192	11127
326.280	3642
326.369	2818
326.457	4908
326.545	10956
326.634	6988
326.722	2217
326.810	4102
326.898	3312
326.987	3647
327.075	8784
327.163	11868
327.251	5980
327.340	9152
327.428	19888
327.516	4928
327.604	3739
327.692	3676
327.781	3493
327.869	6662
327.957	5639
328.045	5560
328.133	3421
328.221	4332
328.309	3995
328.397	3112
328.485	4078
328.574	5905
328.662	21629
328.750	18281
328.838	6294
328.926	3355
329.014	2138
329.102	3795
329.190	9589
329.278	11127
329.366	3156
329.454	2173
329.542	1471
329.630	2535
329.718	2803
329.806	3742
329.893	3241
329.981	3508
330.069	3061
330.157	13300
330.245	52983
330.333	39492
330.421	6366
330.509	5163
330.597	23623
330.684	24750
330.772	6335
330.860	6893
330.948	8727
331.036	5230
331.123	2246
331.211	2416
331.299	2697
331.387	5545
331.475	14922
331.562	6750
331.650	2966
331.738	2378
331.825	4974
331.913	3028
332.001	2201
332.089	3166
332.176	6421
332.264	17286
332.352	22064
332.439	6543
332.527	3743
332.614	3269
332.702	3742
332.790	3447
332.877	7211
332.965	22764
333.052	10073
333.140	6500
333.228	22137
333.315	8502
333.403	3964
333.490	10468
333.578	15265
333.665	25909
333.753	18392
333.840	4375
333.928	4121
334.015	10001
334.103	16565
334.190	57920
334.278	26882
334.365	7601
334.452	7343
334.540	4572
334.627	4235
334.715	6757
334.802	9706
334.889	58701
334.977	111340
335.064	18680
335.151	5897
335.239	5034
335.326	5156
335.413	18896
335.501	50295
335.588	8592
335.675	4494
335.762	4479
335.850	8366
335.937	6718
336.024	13596
336.111	74982
336.199	59987
336.286	11825
336.373	4845
336.460	3105
336.547	3032
336.635	3781
336.722	4388
336.809	3417
336.896	4385
336.983	13163
337.070	36240
337.157	66087
337.245	47848
337.332	52936
337.419	5503
337.506	3357
337.593	3478
337.680	7795
337.767	37136
337.854	15195
337.941	12381
338.028	17351
338.115	8889
338.202	5136
338.289	8963
338.376	48219
338.463	25637
338.550	15071
338.637	30755
338.724	7974
338.811	17306
338.898	4922
338.984	2387
339.071	2747
339.158	3861
339.245	12503
339.332	11472
339.419	7836
339.506	14020
339.593	3127
339.679	2621
339.766	2782
339.853	2964
339.940	10580
340.027	4964
340.113	3294
340.200	5078
340.287	4287
340.374	3951
340.460	10595
340.547	4898
340.634	5436
340.720	22915
340.807	26504
340.894	2757
340.980	3354
341.067	3121
341.154	3495
341.240	4465
341.327	15216
341.414	7231
341.500	5772
341.587	4193
341.674	3059
341.760	6769
341.847	13072
341.933	5114
342.020	2223
342.106	1568
342.193	2514
342.279	7153
342.366	4860
342.452	9967
342.539	5782
342.625	8514
342.712	30479
342.798	17369
342.885	6796
342.971	2157
343.058	1795
343.144	2225
343.230	3120
343.317	2958
343.403	2704
343.490	1767
343.576	2109
343.662	2195
343.749	3584
343.835	4383
343.921	6501
344.008	31648
344.094	135097
344.180	47836
344.267	9529
344.353	25769
344.439	48488
344.525	16788
344.612	7393
344.698	4755
344.784	4707
344.870	2290
344.957	2437
345.043	4923
345.129	4340
345.215	8019
345.301	6728
345.387	3967
345.474	2464
345.560	1981
345.646	3144
345.732	2950
345.818	4007
345.904	3780
345.990	4065
346.076	3465
346.162	7790
346.249	4816
346.335	1717
346.421	2499
346.507	7655
346.593	52361
346.679	24126
346.765	2917
346.851	3161
346.937	3778
347.023	2705
347.108	2816
347.194	2598
347.280	2421
347.366	3826
347.452	9325
347.538	54690
347.624	51526
347.710	44329
347.796	8744
347.882	3018
347.967	2374
348.053	3651
348.139	2985
348.225	1963
348.311	3195
348.397	1662
348.482	3356
348.568	5016
348.654	2352
348.740	3485
348.825	5716
348.911	4553
348.997	16579
349.083	63935
349.168	16044
349.254	3187
349.340	4133
349.425	2704
349.511	2926
349.597	5267
349.682	7668
349.768	30475
349.854	27943
349.939	3464
350.025	1421
350.110	2448
350.196	1756
350.282	2242
350.367	2043
350.453	2976
350.538	6276
350.624	3302
350.709	4422
350.795	1870
350.880	2848
350.966	2728
351.051	4505
351.137	5097
351.222	2006
351.308	6609
351.393	30979
351.479	13793
351.564	3308
351.649	2612
351.735	2538
351.820	1869
351.906	2050
351.991	3448
352.076	12292
352.162	35622
352.247	9559
352.332	3241
352.418	6134
352.503	9382
352.588	31424
352.673	49537
352.759	10840
352.844	5105
352.929	4063
353.014	7342
353.100	4280
353.185	7209
353.270	10612
353.355	13718
353.441	3623
353.526	3308
353.611	6627
353.696	14702
353.781	7432
353.866	4161
353.952	2995
354.037	6279
354.122	21449
354.207	21752
354.292	11086
354.377	3668
354.462	2065
354.547	3150
354.632	4990
354.717	4940
354.802	10938
354.887	6665
354.972	2915
355.057	2871
355.142	1632
355.227	3317
355.312	5354
355.397	11247
355.482	31655
355.567	26286
355.652	9406
355.737	13859
355.822	29767
355.907	50130
355.991	6988
356.076	3114
356.161	2809
356.246	1840
356.331	3357
356.416	5925
356.501	43218
356.585	94394
356.670	16528
356.755	5804
356.840	6565
356.924	26096
357.009	146431
357.094	102949
357.179	14097
357.263	10620
357.348	7748
357.433	9091
357.517	6367
357.602	7683
357.687	5425
357.771	7813
357.856	23663
357.941	22440
358.025	17747
358.110	122005
358.195	107805
358.279	14205
358.364	6960
358.448	18134
358.533	67601
358.617	68279
358.702	54797
358.787	32023
358.871	10817
358.956	11437
359.040	4605
359.125	3110
359.209	3343
359.294	8811
359.378	24209
359.462	11398
359.547	6286
359.631	4377
359.716	2388
359.800	3180
359.885	3432
359.969	5007
360.053	2655
360.138	3371
360.222	4351
360.306	9890
360.391	10484
360.475	10308
360.559	34103
360.644	28669
360.728	28070
360.812	21063
360.896	100900
360.981	56782
361.065	26306
361.149	7347
361.233	5635
361.318	5864
361.402	6071
361.486	5299
361.570	3614
361.654	5533
361.739	10097
361.823	42462
361.907	117411
361.991	32802
362.075	7686
362.159	19902
362.243	18255
362.327	12646
362.411	19713
362.495	13008
362.580	6956
362.664	3765
362.748	2875
362.832	4707
362.916	6641
363.000	18796
363.084	68705
363.168	137467
363.252	48790
363.336	9999
363.420	9192
363.503	28947
363.587	60238
363.671	14853
363.755	6794
363.839	10846
363.923	6628
364.007	8936
364.091	14449
364.175	11079
364.258	53593
364.342	59700
364.426	60318
364.510	52353
364.594	17101
364.677	13646
364.761	64604
364.845	92188
364.929	21152
365.013	19231
365.096	11282
365.180	17945
365.264	10989
365.347	56730
365.431	44723
365.515	8370
365.598	4795
365.682	4511
365.766	4323
365.849	8551
365.933	5105
366.017	5972
366.100	4583
366.184	2150
366.267	3109
366.351	3081
366.435	2331
366.518	2983
366.602	2637
366.685	2634
366.769	3408
366.852	5018
366.936	10546
367.019	9160
367.103	5076
367.186	8623
367.270	3782
367.353	2884
367.436	2809
367.520	2941
367.603	3521
367.687	5615
367.770	12776
367.853	8822
367.937	15034
368.020	48988
368.104	16697
368.187	7775
368.270	13333
368.353	13121
368.437	12250
368.520	28932
368.603	27427
368.687	19724
368.770	62136
368.853	23835
368.936	9968
369.020	12058
369.103	5776
369.186	3105
369.269	2960
369.352	5462
369.436	13215
369.519	8557
369.602	5151
369.685	3096
369.768	4661
369.851	4127
369.934	2871
370.018	3592
370.101	8917
370.184	10465
370.267	4699
370.350	8444
370.433	14122
370.516	32417
370.599	71704
370.682	26493
370.765	23292
370.848	34801
370.931	66449
371.014	43814
371.097	6782
371.180	4797
371.263	3084
371.346	2692
371.429	2309
371.511	3780
371.594	6508
371.677	10745
371.760	10997
371.843	9852
371.926	27082
372.009	117033
372.091	60851
372.174	20884
372.257	59871
372.340	43673
372.423	14300
372.505	18486
372.588	9613
372.671	13270
372.754	59472
372.836	56349
372.919	14509
373.002	36649
373.085	20358
373.167	9433
373.250	21072
373.332	59301
373.415	65800
373.498	160433
373.580	96741
373.663	54491
373.746	130437
373.828	42347
373.911	11403
373.993	9701
374.076	24722
374.159	44371
374.241	17214
374.324	46274
374.406	55180
374.489	29113
374.571	125530
374.654	95099
374.736	22517
374.819	67088
374.901	107559
374.983	149749
375.066	42115
375.148	8910
375.231	17237
375.313	59830
375.395	32992
375.478	8714
375.560	4894
375.643	6309
375.725	13648
375.807	83697
375.890	111473
375.972	43499
376.054	18767
376.136	26813
376.219	19211
376.301	16094
376.383	87268
376.465	62928
376.548	19558
376.630	23085
376.712	66902
376.794	64411
376.877	7403
376.959	4304
377.041	3902
377.123	5362
377.205	9766
377.287	4074
377.369	2162
377.452	3102
377.534	3730
377.616	3012
377.698	3324
377.780	2910
377.862	3246
377.944	3783
378.026	2628
378.108	2474
378.190	3091
378.272	2966
378.354	2362
378.436	2208
378.518	3426
378.600	13200
378.682	16052
378.764	29243
378.846	44191
378.928	10544
379.010	11892
379.091	10197
379.173	3918
379.255	3249
379.337	4838
379.419	10643
379.501	50608
379.583	39895
379.664	6016
379.746	10720
379.828	29834
379.910	51169
379.991	59188
380.073	16641
380.155	5482
380.237	5200
380.318	3330
380.400	3753
380.482	6334
380.564	14622
380.645	13097
380.727	15705
380.809	8839
380.890	5531
380.972	5080
381.053	4894
381.135	5231
381.217	9582
381.298	35863
381.380	31870
381.461	13529
381.543	48967
381.624	121727
381.706	36516
381.787	9832
381.869	10632
381.951	18717
382.032	102473
382.113	122201
382.195	27662
382.276	12748
382.358	19253
382.439	63432
382.521	77890
382.602	127167
382.684	80547
382.765	79387
382.846	127942
382.928	196382
383.009	184729
383.090	65793
383.172	176826
383.253	480865
383.334	228077
383.416	115775
383.497	97020
383.578	34427
383.659	48320
383.741	137247
383.822	523650
383.903	480505
383.984	114802
384.066	132291
384.147	126129
384.228	33118
384.309	15783
384.390	15290
384.471	10388
384.553	9503
384.634	10998
384.715	14107
384.796	8713
384.877	8359
384.958	25037
385.039	55044
385.120	25533
385.201	8483
385.282	9386
385.363	9530
385.444	9016
385.525	11395
385.606	39340
385.687	65757
385.768	17170
385.849	10251
385.930	32937
386.011	103154
386.092	49869
386.173	8869
386.254	5387
386.335	5922
386.416	5883
386.496	13987
386.577	41315
386.658	22197
386.739	8329
386.820	7147
386.901	5553
386.981	5708
387.062	4953
387.143	7037
387.224	26662
387.304	47697
387.385	16231
387.466	8507
387.547	9160
387.627	8057
387.708	9423
387.789	44870
387.869	97791
387.950	42442
388.031	6100
388.111	3579
388.192	7177
388.273	12246
388.353	11190
388.434	5868
388.514	8203
388.595	39774
388.676	91929
388.756	53629
388.837	31637
388.917	33138
388.998	8309
389.078	4904
389.159	4501
389.239	3549
389.320	6202
389.400	6628
389.480	8661
389.561	34872
389.641	34149
389.722	7649
389.802	10013
389.883	12878
389.963	38874
390.043	45362
390.124	12522
390.204	9061
390.284	35284
390.365	40236
390.445	19414
390.525	56946
390.605	87184
390.686	35195
390.766	11899
390.846	6547
390.927	3538
391.007	3970
391.087	4301
391.167	5421
391.247	5415
391.328	6056
391.408	9032
391.488	8232
391.568	3942
391.648	5095
391.728	8668
391.808	7645
391.888	9197
391.969	14113
392.049	39317
392.129	23646
392.209	12686
392.289	40200
392.369	39165
392.449	16497
392.529	14994
392.609	11089
392.689	12084
392.769	33011
392.849	55455
392.929	24593
393.009	50838
393.089	68999
393.169	43048
393.248	89717
393.328	381937
393.408	719539
393.488	294217
393.568	65497
393.648	30091
393.728	18161
393.807	13813
393.887	11121
393.967	10184
394.047	10527
394.127	11270
394.206	14401
394.286	31261
394.366	161866
394.446	342330
394.525	113787
394.605	21273
394.685	12647
394.764	18238
394.844	33460
394.924	38704
395.003	14795
395.083	9675
395.163	8485
395.242	6645
395.322	7484
395.402	6279
395.481	6904
395.561	11015
395.640	37284
395.720	45322
395.799	40562
395.879	51472
395.958	23039
396.038	43479
396.117	215470
396.197	442970
396.276	167382
396.356	40654
396.435	23519
396.515	19672
396.594	20065
396.673	34278
396.753	87641
396.832	390734
396.912	523641
396.991	164517
397.070	36993
397.150	17495
397.229	12471
397.308	11380
397.388	21831
397.467	17337
397.546	5941
397.625	4943
397.705	7075
397.784	7750
397.863	5598
397.942	3856
398.022	3897
398.101	7213
398.180	31695
398.259	31977
398.338	8099
398.417	5130
398.497	4263
398.576	3854
398.655	2837
398.734	1871
398.813	2647
398.892	6003
398.971	32816
399.050	35664
399.129	5394
399.208	2249
399.287	2081
399.366	1917
399.445	1612
399.524	2034
399.603	1933
399.682	3916
399.761	11145
399.840	32738
399.919	51865
399.998	11173
400.077	2306
400.156	1602
400.235	2954
400.313	1876
400.392	2815
400.471	10227
400.550	34721
400.629	17729
400.708	4793
400.786	2338
400.865	5053
400.944	9720
401.023	6531
401.102	2178
401.180	1147
401.259	1076
401.338	1794
401.416	2659
401.495	3219
401.574	3046
401.652	1769
401.731	2513
401.810	4396
401.888	2206
401.967	907
402.046	1849
402.124	2545
402.203	4352
402.281	3905
402.360	2923
402.438	8020
402.517	10302
402.596	3170
402.674	2444
402.753	1695
402.831	1648
402.910	1183
402.988	6754
403.066	43206
403.145	52377
403.223	12911
403.302	35493
403.380	43036
403.459	32907
403.537	22020
403.615	6200
403.694	1870
403.772	1720
403.850	893
403.929	1468
404.007	1040
404.085	3861
404.164	8548
404.242	4428
404.320	1753
404.398	3629
404.477	8597
404.555	59189
404.633	121635
404.711	29882
404.789	4122
404.868	2659
404.946	2649
405.024	1944
405.102	797
405.180	1257
405.258	217
405.336	1653
405.415	929
405.493	4333
405.571	5463
405.649	2663
405.727	1168
405.805	3191
405.883	3442
405.961	3145
406.039	3088
406.117	1782
406.195	3001
406.273	8909
406.351	63118
406.429	83768
406.507	14741
406.585	3387
406.663	1873
406.740	4251
406.818	3952
406.896	2155
406.974	1205
407.052	3357
407.130	23976
407.208	81167
407.285	33318
407.363	3737
407.441	1761
407.519	2283
407.596	1781
407.674	3650
407.752	10357
407.830	18639
407.907	10204
407.985	4478
408.063	2090
408.141	1052
408.218	2204
408.296	3500
408.373	3611
408.451	2707
408.529	2545
408.606	1837
408.684	698
408.762	514
408.839	-163
408.917	-141
408.994	459
409.072	1138
409.149	1016
409.227	1626
409.304	3400
409.382	3550
409.459	1578
409.537	5851
409.614	5288
409.692	3068
409.769	2337
409.846	5041
409.924	7364
410.001	6135
410.079	3575
410.156	2370
410.233	1555
410.311	1373
410.388	931
410.465	1836
410.543	2528
410.620	1740
410.697	1261
410.775	2856
410.852	1453
410.929	1480
411.006	3864
411.083	2483
411.161	3524
411.238	7114
411.315	3470
411.392	1491
411.469	1384
411.547	2552
411.624	1332
411.701	1349
411.778	1286
411.855	5425
411.932	4836
412.009	1723
412.086	1327
412.163	1170
412.240	2041
412.317	2240
412.394	2727
412.471	1167
412.548	477
412.625	560
412.702	1020
412.779	3803
412.856	3790
412.933	443
413.010	637
413.087	984
413.164	8136
413.241	30135
413.318	13959
413.395	3716
413.471	5044
413.548	4030
413.625	721
413.702	1166
413.779	2206
413.855	899
413.932	-398
414.009	-290
414.086	805
414.162	629
414.239	1749
414.316	8242
414.393	35547
414.469	30835
414.546	3558
414.623	1124
414.699	928
414.776	1819
414.853	1103
414.929	1705
415.006	1323
415.082	1119
415.159	1405
415.236	1082
415.312	1009
415.389	3129
415.465	5902
415.542	4803
415.618	600
415.695	3281
415.771	2458
415.848	1722
415.924	1289
416.000	846
416.077	716
416.153	-149
416.230	-126
416.306	-152
416.383	-211
416.459	1162
416.535	193
416.612	476
416.688	420
416.764	1101
416.841	1062
416.917	876
416.993	1512
417.069	1325
417.146	1996
417.222	3203
417.298	2857
417.374	878
417.451	457
417.527	1227
417.603	3176
417.679	1805
417.755	966
417.831	309
417.908	398
417.984	429
418.060	308
418.136	2449
418.212	7657
418.288	4722
418.364	1538
418.440	553
418.516	2452
418.592	3103
418.668	5107
418.744	11510
418.820	12770
418.896	4930
418.972	-198
419.048	483
419.124	2546
419.200	6671
419.276	2454
419.352	63
419.428	725
419.504	556
419.579	2303
419.655	2280
419.731	1109
419.807	4054
419.883	13302
419.959	15533
420.034	4693
420.110	3131
420.186	15496
420.262	31038
420.337	8296
420.413	2545
420.489	1579
420.565	1318
420.640	144
420.716	2166
420.792	254
420.867	1360
420.943	1129
421.019	3094
421.094	4186
421.170	2711
421.245	102
421.321	1666
421.397	1721
421.472	2110
421.548	6080
421.623	8941
421.699	4973
421.774	4388
421.850	3353
421.925	4506
422.001	5965
422.076	5208
422.152	5319
422.227	8095
422.302	11421
422.378	12366
422.453	21022
422.529	42689
422.604	122403
422.679	287701
422.755	287342
422.830	133037
422.905	44364
422.981	21321
423.056	13960
423.131	9701
423.207	7344
423.282	6027
423.357	9143
423.432	10829
423.508	6118
423.583	11058
423.658	16005
423.733	5954
423.808	3643
423.883	4423
423.959	5149
424.034	4604
424.109	3215
424.184	1973
424.259	1273
424.334	2082
424.409	1121
424.484	1631
424.559	1331
424.634	1306
424.709	2385
424.784	4380
424.859	2757
424.934	1998
425.009	10120
425.084	29646
425.159	24421
425.234	4346
425.309	1328
425.384	2311
425.459	10939
425.534	8871
425.609	1331
425.683	1208
425.758	1382
425.833	1191
425.908	1711
425.983	4344
426.058	24594
426.132	28977
426.207	5187
426.282	2632
426.357	3024
426.431	1424
426.506	1041
426.581	852
426.655	1484
426.730	1290
426.805	1201
426.879	1955
426.954	1682
427.029	2733
427.103	13277
427.178	61296
427.253	69906
427.327	12304
427.402	1855
427.476	9767
427.551	11945
427.625	3701
427.700	2435
427.774	1031
427.849	1371
427.923	1683
427.998	1225
428.072	1208
428.147	3383
428.221	10049
428.296	51418
428.370	70652
428.444	14891
428.519	3902
428.593	6620
428.667	9399
428.742	7170
428.816	9725
428.890	18947
428.965	72962
429.039	50919
429.113	13482
429.188	8657
429.262	2883
429.336	1930
429.410	10315
429.485	16638
429.559	6907
429.633	8298
429.707	3664
429.781	4488
429.855	19535
429.930	73890
430.004	55264
430.078	33840
430.152	45995
430.226	56316
430.300	125113
430.374	49924
430.448	7304
430.522	6734
430.596	29049
430.670	40962
430.744	39310
430.818	132789
430.892	78345
430.966	9516
431.040	3661
431.114	1831
431.188	896
431.262	1177
431.336	1175
431.410	2259
431.484	7128
431.557	14498
431.631	4773
431.705	1437
431.779	4308
431.853	34434
431.927	74330
432.000	21313
432.074	2873
432.148	1033
432.222	2072
432.295	1056
432.369	1061
432.443	1546
432.516	9786
432.590	60278
432.664	69501
432.737	10972
432.811	1569
432.885	-42
432.958	-97
433.032	-233
433.106	250
433.179	-293
433.253	-5
433.326	149
433.400	5
433.473	-41
433.547	224
433.620	729
433.694	1350
433.767	4227
433.841	1636
433.914	-23
433.988	1035
434.061	564
434.134	201
434.208	267
434.281	376
434.355	-504
434.428	428
434.501	217
434.575	-184
434.648	840
434.721	-81
434.795	-320
434.868	263
434.941	-753
435.014	-403
435.088	-146
435.161	1122
435.234	3336
435.307	6592
435.381	4489
435.454	2092
435.527	2499
435.600	3667
435.673	3356
435.746	1679
435.819	1462
435.892	261
435.966	635
436.039	538
436.112	529
436.185	-261
436.258	-284
436.331	-331
436.404	234
436.477	-698
436.550	-572
436.623	688
436.696	-561
436.769	18
436.842	1065
436.915	959
436.987	1125
437.060	1847
437.133	85
437.206	-413
437.279	-130
437.352	37
437.425	43
437.498	-4
437.570	1798
437.643	5441
437.716	2850
437.789	27
437.861	928
437.934	6789
438.007	10733
438.080	2587
438.152	1637
438.225	2205
438.298	11687
438.370	85075
438.443	110701
438.516	27507
438.588	7411
438.661	769
438.734	600
438.806	421
438.879	2563
438.951	1369
439.024	4948
439.096	4879
439.169	1739
439.241	573
439.314	158
439.386	1046
439.459	2345
439.531	4728
439.604	5234
439.676	1540
439.749	134
439.821	219
439.893	748
439.966	709
440.038	1022
440.110	2669
440.183	2092
440.255	1065
440.327	1829
440.400	5245
440.472	38236
440.544	90092
440.617	29431
440.689	5153
440.761	3790
440.833	7874
440.905	10923
440.978	4776
441.050	594
441.122	567
441.194	-162
441.266	190
441.338	700
441.411	1754
441.483	7694
441.555	37854
441.627	28811
441.699	5394
441.771	3021
441.843	2672
441.915	1118
441.987	894
442.059	669
442.131	816
442.203	2536
442.275	3994
442.347	5284
442.419	5042
442.491	11164
442.563	63857
442.635	87512
442.706	28329
442.778	19590
442.850	10135
442.922	2317
442.994	2485
443.066	2230
443.137	4583
443.209	3757
443.281	3925
443.353	6589
443.425	18370
443.496	85224
443.568	199830
443.640	137549
443.711	41099
443.783	9088
443.855	4268
443.926	2002
443.998	1763
444.070	1610
444.141	2564
444.213	4398
444.285	6002
444.356	6443
444.428	5226
444.499	3192
444.571	1240
444.642	935
444.714	1383
444.785	3786
444.857	6204
444.928	6696
445.000	11722
445.071	7469
445.143	9558
445.214	11161
445.285	8504
445.357	16908
445.428	48046
445.500	183315
445.571	251532
445.642	147286
445.714	68307
445.785	28851
445.856	18855
445.928	8097
445.999	8301
446.070	6046
446.141	5472
446.213	6641
446.284	6426
446.355	3126
446.426	2260
446.497	2221
446.569	2389
446.640	4085
446.711	8297
446.782	4717
446.853	1434
446.924	2560
446.995	3034
447.066	2245
447.138	2831
447.209	4180
447.280	1343
447.351	323
447.422	928
447.493	442
447.564	2655
447.635	3849
447.706	5162
447.777	1390
447.847	-179
447.918	324
447.989	1310
448.060	2201
448.131	3848
448.202	7739
448.273	7925
448.344	5724
448.414	1248
448.485	1145
448.556	1568
448.627	389
448.698	1156
448.768	502
448.839	393
448.910	1202
448.981	4247
449.051	3655
449.122	1347
449.193	465
449.263	479
449.334	261
449.405	1363
449.475	3464
449.546	7851
449.616	4932
449.687	5283
449.758	3719
449.828	617
449.899	854
449.969	1450
450.040	774
450.110	647
450.181	1701
450.251	2148
450.322	416
450.392	793
450.463	1080
450.533	698
450.604	534
450.674	556
450.744	1192
450.815	1169
450.885	1292
450.955	695
451.026	349
451.096	529
451.166	1261
451.237	2182
451.307	8154
451.377	12816
451.447	3903
451.518	1586
451.588	553
451.658	580
451.728	1263
451.799	5085
451.869	16277
451.939	14481
452.009	2516
452.079	909
452.149	839
452.219	1557
452.289	5716
452.360	17308
452.430	11394
452.500	2898
452.570	2906
452.640	4750
452.710	8010
452.780	20510
452.850	23179
452.920	19642
452.990	16439
453.060	5115
453.129	3779
453.199	6132
453.269	7631
453.339	45403
453.409	83227
453.479	61547
453.549	67777
453.619	95537
453.688	88672
453.758	30990
453.828	3979
453.898	2666
453.968	1503
454.037	1815
454.087	1351
454.107	1137
454.168	1331
454.177	1329
454.247	1136
454.249	1172
454.316	1410
454.330	1515
454.386	1729
454.411	2288
454.456	2651
454.492	6844
454.525	10472
454.574	12320
454.595	13255
454.655	5230
454.665	3926
454.734	3266
454.736	3352
454.804	4131
454.817	5181
454.873	7799
454.898	11558
454.943	17883
454.979	17639
455.013	17960
455.060	9881
455.082	6414
455.141	4856
455.152	4456
455.221	6192
455.222	6450
455.291	13510
455.303	14279
455.360	19118
455.384	15228
455.430	8536
455.465	8103
455.499	7189
455.546	9151
455.569	9119
455.627	12759
455.638	13762
455.707	9802
455.708	9784
455.777	3030
455.789	3053
455.846	2798
455.869	2796
455.916	2988
455.950	2547
455.985	1914
456.031	2361
456.054	2540
456.112	2820
456.124	2852
456.193	2567
456.193	2543
456.262	3350
456.274	3402
456.332	3245
456.355	3536
456.401	3718
456.436	3718
456.470	3600
456.516	2824
456.540	2577
456.597	2183
456.609	2039
456.678	2611
456.678	2593
456.747	2237
456.759	2240
456.817	2097
456.840	2077
456.886	2060
456.920	2482
456.955	2868
457.001	2743
457.024	2848
457.082	3599
457.093	3654
457.162	4906
457.163	4946
457.232	5298
457.243	5351
457.301	5632
457.324	4944
457.370	4067
457.405	4063
457.439	4007
457.485	3712
457.508	3659
457.566	5106
457.577	5461
457.646	7145
457.647	7190
457.715	10841
457.727	11891
457.784	20440
457.808	24287
457.853	26179
457.889	31272
457.922	30513
457.969	25535
457.991	29254
458.050	33383
458.060	34759
458.129	49269
458.130	49997
458.198	40917
458.211	38163
458.267	32617
458.292	25272
458.336	20325
458.372	16661
458.405	17522
458.453	24139
458.474	31148
458.533	53375
458.543	54427
458.611	71330
458.614	72434
458.680	50497
458.694	41503
458.749	32396
458.775	24066
458.818	13843
458.855	10466
458.887	7877
458.936	6537
458.955	6133
459.016	5949
459.024	5919
459.093	6530
459.097	6536
459.162	6121
459.177	6077
459.230	6617
459.257	7245
459.299	7797
459.338	8157
459.368	8544
459.418	9513
459.437	9029
459.499	7109
459.505	7106
459.574	6407
459.579	6401
459.643	6810
459.659	6853
459.711	6451
459.740	6274
459.780	6401
459.820	7123
459.849	7313
459.900	7127
459.917	7184
459.981	8026
459.986	8050
460.054	8020
460.061	8080
460.123	8771
460.141	8711
460.191	9644
460.222	10792
460.260	12047
460.302	13438
460.328	12383
460.382	10836
460.397	11037
460.462	9988
460.465	10063
460.534	11867
460.543	12189
460.602	22828
460.623	26798
460.671	43935
460.703	56177
460.739	43856
460.783	32300
460.808	28981
460.864	15329
460.876	15326
460.944	8547
460.945	8461
461.013	7492
461.024	7509
461.081	7963
461.104	8195
461.150	7553
461.184	7293
461.218	7414
461.264	7014
461.286	7105
461.345	7474
461.355	7403
461.423	7055
461.425	7045
461.491	7432
461.505	7623
461.559	12899
461.585	15292
461.628	23325
461.665	30609
461.696	31766
461.745	35258
461.764	30101
461.825	14713
461.832	15182
461.901	12369
461.905	12125
461.969	7726
461.985	7630
462.037	7645
462.065	7527
462.105	8776
462.145	10061
462.173	12833
462.225	17838
462.241	19459
462.305	26548
462.310	25697
462.378	13892
462.385	12487
462.446	12065
462.465	10681
462.514	8752
462.545	8777
462.582	8540
462.625	8515
462.650	8453
462.705	8451
462.718	8593
462.785	8879
462.786	8938
462.854	12500
462.865	13072
462.922	13964
462.945	14548
462.990	11584
463.025	9266
463.058	9399
463.104	8753
463.126	8763
463.184	8459
463.194	8378
463.262	8772
463.264	8780
463.330	8749
463.344	8742
463.398	9511
463.424	9727
463.466	9357
463.504	9338
463.533	9453
463.583	9163
463.601	9492
463.663	10837
463.669	11157
463.737	14865
463.743	15184
463.805	19952
463.823	21408
463.873	32243
463.903	38698
463.940	38570
463.982	39057
464.008	31122
464.062	15063
464.076	14983
464.142	10769
464.144	10721
464.211	8599
464.221	8559
464.279	9227
464.301	9589
464.347	10626
464.381	11287
464.414	12581
464.461	14431
464.482	14680
464.540	15310
464.550	15149
464.617	13863
464.620	13810
464.685	14072
464.699	13983
464.753	16562
464.779	17905
464.820	19023
464.859	20191
464.888	19841
464.938	18971
464.956	18644
465.018	17156
465.023	17078
465.091	15983
465.098	15861
465.158	15733
465.177	15529
465.226	15245
465.257	15221
465.293	15766
465.336	16307
465.361	17708
465.416	20811
465.428	21726
465.495	26505
465.496	26643
465.563	42021
465.575	44575
465.631	49703
465.654	52039
465.698	33467
465.734	18260
465.765	17798
465.813	15551
465.833	15382
465.893	15126
465.900	15094
465.968	15494
465.972	15485
466.035	16002
466.052	16136
466.102	15741
466.131	15424
466.170	16139
466.210	16948
466.237	17144
466.290	17344
466.304	17723
466.369	19280
466.372	19331
466.439	19876
466.449	19909
466.506	22290
466.528	23165
466.573	28833
466.607	33022
466.641	46424
466.687	64935
466.708	69736
466.766	82563
466.775	76876
466.842	33432
466.845	31324
466.909	26871
466.925	25594
466.977	24152
467.004	23569
467.044	23503
467.083	23421
467.111	25538
467.163	29389
467.178	29740
467.242	30934
467.245	30886
467.312	28661
467.321	28311
467.379	26609
467.400	25912
467.446	27934
467.480	29306
467.559	25148
467.638	22609
467.717	23754
467.796	24917
467.875	26932
467.955	25119
468.034	34962
468.113	71505
468.192	99103
468.271	29944
468.350	25945
468.429	32976
468.508	32307
468.588	25478
468.667	22219
468.746	24037
468.825	21896
468.904	18903
468.983	22477
469.062	30886
469.141	34507
469.220	19620
469.299	18786
469.378	21931
469.456	26012
469.535	23169
469.614	21579
469.693	23515
469.772	26529
469.851	36769
469.930	25434
470.009	20916
470.088	22764
470.166	28235
470.245	41285
470.324	50079
470.403	33727
470.482	24088
470.560	21662
470.639	21626
470.718	25912
470.797	21468
470.875	24188
470.954	31543
471.033	31780
471.111	17188
471.190	16286
471.269	16917
471.347	16292
471.426	17775
471.505	20876
471.583	23260
471.662	20971
471.740	19277
471.819	18941
471.898	19587
471.976	17581
472.055	17983
472.133	18644
472.212	24943
472.290	25183
472.369	17821
472.447	16682
472.526	15716
472.604	17446
472.683	19649
472.761	19922
472.839	19166
472.918	17893
472.996	18199
473.075	20172
473.153	19433
473.231	17599
473.310	20220
473.388	19104
473.466	19439
473.545	21403
473.623	27854
473.701	25914
473.780	18298
473.858	18629
473.936	19826
474.014	18210
474.093	20681
474.171	26341
474.249	35567
474.327	22183
474.405	16235
474.484	16372
474.562	17208
474.640	17372
474.718	18517
474.796	18604
474.874	17358
474.952	15788
475.030	16720
475.108	18211
475.187	21964
475.265	22213
475.343	30928
475.421	34863
475.499	17699
475.577	18049
475.655	22824
475.733	38578
475.811	63340
475.889	58487
475.966	35753
476.044	18522
476.122	23406
476.200	31423
476.278	22545
476.356	16133
476.434	18179
476.512	21944
476.590	29238
476.667	23529
476.745	15936
476.823	17013
476.901	15994
476.979	16971
477.056	15819
477.134	17067
477.212	18058
477.290	16099
477.367	15183
477.445	14527
477.523	14847
477.601	15435
477.678	15057
477.756	17050
477.834	18771
477.911	14334
477.989	14883
478.066	14279
478.144	18608
478.222	22379
478.299	37681
478.377	30392
478.454	14586
478.532	13955
478.609	15439
478.687	16595
478.764	14268
478.842	14997
478.919	18213
478.997	15596
479.074	13572
479.152	16119
479.229	21124
479.307	13608
479.384	11900
479.461	12265
479.539	13642
479.616	16467
479.694	13941
479.771	15584
479.848	16426
479.926	21932
480.003	20738
480.080	13724
480.157	13101
480.235	12764
480.312	13257
480.389	15127
480.467	21665
480.544	27304
480.621	16242
480.698	15968
480.775	18071
480.853	16874
480.930	14292
481.007	14594
481.084	17015
481.161	18613
481.238	16280
481.315	12991
481.392	13172
481.470	14302
481.547	14495
481.624	13453
481.701	13060
481.778	14264
481.855	16371
481.932	22318
482.009	37333
482.086	24304
482.163	17457
482.240	25209
482.317	48621
482.393	32303
482.470	15673
482.547	14726
482.624	14232
482.701	16015
482.778	14515
482.855	13051
482.932	13830
483.009	12966
483.085	16303
483.162	19556
483.239	18240
483.316	15553
483.393	15738
483.469	14209
483.546	16506
483.623	16112
483.699	13717
483.776	13491
483.853	15535
483.930	22974
484.006	52343
484.083	91842
484.160	49754
484.236	77517
484.313	57699
484.389	45022
484.466	39351
484.543	39627
484.619	41301
484.696	42687
484.772	41776
484.849	41440
484.925	36470
485.002	36496
485.078	37884
485.155	38265
485.231	34521
485.308	33006
485.384	34248
485.461	40343
485.537	60127
485.614	65661
485.690	33502
485.766	31339
485.843	34308
485.919	45870
485.995	47629
486.072	29980
486.148	29866
486.224	28774
486.301	31359
486.377	35338
486.453	38233
486.530	34697
486.606	45219
486.682	48808
486.758	54020
486.835	61653
486.911	51037
486.987	77364
487.063	82227
487.139	108100
487.215	75585
487.292	37789
487.368	35187
487.444	39272
487.520	50843
487.596	51608
487.672	85194
487.748	226458
487.824	340376
487.900	99623
487.976	46183
488.052	41384
488.128	48459
488.204	38446
488.280	31577
488.356	37957
488.432	66419
488.508	98874
488.584	38005
488.660	30158
488.736	29522
488.812	31395
488.888	39269
488.964	51730
489.039	102507
489.115	153541
489.191	84040
489.267	31201
489.343	29364
489.418	25053
489.494	26376
489.570	24299
489.646	24793
489.722	25400
489.797	27252
489.873	37289
489.949	74789
490.024	58458
490.100	25541
490.176	26417
490.251	29598
490.327	40383
490.403	24476
490.478	24132
490.554	20327
490.629	22268
490.705	20570
490.781	24398
490.856	22434
490.932	26800
491.007	25927
491.083	25617
491.158	23095
491.234	30011
491.309	56962
491.385	56084
491.460	23493
491.536	23114
491.611	22447
491.686	23342
491.762	33550
491.837	65540
491.913	108636
491.988	142496
492.063	182379
492.139	46582
492.214	30812
492.289	20476
492.365	20762
492.440	23627
492.515	22026
492.590	22240
492.666	18867
492.741	24843
492.816	35171
492.891	20844
492.967	18347
493.042	16225
493.117	18184
493.192	16792
493.267	19731
493.342	24905
493.418	24408
493.493	17855
493.568	16192
493.643	16958
493.718	21453
493.793	31510
493.868	35826
493.943	22795
494.018	18618
494.093	16947
494.168	16894
494.243	16160
494.318	16190
494.393	15443
494.468	16117
494.543	15141
494.618	20566
494.693	16562
494.768	17086
494.842	17361
494.917	15032
494.992	17139
495.067	14490
495.142	14098
495.217	16491
495.292	15450
495.366	17900
495.441	22070
495.516	28032
495.591	44162
495.665	132208
495.740	323093
495.815	110097
495.890	23972
495.964	20925
496.039	21499
496.114	20423
496.188	22725
496.263	23307
496.338	18973
496.412	22323
496.487	25127
496.561	27586
496.636	27673
496.710	22551
496.785	24240
496.860	28104
496.934	22304
497.009	22852
497.083	23375
497.158	26212
497.232	28706
497.307	34876
497.381	29503
497.455	33439
497.530	40728
497.604	31412
497.679	32450
497.753	47247
497.827	63918
497.902	60762
497.976	70738
498.050	142882
498.125	477220
498.199	453107
498.273	94994
498.348	77008
498.422	62902
498.496	57341
498.570	49839
498.645	37290
498.719	33641
498.793	35952
498.867	52138
498.941	74547
499.016	185803
499.090	516505
499.164	142972
499.238	25873
499.312	24191
499.386	31693
499.460	26786
499.534	24220
499.609	29529
499.683	40712
499.757	38084
499.831	86663
499.905	331190
499.979	282332
500.053	44731
500.127	46525
500.201	35201
500.275	23070
500.349	22054
500.422	25539
500.496	40270
500.570	88424
500.644	181341
500.718	344799
500.792	59179
500.866	20768
500.940	26314
501.013	21421
501.087	21477
501.161	41361
501.235	55024
501.309	106946
501.382	291228
501.456	232952
501.530	53376
501.603	95030
501.677	32356
501.751	17279
501.825	21905
501.898	39943
501.972	117121
502.046	62970
502.119	23302
502.193	52488
502.266	127874
502.340	55489
502.413	53493
502.487	105159
502.561	58529
502.634	20402
502.708	19469
502.781	17443
502.855	13467
502.928	12523
503.002	12765
503.075	13330
503.149	13712
503.222	12892
503.295	13912
503.369	18039
503.442	27809
503.516	82665
503.589	211220
503.662	126839
503.736	41545
503.809	98983
503.882	79256
503.956	122357
504.029	119665
504.102	127467
504.175	171280
504.249	58055
504.322	28860
504.395	23152
504.468	15983
504.542	15506
504.615	13266
504.688	12005
504.761	12237
504.834	15079
504.907	19824
504.980	32913
505.053	16979
505.127	22077
505.200	21303
505.273	20762
505.346	13192
505.419	12131
505.492	10791
505.565	9680
505.638	9194
505.711	9949
505.784	9701
505.857	10300
505.930	10643
506.003	10706
506.076	10890
506.149	15154
506.221	18078
506.294	18718
506.367	48545
506.440	156221
506.513	72761
506.586	19710
506.659	11620
506.731	12753
506.804	14694
506.877	22453
506.950	14743
507.022	11118
507.095	15061
507.168	17976
507.241	11727
507.313	10546
507.386	13139
507.459	17468
507.531	11202
507.604	10743
507.677	9862
507.749	9467
507.822	14386
507.894	30426
507.967	34899
508.040	20249
508.112	17309
508.185	17175
508.257	16889
508.330	23556
508.402	16106
508.475	15607
508.547	16062
508.620	16346
508.692	24272
508.765	16307
508.837	12055
508.909	13325
508.982	12803
509.054	15009
509.127	12442
509.199	12624
509.271	12228
509.344	11881
509.416	11501
509.488	11480
509.560	11986
509.633	13459
509.705	14997
509.777	14444
509.849	20614
509.922	15109
509.994	11647
510.066	12988
510.138	14636
510.210	28932
510.283	24935
510.355	20945
510.427	18717
510.499	16943
510.571	17336
510.643	18400
510.715	27557
510.787	25041
510.859	17595
510.931	20483
511.003	26731
511.076	23372
511.148	15059
511.219	16798
511.291	23261
511.363	25650
511.435	15033
511.507	14006
511.579	14391
511.651	14472
511.723	14219
511.795	13829
511.867	14867
511.939	18389
512.010	31683
512.082	24002
512.154	15765
512.226	16551
512.298	24044
512.369	35079
512.441	25717
512.513	25682
512.585	20472
512.656	19881
512.728	22898
512.800	18739
512.871	17695
512.943	17301
513.015	15789
513.086	17831
513.158	18327
513.230	19071
513.301	25941
513.373	29738
513.444	18381
513.516	15210
513.588	15976
513.659	17723
513.731	21786
513.802	21798
513.874	36892
513.945	65326
514.016	23624
514.088	16858
514.159	19289
514.231	24376
514.302	31104
514.374	22473
514.445	22872
514.516	36825
514.588	29186
514.659	22636
514.730	35974
514.802	29236
514.873	27256
514.944	26593
515.016	22820
515.087	25563
515.158	29062
515.229	36784
515.301	28472
515.372	35460
515.443	23745
515.514	19888
515.585	16726
515.656	16170
515.728	16557
515.799	17046
515.870	17164
515.941	17404
516.012	17276
516.083	23441
516.154	25957
516.225	30568
516.296	27533
516.367	24440
516.438	28778
516.509	41705
516.580	76182
516.651	220481
516.722	728895
516.793	292316
516.864	49493
516.935	45406
517.006	55115
517.077	94370
517.148	244882
517.219	784301
517.289	1217255
517.360	267924
517.431	75764
517.502	31139
517.573	27808
517.643	27597
517.714	28091
517.785	28786
517.856	28116
517.926	32703
517.997	36198
518.068	49956
518.138	81204
518.209	168437
518.280	537352
518.350	1720932
518.421	670918
518.492	77545
518.562	44977
518.633	43863
518.703	50166
518.774	86226
518.845	196729
518.915	187948
518.986	58097
519.056	41824
519.127	63182
519.197	92827
519.268	172110
519.338	103112
519.408	32167
519.479	39302
519.549	30786
519.620	21520
519.690	16783
519.760	18401
519.831	17862
519.901	19490
519.971	15817
520.042	16917
520.112	19455
520.182	22301
520.253	24569
520.323	19609
520.393	29898
520.463	46322
520.534	31819
520.604	62589
520.674	26804
520.744	29902
520.814	71362
520.885	62408
520.955	58242
521.025	187398
521.095	71420
521.165	16921
521.235	16369
521.305	15259
521.375	13846
521.445	16605
521.515	22346
521.585	25011
521.655	24519
521.725	19828
521.795	17586
521.865	14440
521.935	20309
522.005	19037
522.075	14090
522.145	14307
522.215	16648
522.285	22631
522.355	29533
522.424	50198
522.494	45168
522.564	28324
522.634	53656
522.704	143811
522.774	56463
522.843	15745
522.913	14793
522.983	19798
523.053	16375
523.122	16545
523.192	27450
523.262	76274
523.331	76287
523.401	16797
523.471	12675
523.540	13551
523.610	11240
523.680	11492
523.749	12767
523.819	15117
523.888	15204
523.958	12042
524.027	12827
524.097	14693
524.166	12686
524.236	15353
524.305	14601
524.375	13585
524.444	12234
524.514	13625
524.583	13588
524.653	17204
524.722	17734
524.791	14159
524.861	13070
524.930	12305
524.999	13789
525.069	19378
525.138	15683
525.207	18073
525.277	13572
525.346	14585
525.415	14284
525.484	15045
525.554	17428
525.623	15469
525.692	13806
525.761	15858
525.830	16212
525.900	21871
525.969	35815
526.038	68920
526.107	138653
526.176	377910
526.245	308181
526.314	97081
526.383	198424
526.452	289429
526.522	413436
526.591	421926
526.660	94154
526.729	50460
526.797	66256
526.867	151046
526.935	508755
527.004	905391
527.073	512045
527.142	46307
527.211	23269
527.280	22808
527.349	22223
527.418	14719
527.487	13981
527.555	13306
527.624	11986
527.693	11653
527.762	11981
527.831	11230
527.899	11200
527.968	11938
528.037	12081
528.106	14608
528.174	25067
528.243	21570
528.312	27182
528.380	37390
528.449	13885
528.518	11469
528.586	9257
528.655	9970
528.723	9074
528.792	9103
528.861	11488
528.929	10142
528.998	9261
529.066	9303
529.135	9861
529.203	9358
529.272	9183
529.340	10756
529.409	10169
529.477	10289
529.545	13033
529.614	14472
529.682	15485
529.751	16793
529.819	17216
529.887	14279
529.956	10797
530.024	11383
530.092	11437
530.161	13121
530.229	18883
530.297	11970
530.365	9966
530.434	9442
530.502	9680
530.570	10119
530.638	8481
530.707	11189
530.775	12180
530.843	9471
530.911	9793
530.979	9178
531.047	8959
531.115	9883
531.183	9938
531.252	9682
531.320	9742
531.388	10242
531.456	11150
531.524	9591
531.592	9820
531.660	11130
531.728	9720
531.796	9969
531.864	9487
531.932	11285
532.000	10006
532.067	11113
532.135	10065
532.203	13335
532.271	15301
532.339	23000
532.407	56166
532.475	35896
532.542	17078
532.610	22004
532.678	37458
532.746	108859
532.814	272217
532.881	68446
532.949	14718
533.017	12765
533.084	10938
533.152	10560
533.220	11335
533.287	13885
533.355	11505
533.423	11123
533.490	9799
533.558	10360
533.625	11170
533.693	12949
533.761	12242
533.828	12891
533.896	13251
533.963	23009
534.031	28104
534.098	37710
534.166	20964
534.233	12669
534.300	12475
534.368	13386
534.435	12689
534.503	13720
534.570	16314
534.637	15998
534.705	19102
534.772	26819
534.840	51399
534.907	163480
534.974	221984
535.041	28367
535.109	17477
535.176	13038
535.243	12860
535.310	13751
535.378	11780
535.445	12255
535.512	11907
535.579	12345
535.646	11211
535.714	13451
535.781	16103
535.848	14408
535.915	13682
535.982	13569
536.049	12774
536.116	13541
536.183	12704
536.250	13299
536.317	14015
536.384	16370
536.451	21307
536.518	22758
536.585	17307
536.652	19912
536.719	25015
536.786	23582
536.853	18066
536.920	24511
536.987	42450
537.053	48633
537.120	128432
537.187	122604
537.254	17432
537.321	14481
537.388	14473
537.454	12936
537.521	13102
537.588	13881
537.654	14907
537.721	17417
537.788	17106
537.855	13924
537.921	14330
537.988	14743
538.055	13175
538.121	14659
538.188	16921
538.254	21357
538.321	38018
538.388	26744
538.454	15982
538.521	15417
538.587	13817
538.654	13514
538.720	14025
538.787	14163
538.853	15237
538.920	17504
538.986	17243
539.053	15438
539.119	15683
539.185	16163
539.252	17359
539.318	25339
539.385	20033
539.451	19725
539.517	20791
539.583	25103
539.650	42964
539.716	104602
539.782	34381
539.849	15573
539.915	16015
539.981	15849
540.047	18485
540.114	17442
540.180	16212
540.246	18800
540.312	22567
540.378	37929
540.444	43926
540.510	45123
540.576	114515
540.643	43618
540.709	15263
540.775	15540
540.841	15700
540.907	20026
540.973	29958
541.039	25458
541.105	26697
541.171	17891
541.237	16656
541.303	18053
541.369	18293
541.435	22382
541.500	34840
541.566	25155
541.632	14899
541.698	14357
541.764	14373
541.830	14415
541.896	14550
541.961	15254
542.027	15362
542.093	15822
542.159	17002
542.224	18743
542.290	23698
542.356	33299
542.421	39712
542.487	19142
542.553	15687
542.618	17587
542.684	16128
542.750	17194
542.815	23032
542.881	36890
542.947	93079
543.012	79684
543.078	15545
543.143	15387
543.209	16892
543.274	17756
543.340	21739
543.405	39329
543.471	63925
543.536	20328
543.602	15770
543.667	15449
543.732	15208
543.798	15009
543.863	15007
543.928	13816
543.994	13904
544.059	14697
544.124	14856
544.190	15665
544.255	14291
544.320	15564
544.386	16577
544.451	21982
544.516	26039
544.581	29202
544.646	60314
544.712	99189
544.777	25104
544.842	18145
544.907	19205
544.972	17695
545.037	17013
545.102	18632
545.168	19138
545.233	19657
545.298	20748
545.363	24122
545.428	28615
545.493	39878
545.558	79998
545.623	39631
545.688	19204
545.753	19434
545.818	19196
545.883	20161
545.947	20301
546.012	21287
546.077	21652
546.142	21366
546.207	22638
546.272	25677
546.337	27214
546.401	24533
546.466	23352
546.531	23203
546.596	24453
546.661	24930
546.725	24236
546.790	24958
546.855	26548
546.919	28136
546.984	29746
547.049	32176
547.113	36516
547.178	38346
547.243	42337
547.307	48659
547.372	53023
547.436	57183
547.501	52213
547.565	55917
547.630	55079
547.695	54787
547.759	55636
547.823	53469
547.888	50845
547.952	51877
548.017	54576
548.081	59190
548.146	62053
548.210	60341
548.274	59476
548.339	58202
548.403	52868
548.468	49850
548.532	50098
548.596	50874
548.660	51737
548.725	57499
548.789	62635
548.853	62540
548.917	57802
548.982	59880
549.046	56660
549.110	46894
549.174	47455
549.238	54190
549.303	57022
549.367	59775
549.431	56445
549.495	52853
549.559	54002
549.623	62271
549.687	70466
549.751	76943
549.815	80839
549.879	80260
549.943	74654
550.007	79002
550.071	77637
550.135	76805
550.199	70689
550.263	66467
550.327	64989
550.391	70421
550.455	72026
550.519	75270
550.582	79251
550.646	93042
550.710	96814
550.774	86866
550.838	88729
550.901	88571
550.965	95933
551.029	100818
551.093	109891
551.156	125119
551.220	151608
551.284	178180
551.347	130219
551.411	126445
551.475	131675
551.538	97045
551.602	88961
551.666	83070
551.729	79710
551.793	77430
551.856	75751
551.920	74739
551.983	74416
552.047	74118
552.110	74400
552.174	76219
552.237	75947
552.301	72357
552.364	68375
552.428	67679
552.491	70010
552.554	71626
552.618	71700
552.681	78575
552.745	80072
552.808	95807
552.871	118303
552.934	89160
552.998	73996
553.061	70145
553.124	67687
553.187	66753
553.251	68957
553.314	69167
553.377	70318
553.440	73663
553.503	77345
553.567	80803
553.630	74839
553.693	73877
553.756	74224
553.819	73708
553.882	71483
553.945	70565
554.008	71135
554.071	71999
554.134	72760
554.197	68965
554.260	66386
554.323	70366
554.386	69679
554.449	70806
554.512	72731
554.575	69791
554.638	69146
554.701	68158
554.764	66571
554.827	64848
554.889	62146
554.952	58651
555.015	57036
555.078	59960
555.141	59971
555.203	59759
555.266	59416
555.329	58447
555.391	55949
555.454	56420
555.517	55725
555.580	52632
555.642	49359
555.705	50180
555.768	49700
555.830	49862
555.893	46351
555.955	45846
556.018	45166
556.080	45513
556.143	45764
556.206	46274
556.268	45224
556.330	45590
556.393	46020
556.455	43936
556.518	46194
556.580	47675
556.643	40240
556.705	38978
556.767	38030
556.830	38826
556.892	40388
556.955	46231
557.017	41975
557.079	35955
557.142	37150
557.204	38571
557.266	50749
557.328	48028
557.391	31798
557.453	30622
557.515	30822
557.577	34230
557.639	35267
557.701	30320
557.764	29264
557.826	30450
557.888	33260
557.950	36777
558.012	42398
558.074	59760
558.136	97415
558.198	235302
558.260	101398
558.322	34081
558.384	32323
558.446	37067
558.508	40689
558.570	55744
558.632	82676
558.694	140256
558.756	194205
558.818	384617
558.880	972514
558.942	386172
559.003	236075
559.065	135836
559.127	45858
559.189	50577
559.251	71114
559.312	117301
559.374	206026
559.436	603414
559.498	379128
559.559	57544
559.621	53242
559.683	76502
559.744	122885
559.806	275455
559.868	491310
559.929	112531
559.991	64767
560.052	91225
560.114	222277
560.176	181349
560.237	119772
560.299	224049
560.360	60904
560.422	24120
560.483	22792
560.545	20842
560.606	20448
560.667	20923
560.729	19991
560.790	19838
560.852	18697
560.913	18776
560.974	17744
561.036	19226
561.097	18361
561.158	18491
561.220	18192
561.281	19758
561.342	20978
561.403	24041
561.465	28202
561.526	46374
561.587	66857
561.648	25770
561.709	18749
561.771	17686
561.832	17321
561.893	17184
561.954	18110
562.015	17189
562.076	17345
562.137	18124
562.198	17282
562.259	18095
562.320	17532
562.381	19947
562.442	24285
562.503	23015
562.564	17352
562.625	17273
562.686	16937
562.747	19109
562.808	18264
562.869	16850
562.930	19206
562.991	18836
563.051	17487
563.112	17049
563.173	15969
563.234	16427
563.294	16194
563.355	16556
563.416	16603
563.477	16866
563.537	16119
563.598	16836
563.659	16014
563.720	17441
563.780	17364
563.841	17837
563.901	16705
563.962	16828
564.023	15712
564.083	16205
564.144	16083
564.204	16161
564.265	17967
564.325	19398
564.386	25637
564.446	28041
564.507	15437
564.567	16690
564.628	16081
564.688	16905
564.749	16234
564.809	17730
564.869	19015
564.930	16759
564.990	16292
565.050	16200
565.111	15694
565.171	16071
565.231	15416
565.292	16158
565.352	16267
565.412	16316
565.472	16417
565.532	18469
565.593	17278
565.653	16335
565.713	16916
565.773	17538
565.833	19627
565.893	24085
565.953	17100
566.013	16740
566.074	18062
566.134	21911
566.194	26682
566.254	29267
566.314	21556
566.374	18319
566.434	17139
566.494	17841
566.554	18758
566.614	19060
566.673	18562
566.733	20012
566.793	21183
566.853	22278
566.913	20786
566.973	21438
567.033	22795
567.092	23140
567.152	22170
567.212	22109
567.272	22996
567.331	22677
567.391	22901
567.451	25107
567.511	28428
567.570	30757
567.630	22765
567.690	20665
567.749	21082
567.809	22095
567.868	24447
567.928	27177
567.988	32835
568.047	39124
568.107	48427
568.166	66852
568.226	94758
568.285	136917
568.345	114017
568.404	85630
568.464	69978
568.523	65280
568.582	68442
568.642	82655
568.701	105538
568.761	146501
568.820	225905
568.879	227556
568.939	156602
568.998	111455
569.057	82263
569.116	64584
569.176	50316
569.235	44157
569.294	38586
569.353	34287
569.413	30808
569.472	28891
569.531	25990
569.590	24616
569.649	23271
569.708	23456
569.767	22049
569.827	24603
569.886	23018
569.945	19501
570.004	19644
570.063	19159
570.122	19574
570.181	20928
570.240	19985
570.299	21922
570.358	21127
570.417	18508
570.475	16703
570.534	17632
570.593	17936
570.652	17957
570.711	19391
570.770	17873
570.829	17843
570.887	18744
570.946	19562
571.005	17386
571.064	16849
571.122	19148
571.181	19266
571.240	17456
571.299	15175
571.357	16083
571.416	16021
571.475	17260
571.533	18420
571.592	16314
571.650	15853
571.709	16451
571.768	15665
571.826	16629
571.885	15108
571.943	14794
572.002	13857
572.060	15071
572.119	13308
572.177	14135
572.236	13481
572.294	14267
572.352	14037
572.411	14584
572.469	14352
572.528	14749
572.586	15861
572.644	13803
572.703	20023
572.761	16063
572.819	13153
572.877	14299
572.936	12535
572.994	12485
573.052	13157
573.110	14060
573.169	13877
573.227	14235
573.285	13298
573.343	12929
573.401	13024
573.459	13358
573.517	12604
573.576	13589
573.634	12424
573.692	14423
573.750	13077
573.808	13832
573.866	13487
573.924	15549
573.982	15218
574.040	13630
574.098	12596
574.155	12068
574.213	12514
574.271	12792
574.329	13052
574.387	13123
574.445	11990
574.503	11722
574.560	11874
574.618	11678
574.676	12553
574.734	12022
574.792	11713
574.849	11997
574.907	10990
574.965	11039
575.022	11072
575.080	10656
575.138	11014
575.195	12618
575.253	12042
575.311	12667
575.368	11963
575.426	11306
575.483	11078
575.541	12042
575.598	11102
575.656	12265
575.713	11260
575.771	11698
575.828	11313
575.886	10894
575.943	11429
576.001	11322
576.058	12415
576.115	12406
576.173	14156
576.230	15148
576.287	16277
576.345	15114
576.402	11921
576.459	12626
576.517	12038
576.574	13569
576.631	12795
576.688	12412
576.746	11399
576.803	11989
576.860	10852
576.917	11853
576.974	11702
577.031	11918
577.089	11720
577.146	12288
577.203	11589
577.260	12147
577.317	12301
577.374	12985
577.431	12598
577.488	12685
577.545	11729
577.602	11614
577.659	11683
577.716	11317
577.773	11606
577.830	11278
577.886	11111
577.943	10726
578.000	10568
578.057	12024
578.114	11994
578.171	10466
578.227	11837
578.284	11824
578.341	12343
578.398	12188
578.454	13355
578.511	12689
578.568	13505
578.625	12740
578.681	12091
578.738	12196
578.794	11578
578.851	12818
578.908	12068
578.964	13758
579.021	13276
579.077	12413
579.134	11800
579.190	11642
579.247	12378
579.303	12145
579.360	11122
579.416	11106
579.473	10631
579.529	11408
579.586	11271
579.642	11319
579.698	11161
579.755	12426
579.811	11851
579.867	11549
579.924	11500
579.980	10605
580.036	11316
580.093	12945
580.149	12004
580.205	12186
580.261	12302
580.317	12985
580.374	13674
580.430	14480
580.486	14213
580.542	13455
580.598	12482
580.619	12820
580.654	13426
580.692	13038
580.710	12867
580.765	12843
580.767	12857
580.823	12671
580.838	12451
580.879	11918
580.911	12422
580.935	12813
580.984	12329
580.991	12280
581.047	12223
581.057	12207
581.103	12219
581.130	12186
581.159	12181
581.203	12278
581.215	12305
581.270	12737
581.276	12696
581.326	12467
581.349	12427
581.382	12395
581.422	12575
581.438	12676
581.494	13248
581.494	13236
581.550	12968
581.567	12964
581.606	12974
581.640	13014
581.661	13075
581.713	12404
581.717	12356
581.773	12833
581.786	12807
581.829	12802
581.859	13163
581.885	13480
581.932	13124
581.940	13061
581.996	12455
582.004	12452
582.052	12500
582.077	12620
582.107	12771
582.150	12889
582.163	12957
582.219	13840
582.223	13794
582.274	13247
582.296	13236
582.330	13219
582.368	13475
582.386	13581
582.441	13278
582.441	13283
582.497	12850
582.514	12918
582.552	13039
582.587	12842
582.608	12706
582.659	12715
582.663	12724
582.719	13111
582.732	12968
582.774	12548
582.805	12801
582.830	12988
582.877	13487
582.885	13571
582.941	12586
582.950	12719
582.996	13309
583.023	13236
583.052	13317
583.095	13953
583.107	14080
583.162	12729
583.168	12815
583.218	13674
583.240	13497
583.273	13293
583.313	13336
583.328	13319
583.384	12891
583.385	12910
583.439	13373
583.458	13211
583.494	12966
583.531	13103
583.549	13248
583.603	13277
583.605	13264
583.660	13703
583.676	13422
583.715	12848
583.748	13061
583.770	13300
583.820	13692
583.825	13711
583.881	14232
583.893	14277
583.936	14358
583.965	14100
583.991	13862
584.038	12947
584.046	12795
584.101	13881
584.110	13813
584.156	13538
584.183	13754
584.211	13924
584.255	13754
584.266	13688
584.321	13743
584.328	13698
584.376	13576
584.400	13811
584.431	13988
584.472	14047
584.486	14051
584.541	14374
584.545	14374
584.596	14432
584.617	14714
584.651	15270
584.689	15352
584.706	15363
584.761	15705
584.762	15709
584.816	15412
584.834	15548
584.871	15649
584.906	15611
584.926	15779
584.978	16237
584.980	16243
585.035	16813
585.051	16995
585.090	17507
585.123	17934
585.145	18240
585.195	19025
585.200	19096
585.254	20140
585.267	20579
585.309	21977
585.340	23679
585.364	25127
585.412	29606
585.419	30221
585.473	37679
585.484	40258
585.528	51249
585.556	59322
585.583	68528
585.628	86221
585.637	92712
585.692	162513
585.700	183781
585.747	323915
585.772	305424
585.801	230367
585.845	112690
585.856	85623
585.910	37461
585.917	32793
585.965	27287
585.989	25195
586.019	23945
586.061	23152
586.074	23022
586.128	23069
586.133	23093
586.183	23423
586.205	23519
586.237	23691
586.277	23962
586.292	23910
586.346	23421
586.349	23447
586.401	23895
586.421	24303
586.455	24910
586.493	25624
586.509	26148
586.564	28021
586.565	28193
586.618	37098
586.637	38719
586.672	40530
586.709	37444
586.727	33985
586.781	30044
586.781	30021
586.835	29333
586.853	29024
586.889	27842
586.925	26924
586.944	26599
586.996	26891
586.998	26903
587.052	27903
587.068	28386
587.106	28864
587.140	29023
587.161	29216
587.212	29898
587.215	29943
587.269	31943
587.284	32436
587.323	33049
587.356	33639
587.377	33874
587.427	34505
587.431	34577
587.485	36440
587.499	36937
587.539	38124
587.571	39441
587.593	40396
587.643	41953
587.648	42011
587.702	43453
587.715	44052
587.755	46314
587.786	47934
587.810	49175
587.858	51661
587.864	51898
587.917	55767
587.930	56742
587.971	60507
588.001	63610
588.025	66055
588.073	70950
588.079	71579
588.133	79043
588.145	80835
588.187	87681
588.217	93774
588.241	98974
588.288	110236
588.295	111868
588.348	128746
588.360	132924
588.402	149642
588.431	163796
588.456	176610
588.503	206502
588.510	210924
588.564	255044
588.575	267019
588.617	316108
588.646	356837
588.671	396933
588.718	485293
588.725	502041
588.778	656011
588.789	693672
588.832	903006
588.861	1059914
588.886	1234112
588.932	1504900
588.939	1517751
588.993	1464085
589.004	1492138
589.047	1525621
589.075	1503376
589.100	1392502
589.147	1082360
589.154	1035356
589.207	719765
589.218	664372
589.261	574165
589.290	530092
589.314	523562
589.361	529812
589.368	538106
589.421	639673
589.433	668845
589.475	876369
589.504	1030399
589.528	1190835
589.576	1407072
589.582	1400151
589.635	1369311
589.647	1350568
589.689	1106079
589.718	900406
589.742	730204
589.790	433285
589.795	416668
589.849	289492
589.861	263399
589.902	219621
589.932	190247
589.955	174555
590.004	143777
590.009	141050
590.062	116906
590.075	111536
590.115	101815
590.146	94859
590.168	90419
590.218	82237
590.222	81581
590.275	74239
590.289	72660
590.328	68998
590.360	66165
590.381	63994
590.431	59398
590.435	59050
590.488	54911
590.503	53911
590.541	52025
590.574	50567
590.594	49612
590.645	47626
590.647	47458
590.700	44644
590.716	43895
590.753	42423
590.787	41386
590.806	40855
590.859	39569
590.859	39491
590.912	38200
590.930	37920
590.965	37536
591.001	37206
591.018	36867
591.071	36104
591.072	36141
591.124	35175
591.143	34835
591.177	34101
591.214	33749
591.230	33653
591.283	33210
591.285	33238
591.336	33565
591.356	33835
591.389	34370
591.427	34926
591.442	34126
591.495	31078
591.498	30914
591.547	30725
591.569	30681
591.600	29975
591.640	28976
591.653	28889
591.706	28863
591.711	28904
591.759	28717
591.782	28625
591.811	29141
591.853	30159
591.864	30142
591.917	29986
591.924	29985
591.969	28074
591.995	27131
592.022	27417
592.066	27943
592.075	27898
592.127	27824
592.137	27863
592.180	29057
592.208	29853
592.233	29713
592.279	29442
592.285	29217
592.338	27629
592.350	27297
592.390	26798
592.421	26477
592.443	26727
592.491	27393
592.495	27334
592.548	26846
592.562	26743
592.600	25997
592.633	25410
592.653	25649
592.704	26224
592.705	26360
592.775	25720
592.846	26252
592.916	25936
592.987	27733
593.058	28327
593.128	25743
593.199	24488
593.270	24962
593.341	24816
593.411	25467
593.482	26417
593.553	25291
593.623	25624
593.694	24379
593.764	26571
593.835	26404
593.906	24913
593.976	25796
594.047	26440
594.117	28029
594.188	29461
594.258	28770
594.329	27247
594.399	26043
594.470	27554
594.540	25376
594.611	27603
594.681	27600
594.751	27555
594.822	28752
594.892	29879
594.963	30380
595.033	30851
595.103	30664
595.174	30555
595.244	33515
595.314	40342
595.384	37629
595.455	31084
595.525	33084
595.595	33518
595.665	34635
595.736	33781
595.806	32853
595.876	33304
595.946	33473
596.016	33564
596.087	34512
596.157	36236
596.227	34827
596.297	35809
596.367	36954
596.437	39503
596.507	42394
596.577	46761
596.647	45842
596.717	41303
596.787	42091
596.857	42704
596.927	42657
596.997	42933
597.067	43105
597.137	44383
597.207	44242
597.277	45231
597.347	43816
597.417	42079
597.487	43341
597.557	42399
597.626	43797
597.696	45377
597.766	46390
597.836	49419
597.906	45593
597.975	41022
598.045	39146
598.115	39833
598.185	42000
598.254	45689
598.324	49999
598.394	53150
598.464	53691
598.533	51874
598.603	49442
598.672	46158
598.742	45890
598.812	46696
598.881	46906
598.951	47791
599.020	46171
599.090	47247
599.159	50075
599.229	49078
599.299	46414
599.368	46228
599.437	48023
599.507	45652
599.576	43470
599.646	42420
599.715	41681
599.785	41163
599.854	41309
599.924	40922
599.993	41575
600.062	39305
600.132	41771
600.201	42193
600.270	47183
600.340	52146
600.409	51001
600.478	50521
600.547	51170
600.617	51299
600.686	42543
600.755	37709
600.824	37010
600.894	36203
600.963	33766
601.032	33652
601.101	33529
601.170	31427
601.239	30658
601.308	31519
601.378	33070
601.447	31029
601.516	31265
601.585	31194
601.654	33510
601.723	34516
601.792	30991
601.861	33305
601.930	34119
601.999	37256
602.068	36817
602.137	35926
602.206	40517
602.275	36411
602.343	37864
602.412	41732
602.481	39184
602.550	35338
602.619	35639
602.688	37511
602.756	37339
602.825	36664
602.894	37816
602.963	37917
603.032	38625
603.100	38608
603.169	38678
603.238	39721
603.307	39014
603.375	38955
603.444	40406
603.513	40671
603.581	41205
603.650	41675
603.719	41844
603.787	41068
603.856	42103
603.924	42971
603.993	45516
604.061	45354
604.130	46818
604.198	49199
604.267	50302
604.335	50807
604.404	50508
604.472	50954
604.541	51572
604.609	52010
604.678	52192
604.746	51484
604.815	53679
604.883	54805
604.951	55160
605.020	54669
605.088	56467
605.156	56331
605.225	58730
605.293	58233
605.361	58497
605.429	59197
605.498	59881
605.566	62657
605.634	64872
605.702	66845
605.771	69233
605.839	69243
605.907	68900
605.975	65896
606.043	64642
606.111	63692
606.180	63433
606.248	64288
606.316	63444
606.384	62295
606.452	64605
606.520	68184
606.588	73039
606.656	66669
606.724	67156
606.792	64014
606.860	60449
606.928	54277
606.996	50597
607.064	49296
607.132	48460
607.200	49962
607.267	54467
607.335	53957
607.403	57292
607.471	56231
607.539	54076
607.607	54178
607.674	51928
607.742	47574
607.810	48531
607.878	49438
607.946	49414
608.013	50020
608.081	52255
608.149	52378
608.216	51319
608.284	53715
608.352	55141
608.419	54439
608.487	54986
608.555	56229
608.622	52850
608.690	54937
608.757	59250
608.825	64159
608.893	63937
608.960	63398
609.028	61158
609.095	61256
609.163	61256
609.230	56178
609.298	48660
609.365	47200
609.432	50737
609.500	54717
609.567	60936
609.635	68198
609.702	77474
609.769	78604
609.837	73100
609.904	56766
609.971	54792
610.039	58200
610.106	69248
610.173	106337
610.241	237590
610.308	426601
610.375	222037
610.442	102578
610.509	61020
610.577	56847
610.644	54277
610.711	54904
610.778	56955
610.845	58266
610.912	60294
610.980	63299
611.047	64677
611.114	63923
611.181	63392
611.248	60848
611.315	62051
611.382	64068
611.449	65805
611.516	68352
611.583	68833
611.650	68531
611.717	69931
611.784	69861
611.851	73319
611.918	78566
611.984	87706
612.051	112426
612.118	182442
612.185	434532
612.252	841461
612.319	241967
612.386	99263
612.452	87318
612.519	81476
612.586	80873
612.653	82508
612.719	80045
612.786	81767
612.853	75338
612.919	70302
612.986	71457
613.053	69510
613.120	65618
613.186	61954
613.253	61754
613.319	60755
613.386	62227
613.453	63390
613.519	64083
613.586	67383
613.652	73928
613.719	75540
613.785	74141
613.852	66054
613.918	63433
613.985	62956
614.051	65196
614.118	67811
614.184	66873
614.250	63873
614.317	64272
614.383	64246
614.449	63794
614.516	65589
614.582	64720
614.648	65970
614.715	63732
614.781	64210
614.847	61163
614.914	63201
614.980	61994
615.046	61601
615.112	60528
615.179	63554
615.245	63878
615.311	66565
615.377	70879
615.443	84270
615.509	76514
615.575	69323
615.642	68069
615.708	68212
615.774	72045
615.840	76008
615.906	82203
615.972	97268
616.038	144256
616.104	258777
616.170	516975
616.236	1141103
616.302	439393
616.368	135094
616.434	107586
616.500	83023
616.565	82647
616.631	97533
616.697	106253
616.763	87684
616.829	102721
616.895	174371
616.961	270581
617.026	174471
617.092	79549
617.158	68233
617.224	65502
617.289	63412
617.355	59411
617.421	58218
617.487	57340
617.552	56845
617.618	54059
617.684	54484
617.749	54752
617.815	54584
617.880	52035
617.946	52115
618.012	51909
618.077	53548
618.143	53444
618.208	50946
618.274	53218
618.339	55107
618.405	53077
618.470	47243
618.536	47472
618.601	47529
618.667	46759
618.732	44668
618.798	42800
618.863	42189
618.928	41452
618.994	41617
619.059	43659
619.124	47961
619.190	51779
619.255	42380
619.320	40433
619.386	41246
619.451	41375
619.516	40456
619.581	39833
619.647	41142
619.712	41898
619.777	40140
619.842	39219
619.907	41224
619.972	41235
620.038	42845
620.103	39886
620.168	39717
620.233	40073
620.298	40307
620.363	40288
620.428	41718
620.493	41776
620.558	42182
620.623	42682
620.688	43394
620.753	42906
620.818	44236
620.883	44969
620.948	43826
621.013	43443
621.078	44160
621.143	42508
621.207	44862
621.272	44187
621.337	44715
621.402	43753
621.467	44211
621.532	46830
621.596	46763
621.661	43740
621.726	41294
621.791	40991
621.855	42924
621.920	44429
621.985	43305
622.049	43950
622.114	45699
622.179	44098
622.243	43259
622.308	45861
622.373	45945
622.437	47801
622.502	46058
622.566	44342
622.631	42998
622.695	44007
622.760	43168
622.824	43367
622.889	44081
622.953	45301
623.018	49255
623.082	63229
623.147	52279
623.211	46434
623.276	46477
623.340	45567
623.404	41817
623.469	42962
623.533	41741
623.597	41395
623.662	41562
623.726	41132
623.790	37734
623.854	36130
623.919	37166
623.983	36211
624.047	39068
624.111	38023
624.176	37771
624.240	38739
624.304	41833
624.368	40163
624.432	38293
624.496	39286
624.560	40739
624.625	45215
624.689	44565
624.753	41846
624.817	42348
624.881	40689
624.945	39179
625.009	35116
625.073	35223
625.137	37071
625.201	40744
625.265	46216
625.329	40315
625.393	38059
625.456	38451
625.520	38695
625.584	39489
625.648	41963
625.712	44353
625.776	56188
625.839	77941
625.903	70269
625.967	36519
626.031	35728
626.095	45840
626.158	53065
626.222	34456
626.286	28294
626.349	26872
626.413	26100
626.477	25933
626.540	26710
626.604	25785
626.668	24563
626.731	24351
626.795	23603
626.858	24760
626.922	24804
626.986	24131
627.049	22618
627.113	23993
627.176	24175
627.240	22771
627.303	22916
627.366	22784
627.430	23023
627.493	23344
627.557	21968
627.620	23007
627.684	22832
627.747	24110
627.810	23218
627.874	22152
627.937	20630
628.000	19660
628.064	20918
628.127	19872
628.190	17920
628.253	18226
628.317	18449
628.380	16853
628.443	16688
628.506	16750
628.569	16494
628.632	15394
628.696	15421
628.759	14462
628.822	15392
628.885	13391
628.948	14670
629.011	13975
629.074	14732
629.137	14361
629.200	13273
629.263	13585
629.326	13648
629.389	13341
629.452	13486
629.515	13195
629.578	13440
629.641	13275
629.704	14437
629.767	13748
629.830	12938
629.892	11812
629.955	12931
630.018	13413
630.081	13965
630.144	17103
630.207	16282
630.269	14965
630.332	12418
630.395	14152
630.458	11779
630.520	11608
630.583	12352
630.646	11868
630.708	10739
630.771	11615
630.834	11241
630.896	11860
630.959	11593
631.021	11910
631.084	12106
631.146	11913
631.209	12123
631.272	12816
631.334	11975
631.397	11922
631.459	12413
631.522	12241
631.584	12703
631.646	13853
631.709	14227
631.771	16191
631.834	17554
631.896	13955
631.958	12414
632.021	13162
632.083	11591
632.145	11784
632.208	11845
632.270	12168
632.332	11248
632.395	11338
632.457	10996
632.519	11655
632.581	10437
632.643	10809
632.706	10664
632.768	10860
632.830	9707
632.892	10583
632.954	10985
633.016	11587
633.078	11100
633.141	11353
633.203	9433
633.265	11173
633.327	10573
633.389	10663
633.451	10774
633.513	12857
633.575	14053
633.637	13264
633.698	14082
633.760	12656
633.822	11324
633.884	11386
633.946	11799
634.008	12142
634.070	12359
634.132	12486
634.193	12878
634.255	14714
634.317	15393
634.379	15939
634.441	14877
634.502	13747
634.564	12004
634.626	10938
634.687	11030
634.749	10751
634.811	9687
634.873	10029
634.934	10054
634.996	10003
635.057	9711
635.119	10488
635.181	10230
635.242	10751
635.304	10193
635.365	10427
635.427	10089
635.488	10136
635.550	9908
635.611	9468
635.673	9745
635.734	10320
635.796	10483
635.857	12121
635.918	12817
635.980	12344
636.041	14089
636.102	15568
636.164	17033
636.225	16270
636.286	14905
636.348	13701
636.409	11548
636.470	11269
636.531	10339
636.593	10203
636.654	10491
636.715	10688
636.776	8416
636.838	8608
636.899	8679
636.960	8920
637.021	9223
637.082	8575
637.143	8579
637.204	7439
637.265	7851
637.326	8934
637.387	8614
637.448	8346
637.509	7675
637.570	7708
637.631	7757
637.692	8443
637.753	6872
637.814	7835
637.875	8070
637.936	8580
637.997	8038
638.058	8112
638.119	8099
638.179	7966
638.240	7317
638.301	8033
638.362	7323
638.423	7947
638.483	6875
638.544	7405
638.605	7034
638.666	6766
638.726	7641
638.787	7146
638.848	6813
638.908	6639
638.969	6441
639.030	7009
639.090	6816
639.151	6059
639.211	7719
639.272	8805
639.332	10765
639.393	15881
639.453	8355
639.514	8171
639.574	7531
639.635	6823
639.695	5987
639.756	6783
639.816	6986
639.877	7435
639.937	10281
639.997	17470
640.058	16258
640.118	7337
640.178	6579
640.239	7045
640.299	6195
640.359	6685
640.420	6791
640.480	6957
640.540	7876
640.600	8588
640.661	8434
640.721	7385
640.781	9236
640.841	8727
640.901	7206
640.961	7895
641.021	7152
641.082	7465
641.142	10289
641.202	12343
641.262	6264
641.322	6615
641.382	5997
641.442	5895
641.502	6111
641.562	6764
641.622	6422
641.682	6923
641.742	6382
641.802	7679
641.861	6353
641.921	6482
641.981	7355
642.041	7080
642.101	7808
642.161	9234
642.221	6431
642.280	5518
642.340	5543
642.400	5574
642.460	6026
642.519	6036
642.579	5749
642.639	6211
642.698	4776
642.758	6766
642.818	5298
642.877	5626
642.937	6209
642.997	6881
643.056	8326
643.116	10130
643.175	7458
643.235	6347
643.294	6844
643.354	6762
643.414	7778
643.473	8314
643.532	10609
643.592	13291
643.651	20041
643.711	33914
643.770	65274
643.830	129196
643.889	350291
643.948	509702
644.008	68412
644.067	17452
644.126	12283
644.186	9929
644.245	8291
644.304	7250
644.363	7062
644.423	6690
644.482	6229
644.541	6252
644.600	6612
644.659	7723
644.719	8193
644.778	12175
644.837	16881
644.896	33534
644.955	70831
645.014	125468
645.073	26079
645.132	9588
645.191	6955
645.250	7065
645.309	6762
645.368	6822
645.427	7771
645.486	9624
645.545	17743
645.604	22814
645.663	6939
645.722	6376
645.781	6543
645.840	7553
645.898	8772
645.957	11661
646.016	18165
646.075	31802
646.134	58216
646.192	114108
646.251	339810
646.310	307768
646.369	32329
646.427	12716
646.486	10155
646.545	7717
646.603	7438
646.662	6256
646.721	5556
646.779	5943
646.838	5007
646.896	7432
646.955	8447
647.014	10978
647.072	18351
647.131	36753
647.189	88136
647.248	25183
647.306	6830
647.365	5391
647.423	4539
647.481	4708
647.540	3910
647.598	4605
647.657	3721
647.715	3435
647.773	3585
647.832	3911
647.890	3848
647.948	4224
648.007	4343
648.065	3104
648.123	3161
648.181	4289
648.240	3862
648.298	3550
648.356	3579
648.414	4129
648.472	4070
648.531	4325
648.589	3835
648.647	3496
648.705	2886
648.763	3767
648.821	3411
648.879	4505
648.937	3621
648.995	4676
649.053	5886
649.111	8709
649.169	14673
649.227	24404
649.285	45352
649.343	100521
649.401	250793
649.459	71317
649.516	25010
649.574	11650
649.632	7140
649.690	7790
649.748	7684
649.806	8513
649.863	13198
649.921	22931
649.979	63257
650.037	26435
650.094	4835
650.152	3852
650.210	3156
650.268	3970
650.325	3501
650.383	3625
650.440	2629
650.498	3487
650.556	2989
650.613	2485
650.671	3291
650.728	2926
650.786	3315
650.843	3122
650.901	3199
650.958	3269
651.016	2186
651.073	2454
651.131	2530
651.188	2136
651.246	2856
651.303	2508
651.360	2186
651.418	2546
651.475	2497
651.532	1730
651.590	3043
651.647	1842
651.704	2283
651.762	2723
651.819	2018
651.876	2257
651.933	2334
651.990	2236
652.048	1108
652.105	1900
652.162	2371
652.219	2557
652.276	1948
652.333	1654
652.390	1827
652.448	1669
652.505	1696
652.562	2095
652.619	1600
652.676	2185
652.733	2289
652.790	1891
652.847	1085
652.904	1892
652.961	1845
653.017	1527
653.074	2394
653.131	2117
653.188	1507
653.245	1835
653.302	1241
653.359	2145
653.415	2169
653.472	2232
653.529	1778
653.586	1910
653.642	1330
653.699	1766
653.756	1298
653.813	2249
653.869	2421
653.926	866
653.983	2488
654.039	1812
654.096	1148
654.152	2014
654.209	1950
654.266	1839
654.322	1970
654.379	1889
654.435	2200
654.492	2122
654.548	1992
654.605	4747
654.661	5986
654.717	2290
654.774	1881
654.830	1763
654.887	1668
654.943	1851
655.000	2012
655.056	1482
655.112	1277
655.168	1317
655.225	1433
655.281	1686
655.337	2284
655.394	3207
655.450	4382
655.506	3550
655.562	2938
655.618	4772
655.675	2905
655.731	1697
655.787	795
655.843	1986
655.899	1394
655.955	1973
656.011	1510
656.067	1415
656.123	2364
656.179	1961
656.235	1608
656.291	2359
656.347	1944
656.403	2022
656.459	2461
656.515	2156
656.571	1779
656.627	1975
656.683	1334
656.739	2109
656.795	1707
656.850	2757
656.906	2013
656.962	2672
657.018	1887
657.074	1692
657.129	2125
657.185	3231
657.241	3394
657.297	7202
657.352	3593
657.408	1276
657.464	2119
657.519	1790
657.575	1293
657.630	1423
657.686	1320
657.742	-67
657.797	1329
657.853	1797
657.908	1842
657.964	1469
658.019	1358
658.075	1252
658.130	882
658.186	1074
658.241	994
658.297	1576
658.352	1563
658.407	1961
658.463	318
658.518	1422
658.573	2400
658.629	1301
658.684	1211
658.739	1504
658.795	485
658.850	983
658.905	688
658.960	1419
659.016	544
659.071	2018
659.126	1347
659.181	1391
659.236	2745
659.291	5373
659.346	3361
659.401	1319
659.457	2072
659.512	909
659.567	1427
659.622	1126
659.677	1148
659.732	1236
659.787	1529
659.842	1874
659.897	1665
659.952	1879
660.007	530
660.061	859
660.116	1562
660.171	887
660.226	495
660.281	1727
660.336	1122
660.391	1178
660.445	1175
660.500	1157
660.555	1086
660.610	847
660.664	1473
660.719	547
660.774	602
660.828	1047
660.883	1135
660.938	1430
660.992	767
661.047	1479
661.101	1603
661.156	1363
661.211	794
661.265	1217
661.320	139
661.374	1450
661.429	934
661.483	1108
661.538	495
661.592	1018
661.647	584
661.701	870
661.755	1742
661.810	1077
661.864	726
661.919	854
661.973	993
662.027	995
662.081	678
662.136	789
662.190	1036
662.244	1509
662.299	955
662.353	995
662.407	857
662.461	1199
662.515	1028
662.569	1607
662.624	1487
662.678	1396
662.732	283
662.786	887
662.840	728
662.894	1356
662.948	858
663.002	1348
663.056	920
663.110	887
663.164	144
663.218	1692
663.272	1082
663.326	945
663.380	1823
663.434	1804
663.488	768
663.542	1646
663.595	1818
663.649	689
663.703	1739
663.757	1707
663.811	680
663.864	509
663.918	2094
663.972	1233
664.026	1256
664.079	480
664.133	1507
664.187	1449
664.240	868
664.294	910
664.348	812
664.401	1385
664.455	871
664.508	742
664.562	845
664.615	735
664.669	1051
664.722	1366
664.776	922
664.829	994
664.883	1093
664.936	816
664.990	355
665.043	1809
665.097	413
665.150	1272
665.203	461
665.257	913
665.310	820
665.363	1326
665.417	948
665.470	1196
665.523	1387
665.576	1370
665.630	665
665.683	905
665.736	886
665.789	1343
665.842	1003
665.895	710
665.949	1833
666.002	1118
666.055	1337
666.108	1233
666.161	1011
666.214	1689
666.267	1247
666.320	2030
666.373	1982
666.426	1807
666.479	1158
666.532	1588
666.585	2011
666.638	1575
666.691	1709
666.744	949
666.796	1133
666.849	1345
666.902	2130
666.955	1113
667.008	898
667.060	531
667.113	1024
667.166	1822
667.219	621
667.271	1241
667.324	1515
667.377	729
667.430	2138
667.482	1006
667.535	2061
667.587	1311
667.640	1396
667.693	1545
667.745	2212
667.798	5284
667.850	4509
667.903	2093
667.955	674
668.008	1125
668.060	1247
668.113	1281
668.165	1281
668.218	1668
668.270	1451
668.322	1373
668.375	1168
668.427	1716
668.479	921
668.532	1069
668.584	1393
668.636	866
668.689	1880
668.741	864
668.793	1774
668.845	1491
668.898	1169
668.950	883
669.002	1152
669.054	1152
669.106	1088
669.158	1027
669.211	1200
669.263	1874
669.315	1668
669.367	864
669.419	1706
669.471	1737
669.523	2054
669.575	2624
669.627	2890
669.679	2614
669.731	1869
669.783	2202
669.835	1817
669.886	2600
669.938	2336
669.990	2428
670.042	1315
670.094	1328
670.146	2461
670.197	2504
670.249	3237
670.301	4060
670.353	6324
670.404	8525
670.456	11251
670.508	18983
670.560	30630
670.611	51788
670.663	86890
670.715	151629
670.766	351457
670.818	521329
670.869	169825
670.921	33099
670.972	16089
671.024	10182
671.075	8078
671.127	6084
671.178	4077
671.230	4305
671.281	3133
671.333	3620
671.384	2903
671.436	2632
671.487	3468
671.538	4545
671.590	4789
671.641	7838
671.692	11453
671.744	21438
671.795	40899
671.846	21562
671.897	6885
671.949	4138
672.000	3102
672.051	3299
672.102	2244
672.153	1370
672.204	1087
672.256	1484
672.307	1553
672.358	1244
672.409	1683
672.460	1250
672.511	1098
672.562	998
672.613	782
672.664	1457
672.715	1291
672.766	2019
672.817	230
672.868	1062
672.919	661
672.970	1090
673.021	1337
673.071	1484
673.122	1530
673.173	1781
673.224	852
673.275	1339
673.326	34
673.376	1059
673.427	193
673.478	932
673.528	1523
673.579	1018
673.630	268
673.680	888
673.731	624
673.782	1560
673.832	1215
673.883	744
673.934	457
673.984	520
674.035	582
674.085	1533
674.136	355
674.186	318
674.237	1360
674.287	1177
674.338	1596
674.388	1260
674.438	1299
674.489	1288
674.539	1232
674.589	899
674.640	1166
674.690	1202
674.740	686
674.791	574
674.841	802
674.891	981
674.942	1049
674.992	729
675.042	681
675.092	1238
675.142	848
675.193	579
675.243	859
675.293	419
675.343	547
675.393	229
675.443	1006
675.493	963
675.543	266
675.593	759
675.643	394
675.693	641
675.743	736
675.793	873
675.843	-79
675.893	703
675.943	672
675.993	442
676.043	-161
676.093	1804
676.142	-44
676.192	492
676.242	875
676.292	397
676.341	17
676.391	694
676.441	420
676.491	837
676.540	-29
676.590	421
676.640	509
676.689	646
676.739	-581
676.789	92
676.838	293
676.888	1260
676.937	438
676.987	294
677.037	655
677.086	-66
677.136	-658
677.185	369
677.235	182
677.284	458
677.333	-473
677.383	-22
677.432	-681
677.482	14
677.531	155
677.580	-427
677.630	303
677.679	332
677.728	154
677.778	508
677.827	34
677.876	184
677.925	283
677.975	408
678.024	258
678.073	-358
678.122	1
678.171	-397
678.220	194
678.269	345
678.319	856
678.368	445
678.417	974
678.466	867
678.515	37
678.564	254
678.613	687
678.662	335
678.711	257
678.760	1120
678.809	279
678.857	-192
678.906	326
678.955	239
679.004	281
679.053	277
679.102	-518
679.151	-268
679.199	615
679.248	32
679.297	-766
679.346	971
679.394	-507
679.443	730
679.492	133
679.540	-32
679.589	764
679.638	537
679.686	4
679.735	103
679.784	-153
679.832	314
679.881	1154
679.929	-42
679.978	244
680.026	887
680.075	-125
680.123	1054
680.172	-475
680.220	-710
680.268	-174
680.317	-101
680.365	-506
680.414	-623
680.462	45
680.510	-95
680.559	-96
680.607	130
680.655	-470
680.703	425
680.752	-48
680.800	152
680.848	-410
680.896	-349
680.945	167
680.993	-36
681.041	-142
681.089	-30
681.137	137
681.185	-871
681.233	-202
681.258	219
681.281	587
681.329	-278
681.377	-58
681.380	-44
681.425	-373
681.473	132
681.502	-271
681.521	-599
681.569	647
681.617	540
681.624	618
681.665	915
681.713	174
681.745	322
681.761	350
681.809	970
681.857	884
681.867	864
681.904	682
681.952	981
681.989	491
682.000	307
682.048	79
682.096	900
682.111	1084
682.143	1370
682.191	306
682.233	718
682.239	750
682.286	665
682.334	1717
682.354	1518
682.382	1216
682.430	1865
682.476	1472
682.477	1437
682.525	997
682.572	577
682.598	1309
682.620	1918
682.667	1325
682.715	1425
682.720	1460
682.763	1535
682.810	1980
682.841	2117
682.857	2165
682.905	2604
682.952	2033
682.963	2086
683.000	1995
683.047	1814
683.085	2555
683.095	2755
683.142	2197
683.190	2546
683.206	2273
683.237	1701
683.284	2282
683.328	2416
683.332	2410
683.379	2161
683.426	2879
683.449	2992
683.473	3007
683.521	3365
683.568	2800
683.571	2795
683.615	2527
683.662	2888
683.693	2879
683.709	2837
683.757	3254
683.804	3131
683.814	3142
683.851	3073
683.898	2661
683.936	3296
683.945	3431
683.992	3700
684.039	3263
684.057	3463
684.086	3859
684.133	3826
684.179	4113
684.180	4100
684.227	4195
684.274	4194
684.300	4679
684.321	4913
684.368	4679
684.415	3846
684.422	3927
684.462	4323
684.509	4229
684.543	4149
684.556	4068
684.603	4115
684.649	3824
684.665	3728
684.696	3659
684.743	4285
684.786	4197
684.790	4172
684.837	4266
684.883	4934
684.908	4593
684.930	4329
684.977	4914
685.023	5175
685.029	5213
685.070	5201
685.117	5448
685.150	5448
685.164	5411
685.210	5234
685.257	5372
685.272	5246
685.303	5072
685.350	4952
685.393	5369
685.396	5398
685.443	5635
685.490	6314
685.514	6573
685.536	6853
685.583	6929
685.629	7244
685.636	7267
685.675	6611
685.722	6184
685.757	5849
685.768	5863
685.815	6959
685.861	6832
685.878	6818
685.908	6656
685.954	6742
686.000	6740
686.000	6734
686.047	6129
686.093	6604
686.121	6642
686.139	6856
686.185	7518
686.232	7401
686.242	7552
686.278	7399
686.324	7738
686.363	6687
686.370	6495
686.416	6455
686.463	6020
686.484	6023
686.509	6210
686.555	6592
686.601	6259
686.606	6294
686.647	6475
686.693	6399
686.727	6535
686.739	6640
686.785	6564
686.831	7149
686.848	7051
686.877	6738
686.923	6923
686.969	6697
686.969	6695
687.015	6813
687.061	6766
687.090	6896
687.107	6989
687.153	6998
687.199	6877
687.211	7062
687.245	7514
687.291	6943
687.332	6727
687.336	6708
687.382	7031
687.428	7175
687.453	7315
687.474	7523
687.520	7760
687.565	7718
687.574	7834
687.611	7755
687.657	6872
687.695	6327
687.702	6341
687.748	7167
687.794	6841
687.816	7310
687.839	7688
687.885	7407
687.931	7502
687.937	7508
687.976	7381
688.022	7661
688.058	7890
688.067	8022
688.113	7702
688.158	7873
688.179	8065
688.204	8166
688.249	8046
688.295	8001
688.300	7973
688.340	7947
688.386	8078
688.421	8333
688.431	8406
688.477	8335
688.522	8814
688.542	8848
688.567	8898
688.613	8975
688.658	8844
688.663	8860
688.703	8941
688.749	8661
688.784	8726
688.794	8758
688.839	8587
688.884	8658
688.905	8711
688.930	8767
688.975	8329
689.020	9037
689.026	8930
689.065	8262
689.110	8670
689.146	8429
689.155	8431
689.201	8644
689.246	9171
689.267	9141
689.291	8943
689.336	8180
689.381	8533
689.388	8505
689.426	8774
689.471	9135
689.509	8982
689.516	8912
689.561	9021
689.606	8814
689.630	8785
689.651	8832
689.696	8619
689.741	8646
689.750	8678
689.785	8841
689.830	8749
689.871	8796
689.875	8845
689.920	8681
689.965	9140
689.992	9448
690.010	9444
690.054	9132
690.099	8830
690.112	8759
690.144	8960
690.189	9435
690.233	9092
690.233	9104
690.278	9237
690.323	9362
690.354	9338
690.367	9359
690.412	9531
690.457	9404
690.474	9507
690.501	9567
690.546	9318
690.590	9263
690.595	9195
690.635	8905
690.680	8744
690.716	8873
690.724	8912
690.769	9215
690.813	8878
690.836	8724
690.857	8876
690.902	9760
690.946	9817
690.957	10061
690.991	10411
691.035	9771
691.077	9487
691.080	9518
691.124	9905
691.168	10458
691.198	10498
691.213	10542
691.257	10950
691.301	11334
691.318	11437
691.346	11366
691.390	11059
691.434	11118
691.439	11088
691.478	10851
691.522	10160
691.559	9793
691.567	9869
691.611	10278
691.655	10887
691.680	11063
691.699	11181
691.743	11359
691.787	11824
691.800	11874
691.831	11655
691.875	11466
691.919	11100
691.921	11066
691.964	11099
692.008	11347
692.041	11210
692.052	11236
692.096	11448
692.139	12104
692.162	12033
692.183	11821
692.227	11589
692.271	11771
692.282	11670
692.315	11478
692.359	11232
692.402	11299
692.403	11324
692.447	11247
692.490	11115
692.523	10854
692.534	10897
692.578	11697
692.622	11489
692.643	11827
692.666	11993
692.709	11580
692.753	11271
692.763	11248
692.797	11307
692.840	11016
692.884	10780
692.884	10805
692.928	10942
692.971	11173
693.004	11031
693.015	11058
693.059	11195
693.102	11372
693.124	11483
693.146	11457
693.189	11390
693.233	11027
693.245	11032
693.276	11530
693.320	11818
693.363	12287
693.365	12273
693.407	12509
693.450	12527
693.485	12591
693.493	12567
693.537	12806
693.580	12422
693.605	12203
693.624	12127
693.667	12196
693.710	12141
693.725	12087
693.753	12071
693.797	12068
693.840	12003
693.845	11961
693.883	12242
693.926	12420
693.966	12661
693.970	12682
694.013	12715
694.056	12523
694.086	12635
694.099	12595
694.142	11858
694.185	11250
694.206	11061
694.229	11593
694.272	12269
694.315	13277
694.326	13425
694.358	13442
694.401	13475
694.444	13296
694.446	13282
694.487	14312
694.530	14965
694.566	15444
694.573	15391
694.616	14880
694.659	14211
694.686	13997
694.702	13913
694.745	13334
694.787	12772
694.806	12453
694.830	12299
694.873	12425
694.916	11893
694.926	11836
694.959	12081
695.002	12112
695.044	12372
695.046	12343
695.087	12488
695.130	12822
695.166	12950
695.172	13044
695.215	13473
695.258	13847
695.286	14241
695.301	14154
695.343	13369
695.386	12946
695.406	12587
695.428	12651
695.471	12832
695.514	12955
695.526	12974
695.556	12925
695.599	12930
695.641	12716
695.646	12677
695.684	13207
695.726	13512
695.766	14043
695.769	14064
695.811	13642
695.854	13270
695.886	13028
695.896	13117
695.938	13100
695.981	13236
696.005	13314
696.023	13338
696.065	13180
696.108	13263
696.125	13190
696.150	13421
696.192	13749
696.235	13964
696.245	14029
696.277	14161
696.319	14265
696.361	14159
696.365	14125
696.404	14182
696.446	14218
696.485	14173
696.488	14196
696.530	14063
696.572	13795
696.604	13633
696.614	13695
696.656	13630
696.698	13736
696.724	13745
696.740	13831
696.783	13923
696.825	14075
696.844	14070
696.867	14130
696.909	14164
696.951	14299
696.964	14274
696.992	14162
697.034	13997
697.076	13822
697.083	13745
697.118	14026
697.160	14283
697.202	14653
697.203	14621
697.244	14577
697.286	14540
697.323	14364
697.327	14416
697.369	14592
697.411	14771
697.442	14872
697.453	14883
697.494	14677
697.536	14570
697.562	14433
697.578	14714
697.620	15338
697.661	15983
697.682	16264
697.703	16323
697.744	16348
697.786	16327
697.801	16298
697.828	17027
697.869	18056
697.911	19085
697.921	19299
697.952	19270
697.994	19048
698.035	18899
698.040	18829
698.077	17738
698.118	16400
698.160	15042
698.160	14989
698.201	15295
698.243	15496
698.279	15661
698.284	15675
698.325	15388
698.367	15074
698.399	14792
698.408	14949
698.449	15472
698.491	15996
698.518	16310
698.532	16360
698.573	16355
698.614	16384
698.638	16330
698.656	16246
698.697	15968
698.738	15674
698.757	15504
698.779	15830
698.820	16334
698.862	16860
698.877	17008
698.903	17113
698.944	17196
698.985	17284
698.996	17260
699.026	17099
699.067	16811
699.116	16420
699.235	15707
699.354	17110
699.474	16117
699.593	16838
699.713	17268
699.832	16939
699.951	16874
700.070	17606
700.190	16357
700.309	16247
700.428	15598
700.547	16774
700.667	16110
700.786	16252
700.905	16888
701.024	14498
701.143	16572
701.262	15891
701.381	14113
701.500	14625
701.619	15935
701.738	18707
701.857	16240
701.976	14724
702.095	13391
702.214	14314
702.333	16132
702.452	17721
702.571	16404
702.690	14879
702.809	14020
702.928	15192
703.047	14142
703.165	14662
703.284	12867
703.403	13585
703.522	13522
703.640	15427
703.759	15264
703.878	18006
703.997	20675
704.115	14496
704.234	13252
704.353	14117
704.471	12847
704.590	12682
704.708	11882
704.827	12183
704.946	12060
705.064	12863
705.183	13542
705.301	12664
705.420	13805
705.538	17107
705.656	15103
705.775	13345
705.893	14073
706.012	14000
706.130	14670
706.249	14461
706.367	14661
706.485	14883
706.604	14462
706.722	14513
706.840	15926
706.958	19367
707.077	16033
707.195	14203
707.313	13105
707.431	12839
707.549	13048
707.668	13706
707.786	13175
707.904	14451
708.022	13074
708.140	12886
708.258	12977
708.376	13219
708.494	13804
708.612	12004
708.730	13355
708.848	17667
708.966	17339
709.084	18036
709.202	15983
709.320	14947
709.438	15037
709.556	15682
709.674	15304
709.791	15514
709.909	14430
710.027	14979
710.145	13713
710.263	13992
710.380	13720
710.498	15676
710.616	14370
710.733	14362
710.851	14180
710.969	14976
711.086	15048
711.204	15106
711.322	13940
711.439	14516
711.557	13891
711.674	15446
711.792	13412
711.909	13429
712.027	12947
712.144	12578
712.262	12407
712.379	13326
712.497	14362
712.614	19290
712.732	18635
712.849	16395
712.966	15557
713.084	17922
713.201	23856
713.318	18063
713.436	16406
713.553	15645
713.670	16650
713.787	17025
713.905	17198
714.022	18783
714.139	15857
714.256	17091
714.373	19058
714.490	25565
714.608	42773
714.725	106387
714.842	468358
714.959	476668
715.076	36810
715.193	21112
715.310	16847
715.427	17170
715.544	14617
715.661	14374
715.778	14235
715.895	14071
716.011	14832
716.128	15936
716.245	14393
716.362	14296
716.479	18601
716.596	20054
716.713	13450
716.829	12910
716.946	12947
717.063	14133
717.180	12082
717.296	12076
717.413	11599
717.530	12098
717.646	13111
717.763	13265
717.880	11893
717.996	11257
718.113	12179
718.229	13770
718.346	11801
718.462	11835
718.579	12756
718.695	18242
718.812	36614
718.928	21559
719.045	16911
719.161	13572
719.277	11334
719.394	11232
719.510	11045
719.626	11938
719.743	11852
719.859	15346
719.975	19136
720.092	33455
720.208	124207
720.324	298253
720.440	35631
720.557	13809
720.673	16016
720.789	27056
720.905	28446
721.021	49489
721.137	18082
721.253	10476
721.369	10367
721.486	12300
721.602	12189
721.718	16933
721.834	10247
721.950	9490
722.066	10985
722.181	10451
722.297	11202
722.413	11392
722.529	9858
722.645	9852
722.761	9083
722.877	9552
722.993	9940
723.108	10415
723.224	10597
723.340	10018
723.456	8997
723.571	9900
723.687	9360
723.803	8791
723.918	8180
724.034	10269
724.150	9275
724.265	8783
724.381	9459
724.497	18526
724.612	23532
724.728	9051
724.843	8800
724.959	8964
725.074	10333
725.190	18551
725.305	20187
725.421	9409
725.536	9330
725.651	8721
725.767	8199
725.882	7393
725.997	7818
726.113	8396
726.228	8476
726.343	7865
726.459	7606
726.574	7538
726.689	8024
726.804	8692
726.920	7768
727.035	7752
727.150	7619
727.265	8233
727.380	8314
727.495	8245
727.610	7172
727.725	7606
727.841	7781
727.956	7087
728.071	8157
728.186	8303
728.301	7504
728.416	7780
728.531	8767
728.645	7034
728.760	7131
728.875	8530
728.990	10036
729.105	9891
729.220	8631
729.335	9323
729.449	8822
729.564	7817
729.679	6021
729.794	6918
729.908	6560
730.023	7809
730.138	7637
730.253	6919
730.367	6542
730.482	6274
730.596	6867
730.711	7675
730.826	7333
730.940	7228
731.055	7360
731.169	8043
731.284	7629
731.398	6502
731.513	6142
731.627	8425
731.742	8421
731.856	9022
731.970	9907
732.085	8893
732.199	9772
732.313	12879
732.428	19989
732.542	48633
732.656	153421
732.771	93060
732.885	17831
732.999	10790
733.113	9758
733.227	9798
733.342	8235
733.456	7810
733.570	7723
733.684	7735
733.798	7199
733.912	8245
734.026	6851
734.140	6301
734.254	6493
734.368	7581
734.482	11770
734.596	15053
734.710	7266
734.824	6737
734.938	6556
735.052	6916
735.166	7538
735.280	9644
735.393	7386
735.507	6290
735.621	6088
735.735	8594
735.849	14435
735.962	8215
736.076	6659
736.190	7005
736.303	6251
736.417	9317
736.531	11502
736.644	6705
736.758	6774
736.872	6581
736.985	5891
737.099	6661
737.212	6363
737.326	6348
737.439	5663
737.553	6629
737.666	5967
737.780	6779
737.893	5180
738.007	5731
738.120	5650
738.233	6305
738.347	6317
738.460	5980
738.573	5781
738.687	6851
738.800	7118
738.913	7401
739.026	10741
739.140	7483
739.253	5605
739.366	5744
739.479	6046
739.592	5868
739.705	5164
739.818	5964
739.932	5406
740.045	5557
740.158	6089
740.271	6743
740.384	5263
740.497	5663
740.610	6071
740.723	7254
740.836	6520
740.949	7667
741.062	6822
741.174	10701
741.287	8380
741.400	6261
741.513	5194
741.626	6242
741.739	7274
741.851	6514
741.964	5783
742.077	5754
742.189	5528
742.302	5537
742.415	6892
742.527	7596
742.640	5427
742.753	5028
742.865	4286
742.978	5053
743.090	5018
743.203	5826
743.316	4487
743.428	4357
743.541	4506
743.653	4492
743.766	4167
743.878	5446
743.990	4709
744.103	7139
744.215	6199
744.327	6219
744.440	5733
744.552	7401
744.664	13316
744.777	6705
744.889	4418
745.001	5071
745.113	3968
745.226	4513
745.338	4648
745.450	4205
745.562	4404
745.674	4399
745.786	3412
745.898	4502
746.010	3420
746.122	4432
746.234	4888
746.347	4721
746.459	4211
746.570	4771
746.682	3617
746.794	4497
746.906	4672
747.018	3931
747.130	3915
747.242	4441
747.354	4169
747.466	4234
747.577	3909
747.689	4412
747.801	4015
747.913	4514
748.024	3491
748.136	4160
748.248	4799
748.359	4383
748.471	3743
748.583	3483
748.694	2732
748.806	4826
748.918	4215
749.029	5532
749.141	4368
749.252	5835
749.364	4533
749.475	6845
749.587	15032
749.698	9064
749.809	3902
749.921	4046
750.032	3964
750.144	3730
750.255	3239
750.366	3796
750.478	3553
750.589	3822
750.700	4045
750.811	4409
750.923	4353
751.034	5613
751.145	17087
751.256	17576
751.367	4132
751.479	4033
751.590	3336
751.701	3285
751.812	3717
751.923	3952
752.034	3463
752.145	3626
752.256	3201
752.367	3481
752.478	3220
752.589	3775
752.700	2953
752.811	3103
752.922	3299
753.032	3180
753.143	5059
753.254	5069
753.365	3641
753.476	3501
753.586	3180
753.697	3088
753.808	2927
753.919	3603
754.029	3226
754.140	2930
754.251	2362
754.361	3143
754.472	2908
754.582	4004
754.693	4291
754.804	3777
754.914	3288
755.025	2931
755.135	3234
755.246	3136
755.356	2796
755.466	3330
755.577	3208
755.687	3401
755.798	2773
755.908	2831
756.018	3213
756.129	4060
756.239	3198
756.349	2858
756.460	3094
756.570	3832
756.680	3625
756.790	2870
756.900	4364
757.011	4359
757.121	2976
757.231	3320
757.341	2644
757.451	2909
757.561	3211
757.671	3103
757.781	3203
757.891	3257
758.001	3212
758.111	3958
758.221	3229
758.331	4086
758.441	4568
758.551	4190
758.661	7439
758.771	7200
758.880	3180
758.990	3273
759.100	3977
759.210	3539
759.320	2826
759.429	3503
759.539	3514
759.649	3363
759.758	3241
759.868	4428
759.978	4197
760.087	4786
760.197	3982
760.307	4155
760.416	4209
760.526	4812
760.635	4338
760.745	4537
760.854	4282
760.964	4692
761.073	4707
761.182	5049
761.292	4756
761.401	4381
761.511	3859
761.620	3870
761.729	2771
761.839	3855
761.948	3061
762.057	4032
762.166	4402
762.276	3445
762.385	2148
762.494	2598
762.603	3388
762.712	3327
762.822	2893
762.931	3009
763.040	2741
763.149	3167
763.258	2656
763.367	3677
763.476	2758
763.585	2292
763.694	2954
763.803	3709
763.912	3440
764.021	3845
764.130	3216
764.238	3221
764.347	3153
764.456	3450
764.565	3329
764.674	3779
764.783	2794
764.891	3213
765.000	3541
765.109	3686
765.217	2595
765.326	4144
765.435	4218
765.543	5401
765.652	3987
765.761	5089
765.869	5251
765.978	5233
766.086	7443
766.195	11678
766.303	22282
766.412	59834
766.520	223967
766.629	230792
766.737	31230
766.846	10927
766.954	6910
767.062	5717
767.171	4976
767.279	4789
767.387	3826
767.496	4129
767.604	3898
767.712	3826
767.820	3626
767.928	3643
768.037	3771
768.145	3402
768.253	3900
768.361	3417
768.469	3180
768.577	3946
768.685	3537
768.793	3434
768.901	3461
769.009	4255
769.117	3480
769.225	4053
769.333	2962
769.441	5242
769.549	6253
769.657	10882
769.765	21017
769.873	73476
769.981	218127
770.088	62909
770.196	9539
770.304	5388
770.412	4853
770.519	4203
770.627	4059
770.735	3405
770.842	3774
770.950	3753
771.058	3616
771.165	3855
771.273	3469
771.380	3967
771.488	3234
771.595	3897
771.703	4371
771.810	4353
771.918	3092
772.025	3897
772.133	3487
772.240	4956
772.348	4291
772.455	4573
772.562	3727
772.670	4662
772.777	3058
772.884	3927
772.991	3921
773.099	4105
773.206	3881
773.313	4165
773.420	4029
773.528	3522
773.635	2854
773.742	3388
773.849	3249
773.956	3485
774.063	2968
774.170	3686
774.277	3709
774.384	4655
774.491	4582
774.598	3745
774.705	3210
774.812	4223
774.919	5751
775.026	3976
775.133	4133
775.239	3871
775.346	4003
775.453	3362
775.560	3134
775.667	3989
775.773	3202
775.880	3758
775.987	2993
776.093	3852
776.200	3525
776.307	3748
776.413	3050
776.520	3496
776.627	3048
776.733	3896
776.840	2982
776.946	3811
777.053	3095
777.159	4354
777.266	4238
777.372	4587
777.478	4058
777.585	5611
777.691	3381
777.798	4034
777.904	4341
778.010	4393
778.117	6022
778.223	6423
778.329	3428
778.435	3733
778.542	3055
778.648	3204
778.754	2188
778.860	3472
778.966	3060
779.072	2859
779.178	2946
779.284	3028
779.391	3197
779.497	3005
779.603	2599
779.708	2945
779.815	2702
779.920	3020
780.026	3374
780.132	5391
780.238	2792
780.344	2815
780.450	3332
780.556	2945
780.661	3073
780.767	2870
780.873	2684
780.979	2437
781.085	2825
781.190	3876
781.296	2822
781.402	2476
781.507	3088
781.613	3283
781.719	2182
781.824	2620
781.930	2157
782.035	3335
782.141	2815
782.246	3288
782.352	2743
782.457	1922
782.563	1934
782.668	2648
782.773	2269
782.879	2322
782.984	2948
783.090	3119
783.195	3717
783.300	6787
783.405	5321
783.511	3971
783.616	2505
783.721	3204
783.826	2874
783.932	3672
784.037	3130
784.142	3127
784.247	3100
784.352	2992
784.457	2805
784.562	2548
784.667	2458
784.772	2204
784.877	2268
784.982	2288
785.087	2787
785.192	2799
785.297	2058
785.402	2969
785.507	1705
785.611	2986
785.716	2706
785.821	1823
785.926	3046
786.031	2704
786.135	2205
786.240	1984
786.345	2172
786.450	2284
786.554	1398
786.659	2865
786.763	1630
786.868	3225
786.973	2292
787.077	2180
787.182	1476
787.286	1915
787.391	2195
787.495	2270
787.600	1736
787.704	2427
787.809	1558
787.913	1723
788.017	1251
788.122	2967
788.226	2662
788.330	2227
788.435	1808
788.539	1941
788.643	2142
788.747	2100
788.852	1106
788.956	2754
789.060	1560
789.164	2278
789.268	1755
789.372	1671
789.476	1983
789.580	2458
789.684	2105
789.788	1093
789.892	1791
789.996	2095
790.100	1234
790.204	1716
790.308	2116
790.412	1802
790.516	2235
790.620	1423
790.724	2029
790.828	1908
790.931	1831
791.035	2245
791.139	1759
791.242	1891
791.346	1948
791.450	1903
791.554	1655
791.657	1574
791.761	1023
791.864	2286
791.968	1910
792.072	2333
792.175	2185
792.279	2127
792.382	1471
792.486	2078
792.589	1787
792.693	1969
792.796	1945
792.899	1868
793.003	2085
793.106	1324
793.209	2334
793.313	2189
793.416	1883
793.519	2597
793.623	2283
793.726	4567
793.829	8182
793.932	2857
794.035	1882
794.138	2192
794.242	1774
794.345	2807
794.448	3255
794.551	3378
794.654	6908
794.757	5892
794.860	2848
794.963	2609
795.066	2397
795.169	2404
795.272	1642
795.375	1722
795.477	1470
795.580	1573
795.683	809
795.786	1924
795.889	1056
795.991	2089
796.094	1265
796.197	1831
796.300	1683
796.402	2101
796.505	1163
796.608	2222
796.710	1177
796.813	607
796.915	1079
797.018	1494
797.120	990
797.223	1892
797.326	1673
797.428	2115
797.530	925
797.633	1392
797.735	1916
797.838	1750
797.940	2453
798.042	2715
798.145	1607
798.247	879
798.349	755
798.452	1136
798.554	1138
798.656	893
798.758	1952
798.860	2142
798.962	1248
799.065	1411
799.167	535
799.269	1666
799.371	1191
799.473	2048
799.575	1429
799.677	2094
799.779	3099
799.881	3030
799.983	5553
800.085	3248
800.187	279
800.289	1094
800.390	1695
800.492	537
800.594	1390
800.696	1530
800.798	1079
800.899	1139
801.001	584
801.103	1051
801.205	319
801.306	1008
801.408	529
801.509	1271
801.611	1264
801.713	1464
801.814	681
801.916	1054
802.017	199
802.119	684
802.220	641
802.322	1030
802.423	1083
802.525	2560
802.626	1739
802.727	1377
802.829	1270
802.930	1412
803.031	1916
803.133	632
803.234	852
803.335	1353
803.436	976
803.538	1309
803.639	136
803.740	213
803.841	888
803.942	724
804.043	634
804.144	857
804.245	1041
804.346	938
804.447	553
804.548	1448
804.649	3747
804.750	3798
804.851	1501
804.952	1263
805.053	990
805.154	758
805.255	901
805.355	1137
805.456	902
805.557	1416
805.658	346
805.758	1140
805.859	531
805.960	830
806.061	761
806.161	1307
806.262	1461
806.362	1746
806.463	475
806.564	991
806.664	684
806.765	1236
806.865	1391
806.966	1512
807.066	1189
807.166	1025
807.267	972
807.367	1254
807.468	704
807.568	1020
807.668	38
807.769	610
807.869	-41
807.969	289
808.069	817
808.170	609
808.270	849
808.370	643
808.470	897
808.570	2502
808.670	3254
808.770	1755
808.870	202
808.970	464
809.070	374
809.170	699
809.271	1247
809.370	1341
809.470	1614
809.570	874
809.670	1123
809.770	775
809.870	1032
809.970	537
810.070	749
810.169	774
810.269	305
810.369	1445
810.469	102
810.568	271
810.668	234
810.768	1226
810.867	509
810.967	1137
811.066	976
811.166	757
811.265	811
811.365	1072
811.464	-47
811.564	642
811.663	1017
811.763	1298
811.862	634
811.962	788
812.061	1004
812.160	811
812.260	1058
812.359	1127
812.458	1944
812.557	3991
812.657	8676
812.756	16633
812.855	5235
812.954	1933
813.053	1002
813.153	1572
813.252	1168
813.351	1239
813.450	1054
813.549	1405
813.648	156
813.747	1372
813.846	813
813.945	762
814.044	234
814.143	1358
814.242	1162
814.341	1056
814.439	1094
814.538	1606
814.637	657
814.736	1174
814.835	1149
814.933	1362
815.032	1944
815.131	1608
815.229	1289
815.328	2368
815.427	2539
815.525	2590
815.624	1966
815.722	2422
815.821	1889
815.919	2709
816.018	1826
816.116	2649
816.215	1762
816.313	2798
816.412	2026
816.510	3293
816.609	2834
816.707	3591
816.805	3387
816.904	3777
817.002	3007
817.100	4388
817.198	3744
817.296	4958
817.395	4759
817.493	6337
817.591	5455
817.689	8356
817.787	10124
817.885	13882
817.983	21147
818.081	39014
818.179	77300
818.277	175919
818.375	414273
818.473	434091
818.571	139571
818.669	52038
818.767	31610
818.865	26158
818.963	26586
819.061	30824
819.158	42736
819.256	73064
819.354	143761
819.452	308356
819.549	632061
819.647	521710
819.745	179311
819.842	72410
819.940	41773
820.038	28588
820.135	19955
820.233	15857
820.330	12046
820.428	9711
820.525	8267
820.623	7990
820.720	6438
820.818	6276
820.915	5897
821.012	4658
821.110	4296
821.207	3973
821.304	3516
821.402	3669
821.499	3773
821.596	3993
821.693	3641
821.791	3544
821.888	3331
821.985	6054
822.082	8691
822.179	9858
822.276	3741
822.373	1981
822.470	2406
822.567	2125
822.664	2144
822.761	2917
822.858	1319
822.955	1714
823.052	2373
823.149	1563
823.246	2300
823.343	2573
823.440	906
823.536	1394
823.633	2006
823.730	1444
823.827	1918
823.923	1930
824.020	2304
824.117	1078
824.213	1273
824.310	2438
824.407	1223
824.503	1377
824.600	580
824.696	1267
824.793	1057
824.889	2082
824.986	1684
825.082	1113
825.179	1556
825.275	1023
825.371	886
825.468	1047
825.564	353
825.660	1369
825.757	1047
825.853	1709
825.949	1212
826.045	1143
826.142	1036
826.238	585
826.334	637
826.430	695
826.526	753
826.622	911
826.718	518
826.814	1423
826.910	674
827.006	901
827.102	183
827.198	357
827.294	794
827.390	486
827.486	997
827.582	1292
827.678	22
827.774	1182
827.869	434
827.965	1463
828.061	-301
828.157	781
828.252	49
828.348	988
828.444	1022
828.539	230
828.635	272
828.731	645
828.826	383
828.922	621
829.017	191
829.113	810
829.208	34
829.304	1142
829.399	1139
829.495	1250
829.590	480
829.685	643
829.781	196
829.876	868
829.971	320
830.066	372
830.162	353
830.257	464
830.352	694
830.447	1494
830.543	183
830.638	1232
830.733	1654
830.828	824
830.923	1233
831.018	1076
831.113	282
831.208	1134
831.303	1065
831.398	696
831.493	-159
831.588	737
831.683	268
831.778	729
831.873	862
831.967	359
832.062	941
832.157	975
832.252	1101
832.346	223
832.441	-18
832.536	1998
832.631	2369
832.725	5759
832.820	6348
832.914	730
833.009	825
833.104	639
833.198	1410
833.293	2076
833.387	571
833.482	727
833.576	473
833.670	589
833.765	658
833.859	531
833.954	887
834.048	920
834.142	1698
834.237	490
834.331	930
834.425	447
834.519	-5
834.613	864
834.708	776
834.802	398
834.896	240
834.990	610
835.084	430
835.178	456
835.272	188
835.366	268
835.460	168
835.554	1002
835.648	1015
835.742	545
835.836	-437
835.930	537
836.024	114
836.117	1081
836.211	113
836.305	424
836.399	1402
836.493	1688
836.586	1183
836.680	483
836.774	101
836.867	126
836.961	-142
837.055	507
837.148	16
837.242	661
837.335	-440
837.429	709
837.522	598
837.616	111
837.709	609
837.803	1842
837.896	1707
837.989	683
838.083	433
838.176	1927
838.269	2036
838.363	2907
838.456	61
838.549	654
838.642	1675
838.735	3302
838.829	7733
838.922	3466
839.015	715
839.108	671
839.201	-356
839.294	626
839.387	125
839.480	288
839.573	665
839.666	-60
839.759	950
839.852	1087
839.945	-232
840.038	495
840.131	57
840.223	-15
840.316	-711
840.409	713
840.502	274
840.594	543
840.687	48
840.780	690
840.873	-1
840.965	-370
841.058	147
841.150	621
841.243	1454
841.336	2502
841.428	256
841.521	-83
841.613	183
841.706	894
841.798	324
841.890	-311
841.983	-364
842.075	298
842.167	204
842.260	-46
842.352	394
842.444	773
842.537	1511
842.629	2125
842.721	4063
842.813	1019
842.905	-274
842.997	1065
843.090	-269
843.182	337
843.274	878
843.366	3460
843.458	5407
843.550	12780
843.642	9137
843.734	1783
843.826	123
843.918	1425
844.009	1536
844.101	741
844.193	195
844.285	489
844.377	214
844.469	302
844.560	65
844.652	840
844.744	1068
844.835	625
844.927	27
845.019	657
845.110	-324
845.202	788
845.293	-265
845.385	770
845.476	124
845.568	533
845.659	263
845.751	689
845.842	-399
845.934	-343
846.025	167
846.116	685
846.208	-592
846.299	802
846.390	417
846.482	184
846.573	152
846.664	635
846.755	700
846.846	2377
846.937	2229
847.029	216
847.120	-509
847.211	-474
847.302	132
847.393	451
847.484	322
847.575	-155
847.666	-511
847.757	304
847.847	-516
847.938	313
848.029	-350
848.120	-299
848.211	-107
848.302	-130
848.392	-472
848.483	43
848.574	-144
848.664	-97
848.755	-272
848.846	-126
848.936	-144
849.027	867
849.118	170
849.208	358
849.299	736
849.389	1481
849.480	3074
849.570	6418
849.661	13414
849.751	23505
849.841	48309
849.932	22981
850.022	2218
850.112	782
850.203	-496
850.293	523
850.383	697
850.474	3
850.564	-46
850.654	820
850.744	-17
850.834	89
850.924	69
851.014	752
851.104	-428
851.194	329
851.284	253
851.374	760
851.464	700
851.554	1345
851.644	419
851.734	328
851.824	553
851.914	598
852.004	645
852.094	546
852.183	335
852.273	328
852.363	-271
852.452	64
852.542	85
852.632	-110
852.721	596
852.811	212
852.901	789
852.990	-36
853.080	387
853.169	795
853.259	1109
853.348	1217
853.438	539
853.527	2533
853.617	2915
853.706	5023
853.795	7314
853.885	17400
853.974	38105
854.063	79996
854.152	130939
854.242	240918
854.331	120031
854.420	19434
854.509	6747
854.598	4812
854.687	2652
854.777	3242
854.866	1375
854.955	2463
855.044	767
855.133	1187
855.222	433
855.311	779
855.400	756
855.488	445
855.577	-74
855.666	793
855.755	231
855.844	944
855.933	-64
856.021	651
856.110	499
856.199	-18
856.288	75
856.376	486
856.465	-215
856.554	166
856.642	-234
856.731	-414
856.819	155
856.908	240
856.996	381
857.085	159
857.173	-78
857.262	-225
857.350	-123
857.438	133
857.527	-33
857.615	-36
857.703	-284
857.792	535
857.880	-349
857.968	-93
858.056	-309
858.145	-3
858.233	142
858.321	-280
858.409	413
858.497	-154
858.585	138
858.673	268
858.761	-33
858.849	-339
858.937	483
859.025	25
859.113	-324
859.201	-505
859.289	234
859.377	682
859.465	292
859.552	126
859.640	171
859.728	543
859.816	469
859.903	556
859.991	-726
860.079	9
860.166	-115
860.254	464
860.342	112
860.429	-579
860.517	-366
860.604	30
860.692	-359
860.779	-62
860.867	193
860.954	-839
861.042	-467
861.129	191
861.216	1057
861.304	75
861.391	-775
861.478	169
861.565	747
861.653	554
861.740	309
861.827	-520
861.914	-125
862.001	-697
862.089	25
862.176	363
862.263	-517
862.350	-461
862.437	-496
862.524	-359
862.611	-532
862.698	93
862.785	-1151
862.871	549
862.958	-829
863.045	-7
863.132	-1176
863.219	229
863.306	-624
863.392	857
863.479	-444
863.566	-364
863.652	732
863.739	62
863.826	-765
863.912	221
863.999	-383
864.086	953
864.172	-2
864.259	-331
864.345	-5
864.432	-143
864.518	-685
864.604	176
864.691	-210
864.777	352
864.863	1054
864.950	867
865.036	531
865.122	1141
865.209	1693
865.295	1866
865.381	1693
865.467	2407
865.553	2833
865.639	3427
865.726	5489
865.812	9112
865.898	18917
865.984	39759
866.070	60705
866.156	102901
866.242	146828
866.328	49604
866.414	9210
866.499	3744
866.585	2487
866.671	2888
866.757	1946
866.843	2146
866.928	895
867.014	902
867.100	1510
867.186	1320
867.271	1590
867.357	2127
867.442	1413
867.528	2809
867.614	958
867.699	564
867.785	662
867.870	1457
867.956	1141
868.041	935
868.127	1235
868.212	1312
868.297	1261
868.383	2095
868.468	1209
868.553	2275
868.639	3948
868.724	5416
868.809	8515
868.894	11611
868.979	2532
869.065	1070
869.150	-80
869.235	1142
869.320	3
869.405	652
869.490	229
869.575	244
869.660	423
869.745	644
869.830	51
869.915	382
870.000	200
870.085	-154
870.169	540
870.254	825
870.339	217
870.424	593
870.509	131
870.593	1080
870.678	718
870.763	958
870.847	316
870.932	138
871.016	1657
871.101	43
871.186	633
871.270	-155
871.355	-353
871.439	700
871.523	41
871.608	888
871.692	269
871.777	-82
871.861	276
871.945	-264
872.030	-274
872.114	24
872.198	231
872.282	494
872.367	-326
872.451	588
872.535	219
872.619	656
872.703	160
872.787	605
872.871	-59
872.955	416
873.039	-703
873.123	-263
873.207	376
873.291	158
873.375	-76
873.459	134
873.543	585
873.627	490
873.711	-1198
873.794	362
873.878	366
873.962	-13
874.045	257
874.129	119
874.137	74
874.213	-375
874.245	-2
874.296	599
874.352	340
874.380	216
874.460	366
874.464	372
874.547	-88
874.568	-98
874.631	-131
874.676	-390
874.714	-602
874.784	807
874.798	1079
874.881	484
874.892	443
874.965	210
874.999	129
875.048	12
875.107	487
875.131	671
875.215	358
875.215	358
875.298	644
875.323	309
875.381	-439
875.430	-5
875.465	285
875.538	308
875.548	311
875.631	634
875.646	503
875.714	-148
875.753	94
875.798	414
875.861	-43
875.881	-208
875.964	224
875.968	192
876.047	-365
876.076	-66
876.130	510
876.183	-46
876.213	-327
876.291	711
876.296	773
876.379	408
876.398	617
876.462	1334
876.506	379
876.545	-518
876.613	-124
876.628	-8
876.711	-137
876.721	-44
876.794	634
876.828	364
876.877	-112
876.935	246
876.960	437
877.043	357
877.043	362
877.125	1430
877.150	1257
877.208	874
877.258	582
877.291	397
877.365	658
877.374	687
877.456	1093
877.472	1015
877.539	717
877.579	829
877.622	843
877.687	581
877.704	539
877.787	1325
877.794	1269
877.869	604
877.901	676
877.952	818
878.008	635
878.034	567
878.115	727
878.117	733
878.199	661
878.222	666
878.282	488
878.329	398
878.364	452
878.437	973
878.447	1005
878.529	128
878.544	183
878.611	770
878.651	702
878.694	381
878.758	615
878.776	749
878.858	452
878.865	409
878.941	25
878.972	127
879.023	171
879.078	381
879.105	446
879.185	362
879.187	368
879.269	1007
879.292	1032
879.351	838
879.399	518
879.433	376
879.506	440
879.516	415
879.598	316
879.613	223
879.680	6
879.720	-6
879.762	189
879.827	708
879.844	759
879.926	1074
879.933	1024
880.007	476
880.040	593
880.089	830
880.147	968
880.171	1077
880.253	2479
880.254	2493
880.335	4893
880.360	5917
880.417	8141
880.467	8890
880.499	10216
880.574	17698
880.580	18168
880.662	24631
880.680	22179
880.744	10501
880.787	5239
880.825	1870
880.893	923
880.907	911
880.989	483
881.000	518
881.070	192
881.106	31
881.152	147
881.213	539
881.233	455
881.315	-508
881.319	-555
881.396	-179
881.426	210
881.478	479
881.532	261
881.559	173
881.639	106
881.641	106
881.722	274
881.745	75
881.803	-271
881.852	316
881.885	515
881.958	-59
881.966	-67
882.047	717
882.064	702
882.129	520
882.171	868
882.210	1345
882.277	1145
882.291	1095
882.372	2569
882.383	2529
882.454	1612
882.489	1096
882.535	458
882.596	-61
882.616	-71
882.697	673
882.702	647
882.778	-130
882.808	-135
882.859	197
882.914	421
882.940	369
883.020	85
883.021	87
883.102	214
883.127	298
883.183	409
883.233	369
883.264	448
883.339	765
883.345	762
883.426	407
883.445	317
883.507	670
883.551	1080
883.587	757
883.657	88
883.668	144
883.749	590
883.763	696
883.830	582
883.869	348
883.910	481
883.975	434
883.991	325
884.072	220
884.081	202
884.152	120
884.187	-30
884.233	-94
884.292	163
884.314	323
884.394	533
884.398	540
884.475	-100
884.504	-221
884.555	-51
884.610	98
884.636	148
884.716	-342
884.716	-341
884.797	445
884.821	435
884.877	271
884.927	59
884.958	131
885.033	390
885.038	357
885.118	-88
885.139	-212
885.199	201
885.244	682
885.279	604
885.350	-94
885.359	-83
885.439	428
885.456	511
885.520	71
885.561	-359
885.600	-374
885.667	-97
885.680	-69
885.760	-60
885.773	-58
885.840	73
885.878	174
885.920	-2
885.984	-379
886.000	-215
886.080	585
886.089	690
886.160	498
886.195	377
886.240	697
886.300	1036
886.320	857
886.400	180
886.406	132
886.480	417
886.511	529
886.560	596
886.616	716
886.640	823
886.720	1266
886.722	1266
886.800	227
886.827	-23
886.879	169
886.932	125
886.959	128
887.038	378
887.039	390
887.119	999
887.143	1131
887.198	758
887.248	458
887.278	464
887.354	585
887.358	597
887.437	583
887.459	617
887.517	617
887.564	514
887.596	506
887.669	623
887.676	679
887.755	1236
887.774	1369
887.835	1139
887.880	950
887.914	769
887.985	477
887.994	488
888.073	391
888.090	411
888.153	722
888.195	821
888.232	785
888.300	855
888.311	851
888.391	676
888.405	659
888.470	703
888.510	655
888.549	442
888.615	177
888.628	181
888.708	158
888.720	149
888.787	647
888.825	936
888.866	615
888.930	119
888.945	203
889.024	606
889.035	661
889.103	502
889.140	404
889.182	513
889.245	696
889.261	534
889.340	-286
889.349	-374
889.419	57
889.454	250
889.498	447
889.559	741
889.577	689
889.656	459
889.664	437
889.735	969
889.768	1221
889.814	1117
889.873	975
889.978	425
890.083	872
890.187	540
890.292	620
890.397	752
890.501	634
890.606	-165
890.710	599
890.815	712
890.919	703
891.024	211
891.128	449
891.233	-169
891.337	-94
891.442	1055
891.546	789
891.650	-29
891.755	659
891.859	574
891.963	184
892.068	1253
892.172	332
892.276	441
892.380	1059
892.484	596
892.589	1099
892.693	607
892.797	494
892.901	76
893.005	145
893.109	-541
893.213	320
893.317	-87
893.421	675
893.525	253
893.629	479
893.733	-83
893.837	170
893.941	106
894.045	406
894.148	350
894.252	287
894.356	685
894.460	1322
894.564	848
894.667	680
894.771	-231
894.875	782
894.978	-153
895.082	358
895.186	664
895.289	480
895.393	-94
895.496	700
895.600	265
895.703	288
895.807	-64
895.910	630
896.014	895
896.117	475
896.221	592
896.324	411
896.427	109
896.531	-129
896.634	290
896.737	1122
896.840	-80
896.944	201
897.047	854
897.150	-236
897.253	372
897.356	717
897.460	171
897.563	543
897.666	435
897.769	502
897.872	448
897.975	1250
898.078	435
898.181	799
898.284	-246
898.387	241
898.490	337
898.593	706
898.695	291
898.798	181
898.901	746
899.004	909
899.107	-446
899.209	31
899.312	-291
899.415	694
899.518	624
899.620	729
899.723	-88
899.826	947
899.928	2059
900.031	451
900.133	86
900.236	89
900.338	210
900.441	317
900.543	383
900.646	-130
900.748	161
900.851	1280
900.953	-519
901.055	76
901.158	469
901.260	1476
901.362	162
901.465	-115
901.567	-203
901.669	556
901.771	-102
901.873	518
901.976	-351
902.078	-229
902.180	847
902.282	265
902.384	-204
902.486	988
902.588	800
902.690	1323
902.792	369
902.894	504
902.996	-395
903.098	799
903.200	18
903.302	37
903.404	-370
903.505	15
903.607	41
903.709	262
903.811	-18
903.913	1452
904.014	278
904.116	175
904.218	-732
904.319	1077
904.421	220
904.523	710
904.624	-222
904.726	457
904.827	526
904.929	203
905.030	112
905.132	632
905.233	265
905.335	784
905.436	91
905.537	-230
905.639	264
905.740	-343
905.841	157
905.943	1014
906.044	-102
906.145	1005
906.247	-335
906.348	337
906.449	-529
906.550	-149
906.651	466
906.752	-352
906.854	-634
906.955	-11
907.056	139
907.157	909
907.258	-326
907.359	208
907.460	157
907.561	384
907.662	-212
907.762	-101
907.863	-317
907.964	718
908.065	-62
908.166	222
908.267	-106
908.367	266
908.468	-54
908.569	577
908.670	-231
908.770	402
908.871	500
908.971	585
909.072	972
909.173	489
909.273	232
909.374	951
909.474	626
909.575	1171
909.675	-383
909.776	888
909.876	533
909.977	-38
910.077	318
910.177	168
910.278	-46
910.378	209
910.478	-405
910.579	488
910.679	319
910.779	389
910.879	-72
910.980	378
911.080	-324
911.180	1510
911.280	265
911.380	393
911.480	218
911.580	143
911.680	-924
911.780	977
911.880	-61
911.980	1274
912.080	73
912.180	53
912.280	-325
912.380	803
912.480	-227
912.580	263
912.679	116
912.779	834
912.879	665
912.979	378
913.078	-571
913.178	-141
913.278	-858
913.377	354
913.477	-526
913.577	-205
913.676	35
913.776	144
913.875	328
913.975	389
914.074	-703
914.174	846
914.273	331
914.373	750
914.472	-958
914.572	292
914.671	-297
914.770	978
914.870	-480
914.969	569
915.068	-247
915.167	156
915.267	-604
915.366	380
915.465	-529
915.564	909
915.663	-690
915.763	633
915.862	-148
915.961	-142
916.060	342
916.159	-436
916.258	358
916.357	48
916.456	141
916.555	803
916.654	193
916.752	79
916.851	312
916.950	124
917.049	-129
917.148	724
917.247	-116
917.345	396
917.444	-506
917.543	63
917.642	-418
917.740	-277
917.839	-157
917.937	402
918.036	982
918.135	-436
918.233	-130
918.332	574
918.430	-455
918.529	876
918.627	-222
918.726	709
918.824	-350
918.923	340
919.021	-444
919.119	-103
919.218	-541
919.316	-192
919.414	-739
919.512	545
919.611	603
919.709	23
919.807	-327
919.905	439
920.003	-47
920.102	312
920.200	-322
920.298	715
920.396	-97
920.494	390
920.592	388
920.690	334
920.788	-575
920.886	1206
920.984	-395
921.082	14
921.180	120
921.277	-143
921.375	-86
921.473	484
921.571	537
921.669	480
921.766	698
921.864	820
921.962	499
922.060	978
922.157	99
922.255	567
922.352	322
922.450	518
922.548	-204
922.645	950
922.743	738
922.840	1321
922.938	796
923.035	1828
923.133	882
923.230	2327
923.327	1563
923.425	2554
923.522	1759
923.619	2558
923.717	1543
923.814	1930
923.911	815
924.008	1701
924.106	1316
924.203	920
924.300	1458
924.397	1876
924.494	1367
924.591	1259
924.688	1416
924.786	1792
924.883	645
924.979	1193
925.077	1437
925.173	1690
925.270	2232
925.367	795
925.464	2040
925.561	1126
925.658	1597
925.755	2151
925.852	1318
925.948	2999
926.045	1298
926.142	1200
926.239	1857
926.335	999
926.432	1182
926.529	2572
926.625	1270
926.722	1463
926.818	669
926.915	2299
927.011	1461
927.108	1729
927.204	962
927.301	1373
927.397	1408
927.494	1626
927.590	759
927.687	1264
927.783	1577
927.879	2169
927.976	1913
928.072	1626
928.168	1392
928.264	1306
928.361	261
928.457	1563
928.553	547
928.649	1361
928.745	1244
928.841	1377
928.937	442
929.033	1411
929.129	1043
929.225	2004
929.321	1846
929.417	890
929.513	798
929.609	1290
929.705	-33
929.801	746
929.897	370
929.993	1342
930.089	552
930.184	441
930.280	694
930.376	1411
930.471	920
930.567	1219
930.663	-242
930.758	1460
930.854	538
930.950	1144
931.045	1134
931.141	947
931.236	857
931.332	1448
931.427	48
931.523	373
931.618	1125
931.714	1930
931.809	596
931.905	1978
932.000	-319
932.095	-325
932.191	1155
932.286	519
932.381	919
932.476	1009
932.572	1182
932.667	871
932.762	378
932.857	534
932.952	750
933.047	1618
933.142	85
933.237	1197
933.332	670
933.427	968
933.522	284
933.617	1428
933.712	612
933.807	488
933.902	842
933.997	531
934.092	430
934.187	1127
934.282	496
934.376	842
934.471	857
934.566	280
934.661	2
934.755	1128
934.850	1248
934.945	1934
935.039	820
935.134	390
935.228	-492
935.323	463
935.417	491
935.512	1101
935.606	-840
935.701	620
935.795	937
935.890	608
935.984	1353
936.079	169
936.173	-809
936.267	481
936.362	524
936.456	474
936.550	323
936.644	712
936.738	259
936.833	-315
936.927	-45
937.021	-56
937.115	-165
937.209	1110
937.303	97
937.397	553
937.491	288
937.585	-61
937.679	-532
937.773	511
937.867	-177
937.961	862
938.055	568
938.149	920
938.243	700
938.337	120
938.430	-258
938.524	493
938.618	287
938.712	660
938.805	228
938.899	-54
938.993	274
939.086	757
939.180	-111
939.274	517
939.367	676
939.461	280
939.554	51
939.648	560
939.741	36
939.835	-265
939.928	-741
940.022	1218
940.115	140
940.208	915
940.302	445
940.395	1166
940.488	271
940.582	551
940.675	-512
940.768	444
940.861	-216
940.954	555
941.048	17
941.141	1279
941.234	-226
941.327	745
941.420	1006
941.513	1199
941.606	865
941.699	1150
941.792	541
941.885	584
941.978	542
942.071	374
942.164	216
942.257	-296
942.349	296
942.442	818
942.535	667
942.628	60
942.721	359
942.813	109
942.906	598
942.999	-201
943.091	-14
943.184	969
943.277	120
943.369	224
943.462	-848
943.554	91
943.647	19
943.739	988
943.832	-131
943.924	495
944.017	-483
944.109	639
944.201	-249
944.294	218
944.386	159
944.478	336
944.571	336
944.663	612
944.755	132
944.847	230
944.940	215
945.032	684
945.124	-280
945.216	877
945.308	-126
945.400	-16
945.492	332
945.584	43
945.676	522
945.768	258
945.860	37
945.952	564
946.044	240
946.136	44
946.228	-227
946.320	-653
946.412	-681
946.503	755
946.595	489
946.687	655
946.779	-945
946.870	698
946.962	-770
947.054	232
947.145	11
947.237	194
947.329	-815
947.420	-660
947.512	-696
947.603	-45
947.695	-795
947.786	-524
947.878	-171
947.969	404
948.061	405
948.152	745
948.243	-104
948.335	-579
948.426	300
948.517	-288
948.609	-157
948.700	142
948.791	-285
948.882	-409
948.973	-658
949.065	35
949.156	286
949.247	-288
949.338	-680
949.429	321
949.520	-355
949.611	-152
949.702	-170
949.793	446
949.884	-445
949.975	-85
950.066	-362
950.157	438
950.247	-87
950.338	-42
950.429	-310
950.520	-156
950.611	-263
950.701	90
950.792	-254
950.883	76
950.973	83
951.064	24
951.155	-178
951.245	-188
951.336	-258
951.427	-737
951.517	116
951.608	-192
951.698	-486
951.788	-253
951.879	-202
951.969	225
952.060	-689
952.150	-645
952.240	-735
952.331	-586
952.421	597
952.511	-29
952.602	-1418
952.692	254
952.782	-215
952.872	315
952.962	-468
953.052	262
953.143	-681
953.233	35
953.323	-109
953.413	-195
953.503	-329
953.593	-2
953.683	-538
953.773	-267
953.863	-511
953.953	-295
954.042	-147
954.132	635
954.222	107
954.312	499
954.402	-417
954.492	-248
954.581	-539
954.671	487
954.761	-849
954.850	383
954.940	-337
955.030	-31
955.119	-569
955.209	-381
955.298	-434
955.388	106
955.477	-309
955.567	117
955.656	-590
955.746	-180
955.835	-230
955.925	-493
956.014	-791
956.103	-866
956.193	109
956.282	876
956.371	-241
956.461	-91
956.550	-929
956.639	-462
956.728	-668
956.817	-64
956.906	-735
956.995	170
957.085	-235
957.174	76
957.263	-232
957.352	-155
957.441	-819
957.530	289
957.619	-81
957.708	-419
957.796	-292
957.885	29
957.974	-720
958.063	-20
958.152	-869
958.241	227
958.329	-768
958.418	-114
958.507	-934
958.596	-507
958.684	-214
958.773	-753
958.861	-638
958.950	604
959.039	-736
959.127	-13
959.216	-1001
959.304	194
959.393	-748
959.481	93
959.570	-493
959.658	292
959.746	-878
959.835	-132
959.923	-102
960.011	1404
960.100	181
960.188	-161
960.276	117
960.365	23
960.453	-882
960.541	-551
960.629	-671
960.717	-883
960.805	-646
960.893	-102
960.981	-1094
961.069	-91
961.158	-356
961.245	346
961.333	-456
961.421	10
961.509	-800
961.597	-820
961.685	-924
961.773	349
961.861	-881
961.949	-944
962.036	-968
962.124	323
962.212	-1154
962.299	-46
962.387	-1056
962.475	68
962.562	-1291
962.650	-363
962.738	-534
962.825	-189
962.913	-524
963.000	-217
963.088	-563
963.175	1270
963.263	-1112
963.350	156
963.438	-313
963.525	88
963.612	-623
963.700	581
963.787	1482
963.874	6436
963.962	1794
964.049	346
964.136	-895
964.223	188
964.310	-524
964.398	-720
964.485	-950
964.572	-321
964.659	107
964.746	1464
964.833	556
964.920	-377
965.007	-939
965.094	136
965.181	-16
965.268	213
965.355	-548
965.441	-494
965.528	-670
965.615	-22
965.702	-289
965.789	-915
965.875	-728
965.962	380
966.049	-1196
966.136	276
966.222	315
966.309	-883
966.395	157
966.482	-75
966.569	-18
966.655	32
966.742	-710
966.828	90
966.915	-680
967.001	-190
967.087	-924
967.174	-594
967.260	-831
967.347	-422
967.433	-212
967.519	1194
967.605	3060
967.692	1337
967.778	-823
967.864	-453
967.950	-394
968.036	-550
968.123	-462
968.209	-367
968.295	-1244
968.381	-456
968.467	-1274
968.553	-525
968.639	-672
968.725	-280
968.811	-289
968.897	738
968.983	-421
969.069	-362
969.154	-982
969.240	-6
969.326	-1165
969.412	-883
969.497	-1163
969.583	-123
969.669	-1084
969.755	-521
969.840	-150
969.926	391
970.012	-476
970.097	369
970.183	703
970.268	322
970.354	-1024
970.439	169
970.525	331
970.610	1924
970.696	1045
970.781	-84
970.866	-966
970.952	-643
971.037	-1383
971.122	-675
971.208	-800
971.293	-1013
971.378	-892
971.463	-202
971.549	-186
971.634	-286
971.719	-650
971.804	-603
971.889	-274
971.974	-375
972.059	-655
972.144	-480
972.229	-370
972.314	-950
972.399	-672
972.484	-592
972.569	-397
972.654	-453
972.739	-307
972.824	520
972.908	354
972.993	1
973.078	-1102
973.163	62
973.247	-488
973.332	-664
973.417	-852
973.501	-392
973.586	-719
973.671	-839
973.755	-735
973.840	209
973.924	-389
974.009	194
974.093	-1000
974.178	353
974.262	-299
974.346	716
974.431	1222
974.515	-103
974.600	-952
974.684	197
974.768	-752
974.852	-420
974.937	-1261
975.021	386
975.105	-722
975.189	30
975.273	-1247
975.358	-514
975.442	-1150
975.526	-323
975.610	-1430
975.694	-328
975.778	-283
975.862	-1075
975.946	-956
976.030	-564
976.114	-896
976.198	-392
976.281	-782
976.365	130
976.449	-865
976.533	-713
976.617	-418
976.700	-1060
976.784	-525
976.868	-646
976.951	-1325
977.035	-429
977.119	-658
977.202	-508
977.286	-479
977.369	-446
977.453	-355
977.536	84
977.620	-807
977.703	135
977.787	-821
977.870	-475
977.953	-786
978.037	-990
978.120	-169
978.203	-598
978.287	28
978.370	161
978.453	527
978.536	227
978.620	-1115
978.703	-72
978.786	-76
978.869	-176
978.952	-1175
979.035	-209
979.118	-1447
979.201	-330
979.284	-390
979.367	1
979.450	-1224
979.533	108
979.616	-884
979.699	-280
979.782	-754
979.865	-779
979.948	-867
980.030	-770
980.113	-1141
980.196	-540
980.279	-592
980.361	425
980.444	-1689
980.526	-349
980.609	-744
980.692	385
980.774	-482
980.857	207
980.939	-146
981.022	327
981.104	-1172
981.187	-558
981.269	-865
981.352	-610
981.434	-906
981.516	-658
981.599	-345
981.681	-645
981.763	-842
981.846	-1032
981.928	-385
982.010	-331
982.092	-971
982.174	-190
982.256	-1282
982.339	-443
982.421	-1650
982.503	-244
982.585	-512
982.667	-599
982.749	-218
982.831	-1121
982.913	-1716
982.995	-506
983.077	-1423
983.158	466
983.240	-503
983.322	-751
983.404	-484
983.486	85
983.568	-299
983.649	-409
983.731	-465
983.813	-1135
983.894	-940
983.976	-591
984.058	-798
984.139	-74
984.221	-915
984.302	-84
984.384	-84
984.465	-785
984.547	-459
984.628	119
984.710	-1050
984.791	-136
984.872	-821
984.954	-6
985.035	-1274
985.116	-492
985.198	-1179
985.279	-448
985.360	13
985.441	-61
985.522	-1005
985.604	204
985.685	-1348
985.766	466
985.847	-690
985.928	-1020
986.009	-337
986.090	-778
986.171	-567
986.252	-268
986.333	-566
986.414	85
986.495	-884
986.576	-887
986.656	-741
986.737	-604
986.818	-973
986.899	-501
986.980	-402
987.060	-1124
987.141	-938
987.222	-576
987.302	162
987.383	131
987.464	-466
987.544	-513
987.625	-791
987.705	-308
987.786	-286
987.866	-848
987.947	-1370
988.027	-283
988.108	-303
988.188	-174
988.268	-415
988.349	-611
988.429	-877
988.509	142
988.589	-435
988.670	-1028
988.750	71
988.830	87
988.910	208
988.990	6
989.070	-159
989.151	97
989.231	-1085
989.311	-271
989.391	-135
989.471	10
989.551	-434
989.631	-733
989.711	-541
989.791	-397
989.870	-778
989.950	78
990.030	-763
990.110	82
990.190	-752
990.269	63
990.349	-373
990.429	347
990.509	-588
990.588	-230
990.668	289
990.747	-1041
990.827	-587
990.907	-667
990.986	-442
991.066	186
991.145	-1229
991.225	-477
991.304	-556
991.383	-730
991.463	-312
991.542	-233
991.622	-888
991.701	-571
991.780	-329
991.859	-580
991.939	261
992.018	-1216
992.097	-1186
992.176	-101
992.256	-918
992.335	-955
992.414	-59
992.493	-83
992.572	-1022
992.651	104
992.730	-204
992.809	87
992.888	-871
992.967	-395
993.046	-891
993.125	-523
993.203	-1114
993.282	775
993.361	-733
993.440	-75
993.519	-1045
993.597	-1198
993.676	-821
993.755	-63
993.834	-747
993.912	-394
993.991	-1233
994.069	-455
994.148	-815
994.226	-847
994.305	-786
994.384	-369
994.462	-724
994.540	-699
994.619	-846
994.697	-1183
994.776	-1789
994.854	-114
994.932	-1150
995.011	-226
995.089	-707
995.167	-1067
995.245	-811
995.324	-999
995.402	29
995.480	-890
995.558	-1240
995.636	-847
995.714	-1069
995.792	-948
995.870	-1206
995.948	-122
996.026	-858
996.104	-844
996.182	-98
996.260	-1197
996.338	-1204
996.416	-913
996.494	-1217
996.572	-812
996.649	-712
996.727	-1129
996.805	-1312
996.883	-453
996.960	-902
997.038	-866
997.116	-1571
997.193	-1349
997.271	288
997.348	-712
997.426	-598
997.504	-762
997.581	-384
997.658	-1203
997.736	-1205
997.813	-354
997.891	-1043
997.968	-641
998.046	-711
998.123	-1377
998.200	-1169
998.277	-1468
998.355	-114
998.432	-1240
998.509	-1005
998.586	-877
998.663	-1034
998.741	-536
998.818	-2123
998.895	-921
998.972	-1509
999.049	-675
999.126	-1562
999.203	230
999.280	-2037
999.357	-1555
999.434	-1370
999.511	-98
999.587	-431
999.664	-1024
999.741	-1780
999.818	-918
999.895	-847
999.971	-751
1000.048	-1980
1000.125	-853
1000.202	-1856
1000.278	-1537
1000.355	-991
1000.431	-541
1000.508	-1339
1000.584	-759
1000.661	-1170
1000.738	-542
1000.814	-1702
1000.890	-1209
1000.967	-1723
1001.043	-957
1001.120	-1143
1001.196	-941
1001.272	-1385
1001.349	-752
1001.425	-1597
1001.501	11
1001.577	-1242
1001.654	-259
1001.730	-1311
1001.806	-1330
1001.882	-2114
1001.958	69
1002.034	-1481
1002.110	-1039
1002.186	-1447
1002.262	-1224
1002.338	-1062
1002.414	-427
1002.490	-1434
1002.566	-1343
1002.642	-1612
1002.718	-1515
1002.794	-1709
1002.870	-808
1002.945	-953
1003.021	-1087
1003.097	-1367
1003.173	-696
1003.248	-1313
1003.324	-752
1003.400	-1579
1003.475	-1472
1003.551	-676
1003.626	-2230
1003.702	-1496
1003.777	-1051
1003.853	-1263
1003.928	-917
1004.004	-1116
1004.079	-1216
1004.155	-1699
1004.230	-825
1004.305	-696
1004.381	-553
1004.456	-867
1004.531	-854
1004.607	-1215
1004.682	-1378
1004.757	-2014
1004.832	-979
1004.907	-1157
1004.982	-1669
1005.057	-1960
1005.133	-833
1005.208	-1087
1005.283	-601
1005.358	-1179
1005.433	-1073
1005.508	-1482
1005.583	-1193
1005.657	-1528
1005.732	-1183
1005.807	-2621
1005.882	-1163
1005.957	-1793
1006.032	-888
1006.106	-1289
1006.181	-1406
1006.256	-2115
1006.331	-1031
1006.405	-2113
1006.480	-1734
1006.554	-1472
1006.629	-1025
1006.704	-1466
1006.778	-1352
1006.853	-1273
1006.927	-1795
1007.002	-1455
1007.076	-1312
1007.150	-1796
1007.225	-1266
1007.299	-1302
1007.373	-1559
1007.448	-1677
1007.522	-1051
1007.596	-2243
1007.671	-2339
1007.745	-1785
1007.819	-1587
1007.893	-1156
1007.967	-1490
1008.041	-1790
1008.115	-1559
1008.190	-1800
1008.264	-1322
1008.338	-2257
1008.412	-692
1008.486	-1817
1008.560	-923
1008.633	-1708
1008.707	-1057
1008.781	-1520
1008.855	-1435
1008.929	-2239
1009.003	-1523
1009.076	-1722
1009.150	-471
1009.224	-1553
1009.298	-974
1009.371	-2457
1009.445	-1446
1009.519	-1484
1009.592	-1399
1009.666	-2234
1009.739	-1157
1009.813	-1889
1009.886	-686
1009.960	-1259
1010.033	-1750
1010.107	-1414
1010.180	-1002
1010.253	-1761
1010.327	-780
1010.400	-1924
1010.473	-1289
1010.547	-879
1010.620	-1607
1010.693	-1830
1010.766	-964
1010.840	-1923
1010.913	-676
1010.986	-1899
1011.059	-1685
1011.132	-1865
1011.205	-744
1011.278	-1843
1011.351	-1613
1011.424	-2137
1011.497	-1296
1011.570	-1669
1011.643	-2209
1011.716	-2579
1011.789	-1021
1011.862	-1624
1011.934	-1822
1012.007	-2177
1012.080	-1040
1012.153	-1072
1012.225	-1389
1012.298	-1190
1012.371	-1633
1012.443	-1317
1012.516	-1622
1012.588	-1484
1012.661	-916
1012.733	-1498
1012.806	-1453
1012.879	-1717
1012.951	-916
1013.023	-1432
1013.096	-955
1013.168	-1695
1013.241	-1036
1013.313	-1818
1013.385	-1474
1013.458	-2038
1013.530	-717
1013.602	-1679
1013.674	-2084
1013.746	-2195
1013.819	-2168
1013.891	-1985
1013.963	-1625
1014.035	-903
1014.107	-1142
1014.179	-1738
1014.251	-1515
1014.323	-1209
1014.395	-625
1014.467	-1790
1014.539	-1374
1014.611	-2176
1014.683	-1938
1014.754	-1614
1014.826	-1266
1014.898	-2040
1014.970	-1189
1015.042	-1363
1015.113	-1411
1015.185	-1882
1015.257	-2076
1015.328	-1647
1015.400	-1667
1015.471	-1918
1015.543	-1860
1015.615	-992
1015.686	-651
1015.757	-2334
1015.829	-1862
1015.901	-1516
1015.972	-1347
1016.043	-2102
1016.115	-1503
1016.186	-1640
1016.257	-1652
1016.328	-1509
1016.400	-1288
1016.471	-2273
1016.542	-1143
1016.613	-1578
1016.685	-1393
1016.756	-1356
1016.827	-1437
1016.898	-2349
1016.969	-1445
1017.040	-1823
1017.111	-1411
1017.182	-2316
1017.253	-1029
1017.324	-2335
1017.395	-1290
1017.466	-2108
1017.537	-1623
1017.608	-1997
1017.678	-707
1017.749	-1390
1017.820	-2034
1017.891	-2917
1017.961	-1524
1018.032	-2400
1018.103	-1212
1018.173	-1887
1018.244	-1214
1018.315	-696
1018.385	-663
1018.456	-2557
1018.526	-1919
1018.597	-1775
1018.667	-1270
1018.738	-1770
1018.808	-936
1018.878	-1403
1018.949	-2194
1019.019	-1894
1019.089	-2040
1019.160	-2616
1019.230	-1719
1019.300	-1476
1019.371	-1383
1019.441	-1485
1019.511	-1338
1019.581	-1923
1019.651	-1931
1019.721	-1966
1019.791	-1218
1019.861	-1775
1019.931	-2056
1020.001	-2164
1020.071	-1303
1020.141	-2349
1020.211	-1667
1020.281	-1648
1020.351	-1825
1020.421	-2144
1020.491	-472
1020.560	-2073
1020.630	-1831
1020.700	-1791
1020.770	-1951
1020.839	-1655
1020.909	-1721
1020.979	-2005
1021.048	-1834
1021.118	-1937
1021.187	-1394
1021.257	-1573
1021.326	-1803
1021.396	-1101
1021.465	-1912
1021.535	-2093
1021.604	-1800
1021.674	-1920
1021.743	-1545
1021.812	-1652
1021.882	-1240
1021.951	-2294
1022.020	-1824
1022.089	-1405
1022.159	-1235
1022.228	-1872
1022.297	-1546
1022.366	-1633
1022.435	-1694
1022.504	-1853
1022.573	-2043
1022.642	-1791
1022.711	-2309
1022.781	-2018
1022.849	-2236
1022.918	-2272
1022.987	-1113
1023.056	-1781
1023.125	-1903
1023.194	-2349
1023.263	-880
1023.331	-2141
1023.400	-1328
1023.469	-1898
1023.538	-1208
1023.606	-1992
1023.675	-735
1023.744	-1985
1023.812	-2377
1023.881	-2207
1023.949	-1754
1024.018	-2466
1024.086	-1744
1024.155	-1758
1024.223	-1758
1024.292	-1476
1024.360	-1107
1024.429	-1514
1024.497	-1811
1024.565	-1996
1024.634	-1305
1024.702	-1741
1024.770	-1599
1024.838	-2199
1024.907	-1955
1024.975	-2361
1025.043	-1291
1025.111	-2491
1025.179	-1463
1025.247	-1590
1025.315	-1935
1025.383	-1561
1025.451	-1479
1025.519	-2084
1025.587	-1027
1025.655	-2053
1025.723	-1584
1025.791	-1697
1025.859	-1927
1025.927	-1437
1025.995	-1443
1026.062	-1630
1026.130	-471
1026.198	-2223
1026.266	-1141
1026.333	-1641
1026.401	-1740
1026.469	-2403
1026.536	-1692
1026.604	-2023
1026.671	-1864
1026.739	-2016
1026.806	-1680
1026.874	-1545
1026.941	-865
1027.009	-1998
1027.076	-1766
1027.144	-2269
1027.211	-2316
1027.278	-2331
1027.345	-1824
1027.413	-2142
1027.480	-1052
1027.547	-2070
1027.614	-2178
1027.682	-1363
1027.749	-2331
1027.816	-1437
1027.883	-1555
1027.950	-2077
1028.017	-1563
1028.084	-2254
1028.151	-1633
1028.218	-2423
1028.285	-2137
1028.352	-2192
1028.419	-1839
1028.486	-1959
1028.553	-2055
1028.619	-1969
1028.686	-1422
1028.753	-2668
1028.820	-1119
1028.886	-1839
1028.953	-1415
1029.020	-2805
1029.086	-1210
1029.153	-1564
1029.220	-1209
1029.286	-1834
1029.353	-1534
1029.419	-2139
1029.486	-928
1029.552	-2282
1029.619	-822
1029.685	-1749
1029.751	-1861
1029.818	-1526
1029.884	-1738
1029.951	-2031
1030.017	-1335
1030.083	-2759
1030.149	-1187
1030.216	-2256
1030.282	-2212
1030.348	-2208
1030.414	-1967
1030.480	-2673
1030.546	-1805
1030.612	-2064
1030.678	-1274
1030.744	-2077
1030.810	-1996
1030.876	-1695
1030.942	-1136
1031.008	-1675
1031.074	-1875
1031.140	-1682
1031.206	-1255
1031.272	-2099
1031.337	-1325
1031.403	-1969
1031.469	-1443
1031.534	-2362
1031.600	-1710
1031.666	-2084
1031.731	-1813
1031.797	-2224
1031.863	-1861
1031.928	-1314
1031.994	-1945
1032.059	-1658
1032.125	-1829
1032.190	-1933
1032.256	-1818
1032.321	-2266
1032.386	-1531
1032.452	-2140
1032.517	-1634
1032.582	-2643
1032.647	-1908
1032.713	-2067
1032.778	-1833
1032.843	-2187
1032.908	-1000
1032.974	-1526
1033.039	-2037
1033.104	-2278
1033.169	-1081
1033.234	-2529
1033.299	-1657
1033.364	-1936
1033.429	-1269
1033.494	-1426
1033.559	-949
1033.624	-783
1033.688	-1158
1033.753	-1780
1033.818	-1920
1033.883	-1807
1033.948	-1572
1034.013	-1881
1034.077	-1490
1034.142	-1454
1034.207	-1428
1034.271	-1430
1034.336	21
1034.400	-650
1034.465	-430
1034.530	171
1034.594	-111
1034.658	-1819
1034.723	-1451
1034.787	-1362
1034.852	-1504
1034.916	-1926
1034.981	-1001
1035.045	-2135
1035.109	-1150
1035.173	-1438
1035.238	-1589
1035.302	-1836
1035.366	-1310
1035.430	-1608
1035.495	-1949
1035.559	-1839
1035.623	-1859
1035.687	-2845
1035.751	-1601
1035.815	-1747
1035.879	-2108
1035.943	-1851
1036.007	-2743
1036.071	-1594
1036.135	-990
1036.198	-2006
1036.262	-1127
1036.326	-2038
1036.390	-2047
1036.454	-1524
1036.517	-1972
1036.581	-1906
1036.645	-970
1036.709	-911
1036.772	-62
1036.836	-1372
1036.900	-1637
1036.963	-2076
1037.026	-2245
1037.090	-2579
1037.154	-1800
1037.217	-1767
1037.280	-1037
1037.344	-2371
1037.407	-1410
1037.471	-1901
1037.534	-2285
1037.597	-1616
1037.661	-1345
1037.724	-1971
1037.787	-1965
1037.850	-1524
1037.913	-1602
1037.977	-1652
1038.040	-2374
1038.103	-1878
1038.166	-1588
1038.229	-1907
1038.292	-1688
1038.355	-1739
1038.418	-1501
1038.481	-1749
1038.544	-2284
1038.607	-1875
1038.670	-2032
1038.732	-2642
1038.795	-2319
1038.858	-2659
1038.921	-1230
1038.984	-1525
1039.046	-1716
1039.109	-1475
1039.172	-2015
1039.234	-2212
1039.297	-1799
1039.360	-2730
1039.422	-1588
1039.485	-2077
1039.547	-1966
1039.610	-1798
1039.672	-1334
1039.734	-756
1039.797	-1732
1039.859	-2746
1039.922	-2247
1039.984	-2617
1040.046	-2011
1040.109	-2181
1040.171	-2206
1040.233	-2504
1040.295	-2026
1040.358	-2475
1040.420	-2485
1040.482	-2034
1040.544	-1488
1040.606	-2159
1040.668	-2140
1040.730	-3010
1040.792	-2162
1040.854	-1661
1040.916	-2022
1040.978	-1499
1041.040	-1095
1041.102	-2015
1041.164	-1692
1041.225	-2575
1041.287	-1843
1041.349	-2992
1041.411	-2489
1041.472	-2335
1041.534	-2055
1041.596	-2398
1041.657	-2077
1041.719	-2186
1041.781	-1733
1041.842	-2375
1041.904	-1471
1041.965	-2551
1042.027	-1716
1042.088	-2003
1042.150	-1651
1042.211	-2284
1042.272	-1640
1042.334	-2648
1042.395	-2206
1042.456	-3106
1042.518	-2199
1042.579	-1883
1042.640	-2214
1042.701	-2287
1042.763	-1904
1042.824	-2571
1042.885	-1619
1042.946	-3090
1043.007	-2158
1043.068	-2272
1043.129	-2187
1043.190	-2641
1043.251	-1657
1043.312	-1811
1043.373	-1291
1043.434	-2713
1043.495	-1676
1043.556	-1563
1043.616	-1165
1043.677	-2292
1043.738	-2282
1043.799	-2059
1043.859	-1865
1043.920	-2574
1043.981	-1834
1044.041	-2569
1044.102	-1931
1044.162	-2094
1044.223	-2184
1044.284	-3065
1044.344	-1581
1044.405	-2440
1044.465	-1449
1044.525	-2270
1044.586	-1485
1044.646	-2663
1044.707	-1316
1044.767	-1653
1044.827	-1907
1044.887	-1105
1044.948	-2054
1045.008	-2321
1045.068	-1443
1045.128	-2489
1045.188	-1107
1045.249	-2295
1045.309	-1885
1045.369	-2941
1045.429	-1515
1045.489	-2023
1045.549	-1491
1045.609	-1985
1045.669	-1051
1045.729	-2193
1045.789	-1742
1045.848	-2256
1045.908	-1051
1045.968	-1809
1046.028	-960
1046.088	-2437
1046.147	-1658
1046.207	-1746
1046.267	-1547
1046.326	-1283
1046.386	-1944
1046.446	-2186
1046.505	-1476
1046.565	-2005
1046.624	-834
1046.684	-1381
1046.743	-428
1046.803	-1053
1046.862	62
1046.922	0
