'Start Wavelength	183.907
'End Wavelength	1046.922
'Gate Delay	5.000
'Gate Width (ms)	1.050
'Laser Output Level	0.000
'X Position	0.000
'Y Position	0.000
'Z Position	0.000
'Grid Point Number	1.000
'Shot Number	100.000
183.907	896.000
183.977	230.000
184.047	974
184.116	285
184.186	327
184.256	994
184.325	1167
184.395	113
184.465	645
184.534	52
184.604	195
184.674	81
184.743	311
184.813	111
184.883	551
184.952	40
185.022	203
185.092	536
185.161	169
185.231	111
185.301	987
185.370	263
185.440	697
185.509	186
185.579	282
185.649	283
185.718	248
185.788	854
185.857	315
185.927	894
185.996	-86
186.066	421
186.136	425
186.205	740
186.275	1500
186.344	746
186.414	1147
186.483	333
186.553	1791
186.622	2601
186.692	714
186.761	836
186.831	608
186.900	708
186.970	945
187.039	1349
187.109	2276
187.178	818
187.248	605
187.317	1406
187.387	775
187.456	1294
187.526	873
187.595	1500
187.664	570
187.734	1556
187.803	1186
187.873	2537
187.942	2302
188.012	1747
188.081	1236
188.150	1526
188.220	2094
188.289	1489
188.358	1556
188.428	1408
188.497	1322
188.567	803
188.636	1523
188.705	1005
188.775	607
188.844	1576
188.913	1272
188.983	1031
189.052	1208
189.121	405
189.191	1791
189.260	2243
189.329	1765
189.399	1197
189.468	949
189.537	1307
189.606	1094
189.676	1116
189.745	1870
189.814	1495
189.883	1221
189.953	2304
190.022	3914
190.091	9641
190.161	5830
190.230	2445
190.299	2331
190.368	1751
190.437	1824
190.507	1236
190.576	1635
190.645	845
190.714	1727
190.783	1817
190.853	1677
190.922	2208
190.991	1483
191.060	1864
191.129	1656
191.198	1593
191.268	1536
191.337	1727
191.406	1926
191.475	626
191.544	1370
191.613	1448
191.682	1653
191.752	1737
191.821	1221
191.890	1495
191.959	1310
192.028	1439
192.097	1563
192.166	1975
192.235	810
192.304	830
192.373	821
192.442	723
192.511	707
192.580	1681
192.650	805
192.719	1922
192.788	1693
192.857	1865
192.926	1384
192.995	1928
193.064	3264
193.133	3848
193.202	4512
193.271	2971
193.340	4112
193.409	3864
193.478	4556
193.547	7206
193.615	7337
193.684	6091
193.753	4058
193.822	3041
193.891	2387
193.960	2085
194.029	3040
194.098	2398
194.167	1807
194.236	1793
194.305	1647
194.374	2144
194.443	2011
194.512	2013
194.580	1452
194.649	3322
194.718	1923
194.787	2185
194.856	1811
194.925	2502
194.994	2582
195.062	2750
195.131	3072
195.200	3911
195.269	2893
195.338	2498
195.407	2163
195.475	3099
195.544	3602
195.613	2385
195.682	2837
195.751	3975
195.819	3744
195.888	2511
195.957	4403
196.026	3682
196.094	4409
196.163	4777
196.232	2931
196.301	3353
196.369	3586
196.438	2735
196.507	3112
196.576	2341
196.644	2027
196.713	2163
196.782	2076
196.850	2410
196.919	2089
196.988	2792
197.056	2441
197.125	2754
197.194	2393
197.262	2235
197.331	1864
197.400	2214
197.468	2547
197.537	2614
197.606	3495
197.674	6812
197.743	6268
197.812	4778
197.880	9640
197.949	5498
198.017	8596
198.086	3515
198.155	3313
198.223	6383
198.292	9518
198.360	3885
198.429	3701
198.497	3242
198.566	10016
198.635	5771
198.703	3102
198.772	5288
198.840	14755
198.909	6745
198.977	4053
199.046	3964
199.114	3738
199.183	3469
199.251	3519
199.320	2907
199.388	3129
199.457	3310
199.525	3801
199.594	2691
199.662	2826
199.731	2991
199.799	2600
199.867	3680
199.936	3013
200.004	2536
200.073	3102
200.141	2490
200.210	2793
200.278	2488
200.346	3691
200.415	5245
200.483	4032
200.552	2859
200.620	2950
200.688	2802
200.757	2740
200.825	2925
200.893	3007
200.962	3305
201.030	2757
201.098	3954
201.167	3855
201.235	3104
201.303	2860
201.372	3342
201.440	3459
201.508	5136
201.577	4209
201.645	3211
201.713	3708
201.781	5650
201.850	4380
201.918	3650
201.986	2997
202.055	3124
202.123	2956
202.191	2492
202.259	3348
202.327	3295
202.396	3558
202.464	4211
202.532	8271
202.600	14587
202.669	6069
202.737	3877
202.805	3891
202.873	3411
202.941	3336
203.009	3320
203.078	3760
203.146	3056
203.214	3649
203.282	2849
203.350	3862
203.418	3710
203.487	2606
203.555	2960
203.623	3745
203.691	3863
203.759	2603
203.827	3221
203.895	4155
203.963	3647
204.031	3287
204.099	3417
204.168	2985
204.236	3480
204.304	4509
204.372	3888
204.440	3880
204.508	3379
204.576	3154
204.644	3482
204.712	3190
204.780	3057
204.848	3433
204.916	3975
204.984	2988
205.052	3746
205.120	4358
205.188	4103
205.256	3450
205.324	4236
205.392	3263
205.460	4924
205.528	4719
205.596	3546
205.664	3953
205.732	5445
205.799	20065
205.867	12589
205.935	5829
206.003	4990
206.071	3969
206.139	5360
206.207	4194
206.275	4315
206.343	3780
206.411	4659
206.478	4040
206.546	5339
206.614	4076
206.682	4195
206.750	4653
206.818	6322
206.885	4269
206.953	3442
207.021	4454
207.089	3729
207.157	3102
207.225	4828
207.292	4266
207.360	4632
207.428	4317
207.496	3681
207.563	4167
207.631	4037
207.699	3825
207.767	3900
207.834	4563
207.902	4615
207.970	3736
208.038	4375
208.105	4342
208.173	6575
208.241	6845
208.309	5420
208.376	7185
208.444	10127
208.512	5257
208.579	4924
208.647	5603
208.715	5566
208.782	4474
208.850	5094
208.918	4768
208.985	5227
209.053	5954
209.120	5432
209.188	4447
209.256	5313
209.323	5949
209.391	7006
209.459	5509
209.526	4724
209.594	5316
209.661	4841
209.729	5325
209.796	4354
209.864	5369
209.932	5256
209.999	5574
210.067	6041
210.134	5471
210.202	7607
210.269	7483
210.337	7219
210.404	5689
210.472	5715
210.539	5289
210.607	6924
210.674	5933
210.742	5235
210.809	6094
210.877	8043
210.944	6803
211.012	6361
211.079	6145
211.146	5806
211.214	6906
211.281	8708
211.349	6351
211.416	7221
211.484	7577
211.551	5720
211.618	5804
211.686	6411
211.753	5455
211.821	6478
211.888	6417
211.955	6024
212.023	6339
212.090	6061
212.157	6797
212.225	8890
212.292	15207
212.359	37010
212.427	48147
212.494	17113
212.561	9469
212.629	7881
212.696	7246
212.763	6531
212.831	6838
212.898	6807
212.965	5804
213.032	7023
213.100	7538
213.167	7398
213.234	7658
213.301	6920
213.369	6243
213.436	6671
213.503	6658
213.570	7514
213.638	7490
213.705	6215
213.772	5017
213.839	9691
213.906	7422
213.973	8266
214.041	6682
214.108	6440
214.175	6392
214.242	6860
214.309	6890
214.376	7561
214.444	7570
214.511	8303
214.578	7674
214.645	8350
214.712	8548
214.779	7608
214.846	8524
214.913	8649
214.980	9307
215.048	9533
215.115	9756
215.182	8925
215.249	7818
215.316	7071
215.383	6720
215.450	6791
215.517	6692
215.584	6342
215.651	6667
215.718	6676
215.785	8159
215.852	8487
215.919	8909
215.986	8471
216.053	5956
216.120	6678
216.187	8364
216.254	7564
216.321	7531
216.388	7969
216.455	8556
216.522	8995
216.589	11466
216.656	18328
216.722	12602
216.789	11721
216.856	11506
216.923	9489
216.990	9590
217.057	9548
217.124	12545
217.191	11984
217.258	14064
217.324	15852
217.391	13646
217.458	11440
217.525	10160
217.592	9091
217.659	9718
217.725	10230
217.792	14890
217.859	10131
217.926	7433
217.993	7172
218.059	7014
218.126	7048
218.193	6584
218.260	6169
218.327	6413
218.393	5889
218.460	5046
218.527	5610
218.594	9557
218.660	14478
218.727	10691
218.794	6279
218.860	5897
218.927	5826
218.994	5001
219.061	6695
219.127	9263
219.194	10434
219.261	6216
219.327	5403
219.394	4850
219.461	4566
219.527	6026
219.594	9223
219.661	5451
219.727	5493
219.794	5712
219.860	5773
219.927	8582
219.994	12889
220.060	15401
220.127	9174
220.193	8672
220.260	9490
220.326	14600
220.393	21865
220.460	22141
220.526	14098
220.593	10782
220.659	10015
220.726	17506
220.792	29220
220.859	24271
220.925	34730
220.992	36504
221.058	40253
221.125	32598
221.191	22311
221.258	10292
221.324	8646
221.391	8612
221.457	7949
221.524	8539
221.590	16856
221.657	36990
221.723	17857
221.789	25569
221.856	15753
221.922	9818
221.989	8394
222.055	7560
222.121	7520
222.188	8251
222.254	7462
222.321	5719
222.387	4870
222.453	5723
222.520	5774
222.586	5887
222.652	6595
222.719	6422
222.785	6620
222.851	5254
222.918	5239
222.984	7418
223.050	6750
223.116	6230
223.183	5412
223.249	4794
223.315	4273
223.382	5542
223.448	5169
223.514	4494
223.580	4940
223.647	5302
223.713	5090
223.779	4334
223.845	4847
223.911	4714
223.978	4663
224.044	5452
224.110	4686
224.176	4851
224.242	4745
224.309	4700
224.375	5127
224.441	4471
224.507	4286
224.573	4894
224.639	4756
224.705	4399
224.772	4307
224.838	6359
224.904	6355
224.970	4902
225.036	6740
225.102	6038
225.168	6302
225.234	5089
225.300	6371
225.366	5397
225.432	5327
225.499	5392
225.565	7828
225.631	6803
225.697	7033
225.763	7839
225.829	9052
225.895	11913
225.961	14512
226.027	11934
226.093	11955
226.159	12812
226.225	22433
226.291	52512
226.357	48110
226.423	25810
226.489	17423
226.554	11926
226.620	13518
226.686	19566
226.752	26545
226.818	49396
226.884	78014
226.950	46576
227.016	22131
227.082	14793
227.148	13909
227.214	13118
227.279	11015
227.345	9347
227.411	9595
227.477	11823
227.543	19346
227.609	15807
227.674	10423
227.740	9652
227.806	8328
227.872	7548
227.938	10755
228.003	12395
228.069	7238
228.135	6176
228.201	6371
228.267	7851
228.332	9654
228.398	11142
228.464	6213
228.530	5408
228.595	5453
228.661	9330
228.727	12746
228.792	7353
228.858	7747
228.924	8091
228.990	9049
229.055	10685
229.121	9268
229.187	6727
229.252	7915
229.318	5930
229.384	8855
229.449	7876
229.515	5468
229.581	3960
229.646	7522
229.712	9764
229.777	19964
229.843	13084
229.909	12700
229.974	12907
230.040	11007
230.105	10672
230.171	11638
230.236	16467
230.302	20367
230.368	12238
230.433	10176
230.499	8865
230.564	9961
230.630	8129
230.695	6864
230.761	6451
230.826	7872
230.892	11394
230.957	6860
231.023	6838
231.088	8392
231.154	7529
231.219	8762
231.284	13203
231.350	10604
231.415	7070
231.481	5947
231.546	6387
231.612	6183
231.677	6247
231.742	6561
231.808	6787
231.873	6513
231.939	8097
232.004	14719
232.069	8398
232.135	8861
232.200	6799
232.265	5285
232.331	5753
232.396	5627
232.461	5175
232.527	6954
232.592	6200
232.657	8832
232.723	17640
232.788	9153
232.853	6415
232.918	6246
232.984	6156
233.049	8767
233.114	16677
233.179	11590
233.245	28333
233.310	16448
233.375	7665
233.440	6378
233.506	5548
233.571	7068
233.636	5891
233.701	8543
233.766	25323
233.832	13322
233.897	10209
233.962	10339
234.027	10596
234.092	8553
234.157	9101
234.222	9879
234.288	27838
234.353	48444
234.418	35684
234.483	17790
234.548	14424
234.613	11586
234.678	11049
234.743	24811
234.808	53116
234.873	19423
234.938	11595
235.004	10587
235.069	10644
235.134	9509
235.199	9112
235.264	8567
235.329	7979
235.394	10068
235.459	15199
235.524	10898
235.589	9605
235.654	8191
235.719	7808
235.784	8617
235.849	18364
235.913	26248
235.978	38595
236.043	23910
236.108	12050
236.173	15969
236.238	11411
236.303	10526
236.368	10487
236.433	27391
236.498	25130
236.563	19076
236.627	53028
236.692	104773
236.757	52363
236.822	36890
236.887	26863
236.952	19929
237.017	20884
237.081	19582
237.146	29557
237.211	55846
237.276	129214
237.341	130462
237.405	55271
237.470	33324
237.535	22921
237.600	15222
237.664	12890
237.729	13206
237.794	24059
237.859	29936
237.923	23069
237.988	15615
238.053	27452
238.118	30193
238.182	72026
238.247	34678
238.312	28397
238.376	17630
238.441	17475
238.506	11901
238.570	9221
238.635	8996
238.700	9495
238.764	12635
238.829	41882
238.893	22622
238.958	16974
239.023	12323
239.087	11717
239.152	11109
239.216	7864
239.281	8772
239.346	8488
239.410	9314
239.475	23347
239.539	71398
239.604	25424
239.668	12244
239.733	10831
239.797	17886
239.862	39632
239.926	39052
239.991	14280
240.055	11209
240.120	10611
240.184	10456
240.249	9845
240.313	7793
240.378	15482
240.442	55175
240.507	37972
240.571	17077
240.635	41056
240.700	23401
240.764	12006
240.829	9312
240.893	8122
240.957	12322
241.022	51317
241.086	49693
241.151	19104
241.215	11422
241.279	27721
241.344	25937
241.408	13235
241.472	11391
241.537	10994
241.601	11374
241.665	10313
241.730	11214
241.794	10863
241.858	10344
241.922	10988
241.987	10003
242.051	9530
242.115	9343
242.179	9436
242.244	9838
242.308	10148
242.372	15256
242.436	13750
242.501	11219
242.565	10109
242.629	8827
242.693	9265
242.757	9005
242.822	10358
242.886	11738
242.950	12956
243.014	12611
243.078	14313
243.142	12350
243.206	14552
243.271	13929
243.335	13441
243.399	24190
243.463	125659
243.527	116255
243.591	35158
243.655	19368
243.719	14294
243.783	16262
243.847	30067
243.911	32587
243.975	39716
244.040	19177
244.104	12987
244.168	13526
244.232	26832
244.296	26805
244.360	24454
244.424	19003
244.488	14170
244.552	13658
244.615	11380
244.679	10340
244.743	18062
244.807	11334
244.871	9527
244.935	9534
244.999	10231
245.063	11217
245.127	13974
245.191	24352
245.255	15202
245.319	18907
245.383	13781
245.446	11810
245.510	10969
245.574	11992
245.638	11300
245.702	19818
245.766	25027
245.829	16705
245.893	15296
245.957	12666
246.021	13422
246.085	15942
246.149	22703
246.212	49768
246.276	41468
246.340	22968
246.404	17110
246.467	27618
246.531	25391
246.595	17603
246.659	18086
246.722	19293
246.786	18360
246.850	27588
246.913	20643
246.977	13043
247.041	17019
247.104	14469
247.168	20268
247.232	52121
247.295	61407
247.359	22813
247.423	23950
247.486	29006
247.550	18064
247.614	20046
247.677	19451
247.741	13783
247.804	14423
247.868	18154
247.932	55210
247.995	49767
248.059	20565
248.122	15862
248.186	22540
248.249	54458
248.313	123617
248.376	89267
248.440	52078
248.503	24836
248.567	26410
248.630	40776
248.694	45381
248.757	78921
248.821	99058
248.884	53057
248.948	79946
249.011	97500
249.075	136312
249.138	77895
249.202	38700
249.265	39751
249.328	43650
249.392	28718
249.455	19880
249.519	20020
249.582	29916
249.645	37953
249.709	23554
249.772	22231
249.835	23509
249.899	24739
249.962	18548
250.025	23234
250.089	62258
250.152	45457
250.215	29837
250.279	23612
250.342	25782
250.405	22052
250.468	22102
250.532	30589
250.595	59205
250.658	230235
250.721	150766
250.785	64784
250.848	36540
250.911	26254
250.974	25277
251.038	55075
251.101	55585
251.164	40871
251.227	39483
251.290	35343
251.354	89604
251.417	246099
251.480	128698
251.543	210435
251.606	364930
251.669	167264
251.732	93016
251.795	99455
251.859	142083
251.922	216027
251.985	79466
252.048	44733
252.111	38900
252.174	41493
252.237	97936
252.300	121772
252.363	226168
252.426	223631
252.489	93384
252.552	59684
252.615	46041
252.678	62474
252.741	106910
252.804	214214
252.867	251342
252.930	137681
252.993	73930
253.056	51708
253.119	37968
253.182	43631
253.245	59762
253.308	42687
253.371	49766
253.434	40104
253.497	46882
253.559	64113
253.622	48590
253.685	78734
253.748	46228
253.811	34479
253.874	54647
253.937	35558
254.000	30831
254.062	67812
254.125	55917
254.188	72697
254.251	37483
254.314	35371
254.376	63419
254.439	51694
254.502	43240
254.565	71473
254.628	70633
254.690	44901
254.753	28562
254.816	28192
254.878	35184
254.941	66703
255.004	35977
255.067	29288
255.129	23798
255.192	15559
255.255	18542
255.317	17926
255.380	13013
255.443	12937
255.505	13048
255.568	13782
255.631	14170
255.693	14432
255.756	11597
255.819	12995
255.881	11640
255.944	11328
256.006	13034
256.069	12179
256.132	12782
256.194	33489
256.257	53640
256.319	44861
256.382	27812
256.444	16976
256.507	14118
256.569	13020
256.632	18899
256.694	30948
256.757	99489
256.819	112739
256.882	41279
256.944	25053
257.007	25004
257.069	25166
257.132	16786
257.194	14667
257.257	16389
257.319	15525
257.381	22188
257.444	75359
257.506	209113
257.569	145399
257.631	85570
257.693	42033
257.756	32812
257.818	24604
257.880	15836
257.943	15614
258.005	14028
258.067	13588
258.130	13870
258.192	28924
258.254	41082
258.317	18626
258.379	21618
258.441	46985
258.503	28866
258.566	92989
258.628	42426
258.690	17985
258.753	25932
258.815	32320
258.877	16567
258.939	13169
259.001	13466
259.064	14984
259.126	29528
259.188	21954
259.250	20388
259.312	37000
259.375	64471
259.437	24034
259.499	15409
259.561	15768
259.623	15333
259.685	14992
259.747	20505
259.809	96849
259.872	92789
259.934	175131
259.996	67088
260.058	25109
260.120	17272
260.182	13698
260.244	12903
260.306	11671
260.368	12947
260.430	15131
260.492	34238
260.554	58230
260.616	38371
260.678	116356
260.740	62954
260.802	23898
260.864	20344
260.926	17981
260.988	16514
261.050	20139
261.112	52898
261.174	121074
261.236	44536
261.298	27482
261.359	79532
261.421	42684
261.483	18210
261.545	16536
261.607	12183
261.669	14799
261.731	61552
261.793	61008
261.854	25804
261.916	18031
261.978	19071
262.040	18532
262.102	19835
262.164	38257
262.225	16817
262.287	21527
262.349	40741
262.411	18823
262.472	16502
262.534	68686
262.596	49212
262.658	19156
262.719	14893
262.781	45298
262.843	61905
262.904	22234
262.966	21398
263.028	36175
263.090	241975
263.151	191471
263.213	64918
263.275	34251
263.336	19934
263.398	14430
263.459	13101
263.521	19338
263.583	34216
263.644	17126
263.706	11221
263.767	10354
263.829	9168
263.891	8261
263.952	8916
264.014	8922
264.075	24478
264.137	26526
264.198	14436
264.260	9381
264.321	10733
264.383	43534
264.444	33428
264.506	14731
264.567	12008
264.629	33134
264.690	27902
264.752	16332
264.813	12637
264.875	9826
264.936	10693
264.998	9553
265.059	9338
265.120	11320
265.182	30207
265.243	99874
265.305	39191
265.366	16498
265.427	12250
265.489	11136
265.550	10171
265.611	14657
265.673	11928
265.734	9116
265.795	9118
265.857	9406
265.918	11657
265.979	48354
266.040	144784
266.102	52388
266.163	28328
266.224	21198
266.286	13354
266.347	11442
266.408	14085
266.469	15807
266.530	10177
266.592	12470
266.653	36454
266.714	26745
266.775	12745
266.836	10177
266.898	11978
266.959	16963
267.020	10861
267.081	10247
267.142	10104
267.203	10378
267.264	10262
267.326	12028
267.387	10629
267.448	9333
267.509	10677
267.570	9348
267.631	9681
267.692	10164
267.753	9910
267.814	10065
267.875	36268
267.936	31907
267.997	20532
268.058	16806
268.119	12748
268.180	12299
268.241	9870
268.302	9120
268.363	9467
268.424	12187
268.485	12190
268.546	7691
268.607	7036
268.668	7870
268.729	8116
268.790	10125
268.851	14132
268.912	38677
268.972	25121
269.033	14097
269.094	9711
269.155	8398
269.216	10161
269.277	11969
269.338	9120
269.398	10032
269.459	14048
269.520	18319
269.581	25307
269.642	22938
269.702	15759
269.763	11851
269.824	12183
269.885	22448
269.945	16346
270.006	9844
270.067	9190
270.128	8805
270.188	9961
270.249	8969
270.310	7817
270.370	12057
270.431	10181
270.492	8493
270.553	13149
270.613	34728
270.674	37005
270.734	15301
270.795	13386
270.856	20875
270.916	12152
270.977	12560
271.038	15071
271.098	14196
271.159	29542
271.219	15559
271.280	10674
271.340	10199
271.401	29377
271.462	36821
271.522	16378
271.583	13831
271.643	14317
271.704	12814
271.764	16677
271.825	51284
271.885	136945
271.946	81007
272.006	38501
272.066	95716
272.127	63459
272.187	25122
272.248	17946
272.308	38176
272.369	65003
272.429	27148
272.489	41943
272.550	28734
272.610	37229
272.671	20881
272.731	48557
272.791	41007
272.852	22858
272.912	18856
272.972	12541
273.033	20352
273.093	27291
273.153	19427
273.214	15678
273.274	23366
273.334	90792
273.394	73149
273.455	37097
273.515	70425
273.575	69111
273.635	36683
273.696	93640
273.756	77892
273.816	33070
273.876	30503
273.936	122856
273.997	69208
274.057	25260
274.117	23844
274.177	58200
274.237	143265
274.297	98345
274.358	83490
274.418	82240
274.478	43170
274.538	22969
274.598	49297
274.658	136884
274.718	94765
274.778	31800
274.838	24931
274.898	132475
274.958	151650
275.018	105138
275.078	46515
275.138	25484
275.198	17337
275.258	16243
275.318	31060
275.378	41558
275.438	29148
275.498	29941
275.558	135983
275.618	118452
275.678	52034
275.738	49442
275.798	28117
275.858	16536
275.918	13157
275.978	19767
276.038	13426
276.098	13912
276.157	56285
276.217	60953
276.277	30052
276.337	23326
276.397	18666
276.457	20285
276.517	13743
276.576	12197
276.636	15254
276.696	31140
276.756	56903
276.815	24008
276.875	20865
276.935	25471
276.995	16179
277.055	14212
277.114	13469
277.174	40039
277.234	49385
277.293	22199
277.353	15290
277.413	14584
277.472	18946
277.532	15108
277.592	23964
277.651	116000
277.711	67523
277.771	63276
277.830	155105
277.890	63396
277.950	149935
278.009	153198
278.069	55454
278.128	123543
278.188	75053
278.248	74979
278.307	135439
278.367	46702
278.426	25776
278.486	18971
278.545	16307
278.605	16085
278.664	15023
278.724	19492
278.783	81067
278.843	68889
278.902	27128
278.962	27541
279.021	35607
279.081	73915
279.140	40417
279.199	31958
279.259	30319
279.318	33428
279.378	46454
279.437	112465
279.496	391873
279.556	737854
279.615	322012
279.675	127862
279.734	102201
279.793	204533
279.853	125437
279.912	52660
279.971	38490
280.031	38262
280.090	87716
280.149	80227
280.208	207850
280.268	590155
280.327	265356
280.386	100070
280.445	92354
280.505	52304
280.564	34462
280.623	29714
280.682	58244
280.742	39647
280.801	20861
280.860	18667
280.919	17929
280.978	19134
281.037	17355
281.097	16202
281.156	16025
281.215	15134
281.274	32543
281.333	80566
281.392	28532
281.451	15750
281.510	15756
281.569	15204
281.628	13835
281.688	13127
281.747	17729
281.806	14605
281.865	12012
281.924	14833
281.983	11518
282.042	10708
282.101	11923
282.160	11648
282.219	11764
282.278	22448
282.337	46708
282.396	17222
282.454	14121
282.513	34760
282.572	62023
282.631	22596
282.690	15274
282.749	15508
282.808	17718
282.867	18653
282.926	14279
282.985	11104
283.043	10677
283.102	13167
283.161	18043
283.220	59809
283.279	45901
283.338	19871
283.396	17338
283.455	16251
283.514	21660
283.573	27102
283.631	17612
283.690	14475
283.749	18407
283.808	41357
283.866	24295
283.925	15694
283.984	17522
284.043	26790
284.101	20716
284.160	19726
284.219	22149
284.277	20951
284.336	50046
284.395	97965
284.453	44735
284.512	34311
284.570	44290
284.629	35171
284.688	39059
284.746	41995
284.805	53165
284.863	69029
284.922	78325
284.981	96264
285.039	144317
285.098	271150
285.156	494222
285.215	486192
285.273	495049
285.332	335116
285.390	209156
285.449	138063
285.507	97385
285.566	73188
285.624	55996
285.683	45241
285.741	37326
285.799	34742
285.858	32355
285.916	28657
285.975	22952
286.033	20736
286.091	19914
286.150	17869
286.208	18974
286.267	20630
286.325	25390
286.383	30884
286.442	19858
286.500	15942
286.558	14741
286.616	15873
286.675	20984
286.733	18251
286.791	16811
286.850	20303
286.908	34019
286.966	29163
287.024	16864
287.083	13845
287.141	12612
287.199	17796
287.257	20568
287.315	15492
287.374	25819
287.432	38778
287.490	21360
287.548	18843
287.606	14483
287.664	15687
287.723	27144
287.781	20791
287.839	17073
287.897	20176
287.955	22194
288.013	34051
288.071	109440
288.129	537948
288.187	583376
288.245	196639
288.303	89031
288.361	59583
288.419	42985
288.477	28545
288.535	21199
288.593	17315
288.651	15469
288.709	13703
288.767	15668
288.825	11597
288.883	11557
288.941	12800
288.999	12267
289.057	10131
289.115	11716
289.173	11753
289.231	14129
289.289	12127
289.346	12698
289.404	17705
289.462	28159
289.520	20250
289.578	11501
289.636	9300
289.694	9294
289.751	8971
289.809	9674
289.867	10123
289.925	16724
289.983	13253
290.040	9545
290.098	10715
290.156	14864
290.214	14063
290.271	9360
290.329	8809
290.387	8226
290.444	7493
290.502	7190
290.560	7984
290.617	9289
290.675	9017
290.733	11260
290.790	10091
290.848	10844
290.906	12664
290.963	11492
291.021	10065
291.078	9910
291.136	12406
291.194	58037
291.251	43228
291.309	14918
291.366	9956
291.424	11699
291.481	11717
291.539	14155
291.596	10830
291.654	8451
291.711	7618
291.769	19327
291.826	24809
291.884	12614
291.941	9800
291.999	11378
292.056	14575
292.114	11337
292.171	9799
292.228	12173
292.286	18808
292.343	32656
292.401	28865
292.458	17374
292.515	15823
292.573	18842
292.630	17884
292.687	16199
292.745	12010
292.802	24559
292.859	59940
292.917	72140
292.974	27954
293.031	14607
293.089	12151
293.146	10732
293.203	9404
293.260	11027
293.318	18914
293.375	15659
293.432	10500
293.489	9528
293.546	10028
293.604	26651
293.661	95713
293.718	93228
293.775	42586
293.832	30789
293.889	30407
293.947	29580
294.004	16763
294.061	20385
294.118	52230
294.175	76350
294.232	56784
294.289	24687
294.346	20116
294.403	19882
294.460	18724
294.517	14312
294.574	11629
294.631	10067
294.688	15276
294.745	69826
294.802	137992
294.859	81775
294.916	50076
294.973	31552
295.030	29032
295.087	20548
295.144	15438
295.201	13078
295.258	11609
295.315	23196
295.372	83565
295.429	65163
295.486	27750
295.542	26299
295.599	71547
295.656	59740
295.713	77658
295.770	59282
295.827	24316
295.883	17719
295.940	23387
295.997	36727
296.054	23746
296.111	15009
296.167	11161
296.224	10480
296.281	10286
296.338	9330
296.394	11031
296.451	19994
296.508	63952
296.564	53850
296.621	55854
296.678	143338
296.734	90889
296.791	36722
296.848	25393
296.904	43910
296.961	82880
297.018	98655
297.074	45955
297.131	22441
297.187	20648
297.244	44071
297.301	155134
297.357	107528
297.414	40147
297.470	23012
297.527	17940
297.583	17123
297.640	15822
297.696	13160
297.753	11079
297.809	10427
297.866	9111
297.922	10314
297.979	10918
298.035	14298
298.092	34254
298.148	67937
298.204	36985
298.261	26340
298.317	84434
298.374	105007
298.430	49744
298.486	39602
298.543	28026
298.599	25642
298.656	30117
298.712	79866
298.768	114113
298.824	50864
298.881	23199
298.937	17098
298.993	19727
299.050	22595
299.106	16554
299.162	17127
299.218	14734
299.275	12401
299.331	14889
299.387	57073
299.443	128124
299.500	72670
299.556	32368
299.612	23398
299.668	23563
299.724	28270
299.780	19868
299.837	16956
299.893	48482
299.949	114606
300.005	82434
300.061	126243
300.117	113490
300.173	49161
300.229	41754
300.285	56080
300.341	40895
300.397	23382
300.453	17592
300.510	16333
300.566	15125
300.622	25599
300.678	75972
300.734	88831
300.790	103488
300.845	80446
300.901	79462
300.957	100746
301.013	50493
301.069	26681
301.125	27461
301.181	25324
301.237	18313
301.293	14349
301.349	13193
301.405	13265
301.461	16460
301.516	18656
301.572	26267
301.628	32492
301.684	30519
301.740	62190
301.796	52322
301.851	56257
301.907	73104
301.963	66370
302.019	192808
302.074	313244
302.130	202864
302.186	89452
302.242	45900
302.297	34507
302.353	47952
302.409	66319
302.464	40663
302.520	71654
302.576	134858
302.631	104288
302.687	54322
302.743	28399
302.798	19577
302.854	15758
302.910	18610
302.965	30925
303.021	42311
303.076	42622
303.132	63045
303.187	47306
303.243	25268
303.299	17904
303.354	15805
303.410	14940
303.465	14195
303.521	12703
303.576	12057
303.632	18123
303.687	62083
303.743	99496
303.798	54806
303.853	28153
303.909	19979
303.964	20905
304.020	40080
304.075	38162
304.130	55340
304.186	78130
304.241	69194
304.297	46372
304.352	27409
304.358	26682
304.407	20783
304.449	21732
304.463	22073
304.518	20191
304.539	18727
304.573	16382
304.629	17494
304.630	18023
304.684	42085
304.720	83414
304.739	104790
304.794	80847
304.811	69841
304.850	41640
304.902	24014
304.905	22970
304.960	21045
304.992	21705
305.015	22300
305.071	20837
305.083	19658
305.126	15218
305.173	11932
305.181	11409
305.236	12222
305.264	13908
305.292	15812
305.347	18612
305.354	18816
305.402	19815
305.445	22950
305.457	23893
305.512	26313
305.535	24743
305.567	22356
305.622	24604
305.626	26827
305.678	66024
305.716	107237
305.733	124318
305.788	92095
305.807	90364
305.843	83030
305.897	105809
305.898	106159
305.953	73026
305.988	56046
306.008	44855
306.063	29327
306.078	25880
306.118	19714
306.168	15332
306.173	14984
306.228	12659
306.259	12178
306.283	11929
306.338	12382
306.349	12902
306.393	15391
306.440	16416
306.448	16454
306.503	14717
306.530	20091
306.558	28595
306.613	58854
306.620	62705
306.668	88762
306.711	104800
306.723	106275
306.778	69843
306.801	58389
306.833	41223
306.888	21540
306.892	20684
306.943	17438
306.982	15227
306.997	14565
307.052	13807
307.072	13956
307.107	15017
307.162	21591
307.163	21704
307.217	33874
307.253	42571
307.272	45905
307.327	41733
307.343	39983
307.381	31839
307.434	28738
307.436	29371
307.491	68244
307.524	90191
307.546	100901
307.600	85107
307.614	80113
307.655	49451
307.704	26027
307.710	25417
307.765	29564
307.795	42306
307.819	57810
307.874	76429
307.885	76155
307.929	53813
307.975	38356
307.984	38079
308.038	44919
308.065	59083
308.093	90526
308.148	230381
308.156	253499
308.202	429043
308.246	463913
308.257	433098
308.312	245701
308.336	180168
308.366	146509
308.421	91609
308.426	87484
308.475	57205
308.517	38934
308.530	36327
308.585	30505
308.607	29306
308.639	29302
308.694	32276
308.697	33466
308.748	67726
308.787	89259
308.803	91654
308.857	74260
308.877	70567
308.912	58182
308.967	44754
308.967	44677
309.021	59059
309.058	76405
309.076	93377
309.130	160940
309.148	193807
309.185	312239
309.238	526855
309.239	530404
309.293	637313
309.328	640592
309.348	541615
309.402	276127
309.418	207680
309.457	148259
309.508	88658
309.511	87356
309.566	82772
309.598	89205
309.620	107312
309.674	167149
309.688	177334
309.729	177291
309.778	160059
309.783	155127
309.837	99788
309.868	74342
309.892	75184
309.946	97112
309.959	103289
310.001	146056
310.049	174398
310.055	168104
310.109	104093
310.139	72405
310.163	58019
310.218	32737
310.229	28206
310.272	23053
310.319	19381
310.326	19068
310.381	17583
310.409	16863
310.435	15652
310.489	13583
310.499	13364
310.543	14090
310.589	15571
310.598	15840
310.652	16481
310.679	16769
310.706	14823
310.760	11093
310.769	10573
310.814	9689
310.859	9188
310.868	9169
310.923	8876
310.948	9063
310.977	10403
311.031	13222
311.038	13558
311.085	13917
311.128	14188
311.139	13795
311.193	11839
311.218	10961
311.247	10252
311.301	9080
311.308	8968
311.356	9246
311.398	9522
311.410	9402
311.464	8766
311.488	8566
311.518	8552
311.572	8670
311.578	8746
311.626	12852
311.668	16203
311.680	15993
311.734	15033
311.758	14651
311.788	15291
311.842	16430
311.847	16581
311.896	17019
311.937	17513
311.950	18322
312.004	21832
312.027	23357
312.058	19653
312.112	13105
312.117	12458
312.165	10808
312.207	9432
312.297	13280
312.386	13652
312.476	11701
312.566	25627
312.656	17382
312.745	8103
312.835	8815
312.925	10870
313.015	10601
313.104	13525
313.194	7585
313.284	9810
313.374	12505
313.463	14477
313.553	8901
313.643	9195
313.732	8251
313.822	7618
313.912	8949
314.001	11059
314.091	11843
314.180	16453
314.270	15687
314.360	16397
314.449	17571
314.539	10375
314.628	8604
314.718	11218
314.808	14876
314.897	11692
314.987	9278
315.076	12700
315.166	18331
315.255	17923
315.345	16318
315.434	17054
315.524	14483
315.613	18870
315.703	22852
315.792	34817
315.881	101282
315.971	69248
316.060	29911
316.150	48884
316.239	53250
316.328	29694
316.418	9312
316.507	10848
316.597	14257
316.686	15887
316.775	19999
316.865	55402
316.954	19882
317.043	8598
317.133	9613
317.222	10159
317.311	8838
317.400	10455
317.490	12468
317.579	19866
317.668	12498
317.757	20338
317.847	54480
317.936	186262
318.025	119966
318.114	45014
318.203	32722
318.293	24383
318.382	50466
318.471	47290
318.560	57893
318.649	93951
318.738	41101
318.828	14691
318.917	18943
319.006	18661
319.095	57155
319.184	117107
319.273	101132
319.362	53004
319.451	16619
319.540	13214
319.629	28523
319.718	62246
319.807	22702
319.896	40464
319.985	144372
320.074	97360
320.163	19380
320.252	31267
320.341	24764
320.430	21712
320.519	25484
320.608	21731
320.697	11807
320.786	13532
320.875	17272
320.964	24696
321.053	35930
321.142	52898
321.230	66625
321.319	41255
321.408	93910
321.497	59994
321.586	37507
321.675	48427
321.764	57690
321.852	30705
321.941	48726
322.030	49186
322.119	33176
322.207	99055
322.296	91074
322.385	40728
322.474	40119
322.562	108301
322.651	91897
322.740	40530
322.829	73909
322.917	73797
323.006	53550
323.095	34644
323.183	27149
323.272	35173
323.361	61470
323.449	205633
323.538	113838
323.626	124753
323.715	141488
323.804	31518
323.892	116289
323.981	114758
324.069	23779
324.158	56047
324.246	96632
324.335	23722
324.424	39090
324.512	19075
324.601	18593
324.689	50215
324.778	134202
324.866	72606
324.954	24554
325.043	12417
325.131	26880
325.220	56243
325.308	70540
325.397	46038
325.485	41621
325.574	10779
325.662	10031
325.750	12232
325.839	10860
325.927	8212
326.015	12599
326.104	19760
326.192	44216
326.280	12757
326.369	9461
326.457	14849
326.545	29343
326.634	20533
326.722	7505
326.810	9865
326.898	7805
326.987	9411
327.075	23630
327.163	37197
327.251	20779
327.340	36272
327.428	86162
327.516	17473
327.604	9865
327.692	12045
327.781	11893
327.869	24511
327.957	20163
328.045	15606
328.133	8644
328.221	12354
328.309	12907
328.397	9195
328.485	11842
328.574	16038
328.662	56270
328.750	55796
328.838	20506
328.926	10648
329.014	6869
329.102	11736
329.190	28284
329.278	33062
329.366	9127
329.454	7090
329.542	7305
329.630	6821
329.718	7362
329.806	11032
329.893	10348
329.981	10917
330.069	11151
330.157	39549
330.245	159515
330.333	126123
330.421	22292
330.509	15599
330.597	66115
330.684	72744
330.772	18850
330.860	20902
330.948	27891
331.036	17732
331.123	7328
331.211	6729
331.299	8997
331.387	16158
331.475	46643
331.562	21008
331.650	7916
331.738	10297
331.825	16767
331.913	9155
332.001	6979
332.089	9717
332.176	23066
332.264	55760
332.352	76475
332.439	17778
332.527	10946
332.614	9256
332.702	14979
332.790	10819
332.877	22787
332.965	73906
333.052	32398
333.140	17340
333.228	57745
333.315	24594
333.403	10632
333.490	31977
333.578	49054
333.665	63004
333.753	47327
333.840	12721
333.928	11458
334.015	32462
334.103	54187
334.190	172435
334.278	87736
334.365	20454
334.452	17742
334.540	11257
334.627	11939
334.715	20967
334.802	29985
334.889	188463
334.977	355817
335.064	52743
335.151	15455
335.239	13674
335.326	15804
335.413	54276
335.501	138354
335.588	25918
335.675	12098
335.762	12343
335.850	24904
335.937	18079
336.024	39254
336.111	223725
336.199	179286
336.286	26191
336.373	12495
336.460	9005
336.547	8823
336.635	11429
336.722	12140
336.809	9884
336.896	13372
336.983	38180
337.070	106462
337.157	178201
337.245	148823
337.332	178037
337.419	20586
337.506	10416
337.593	9076
337.680	23197
337.767	106524
337.854	47173
337.941	36711
338.028	55149
338.115	31473
338.202	14819
338.289	31310
338.376	150941
338.463	88744
338.550	45566
338.637	91381
338.724	24885
338.811	57273
338.898	17270
338.984	7170
339.071	10549
339.158	11291
339.245	33631
339.332	32509
339.419	25199
339.506	45037
339.593	9223
339.679	7194
339.766	8483
339.853	8938
339.940	28017
340.027	14594
340.113	9004
340.200	14779
340.287	12582
340.374	11235
340.460	27320
340.547	14024
340.634	13839
340.720	60723
340.807	72735
340.894	9019
340.980	8382
341.067	9395
341.154	9897
341.240	13168
341.327	40758
341.414	18216
341.500	16982
341.587	11039
341.674	8374
341.760	18975
341.847	35575
341.933	15223
342.020	5218
342.106	5056
342.193	7892
342.279	20391
342.366	13851
342.452	27900
342.539	16954
342.625	23151
342.712	82917
342.798	50790
342.885	19617
342.971	6318
343.058	5664
343.144	6404
343.230	7821
343.317	7473
343.403	9252
343.490	5619
343.576	5820
343.662	6757
343.749	10870
343.835	12167
343.921	16793
344.008	89585
344.094	355365
344.180	135775
344.267	25947
344.353	66218
344.439	130605
344.525	48550
344.612	21919
344.698	13126
344.784	12318
344.870	7343
344.957	7590
345.043	14255
345.129	11839
345.215	23787
345.301	19102
345.387	11804
345.474	5643
345.560	6221
345.646	9885
345.732	9661
345.818	10370
345.904	11013
345.990	10950
346.076	11952
346.162	24896
346.249	14809
346.335	7184
346.421	7001
346.507	21887
346.593	127657
346.679	61660
346.765	9844
346.851	8148
346.937	10345
347.023	7868
347.108	9227
347.194	10785
347.280	8453
347.366	8996
347.452	24835
347.538	136979
347.624	136434
347.710	116289
347.796	27414
347.882	8871
347.967	6992
348.053	10031
348.139	9603
348.225	6966
348.311	8367
348.397	7596
348.482	8433
348.568	13289
348.654	7573
348.740	9331
348.825	12019
348.911	13676
348.997	46743
349.083	159582
349.168	48883
349.254	10331
349.340	11966
349.425	7082
349.511	9936
349.597	14796
349.682	20321
349.768	79109
349.854	70231
349.939	11443
350.025	7204
350.110	7930
350.196	5600
350.282	7063
350.367	5297
350.453	10802
350.538	22663
350.624	11914
350.709	12918
350.795	7091
350.880	8976
350.966	8023
351.051	15221
351.137	17216
351.222	8054
351.308	18373
351.393	80439
351.479	40488
351.564	10831
351.649	7835
351.735	6839
351.820	6368
351.906	7229
351.991	10217
352.076	34197
352.162	96029
352.247	25349
352.332	10444
352.418	19840
352.503	29311
352.588	80654
352.673	133534
352.759	29054
352.844	13991
352.929	10106
353.014	20202
353.100	12425
353.185	16704
353.270	28661
353.355	38972
353.441	11566
353.526	10618
353.611	21149
353.696	39789
353.781	20042
353.866	12488
353.952	8067
354.037	19796
354.122	58434
354.207	60661
354.292	32871
354.377	10260
354.462	7896
354.547	11738
354.632	13023
354.717	12867
354.802	25458
354.887	14728
354.972	6538
355.057	6974
355.142	5459
355.227	8435
355.312	15074
355.397	32849
355.482	85537
355.567	75847
355.652	26938
355.737	39499
355.822	78092
355.907	133088
355.991	21642
356.076	9454
356.161	8849
356.246	8268
356.331	9019
356.416	17607
356.501	113053
356.585	253215
356.670	48378
356.755	16477
356.840	17765
356.924	69772
357.009	378367
357.094	288077
357.179	39520
357.263	30242
357.348	20144
357.433	27085
357.517	19593
357.602	21310
357.687	15267
357.771	17734
357.856	53807
357.941	53170
358.025	48979
358.110	327072
358.195	313785
358.279	42402
358.364	19063
358.448	47450
358.533	179163
358.617	185090
358.702	146712
358.787	88468
358.871	29076
358.956	31764
359.040	13532
359.125	9011
359.209	9349
359.294	19869
359.378	55273
359.462	31532
359.547	18322
359.631	13157
359.716	9815
359.800	8973
359.885	12277
359.969	13365
360.053	8945
360.138	8913
360.222	12661
360.306	28207
360.391	28195
360.475	26369
360.559	85524
360.644	76059
360.728	78968
360.812	55092
360.896	258854
360.981	155569
361.065	74883
361.149	20135
361.233	15932
361.318	14975
361.402	16807
361.486	15366
361.570	10985
361.654	14167
361.739	26018
361.823	111450
361.907	308982
361.991	94980
362.075	21920
362.159	54972
362.243	52528
362.327	31868
362.411	44895
362.495	30612
362.580	18325
362.664	10084
362.748	11039
362.832	12035
362.916	15713
363.000	42349
363.084	151999
363.168	351076
363.252	135860
363.336	28856
363.420	28586
363.503	76338
363.587	169588
363.671	43589
363.755	18357
363.839	29746
363.923	18470
364.007	23154
364.091	40896
364.175	34488
364.258	141607
364.342	162024
364.426	124033
364.510	104209
364.594	41995
364.677	36774
364.761	163265
364.845	244394
364.929	58228
365.013	52391
365.096	31261
365.180	49925
365.264	32296
365.347	151138
365.431	128866
365.515	27441
365.598	15699
365.682	10862
365.766	14075
365.849	27153
365.933	14808
366.017	17850
366.100	15541
366.184	8330
366.267	9611
366.351	8748
366.435	8083
366.518	7821
366.602	5856
366.685	7669
366.769	10610
366.852	13800
366.936	31161
367.019	27791
367.103	13621
367.186	24865
367.270	13511
367.353	7493
367.436	8087
367.520	8590
367.603	10486
367.687	16236
367.770	35580
367.853	24661
367.937	37816
368.020	124748
368.104	47851
368.187	21201
368.270	37239
368.353	36202
368.437	35942
368.520	97116
368.603	93025
368.687	55968
368.770	160252
368.853	66913
368.936	27173
369.020	36220
369.103	17950
369.186	10084
369.269	11532
369.352	16857
369.436	36297
369.519	25993
369.602	14290
369.685	10427
369.768	13438
369.851	11856
369.934	8762
370.018	10503
370.101	25537
370.184	28231
370.267	15447
370.350	22839
370.433	38613
370.516	82560
370.599	186492
370.682	78694
370.765	64589
370.848	91966
370.931	171895
371.014	119631
371.097	21588
371.180	14271
371.263	9421
371.346	7943
371.429	8399
371.511	9898
371.594	16725
371.677	29078
371.760	31593
371.843	26991
371.926	73265
372.009	322001
372.091	179960
372.174	55482
372.257	151906
372.340	114069
372.423	38291
372.505	56151
372.588	30499
372.671	35036
372.754	151975
372.836	150980
372.919	40772
373.002	107288
373.085	61260
373.167	27625
373.250	56944
373.332	148661
373.415	173534
373.498	430099
373.580	275771
373.663	144444
373.746	364293
373.828	123154
373.911	34929
373.993	26921
374.076	69331
374.159	128961
374.241	49457
374.324	116751
374.406	147240
374.489	75679
374.571	322950
374.654	256187
374.736	61296
374.819	172801
374.901	281454
374.983	405371
375.066	123534
375.148	24533
375.231	47409
375.313	164161
375.395	95870
375.478	25678
375.560	14176
375.643	16147
375.725	39007
375.807	215454
375.890	307907
375.972	142210
376.054	58506
376.136	85100
376.219	66075
376.301	43754
376.383	224687
376.465	169273
376.548	54081
376.630	63089
376.712	168587
376.794	171637
376.877	23171
376.959	9269
377.041	12050
377.123	15859
377.205	29441
377.287	12035
377.369	8299
377.452	8773
377.534	9721
377.616	9254
377.698	9926
377.780	8831
377.862	9668
377.944	10401
378.026	7619
378.108	7120
378.190	7287
378.272	8038
378.354	6833
378.436	5764
378.518	9504
378.600	36380
378.682	48376
378.764	74944
378.846	118781
378.928	29586
379.010	31006
379.091	25427
379.173	11066
379.255	9862
379.337	12704
379.419	29381
379.501	128033
379.583	108260
379.664	18652
379.746	28061
379.828	76574
379.910	135990
379.991	155574
380.073	47703
380.155	14459
380.237	14331
380.318	9496
380.400	10323
380.482	16796
380.564	40854
380.645	35949
380.727	43188
380.809	24860
380.890	17204
380.972	14832
381.053	13074
381.135	13975
381.217	23613
381.298	92715
381.380	88436
381.461	36793
381.543	125862
381.624	325912
381.706	103594
381.787	26683
381.869	29207
381.951	47893
382.032	269073
382.113	328525
382.195	79808
382.276	33485
382.358	47566
382.439	157606
382.521	196490
382.602	329706
382.684	214087
382.765	206332
382.846	337624
382.928	483491
383.009	453719
383.090	167467
383.172	436795
383.253	1194982
383.334	588561
383.416	299626
383.497	254033
383.578	91747
383.659	123867
383.741	343945
383.822	1321876
383.903	1228658
383.984	311903
384.066	336296
384.147	336863
384.228	93622
384.309	42353
384.390	40456
384.471	27321
384.553	26614
384.634	30978
384.715	40570
384.796	24715
384.877	21627
384.958	61492
385.039	141773
385.120	68892
385.201	24105
385.282	24771
385.363	26618
385.444	26639
385.525	29464
385.606	99713
385.687	172595
385.768	49062
385.849	30402
385.930	85641
386.011	279979
386.092	145981
386.173	25769
386.254	16053
386.335	14735
386.416	16692
386.496	36961
386.577	111375
386.658	61057
386.739	24870
386.820	21082
386.901	17687
386.981	17111
387.062	13238
387.143	16556
387.224	68830
387.304	124495
387.385	46225
387.466	23982
387.547	24474
387.627	21343
387.708	24298
387.789	110855
387.869	252389
387.950	115946
388.031	17506
388.111	10856
388.192	19561
388.273	38082
388.353	34306
388.434	17571
388.514	22001
388.595	102225
388.676	239140
388.756	146233
388.837	85002
388.917	93197
388.998	23811
389.078	13895
389.159	11845
389.239	12696
389.320	16357
389.400	21776
389.480	22378
389.561	89201
389.641	88428
389.722	19860
389.802	29249
389.883	34765
389.963	98133
390.043	119832
390.124	40300
390.204	24142
390.284	92077
390.365	113729
390.445	55523
390.525	165190
390.605	270105
390.686	106685
390.766	31736
390.846	15289
390.927	10716
391.007	12129
391.087	13190
391.167	15725
391.247	14036
391.328	16798
391.408	28202
391.488	25156
391.568	12292
391.648	13009
391.728	23929
391.808	20945
391.888	25281
391.969	36615
392.049	101887
392.129	62145
392.209	33775
392.289	101081
392.369	102126
392.449	45804
392.529	42642
392.609	28894
392.689	29967
392.769	84179
392.849	141467
392.929	62415
393.009	127601
393.089	176160
393.169	100929
393.248	203420
393.328	903918
393.408	1780622
393.488	749351
393.568	165831
393.648	72208
393.728	44148
393.807	34120
393.887	27150
393.967	25182
394.047	25280
394.127	30893
394.206	37147
394.286	80265
394.366	406636
394.446	870331
394.525	320119
394.605	60753
394.685	33214
394.764	48780
394.844	94213
394.924	112446
395.003	42973
395.083	24580
395.163	21380
395.242	18785
395.322	21293
395.402	16483
395.481	17223
395.561	28115
395.640	102192
395.720	123582
395.799	108398
395.879	147581
395.958	65523
396.038	114065
396.117	549483
396.197	1139254
396.276	475380
396.356	122039
396.435	68131
396.515	54555
396.594	51452
396.673	81636
396.753	200521
396.832	926507
396.912	1311938
396.991	437458
397.070	94343
397.150	45379
397.229	30360
397.308	25854
397.388	46969
397.467	37935
397.546	17351
397.625	14613
397.705	16839
397.784	20415
397.863	16868
397.942	10987
398.022	9999
398.101	18494
398.180	89869
398.259	93779
398.338	24725
398.417	15363
398.497	12354
398.576	10669
398.655	9492
398.734	7551
398.813	7498
398.892	16179
398.971	89462
399.050	107765
399.129	19750
399.208	6117
399.287	5473
399.366	6248
399.445	6012
399.524	6870
399.603	7513
399.682	10724
399.761	28788
399.840	89038
399.919	148206
399.998	37154
400.077	7639
400.156	5922
400.235	6861
400.313	6734
400.392	7853
400.471	25027
400.550	93025
400.629	52403
400.708	12695
400.786	9549
400.865	16649
400.944	32373
401.023	21440
401.102	7076
401.180	3681
401.259	4741
401.338	6937
401.416	9944
401.495	12228
401.574	9317
401.652	6608
401.731	9130
401.810	11565
401.888	8786
401.967	3953
402.046	5601
402.124	7403
402.203	14342
402.281	11485
402.360	8348
402.438	21532
402.517	34210
402.596	11498
402.674	8312
402.753	7113
402.831	5145
402.910	5978
402.988	15475
403.066	90711
403.145	118541
403.223	32589
403.302	76568
403.380	96130
403.459	73900
403.537	52326
403.615	16456
403.694	5319
403.772	4616
403.850	4139
403.929	4171
404.007	4328
404.085	9335
404.164	18636
404.242	12111
404.320	5998
404.398	12124
404.477	24601
404.555	148065
404.633	328720
404.711	90478
404.789	12480
404.868	7793
404.946	7990
405.024	5011
405.102	3543
405.180	4579
405.258	3890
405.336	4594
405.415	4627
405.493	10470
405.571	15499
405.649	8024
405.727	5358
405.805	8240
405.883	9613
405.961	9089
406.039	11277
406.117	9500
406.195	8800
406.273	26191
406.351	157750
406.429	228927
406.507	44639
406.585	11635
406.663	6728
406.740	10491
406.818	13298
406.896	8805
406.974	6539
407.052	9911
407.130	58726
407.208	217006
407.285	96281
407.363	11531
407.441	6980
407.519	6899
407.596	6511
407.674	12725
407.752	33623
407.830	56261
407.907	31617
407.985	13024
408.063	7326
408.141	4205
408.218	5832
408.296	11871
408.373	10109
408.451	9414
408.529	9489
408.606	6855
408.684	3330
408.762	3401
408.839	2065
408.917	2969
408.994	2068
409.072	4223
409.149	3922
409.227	4950
409.304	10708
409.382	10073
409.459	7016
409.537	11230
409.614	12960
409.692	9251
409.769	7149
409.846	11002
409.924	15680
410.001	16639
410.079	11122
410.156	7406
410.233	5788
410.311	6662
410.388	5794
410.465	5406
410.543	7666
410.620	6147
410.697	4617
410.775	9484
410.852	6191
410.929	5652
411.006	10607
411.083	8427
411.161	9714
411.238	19470
411.315	12177
411.392	6063
411.469	6593
411.547	10590
411.624	7561
411.701	5314
411.778	5144
411.855	13554
411.932	17499
412.009	6496
412.086	4506
412.163	5302
412.240	6560
412.317	7893
412.394	10309
412.471	6100
412.548	3312
412.625	4941
412.702	4773
412.779	11358
412.856	13086
412.933	6121
413.010	3682
413.087	4843
413.164	21883
413.241	81509
413.318	43290
413.395	10789
413.471	14900
413.548	14187
413.625	4243
413.702	6464
413.779	7666
413.855	3095
413.932	1982
414.009	3029
414.086	2357
414.162	3692
414.239	3867
414.316	19426
414.393	93409
414.469	90500
414.546	12691
414.623	3620
414.699	3762
414.776	5461
414.853	5346
414.929	4655
415.006	4741
415.082	4702
415.159	5091
415.236	4109
415.312	5072
415.389	7376
415.465	17319
415.542	15722
415.618	5028
415.695	9665
415.771	9134
415.848	7580
415.924	6318
416.000	5445
416.077	3395
416.153	2583
416.230	779
416.306	2057
416.383	2820
416.459	4090
416.535	1830
416.612	2611
416.688	3090
416.764	3318
416.841	4344
416.917	5018
416.993	4428
417.069	3885
417.146	7236
417.222	11420
417.298	9824
417.374	5222
417.451	4206
417.527	5794
417.603	9755
417.679	7909
417.755	6343
417.831	3953
417.908	2262
417.984	2298
418.060	2105
418.136	6645
418.212	21169
418.288	13927
418.364	4934
418.440	3462
418.516	7371
418.592	8542
418.668	15924
418.744	32065
418.820	35430
418.896	14072
418.972	4229
419.048	3660
419.124	8634
419.200	18324
419.276	7407
419.352	2015
419.428	1839
419.504	3468
419.579	6933
419.655	7555
419.731	5644
419.807	11871
419.883	34581
419.959	44928
420.034	15993
420.110	9117
420.186	37478
420.262	84494
420.337	25494
420.413	9694
420.489	6654
420.565	4734
420.640	3960
420.716	5394
420.792	3746
420.867	4711
420.943	5159
421.019	7753
421.094	12407
421.170	6461
421.245	4478
421.321	4670
421.397	5306
421.472	7066
421.548	17052
421.623	29088
421.699	13404
421.774	9868
421.850	8612
421.925	11717
422.001	17775
422.076	11420
422.152	10046
422.227	16584
422.302	23494
422.378	24704
422.453	42642
422.529	82151
422.604	235743
422.679	623501
422.755	656158
422.830	294046
422.905	94019
422.981	45633
423.056	28687
423.131	20500
423.207	14928
423.282	13648
423.357	19476
423.432	26282
423.508	15166
423.583	26351
423.658	42671
423.733	16666
423.808	10849
423.883	13103
423.959	13276
424.034	11088
424.109	8804
424.184	5593
424.259	4525
424.334	4583
424.409	3943
424.484	4279
424.559	7198
424.634	6057
424.709	6079
424.784	12551
424.859	8917
424.934	7199
425.009	22974
425.084	74936
425.159	67580
425.234	13787
425.309	3465
425.384	6540
425.459	25414
425.534	19332
425.609	5334
425.683	4709
425.758	3297
425.833	4757
425.908	5811
425.983	10539
426.058	60358
426.132	79952
426.207	17387
426.282	7488
426.357	10490
426.431	7147
426.506	3712
426.581	5026
426.655	4897
426.730	4157
426.805	5719
426.879	5419
426.954	4687
427.029	8476
427.103	28459
427.178	146891
427.253	184124
427.327	35793
427.402	8011
427.476	22523
427.551	30016
427.625	9702
427.700	7281
427.774	5053
427.849	5306
427.923	5412
427.998	4296
428.072	4368
428.147	8454
428.221	22046
428.296	100282
428.370	147355
428.444	34585
428.519	11130
428.593	18036
428.667	27393
428.742	20974
428.816	27128
428.890	38548
428.965	147572
429.039	108386
429.113	35823
429.188	23529
429.262	8107
429.336	7076
429.410	24261
429.485	41464
429.559	19373
429.633	23679
429.707	11874
429.781	9500
429.855	41418
429.930	155130
430.004	126015
430.078	88823
430.152	122138
430.226	118305
430.300	256150
430.374	108218
430.448	16836
430.522	15131
430.596	73388
430.670	112438
430.744	80447
430.818	288423
430.892	192287
430.966	25263
431.040	8772
431.114	5577
431.188	4641
431.262	4394
431.336	5578
431.410	6683
431.484	20613
431.557	39064
431.631	14361
431.705	5313
431.779	9478
431.853	62256
431.927	143577
432.000	44854
432.074	7031
432.148	5591
432.222	7670
432.295	5170
432.369	3574
432.443	4907
432.516	23193
432.590	144072
432.664	176571
432.737	31732
432.811	6372
432.885	2260
432.958	2515
433.032	2604
433.106	2837
433.179	2068
433.253	2200
433.326	2380
433.400	2390
433.473	1741
433.547	1838
433.620	1944
433.694	4195
433.767	11664
433.841	7474
433.914	2867
433.988	3175
434.061	1777
434.134	2315
434.208	2360
434.281	1806
434.355	1575
434.428	2634
434.501	2941
434.575	2547
434.648	1386
434.721	3237
434.795	1899
434.868	2400
434.941	2035
435.014	1602
435.088	2477
435.161	4252
435.234	7898
435.307	14066
435.381	11376
435.454	5990
435.527	6448
435.600	8501
435.673	6733
435.746	4972
435.819	3609
435.892	3683
435.966	2866
436.039	2252
436.112	3653
436.185	1876
436.258	1460
436.331	1608
436.404	1538
436.477	1550
436.550	1186
436.623	1745
436.696	941
436.769	2761
436.842	3536
436.915	2121
436.987	5262
437.060	6248
437.133	2818
437.206	2289
437.279	2225
437.352	2204
437.425	2262
437.498	3064
437.570	5572
437.643	13141
437.716	8154
437.789	2438
437.861	3360
437.934	14491
438.007	23678
438.080	7716
438.152	4350
438.225	6549
438.298	25559
438.370	189707
438.443	260855
438.516	63820
438.588	18219
438.661	5132
438.734	4173
438.806	3823
438.879	6165
438.951	5998
439.024	10521
439.096	11219
439.169	4468
439.241	3501
439.314	2122
439.386	3514
439.459	7565
439.531	12791
439.604	15414
439.676	4644
439.749	1911
439.821	2669
439.893	1917
439.966	2993
440.038	3866
440.110	6817
440.183	5606
440.255	3201
440.327	4029
440.400	11048
440.472	82093
440.544	202969
440.617	67358
440.689	11604
440.761	9674
440.833	16320
440.905	22097
440.978	9756
441.050	3064
441.122	2611
441.194	2600
441.266	2727
441.338	2270
441.411	4395
441.483	16319
441.555	83422
441.627	62991
441.699	12406
441.771	9361
441.843	7853
441.915	3216
441.987	3210
442.059	2438
442.131	3674
442.203	5814
442.275	9467
442.347	10533
442.419	8674
442.491	17843
442.563	96396
442.635	133296
442.706	44680
442.778	41488
442.850	21131
442.922	5731
442.994	4711
443.066	7238
443.137	10806
443.209	7692
443.281	6967
443.353	11655
443.425	27176
443.496	130302
443.568	314111
443.640	208095
443.711	60042
443.783	13534
443.855	8091
443.926	5255
443.998	4450
444.070	5888
444.141	6955
444.213	7164
444.285	13827
444.356	13194
444.428	12833
444.499	9077
444.571	3621
444.642	3281
444.714	3023
444.785	7559
444.857	12255
444.928	15067
445.000	23724
445.071	14737
445.143	20048
445.214	19267
445.285	14168
445.357	28429
445.428	74336
445.500	286755
445.571	406062
445.642	221937
445.714	96988
445.785	49136
445.856	35793
445.928	15557
445.999	16039
446.070	12506
446.141	8655
446.213	12172
446.284	12372
446.355	6736
446.426	6258
446.497	5430
446.569	6061
446.640	10714
446.711	17361
446.782	10879
446.853	5753
446.924	9103
446.995	8269
447.066	6427
447.138	6753
447.209	9757
447.280	4953
447.351	2788
447.422	1664
447.493	2469
447.564	5727
447.635	8521
447.706	11728
447.777	4383
447.847	2260
447.918	1861
447.989	3300
448.060	6690
448.131	9793
448.202	17746
448.273	16643
448.344	11376
448.414	4299
448.485	3928
448.556	4102
448.627	1912
448.698	2028
448.768	1296
448.839	2210
448.910	4267
448.981	10471
449.051	7464
449.122	4057
449.193	2125
449.263	2579
449.334	2282
449.405	3287
449.475	8541
449.546	17487
449.616	10628
449.687	11606
449.758	7674
449.828	4113
449.899	3089
449.969	3411
450.040	2137
450.110	2548
450.181	6321
450.251	5810
450.322	3576
450.392	3436
450.463	3073
450.533	2791
450.604	2584
450.674	2904
450.744	2764
450.815	2963
450.885	2885
450.955	3354
451.026	2474
451.096	2951
451.166	2687
451.237	4911
451.307	16749
451.377	24557
451.447	8551
451.518	3445
451.588	2840
451.658	3403
451.728	3480
451.799	9371
451.869	33502
451.939	24859
452.009	6271
452.079	3375
452.149	3098
452.219	3779
452.289	12683
452.360	33465
452.430	19025
452.500	5054
452.570	5687
452.640	8238
452.710	12501
452.780	33281
452.850	35890
452.920	33866
452.990	27590
453.060	9478
453.129	7191
453.199	11126
453.269	12405
453.339	87047
453.409	161733
453.479	108345
453.549	133556
453.619	176445
453.688	159055
453.758	52256
453.828	8988
453.898	5437
453.968	4696
454.037	4631
454.087	3536
454.107	3042
454.168	4214
454.177	4336
454.247	3012
454.249	3096
454.316	4085
454.330	4222
454.386	4403
454.411	5716
454.456	6575
454.492	14202
454.525	20790
454.574	21181
454.595	21575
454.655	9246
454.665	7281
454.734	6391
454.736	6634
454.804	10143
454.817	12031
454.873	15798
454.898	23418
454.943	35777
454.979	33729
455.013	32945
455.060	20724
455.082	15849
455.141	12234
455.152	11340
455.221	14594
455.222	15136
455.291	27199
455.303	28100
455.360	35169
455.384	29312
455.430	19103
455.465	18645
455.499	17557
455.546	20572
455.569	19633
455.627	25433
455.638	27197
455.707	16282
455.708	16265
455.777	6131
455.789	6150
455.846	5889
455.869	5715
455.916	5446
455.950	5364
455.985	5146
456.031	5652
456.054	5689
456.112	5968
456.124	6089
456.193	5552
456.193	5501
456.262	6016
456.274	6463
456.332	8216
456.355	8938
456.401	8454
456.436	8721
456.470	9530
456.516	7203
456.540	6151
456.597	5455
456.609	5259
456.678	5500
456.678	5463
456.747	5080
456.759	4901
456.817	4401
456.840	4721
456.886	5262
456.920	5576
456.955	5955
457.001	6066
457.024	6648
457.082	9729
457.093	10180
457.162	12772
457.163	12876
457.232	13512
457.243	13411
457.301	12603
457.324	10439
457.370	8057
457.405	7370
457.439	6829
457.485	7671
457.508	8033
457.566	8413
457.577	8640
457.646	11146
457.647	11224
457.715	16905
457.727	18195
457.784	27886
457.808	32575
457.853	35148
457.889	40965
457.922	39848
457.969	34361
457.991	38970
458.050	43880
458.060	45570
458.129	64989
458.130	65897
458.198	53494
458.211	50086
458.267	41918
458.292	32143
458.336	25762
458.372	22648
458.405	25192
458.453	33905
458.474	42973
458.533	71903
458.543	73432
458.611	95028
458.614	96461
458.680	66020
458.694	53893
458.749	39120
458.775	29387
458.818	18332
458.855	14349
458.887	12111
458.936	11170
458.955	10539
459.016	10661
459.024	10774
459.093	11120
459.097	11204
459.162	12744
459.177	13039
459.230	14619
459.257	15974
459.299	15863
459.338	15174
459.368	15563
459.418	16846
459.437	16106
459.499	13936
459.505	13924
459.574	12039
459.579	11978
459.643	11225
459.659	11199
459.711	12409
459.740	13071
459.780	14130
459.820	15391
459.849	15576
459.900	15896
459.917	15928
459.981	16677
459.986	16710
460.054	16745
460.061	16761
460.123	17874
460.141	18339
460.191	22693
460.222	25579
460.260	28293
460.302	31603
460.328	28170
460.382	22474
460.397	22729
460.462	20057
460.465	20147
460.534	23028
460.543	23573
460.602	43912
460.623	51298
460.671	83062
460.703	105829
460.739	82898
460.783	61681
460.808	55272
460.864	26026
460.876	25288
460.944	15861
460.945	15750
461.013	14309
461.024	14512
461.081	16354
461.104	17134
461.150	15572
461.184	14584
461.218	14610
461.264	14066
461.286	14161
461.345	14070
461.355	13944
461.423	14182
461.425	14186
461.491	16297
461.505	16653
461.559	27306
461.585	32377
461.628	52106
461.665	69870
461.696	72295
461.745	79236
461.764	66594
461.825	28676
461.832	29531
461.901	23258
461.905	22931
461.969	16231
461.985	15813
462.037	15200
462.065	14526
462.105	16708
462.145	19160
462.173	25765
462.225	37974
462.241	42144
462.305	59519
462.310	57428
462.378	27718
462.385	24164
462.446	23397
462.465	21582
462.514	18279
462.545	17657
462.582	16748
462.625	16161
462.650	15529
462.705	14242
462.718	14837
462.785	17648
462.786	17769
462.854	24912
462.865	25988
462.922	30374
462.945	32504
462.990	24093
463.025	17744
463.058	17262
463.104	14667
463.126	14447
463.184	14278
463.194	14432
463.262	16292
463.264	16350
463.330	15692
463.344	15602
463.398	17157
463.424	17627
463.466	18039
463.504	18772
463.533	18664
463.583	18356
463.601	19357
463.663	22600
463.669	23498
463.737	33287
463.743	34210
463.805	45038
463.823	48297
463.873	73919
463.903	89218
463.940	88225
463.982	87700
464.008	68583
464.062	29711
464.076	29145
464.142	19704
464.144	19648
464.211	17759
464.221	17851
464.279	19497
464.301	20156
464.347	21533
464.381	22684
464.414	25215
464.461	28616
464.482	29565
464.540	32055
464.550	31704
464.617	29172
464.620	29033
464.685	31556
464.699	32022
464.753	35897
464.779	37902
464.820	39157
464.859	40388
464.888	39862
464.938	38549
464.956	38232
465.018	36610
465.023	36195
465.091	30452
465.098	29813
465.158	31480
465.177	31821
465.226	30599
465.257	29958
465.293	32018
465.336	34297
465.361	38010
465.416	46225
465.428	47960
465.495	56849
465.496	57150
465.563	90293
465.575	95786
465.631	107185
465.654	112163
465.698	70271
465.734	35854
465.765	34513
465.813	30259
465.833	30227
465.893	30553
465.900	30474
465.968	30370
465.972	30309
466.035	30867
466.052	30953
466.102	31822
466.131	32259
466.170	32582
466.210	32801
466.237	33725
466.290	35407
466.304	35749
466.369	36850
466.372	36999
466.439	39470
466.449	39753
466.506	44789
466.528	46598
466.573	60624
466.607	71021
466.641	101951
466.687	144597
466.708	155367
466.766	184196
466.775	171131
466.842	71001
466.845	66119
466.909	55301
466.925	52420
466.977	48839
467.004	47106
467.044	48024
467.083	48861
467.111	52938
467.163	60346
467.178	61618
467.242	66277
467.245	66112
467.312	59851
467.321	58896
467.379	56063
467.400	54861
467.446	57366
467.480	58972
467.559	49854
467.638	46932
467.717	48544
467.796	54665
467.875	62660
467.955	52704
468.034	74270
468.113	150586
468.192	214104
468.271	57011
468.350	48612
468.429	54245
468.508	54842
468.588	46189
468.667	43941
468.746	45869
468.825	42882
468.904	38513
468.983	46347
469.062	70152
469.141	77804
469.220	37234
469.299	37974
469.378	43345
469.456	51838
469.535	45951
469.614	44394
469.693	47878
469.772	57321
469.851	80708
469.930	53896
470.009	47129
470.088	51076
470.166	69153
470.245	112723
470.324	148553
470.403	97274
470.482	63457
470.560	51151
470.639	51820
470.718	61028
470.797	45498
470.875	51591
470.954	70237
471.033	68848
471.111	34097
471.190	33620
471.269	31593
471.347	33749
471.426	36246
471.505	40964
471.583	44188
471.662	40592
471.740	36262
471.819	37322
471.898	35417
471.976	35230
472.055	34803
472.133	39743
472.212	49390
472.290	51910
472.369	34482
472.447	33379
472.526	30483
472.604	34085
472.683	39439
472.761	42912
472.839	38836
472.918	36303
472.996	36511
473.075	40394
473.153	38556
473.231	33197
473.310	42317
473.388	39006
473.466	37410
473.545	46096
473.623	67965
473.701	64094
473.780	36259
473.858	36458
473.936	36602
474.014	35491
474.093	41331
474.171	54575
474.249	78005
474.327	46525
474.405	33196
474.484	33087
474.562	36121
474.640	34474
474.718	37163
474.796	38542
474.874	34121
474.952	32048
475.030	33609
475.108	34742
475.187	42119
475.265	44999
475.343	66223
475.421	71592
475.499	34429
475.577	35499
475.655	44252
475.733	86204
475.811	145387
475.889	134855
475.966	75712
476.044	35530
476.122	47855
476.200	67668
476.278	46540
476.356	32054
476.434	35164
476.512	44361
476.590	64227
476.667	49075
476.745	29719
476.823	35345
476.901	30955
476.979	32376
477.056	29563
477.134	32993
477.212	34250
477.290	32582
477.367	27248
477.445	27117
477.523	28324
477.601	28613
477.678	28876
477.756	35619
477.834	37984
477.911	27818
477.989	28806
478.066	26495
478.144	34676
478.222	43693
478.299	81433
478.377	64523
478.454	27584
478.532	25734
478.609	31278
478.687	33717
478.764	26612
478.842	32376
478.919	39222
478.997	31781
479.074	26023
479.152	33347
479.229	42426
479.307	26267
479.384	22513
479.461	23495
479.539	25907
479.616	34092
479.694	27397
479.771	30957
479.848	32984
479.926	46281
480.003	44154
480.080	27091
480.157	23399
480.235	25569
480.312	25319
480.389	29237
480.467	47810
480.544	59242
480.621	30071
480.698	29289
480.775	34997
480.853	33367
480.930	26219
481.007	28370
481.084	32490
481.161	35611
481.238	30758
481.315	24467
481.392	24522
481.470	25938
481.547	25880
481.624	25348
481.701	23467
481.778	26437
481.855	30736
481.932	43677
482.009	81892
482.086	48494
482.163	30731
482.240	50479
482.317	101906
482.393	65491
482.470	28443
482.547	28306
482.624	27140
482.701	29593
482.778	27419
482.855	23536
482.932	24544
483.009	23209
483.085	29259
483.162	35370
483.239	32665
483.316	27416
483.393	26669
483.469	26065
483.546	29932
483.623	31266
483.699	23529
483.776	25228
483.853	30714
483.930	48453
484.006	113590
484.083	202038
484.160	100096
484.236	162380
484.313	116945
484.389	90952
484.466	77037
484.543	76444
484.619	80155
484.696	81210
484.772	82663
484.849	86424
484.925	70680
485.002	69583
485.078	75673
485.155	77022
485.231	66770
485.308	66685
485.384	69756
485.461	84040
485.537	135340
485.614	151548
485.690	69266
485.766	65588
485.843	74555
485.919	117086
485.995	118499
486.072	61516
486.148	59765
486.224	59129
486.301	63003
486.377	73189
486.453	75031
486.530	69587
486.606	92398
486.682	101274
486.758	117547
486.835	135530
486.911	109527
486.987	187366
487.063	221678
487.139	316692
487.215	206755
487.292	82242
487.368	67924
487.444	78194
487.520	95131
487.596	94526
487.672	135223
487.748	330263
487.824	500089
487.900	165168
487.976	84547
488.052	81604
488.128	96474
488.204	80988
488.280	63083
488.356	79367
488.432	146630
488.508	228188
488.584	82707
488.660	65657
488.736	62178
488.812	70459
488.888	90069
488.964	131716
489.039	310558
489.115	483279
489.191	238933
489.267	66226
489.343	60391
489.418	51130
489.494	50497
489.570	49907
489.646	51286
489.722	50327
489.797	55462
489.873	79653
489.949	170337
490.024	130979
490.100	50134
490.176	53997
490.251	70044
490.327	102137
490.403	51864
490.478	47916
490.554	40550
490.629	43846
490.705	42209
490.781	50656
490.856	46569
490.932	60014
491.007	59736
491.083	56527
491.158	47513
491.234	63806
491.309	126204
491.385	123242
491.460	46993
491.536	48809
491.611	46316
491.686	53387
491.762	82813
491.837	191152
491.913	323975
491.988	437719
492.063	571219
492.139	117342
492.214	67907
492.289	41484
492.365	43233
492.440	51214
492.515	47835
492.590	47815
492.666	37416
492.741	54680
492.816	79101
492.891	43828
492.967	37317
493.042	32951
493.117	34887
493.192	32973
493.267	42080
493.342	62648
493.418	62946
493.493	37388
493.568	31032
493.643	35792
493.718	44953
493.793	76279
493.868	93342
493.943	55917
494.018	38529
494.093	34605
494.168	34191
494.243	33130
494.318	30230
494.393	30569
494.468	31528
494.543	33872
494.618	43535
494.693	35782
494.768	33085
494.842	36686
494.917	30185
494.992	35955
495.067	30613
495.142	29390
495.217	34526
495.292	31864
495.366	37781
495.441	50013
495.516	63844
495.591	118510
495.665	400396
495.740	1033333
495.815	334088
495.890	56999
495.964	43569
496.039	44794
496.114	41312
496.188	45430
496.263	47116
496.338	40386
496.412	46549
496.487	55097
496.561	64325
496.636	67884
496.710	47547
496.785	53055
496.860	61037
496.934	49291
497.009	51043
497.083	51931
497.158	56950
497.232	63487
497.307	76107
497.381	64275
497.455	72752
497.530	89559
497.604	64966
497.679	69914
497.753	105929
497.827	141891
497.902	129420
497.976	153680
498.050	313507
498.125	1079247
498.199	1061815
498.273	227963
498.348	186060
498.422	148408
498.496	137275
498.570	119166
498.645	82052
498.719	75468
498.793	82031
498.867	120658
498.941	168264
499.016	411831
499.090	1178615
499.164	340390
499.238	55491
499.312	52566
499.386	71166
499.460	58533
499.534	49648
499.609	60531
499.683	85668
499.757	85211
499.831	190169
499.905	745966
499.979	656449
500.053	104347
500.127	115432
500.201	101328
500.275	52182
500.349	47495
500.422	58057
500.496	98334
500.570	237416
500.644	429766
500.718	786353
500.792	143168
500.866	43884
500.940	55631
501.013	44002
501.087	47458
501.161	98356
501.235	129361
501.309	236465
501.382	654427
501.456	548324
501.530	124444
501.603	212018
501.677	73610
501.751	36804
501.825	49699
501.898	86779
501.972	259349
502.046	145265
502.119	51204
502.193	118779
502.266	290361
502.340	122781
502.413	115916
502.487	239680
502.561	134318
502.634	46662
502.708	46578
502.781	40967
502.855	29093
502.928	24245
503.002	25411
503.075	24947
503.149	25479
503.222	24157
503.295	27838
503.369	35072
503.442	57139
503.516	183405
503.589	486629
503.662	293898
503.736	88361
503.809	220818
503.882	176252
503.956	258139
504.029	244829
504.102	198617
504.175	253631
504.249	88430
504.322	51666
504.395	44253
504.468	29877
504.542	30383
504.615	24892
504.688	22882
504.761	25074
504.834	33612
504.907	48365
504.980	86951
505.053	37332
505.127	53965
505.200	50113
505.273	45439
505.346	27490
505.419	22995
505.492	21132
505.565	18090
505.638	18535
505.711	19515
505.784	20222
505.857	17425
505.930	18813
506.003	19250
506.076	20275
506.149	27325
506.221	40303
506.294	36167
506.367	101667
506.440	344870
506.513	171445
506.586	41859
506.659	26954
506.731	24772
506.804	33986
506.877	56441
506.950	30333
507.022	21594
507.095	32233
507.168	37994
507.241	26684
507.313	22615
507.386	30934
507.459	45762
507.531	28014
507.604	20956
507.677	20814
507.749	20296
507.822	33571
507.894	71816
507.967	77914
508.040	41297
508.112	34700
508.185	33140
508.257	34024
508.330	53885
508.402	32581
508.475	29955
508.547	31713
508.620	30942
508.692	49958
508.765	31759
508.837	25058
508.909	23964
508.982	26830
509.054	32112
509.127	28863
509.199	23868
509.271	22960
509.344	22014
509.416	22425
509.488	23192
509.560	25384
509.633	31646
509.705	38026
509.777	32892
509.849	51087
509.922	33819
509.994	24287
510.066	23715
510.138	31052
510.210	56025
510.283	53765
510.355	41882
510.427	37918
510.499	41042
510.571	44551
510.643	38284
510.715	63107
510.787	59624
510.859	35650
510.931	45011
511.003	62513
511.076	52302
511.148	31828
511.219	33035
511.291	48614
511.363	55136
511.435	29339
511.507	28137
511.579	26897
511.651	27336
511.723	27895
511.795	26496
511.867	30440
511.939	35740
512.010	71357
512.082	55423
512.154	33657
512.226	33952
512.298	50395
512.369	77059
512.441	58432
512.513	60862
512.585	47815
512.656	42790
512.728	50225
512.800	37550
512.871	34928
512.943	36326
513.015	33914
513.086	35883
513.158	43427
513.230	46451
513.301	71190
513.373	79525
513.444	43954
513.516	33239
513.588	35593
513.659	40145
513.731	55533
513.802	54031
513.874	102690
513.945	195978
514.016	60612
514.088	34201
514.159	43884
514.231	56200
514.302	73301
514.374	48453
514.445	49264
514.516	77157
514.588	63122
514.659	45915
514.730	76397
514.802	66067
514.873	61363
514.944	54078
515.016	49175
515.087	57411
515.158	64110
515.229	81765
515.301	64822
515.372	79100
515.443	53591
515.514	42843
515.585	36813
515.656	36533
515.728	34770
515.799	35370
515.870	37540
515.941	38937
516.012	42968
516.083	51318
516.154	62105
516.225	79151
516.296	71702
516.367	60495
516.438	73768
516.509	112533
516.580	212890
516.651	629310
516.722	2144716
516.793	881342
516.864	133677
516.935	117866
517.006	145428
517.077	259251
517.148	689553
517.219	2193850
517.289	3412372
517.360	705431
517.431	189979
517.502	76815
517.573	68976
517.643	62808
517.714	64978
517.785	63983
517.856	66350
517.926	76420
517.997	92027
518.068	129537
518.138	218799
518.209	468216
518.280	1493277
518.350	4217907
518.421	2002083
518.492	225820
518.562	112756
518.633	98704
518.703	95497
518.774	137636
518.845	276848
518.915	271550
518.986	104979
519.056	90756
519.127	163787
519.197	234937
519.268	399433
519.338	233503
519.408	73402
519.479	97844
519.549	74984
519.620	45199
519.690	36301
519.760	36787
519.831	40536
519.901	39641
519.971	31147
520.042	34241
520.112	43434
520.182	49837
520.253	59389
520.323	40876
520.393	59952
520.463	95183
520.534	65287
520.604	130432
520.674	56271
520.744	60340
520.814	152521
520.885	139460
520.955	125223
521.025	401561
521.095	164659
521.165	33639
521.235	33647
521.305	30319
521.375	28907
521.445	36922
521.515	54898
521.585	60165
521.655	62601
521.725	48190
521.795	44664
521.865	33152
521.935	41739
522.005	40060
522.075	26271
522.145	27274
522.215	34274
522.285	45745
522.355	62889
522.424	114699
522.494	104647
522.564	70644
522.634	144851
522.704	405566
522.774	155448
522.843	35474
522.913	34694
522.983	49155
523.053	37429
523.122	39100
523.192	71781
523.262	226456
523.331	231255
523.401	38713
523.471	26219
523.540	30576
523.610	24305
523.680	21545
523.749	23950
523.819	28428
523.888	31209
523.958	22955
524.027	24604
524.097	27189
524.166	26964
524.236	35007
524.305	28080
524.375	25703
524.444	23542
524.514	24829
524.583	26131
524.653	33556
524.722	37532
524.791	26369
524.861	24361
524.930	25004
524.999	29027
525.069	40641
525.138	30180
525.207	35262
525.277	27458
525.346	27559
525.415	25172
525.484	27207
525.554	33154
525.623	29896
525.692	26251
525.761	26949
525.830	28627
525.900	36251
525.969	55115
526.038	98805
526.107	186698
526.176	506990
526.245	441669
526.314	156018
526.383	276017
526.452	408908
526.522	582710
526.591	660700
526.660	226348
526.729	108233
526.797	129805
526.867	313171
526.935	1101392
527.004	1598231
527.073	878695
527.142	79374
527.211	41228
527.280	44107
527.349	48775
527.418	26660
527.487	25864
527.555	23648
527.624	22489
527.693	20427
527.762	21738
527.831	21800
527.899	20787
527.968	21661
528.037	25248
528.106	32335
528.174	65620
528.243	52071
528.312	68085
528.380	101857
528.449	30349
528.518	19638
528.586	16838
528.655	16680
528.723	16823
528.792	17456
528.861	21501
528.929	18838
528.998	16603
529.066	15599
529.135	16189
529.203	16151
529.272	16432
529.340	17183
529.409	18570
529.477	18495
529.545	24770
529.614	27242
529.682	31421
529.751	35713
529.819	33530
529.887	27343
529.956	18898
530.024	20093
530.092	20689
530.161	26127
530.229	48819
530.297	27372
530.365	17523
530.434	15785
530.502	15713
530.570	15326
530.638	15725
530.707	19354
530.775	20377
530.843	16792
530.911	17025
530.979	15733
531.047	16553
531.115	17790
531.183	16634
531.252	16061
531.320	17712
531.388	17778
531.456	17445
531.524	16727
531.592	17880
531.660	19559
531.728	17520
531.796	16739
531.864	16808
531.932	17672
532.000	18173
532.067	18893
532.135	20440
532.203	25019
532.271	33529
532.339	58663
532.407	167711
532.475	101268
532.542	36785
532.610	46859
532.678	91049
532.746	269706
532.814	721390
532.881	187846
532.949	29512
533.017	23855
533.084	20284
533.152	19430
533.220	20533
533.287	25861
533.355	19741
533.423	17610
533.490	17578
533.558	17937
533.625	21634
533.693	22710
533.761	22616
533.828	23145
533.896	28102
533.963	54651
534.031	70490
534.098	92070
534.166	44613
534.233	20797
534.300	20537
534.368	22091
534.435	20876
534.503	21683
534.570	27298
534.637	25318
534.705	27376
534.772	38995
534.840	74913
534.907	219793
534.974	319443
535.041	46632
535.109	30780
535.176	22408
535.243	20355
535.310	23235
535.378	22822
535.445	17169
535.512	19419
535.579	19374
535.646	20060
535.714	20441
535.781	26157
535.848	24334
535.915	23313
535.982	22050
536.049	21881
536.116	23760
536.183	22857
536.250	23993
536.317	26815
536.384	32955
536.451	51036
536.518	54869
536.585	39345
536.652	44765
536.719	66301
536.786	58725
536.853	41254
536.920	60896
536.987	111530
537.053	124622
537.120	325289
537.187	330380
537.254	34977
537.321	25682
537.388	26596
537.454	22461
537.521	22145
537.588	22243
537.654	26333
537.721	31044
537.788	30161
537.855	25316
537.921	26229
537.988	26718
538.055	26672
538.121	28897
538.188	34766
538.254	54966
538.321	110311
538.388	69507
538.454	29191
538.521	25744
538.587	23553
538.654	23602
538.720	24377
538.787	23509
538.853	25840
538.920	33300
538.986	34159
539.053	28101
539.119	29726
539.185	30841
539.252	34636
539.318	59799
539.385	41913
539.451	37441
539.517	39848
539.583	51234
539.650	99708
539.716	262856
539.782	86478
539.849	30823
539.915	29473
539.981	32447
540.047	39358
540.114	35079
540.180	32875
540.246	37502
540.312	55972
540.378	106523
540.444	121536
540.510	110843
540.576	292354
540.643	108076
540.709	29547
540.775	27947
540.841	29058
540.907	38965
540.973	64207
541.039	60705
541.105	66001
541.171	35764
541.237	30940
541.303	32657
541.369	40525
541.435	55359
541.500	92863
541.566	63854
541.632	29644
541.698	24758
541.764	25423
541.830	24802
541.896	25112
541.961	25703
542.027	28081
542.093	29326
542.159	33246
542.224	39855
542.290	57360
542.356	91398
542.421	111402
542.487	45483
542.553	30194
542.618	32715
542.684	30397
542.750	32538
542.815	46385
542.881	83071
542.947	232210
543.012	205531
543.078	29433
543.143	26265
543.209	30611
543.274	35144
543.340	45994
543.405	90524
543.471	162961
543.536	40180
543.602	26949
543.667	27816
543.732	25514
543.798	23906
543.863	26499
543.928	23539
543.994	23912
544.059	23727
544.124	24760
544.190	25412
544.255	27402
544.320	28682
544.386	33096
544.451	45032
544.516	61002
544.581	67281
544.646	144758
544.712	256993
544.777	54549
544.842	33657
544.907	35097
544.972	30478
545.037	29599
545.102	31325
545.168	33172
545.233	34609
545.298	37391
545.363	47969
545.428	60136
545.493	93676
545.558	205779
545.623	97362
545.688	35511
545.753	32476
545.818	33552
545.883	32744
545.947	34466
546.012	36565
546.077	38356
546.142	38377
546.207	42384
546.272	52037
546.337	58348
546.401	43233
546.466	39206
546.531	37798
546.596	40416
546.661	41938
546.725	39158
546.790	36843
546.855	38425
546.919	40249
546.984	45154
547.049	47864
547.113	54057
547.178	54263
547.243	59222
547.307	67097
547.372	77852
547.436	82623
547.501	71196
547.565	78049
547.630	86819
547.695	84997
547.759	79425
547.823	76737
547.888	67863
547.952	69582
548.017	71889
548.081	81454
548.146	92392
548.210	85963
548.274	78865
548.339	75985
548.403	71073
548.468	67201
548.532	66220
548.596	67649
548.660	69216
548.725	76790
548.789	88337
548.853	86975
548.917	78343
548.982	85063
549.046	83546
549.110	63271
549.174	62994
549.238	68554
549.303	74382
549.367	76873
549.431	73768
549.495	69257
549.559	71186
549.623	77832
549.687	92613
549.751	110727
549.815	104454
549.879	99448
549.943	94445
550.007	99252
550.071	102345
550.135	106056
550.199	93984
550.263	86085
550.327	84693
550.391	96788
550.455	94905
550.519	95554
550.582	102521
550.646	127388
550.710	136299
550.774	109491
550.838	109970
550.901	112659
550.965	118693
551.029	127376
551.093	140654
551.156	163675
551.220	212938
551.284	258221
551.347	176268
551.411	188004
551.475	210735
551.538	123747
551.602	110866
551.666	103524
551.729	98183
551.793	93960
551.856	93730
551.920	90587
551.983	92509
552.047	91561
552.110	92397
552.174	92528
552.237	94492
552.301	88152
552.364	85714
552.428	84488
552.491	87183
552.554	93426
552.618	94740
552.681	105163
552.745	119249
552.808	166638
552.871	239726
552.934	155285
552.998	103452
553.061	93517
553.124	88306
553.187	84132
553.251	86958
553.314	86778
553.377	84803
553.440	90899
553.503	97392
553.567	105569
553.630	91727
553.693	87731
553.756	88946
553.819	86558
553.882	84375
553.945	82368
554.008	82500
554.071	83660
554.134	84375
554.197	80824
554.260	79911
554.323	83390
554.386	84200
554.449	86343
554.512	84957
554.575	81122
554.638	82289
554.701	81234
554.764	78625
554.827	75779
554.889	73872
554.952	69572
555.015	68826
555.078	68515
555.141	70463
555.203	68495
555.266	68850
555.329	70960
555.391	70372
555.454	70929
555.517	69671
555.580	63484
555.642	60521
555.705	61891
555.768	62878
555.830	60752
555.893	57481
555.955	56616
556.018	56138
556.080	57169
556.143	56825
556.206	57106
556.268	58122
556.330	58967
556.393	59259
556.455	57879
556.518	65079
556.580	73143
556.643	53047
556.705	50283
556.767	51315
556.830	52621
556.892	58321
556.955	79816
557.017	69020
557.079	51340
557.142	52404
557.204	60665
557.266	96580
557.328	96258
557.391	46454
557.453	41892
557.515	44963
557.577	51742
557.639	56957
557.701	42068
557.764	39737
557.826	41093
557.888	45888
557.950	49528
558.012	57926
558.074	81436
558.136	128854
558.198	317632
558.260	155080
558.322	49991
558.384	48611
558.446	54805
558.508	65522
558.570	92113
558.632	150422
558.694	265988
558.756	312907
558.818	582254
558.880	1564339
558.942	666146
559.003	318897
559.065	204797
559.127	68349
559.189	75586
559.251	105658
559.312	171259
559.374	302071
559.436	886946
559.498	623760
559.559	86078
559.621	79180
559.683	109639
559.744	180019
559.806	388967
559.868	741821
559.929	184508
559.991	92675
560.052	125864
560.114	298296
560.176	266936
560.237	167591
560.299	321901
560.360	101433
560.422	38114
560.483	35729
560.545	33699
560.606	32651
560.667	30834
560.729	31857
560.790	29342
560.852	29201
560.913	29661
560.974	30036
561.036	29557
561.097	30005
561.158	29397
561.220	31244
561.281	32285
561.342	37230
561.403	46245
561.465	62178
561.526	111469
561.587	181443
561.648	56705
561.709	32631
561.771	28979
561.832	29724
561.893	29682
561.954	28963
562.015	27925
562.076	28636
562.137	28237
562.198	29615
562.259	29272
562.320	31624
562.381	34640
562.442	48974
562.503	44949
562.564	29845
562.625	28642
562.686	28199
562.747	31049
562.808	30177
562.869	28335
562.930	33056
562.991	32065
563.051	30402
563.112	28992
563.173	28421
563.234	26723
563.294	27716
563.355	29037
563.416	31006
563.477	28880
563.537	28744
563.598	30688
563.659	30329
563.720	29963
563.780	31330
563.841	32569
563.901	28967
563.962	27472
564.023	28198
564.083	29094
564.144	29821
564.204	31008
564.265	32763
564.325	35616
564.386	51799
564.446	57646
564.507	30396
564.567	27887
564.628	28268
564.688	27840
564.749	29291
564.809	30504
564.869	37917
564.930	30650
564.990	28543
565.050	28229
565.111	28410
565.171	27124
565.231	27936
565.292	27398
565.352	28315
565.412	29143
565.472	30665
565.532	32866
565.593	31781
565.653	30139
565.713	31729
565.773	34701
565.833	38378
565.893	51876
565.953	35446
566.013	31774
566.074	34498
566.134	40292
566.194	54143
566.254	63779
566.314	46155
566.374	34746
566.434	33390
566.494	33783
566.554	33695
566.614	36320
566.673	36773
566.733	37239
566.793	40353
566.853	40769
566.913	40652
566.973	41460
567.033	43263
567.092	43960
567.152	41779
567.212	42577
567.272	43703
567.331	45340
567.391	46780
567.451	48764
567.511	55763
567.570	60407
567.630	44773
567.690	41301
567.749	41753
567.809	43986
567.868	49113
567.928	56122
567.988	66706
568.047	78456
568.107	99571
568.166	135852
568.226	196261
568.285	283897
568.345	252422
568.404	187584
568.464	153849
568.523	142446
568.582	149195
568.642	174933
568.701	221667
568.761	304903
568.820	469905
568.879	496987
568.939	353031
568.998	248240
569.057	179990
569.116	142305
569.176	113796
569.235	94739
569.294	80610
569.353	71221
569.413	64257
569.472	58608
569.531	52971
569.590	49936
569.649	47418
569.708	44135
569.767	43648
569.827	48048
569.886	44769
569.945	36780
570.004	37429
570.063	37038
570.122	37098
570.181	40068
570.240	38712
570.299	38301
570.358	40555
570.417	34236
570.475	31580
570.534	32061
570.593	35081
570.652	33589
570.711	36534
570.770	32776
570.829	35902
570.887	35987
570.946	39212
571.005	31850
571.064	31630
571.122	35434
571.181	37480
571.240	31602
571.299	27555
571.357	28289
571.416	30888
571.475	30981
571.533	34766
571.592	28119
571.650	29915
571.709	27698
571.768	27471
571.826	27636
571.885	25139
571.943	25075
572.002	24933
572.060	25959
572.119	24577
572.177	22867
572.236	23484
572.294	23212
572.352	24167
572.411	23016
572.469	24192
572.528	23612
572.586	25135
572.644	25767
572.703	34452
572.761	28430
572.819	24265
572.877	22329
572.936	22130
572.994	21036
573.052	22126
573.110	23555
573.169	25033
573.227	21308
573.285	22307
573.343	21384
573.401	21976
573.459	21760
573.517	21977
573.576	21935
573.634	23014
573.692	22958
573.750	23812
573.808	22305
573.866	23529
573.924	26365
573.982	28080
574.040	22771
574.098	22506
574.155	21891
574.213	20446
574.271	20765
574.329	22457
574.387	20637
574.445	20221
574.503	19280
574.560	19400
574.618	19983
574.676	19414
574.734	19225
574.792	20821
574.849	19873
574.907	18638
574.965	19419
575.022	18321
575.080	18987
575.138	20505
575.195	21791
575.253	21557
575.311	23660
575.368	21175
575.426	18929
575.483	19369
575.541	18329
575.598	18124
575.656	19483
575.713	20796
575.771	19833
575.828	20085
575.886	18242
575.943	20342
576.001	20411
576.058	21964
576.115	22497
576.173	25349
576.230	28946
576.287	32428
576.345	30049
576.402	22622
576.459	21558
576.517	22162
576.574	23357
576.631	24304
576.688	21276
576.746	21053
576.803	19836
576.860	20311
576.917	19072
576.974	20987
577.031	20237
577.089	20422
577.146	20500
577.203	21411
577.260	22498
577.317	22642
577.374	24579
577.431	24434
577.488	22078
577.545	21349
577.602	19620
577.659	18742
577.716	18564
577.773	19647
577.830	18183
577.886	19970
577.943	19296
578.000	19538
578.057	21636
578.114	21469
578.171	20313
578.227	22037
578.284	20830
578.341	20596
578.398	20935
578.454	22212
578.511	23758
578.568	26258
578.625	23886
578.681	20698
578.738	19364
578.794	19844
578.851	20354
578.908	20706
578.964	21947
579.021	23051
579.077	22639
579.134	21734
579.190	20433
579.247	19497
579.303	19234
579.360	20465
579.416	19985
579.473	19857
579.529	19691
579.586	20293
579.642	20486
579.698	20420
579.755	21556
579.811	21439
579.867	20102
579.924	19222
579.980	19500
580.036	21136
580.093	20104
580.149	20974
580.205	21283
580.261	21293
580.317	21481
580.374	23071
580.430	25288
580.486	25382
580.542	22866
580.598	22980
580.619	23038
580.654	23164
580.692	23354
580.710	23487
580.765	22804
580.767	22805
580.823	22652
580.838	22542
580.879	22311
580.911	22137
580.935	22052
580.984	21126
580.991	21017
581.047	21975
581.057	21807
581.103	21172
581.130	21102
581.159	21051
581.203	22388
581.215	22772
581.270	22437
581.276	22389
581.326	22016
581.349	21736
581.382	21382
581.422	21787
581.438	21978
581.494	22958
581.494	22952
581.550	23790
581.567	23753
581.606	23773
581.640	23703
581.661	23626
581.713	22510
581.717	22437
581.773	22363
581.786	22476
581.829	22878
581.859	22607
581.885	22415
581.932	23202
581.940	23358
581.996	22691
582.004	22723
582.052	22890
582.077	22577
582.107	22257
582.150	22524
582.163	22604
582.219	23415
582.223	23433
582.274	23804
582.296	23751
582.330	23751
582.368	24989
582.386	25492
582.441	23454
582.441	23455
582.497	22798
582.514	22973
582.552	23544
582.587	23332
582.608	23145
582.659	22630
582.663	22610
582.719	23656
582.732	23542
582.774	23084
582.805	23722
582.830	24259
582.877	24875
582.885	24969
582.941	24206
582.950	24271
582.996	24690
583.023	24548
583.052	24434
583.095	24700
583.107	24729
583.162	24923
583.168	24983
583.218	25798
583.240	25830
583.273	25738
583.313	25128
583.328	24863
583.384	25306
583.385	25298
583.439	25336
583.458	25391
583.494	25479
583.531	25452
583.549	25280
583.603	25205
583.605	25218
583.660	25781
583.676	25875
583.715	26025
583.748	26372
583.770	26608
583.820	26456
583.825	26444
583.881	26222
583.893	26474
583.936	27146
583.965	26794
583.991	26544
584.038	26353
584.046	26355
584.101	27269
584.110	27256
584.156	27182
584.183	27497
584.211	27618
584.255	27720
584.266	27809
584.321	27851
584.328	27910
584.376	28240
584.400	28062
584.431	27972
584.472	28586
584.486	28738
584.541	29551
584.545	29529
584.596	29231
584.617	29468
584.651	29867
584.689	30641
584.706	31113
584.761	31431
584.762	31434
584.816	31527
584.834	31695
584.871	31911
584.906	31869
584.926	31980
584.978	33108
584.980	33151
585.035	33808
585.051	34180
585.090	35351
585.123	35819
585.145	36232
585.195	38230
585.200	38411
585.254	40236
585.267	40698
585.309	42514
585.340	45438
585.364	47879
585.412	54350
585.419	55307
585.473	65609
585.484	68798
585.528	82344
585.556	93822
585.583	107184
585.628	130315
585.637	140162
585.692	235781
585.700	264691
585.747	476265
585.772	477678
585.801	391531
585.845	237308
585.856	192084
585.910	80853
585.917	69205
585.965	58566
585.989	53864
586.019	51904
586.061	50836
586.074	50710
586.128	50428
586.133	50472
586.183	51668
586.205	52218
586.237	53258
586.277	53183
586.292	53013
586.346	53709
586.349	53738
586.401	54233
586.421	54777
586.455	55774
586.493	56955
586.509	58341
586.564	63581
586.565	63873
586.618	82835
586.637	87175
586.672	94070
586.709	90182
586.727	81298
586.781	67760
586.781	67774
586.835	65185
586.853	64836
586.889	64033
586.925	63064
586.944	63135
586.996	64702
586.998	64776
587.052	66542
587.068	67131
587.106	68605
587.140	69987
587.161	70918
587.212	73490
587.215	73640
587.269	76000
587.284	76740
587.323	79364
587.356	81296
587.377	82283
587.427	85817
587.431	86160
587.485	89493
587.499	90692
587.539	93946
587.571	96121
587.593	98249
587.643	103748
587.648	104300
587.702	109997
587.715	111426
587.755	116778
587.786	121317
587.810	125136
587.858	132752
587.864	133634
587.917	142734
587.930	145126
587.971	156693
588.001	164692
588.025	171160
588.073	184799
588.079	186731
588.133	205457
588.145	209936
588.187	230049
588.217	244681
588.241	259120
588.288	291266
588.295	296239
588.348	339313
588.360	349767
588.402	396708
588.431	432085
588.456	464110
588.503	533672
588.510	545892
588.564	659358
588.575	686102
588.617	805898
588.646	898946
588.671	1000736
588.718	1211248
588.725	1254862
588.778	1623172
588.789	1705585
588.832	2187112
588.861	2523355
588.886	2844105
588.932	3332996
588.939	3346096
588.993	3187954
589.004	3217327
589.047	3290184
589.075	3301377
589.100	3243052
589.147	2918749
589.154	2822499
589.207	2075218
589.218	1933445
589.261	1651892
589.290	1484279
589.314	1454126
589.361	1428260
589.368	1449741
589.421	1664999
589.433	1720882
589.475	2172554
589.504	2488604
589.528	2785334
589.576	3195068
589.582	3183804
589.635	3116831
589.647	3090368
589.689	2832862
589.718	2562638
589.742	2151731
589.790	1366556
589.795	1319997
589.849	912114
589.861	821929
589.902	683274
589.932	585586
589.955	538950
590.004	443109
590.009	435969
590.062	360047
590.075	341876
590.115	307531
590.146	281956
590.168	269910
590.218	243542
590.222	241883
590.275	218877
590.289	212945
590.328	201871
590.360	192711
590.381	186086
590.431	170326
590.435	169814
590.488	159618
590.503	156902
590.541	150624
590.574	144909
590.594	142366
590.645	135188
590.647	134952
590.700	126158
590.716	123586
590.753	120352
590.787	116937
590.806	115758
590.859	112767
590.859	112788
590.912	107961
590.930	106407
590.965	104469
591.001	102390
591.018	101788
591.071	99666
591.072	99551
591.124	96871
591.143	95751
591.177	94394
591.214	92640
591.230	92045
591.283	90006
591.285	89840
591.336	90718
591.356	91022
591.389	91128
591.427	90693
591.442	89874
591.495	86539
591.498	86193
591.547	82316
591.569	80462
591.600	79911
591.640	78957
591.653	78723
591.706	77412
591.711	77189
591.759	76366
591.782	75822
591.811	77572
591.853	80129
591.864	80353
591.917	80525
591.924	80446
591.969	76317
591.995	73868
592.022	74270
592.066	74701
592.075	74666
592.127	73883
592.137	73648
592.180	78853
592.208	82163
592.233	82170
592.279	81417
592.285	80653
592.338	73220
592.350	71431
592.390	69920
592.421	68612
592.443	68397
592.491	67598
592.495	67700
592.548	67848
592.562	67783
592.600	68171
592.633	68352
592.653	68041
592.704	66592
592.705	66975
592.775	67071
592.846	67364
592.916	67456
592.987	71053
593.058	71002
593.128	66869
593.199	64938
593.270	62955
593.341	62412
593.411	62680
593.482	66416
593.553	64619
593.623	63045
593.694	62693
593.764	65269
593.835	66730
593.906	63097
593.976	62833
594.047	62921
594.117	65385
594.188	73702
594.258	69719
594.329	62551
594.399	62213
594.470	63451
594.540	63419
594.611	63698
594.681	63752
594.751	63553
594.822	66008
594.892	69663
594.963	70951
595.033	69357
595.103	68586
595.174	70737
595.244	78352
595.314	97742
595.384	94990
595.455	71394
595.525	71535
595.595	74525
595.665	74669
595.736	74417
595.806	73375
595.876	73526
595.946	73504
596.016	74280
596.087	75513
596.157	77345
596.227	76746
596.297	77236
596.367	80551
596.437	84889
596.507	89961
596.577	106171
596.647	106136
596.717	87622
596.787	88152
596.857	89168
596.927	88954
596.997	87976
597.067	90374
597.137	89953
597.207	91488
597.277	92198
597.347	92957
597.417	87793
597.487	87040
597.557	89509
597.626	91728
597.696	92373
597.766	96705
597.836	106073
597.906	107613
597.975	85553
598.045	81570
598.115	83856
598.185	85636
598.254	92425
598.324	98434
598.394	106106
598.464	108051
598.533	104244
598.603	99217
598.672	94213
598.742	93923
598.812	94276
598.881	94615
598.951	96241
599.020	92895
599.090	95242
599.159	97814
599.229	96721
599.299	93811
599.368	93149
599.437	95641
599.507	93392
599.576	87874
599.646	89163
599.715	86296
599.785	85497
599.854	84303
599.924	86556
599.993	88539
600.062	83670
600.132	84090
600.201	84602
600.270	93714
600.340	104239
600.409	102213
600.478	99306
600.547	100334
600.617	101897
600.686	91580
600.755	79794
600.824	77700
600.894	77209
600.963	72833
601.032	71571
601.101	69278
601.170	67856
601.239	66875
601.308	68389
601.378	71155
601.447	67478
601.516	66569
601.585	66343
601.654	70349
601.723	73181
601.792	67421
601.861	69715
601.930	71970
601.999	77324
602.068	78550
602.137	74810
602.206	81951
602.275	76742
602.343	78642
602.412	88319
602.481	81914
602.550	74613
602.619	75012
602.688	78371
602.756	78333
602.825	76853
602.894	76876
602.963	78743
603.032	78751
603.100	79590
603.169	79216
603.238	80146
603.307	81517
603.375	80554
603.444	78302
603.513	83581
603.581	82508
603.650	84796
603.719	82670
603.787	83218
603.856	84009
603.924	85662
603.993	90797
604.061	90755
604.130	92486
604.198	96679
604.267	97359
604.335	98961
604.404	98578
604.472	101220
604.541	100721
604.609	101610
604.678	102212
604.746	101969
604.815	103302
604.883	106400
604.951	107235
605.020	107004
605.088	109421
605.156	110396
605.225	111548
605.293	112584
605.361	112644
605.429	113494
605.498	115178
605.566	118060
605.634	123437
605.702	124792
605.771	129625
605.839	130675
605.907	130764
605.975	127361
606.043	123325
606.111	121394
606.180	122057
606.248	122010
606.316	120205
606.384	120300
606.452	123103
606.520	130822
606.588	141462
606.656	127559
606.724	124609
606.792	120201
606.860	113785
606.928	103230
606.996	96231
607.064	93956
607.132	92588
607.200	95694
607.267	101618
607.335	102624
607.403	105983
607.471	107054
607.539	102975
607.607	101070
607.674	97607
607.742	92379
607.810	93050
607.878	95759
607.946	91078
608.013	93149
608.081	99043
608.149	100980
608.216	99870
608.284	103135
608.352	103571
608.419	105373
608.487	106407
608.555	114393
608.622	102453
608.690	103133
608.757	109567
608.825	119286
608.893	119944
608.960	120306
609.028	122768
609.095	120203
609.163	120636
609.230	106064
609.298	97705
609.365	92230
609.432	97190
609.500	103103
609.567	110857
609.635	127262
609.702	143680
609.769	146080
609.837	139168
609.904	112579
609.971	105559
610.039	112834
610.106	134495
610.173	202624
610.241	422869
610.308	905735
610.375	601058
610.442	281431
610.509	132763
610.577	111285
610.644	106023
610.711	106234
610.778	107801
610.845	109350
610.912	113455
610.980	119024
611.047	121964
611.114	121684
611.181	119290
611.248	114731
611.315	114865
611.382	121229
611.449	123956
611.516	126446
611.583	128841
611.650	126651
611.717	129420
611.784	133252
611.851	136603
611.918	146808
611.984	166701
612.051	206033
612.118	326155
612.185	726633
612.252	1670883
612.319	623535
612.386	199212
612.452	169263
612.519	155571
612.586	151265
612.653	159219
612.719	148877
612.786	149340
612.853	140255
612.919	131102
612.986	129975
613.053	128663
613.120	122763
613.186	115053
613.253	115739
613.319	114221
613.386	115960
613.453	117522
613.519	120062
613.586	125956
613.652	139402
613.719	150615
613.785	140826
613.852	127950
613.918	119518
613.985	118151
614.051	121679
614.118	125033
614.184	128374
614.250	119924
614.317	118742
614.383	117194
614.449	120325
614.516	118625
614.582	120231
614.648	121001
614.715	118596
614.781	117949
614.847	115207
614.914	117718
614.980	117195
615.046	114935
615.112	114060
615.179	117584
615.245	120062
615.311	126705
615.377	141103
615.443	185790
615.509	170565
615.575	135304
615.642	131205
615.708	129212
615.774	136809
615.840	145959
615.906	163261
615.972	196460
616.038	283345
616.104	523247
616.170	945969
616.236	2162029
616.302	1159024
616.368	287653
616.434	222432
616.500	165853
616.565	156696
616.631	181318
616.697	210121
616.763	168900
616.829	187251
616.895	302943
616.961	505552
617.026	396268
617.092	168403
617.158	133406
617.224	125431
617.289	121899
617.355	115719
617.421	110540
617.487	110064
617.552	108341
617.618	103487
617.684	102997
617.749	103273
617.815	102593
617.880	96733
617.946	96338
618.012	97657
618.077	101359
618.143	100398
618.208	97657
618.274	98847
618.339	107401
618.405	103068
618.470	89930
618.536	90442
618.601	93223
618.667	93389
618.732	86431
618.798	85139
618.863	82246
618.928	80229
618.994	81525
619.059	84415
619.124	92786
619.190	107822
619.255	87411
619.320	81456
619.386	81660
619.451	81554
619.516	80299
619.581	78546
619.647	80249
619.712	81746
619.777	80560
619.842	77405
619.907	80928
619.972	81725
620.038	82390
620.103	80849
620.168	79534
620.233	79364
620.298	77978
620.363	79612
620.428	79327
620.493	81707
620.558	82266
620.623	83251
620.688	84473
620.753	83446
620.818	83263
620.883	84679
620.948	84960
621.013	84298
621.078	84392
621.143	83031
621.207	86037
621.272	86026
621.337	88839
621.402	87705
621.467	89050
621.532	99403
621.596	94512
621.661	90292
621.726	83284
621.791	81612
621.855	84046
621.920	87285
621.985	87615
622.049	90254
622.114	92589
622.179	92172
622.243	86413
622.308	90590
622.373	91949
622.437	93571
622.502	92236
622.566	86865
622.631	86186
622.695	87820
622.760	88231
622.824	88308
622.889	88911
622.953	91090
623.018	97244
623.082	125826
623.147	110226
623.211	92800
623.276	90675
623.340	91197
623.404	84292
623.469	82956
623.533	83099
623.597	83613
623.662	83350
623.726	81995
623.790	78676
623.854	74534
623.919	74707
623.983	75092
624.047	76220
624.111	77774
624.176	76725
624.240	77246
624.304	85598
624.368	85857
624.432	77863
624.496	77059
624.560	81523
624.625	87604
624.689	90522
624.753	81215
624.817	82273
624.881	79175
624.945	77883
625.009	70905
625.073	71735
625.137	73974
625.201	81734
625.265	94084
625.329	85143
625.393	76280
625.456	78693
625.520	77573
625.584	79602
625.648	86562
625.712	93309
625.776	121012
625.839	200850
625.903	194787
625.967	89283
626.031	76183
626.095	103856
626.158	130480
626.222	74734
626.286	59977
626.349	55681
626.413	55098
626.477	54495
626.540	56513
626.604	53128
626.668	53131
626.731	50492
626.795	49920
626.858	53616
626.922	52848
626.986	51333
627.049	50617
627.113	50085
627.176	51602
627.240	48645
627.303	47752
627.366	50362
627.430	49299
627.493	50020
627.557	49385
627.620	49276
627.684	49027
627.747	50508
627.810	50266
627.874	48203
627.937	44546
628.000	42217
628.064	45848
628.127	44370
628.190	40614
628.253	40964
628.317	40578
628.380	38922
628.443	36645
628.506	38698
628.569	38863
628.632	35517
628.696	35619
628.759	34315
628.822	33818
628.885	32525
628.948	32351
629.011	32906
629.074	33259
629.137	32924
629.200	32748
629.263	32813
629.326	34198
629.389	31132
629.452	31753
629.515	31409
629.578	32567
629.641	31707
629.704	33394
629.767	32353
629.830	32225
629.892	29081
629.955	30599
630.018	30477
630.081	32161
630.144	36563
630.207	40809
630.269	33771
630.332	32288
630.395	33235
630.458	30408
630.520	27922
630.583	28784
630.646	27771
630.708	26790
630.771	27455
630.834	26816
630.896	27122
630.959	28565
631.021	27579
631.084	28059
631.146	27591
631.209	30070
631.272	31440
631.334	27534
631.397	26977
631.459	28620
631.522	28507
631.584	30836
631.646	30145
631.709	31135
631.771	35675
631.834	42161
631.896	32761
631.958	29539
632.021	27856
632.083	27346
632.145	27448
632.208	27451
632.270	27455
632.332	27062
632.395	26120
632.457	25145
632.519	25891
632.581	25501
632.643	24100
632.706	25987
632.768	24684
632.830	24862
632.892	25252
632.954	25209
633.016	26734
633.078	25908
633.141	25076
633.203	24392
633.265	25419
633.327	24852
633.389	23762
633.451	26157
633.513	28720
633.575	34607
633.637	31454
633.698	32886
633.760	29618
633.822	26854
633.884	26628
633.946	27235
634.008	27818
634.070	27874
634.132	27848
634.193	30104
634.255	31796
634.317	33819
634.379	34687
634.441	34220
634.502	31852
634.564	29402
634.626	26698
634.687	26542
634.749	25795
634.811	24026
634.873	22547
634.934	22679
634.996	22912
635.057	24026
635.119	23326
635.181	23500
635.242	24217
635.304	23311
635.365	23885
635.427	23944
635.488	24816
635.550	25230
635.611	24231
635.673	24013
635.734	25262
635.796	26502
635.857	27612
635.918	29977
635.980	30183
636.041	32784
636.102	34084
636.164	36042
636.225	35248
636.286	33678
636.348	31881
636.409	28137
636.470	25376
636.531	24434
636.593	24784
636.654	26027
636.715	23910
636.776	21515
636.838	21044
636.899	21205
636.960	21056
637.021	20733
637.082	20203
637.143	21707
637.204	20444
637.265	18899
637.326	19528
637.387	19762
637.448	19760
637.509	20077
637.570	20223
637.631	19674
637.692	19278
637.753	19165
637.814	18619
637.875	18955
637.936	19248
637.997	18165
638.058	19049
638.119	20117
638.179	19238
638.240	19251
638.301	18566
638.362	18953
638.423	18325
638.483	19023
638.544	16858
638.605	17738
638.666	17720
638.726	17716
638.787	17812
638.848	17517
638.908	17382
638.969	16674
639.030	17174
639.090	17200
639.151	17856
639.211	18249
639.272	19706
639.332	24674
639.393	37633
639.453	22271
639.514	18808
639.574	18944
639.635	16916
639.695	16761
639.756	16453
639.816	18011
639.877	18806
639.937	23239
639.997	35088
640.058	42010
640.118	19063
640.178	16479
640.239	16069
640.299	15514
640.359	15964
640.420	16282
640.480	16859
640.540	17463
640.600	20659
640.661	20188
640.721	18257
640.781	20457
640.841	22595
640.901	18275
640.961	17052
641.021	17555
641.082	18706
641.142	22777
641.202	29490
641.262	18790
641.322	16612
641.382	15788
641.442	15475
641.502	15935
641.562	15328
641.622	15273
641.682	15358
641.742	16819
641.802	19256
641.861	17985
641.921	16600
641.981	17667
642.041	19179
642.101	19590
642.161	23298
642.221	16516
642.280	14594
642.340	14318
642.400	13892
642.460	14795
642.519	14180
642.579	15338
642.639	15488
642.698	15096
642.758	15328
642.818	15025
642.877	15001
642.937	15588
642.997	16374
643.056	18783
643.116	25952
643.175	18459
643.235	15738
643.294	15869
643.354	16225
643.414	17826
643.473	20256
643.532	23495
643.592	30489
643.651	42370
643.711	68251
643.770	119691
643.830	236115
643.889	565404
643.948	1120628
644.008	219570
644.067	45419
644.126	30107
644.186	24460
644.245	21144
644.304	17530
644.363	17260
644.423	16465
644.482	16109
644.541	15426
644.600	16357
644.659	18279
644.719	20632
644.778	26264
644.837	37458
644.896	61296
644.955	121590
645.014	265315
645.073	77576
645.132	22778
645.191	19097
645.250	17642
645.309	16699
645.368	16646
645.427	17715
645.486	22615
645.545	35333
645.604	51642
645.663	19798
645.722	16074
645.781	16089
645.840	18317
645.898	21010
645.957	26017
646.016	37894
646.075	61674
646.134	110047
646.192	204847
646.251	562838
646.310	754622
646.369	97350
646.427	32449
646.486	26154
646.545	20425
646.603	17403
646.662	14920
646.721	14925
646.779	14139
646.838	14401
646.896	15676
646.955	18767
647.014	23480
647.072	36525
647.131	63408
647.189	171966
647.248	74103
647.306	17727
647.365	13041
647.423	12412
647.481	12280
647.540	10962
647.598	12358
647.657	10753
647.715	11532
647.773	11024
647.832	11910
647.890	11404
647.948	10671
648.007	11252
648.065	10341
648.123	10907
648.181	11192
648.240	10530
648.298	9594
648.356	10585
648.414	11294
648.472	12086
648.531	11313
648.589	10315
648.647	10328
648.705	10973
648.763	10326
648.821	11961
648.879	11743
648.937	11739
648.995	13505
649.053	16516
649.111	20896
649.169	29422
649.227	48578
649.285	82974
649.343	165648
649.401	483736
649.459	215201
649.516	57371
649.574	32946
649.632	18303
649.690	18567
649.748	18602
649.806	19565
649.863	27459
649.921	43325
649.979	117202
650.037	73722
650.094	14731
650.152	10987
650.210	10683
650.268	11169
650.325	9867
650.383	10310
650.440	9407
650.498	8241
650.556	9114
650.613	8385
650.671	8544
650.728	9000
650.786	9615
650.843	9425
650.901	10858
650.958	10123
651.016	8038
651.073	7871
651.131	8186
651.188	6596
651.246	8479
651.303	8668
651.360	8520
651.418	7720
651.475	8321
651.532	7689
651.590	7988
651.647	7188
651.704	7738
651.762	8023
651.819	7554
651.876	7879
651.933	7419
651.990	6533
652.048	7106
652.105	7682
652.162	7800
652.219	7659
652.276	7297
652.333	6888
652.390	7339
652.448	8107
652.505	6890
652.562	7717
652.619	8068
652.676	7238
652.733	8021
652.790	7300
652.847	6830
652.904	6628
652.961	6459
653.017	6316
653.074	6972
653.131	7198
653.188	7228
653.245	6808
653.302	6931
653.359	6666
653.415	7557
653.472	6536
653.529	7019
653.586	7029
653.642	6506
653.699	6489
653.756	6518
653.813	6363
653.869	6189
653.926	6549
653.983	6168
654.039	7051
654.096	6510
654.152	6686
654.209	6917
654.266	6853
654.322	7142
654.379	7134
654.435	7738
654.492	7635
654.548	9651
654.605	12779
654.661	19859
654.717	9498
654.774	7431
654.830	7623
654.887	7850
654.943	6853
655.000	7987
655.056	7370
655.112	7248
655.168	7212
655.225	7473
655.281	6585
655.337	8445
655.394	11185
655.450	16316
655.506	11780
655.562	10704
655.618	15654
655.675	11607
655.731	7428
655.787	7205
655.843	7364
655.899	7092
655.955	7882
656.011	7832
656.067	7617
656.123	8474
656.179	8765
656.235	10496
656.291	9711
656.347	9971
656.403	9428
656.459	9365
656.515	8614
656.571	8833
656.627	9425
656.683	8741
656.739	8468
656.795	8013
656.850	7197
656.906	8565
656.962	9591
657.018	7797
657.074	6962
657.129	7494
657.185	9012
657.241	10390
657.297	17150
657.352	13114
657.408	6816
657.464	7061
657.519	7242
657.575	6974
657.630	6185
657.686	6092
657.742	6484
657.797	6837
657.853	5811
657.908	5749
657.964	6206
658.019	6496
658.075	6823
658.130	7217
658.186	6229
658.241	6154
658.297	6224
658.352	6081
658.407	6366
658.463	6008
658.518	6233
658.573	6516
658.629	6325
658.684	6151
658.739	6139
658.795	6174
658.850	6195
658.905	5388
658.960	6379
659.016	6016
659.071	6268
659.126	6971
659.181	6868
659.236	8159
659.291	11885
659.346	12709
659.401	8004
659.457	7651
659.512	6802
659.567	6494
659.622	6129
659.677	6058
659.732	5847
659.787	6138
659.842	7194
659.897	7816
659.952	8574
660.007	6685
660.061	5953
660.116	5917
660.171	5932
660.226	5775
660.281	6199
660.336	5298
660.391	5867
660.445	5559
660.500	5421
660.555	5263
660.610	5588
660.664	6702
660.719	6280
660.774	6362
660.828	5845
660.883	6576
660.938	6492
660.992	6345
661.047	6695
661.101	6359
661.156	6031
661.211	6137
661.265	5364
661.320	5875
661.374	5428
661.429	5928
661.483	5707
661.538	5510
661.592	5393
661.647	6130
661.701	5628
661.755	6116
661.810	6222
661.864	6077
661.919	5258
661.973	5678
662.027	5846
662.081	5170
662.136	5315
662.190	5724
662.244	6350
662.299	6583
662.353	6373
662.407	5736
662.461	5208
662.515	5926
662.569	5988
662.624	7182
662.678	5733
662.732	6294
662.786	5932
662.840	5981
662.894	6571
662.948	6467
663.002	5609
663.056	6141
663.110	5863
663.164	6176
663.218	6036
663.272	5844
663.326	6462
663.380	6808
663.434	6901
663.488	6466
663.542	5950
663.595	6236
663.649	5966
663.703	6665
663.757	6375
663.811	5978
663.864	5654
663.918	6946
663.972	6295
664.026	6064
664.079	6236
664.133	5541
664.187	6009
664.240	5538
664.294	5619
664.348	6183
664.401	5316
664.455	6133
664.508	5217
664.562	6050
664.615	5750
664.669	5728
664.722	5853
664.776	6419
664.829	5979
664.883	6257
664.936	5902
664.990	6060
665.043	6412
665.097	5857
665.150	7088
665.203	6474
665.257	6649
665.310	6240
665.363	6578
665.417	6444
665.470	6455
665.523	6682
665.576	6539
665.630	6976
665.683	6127
665.736	6580
665.789	7014
665.842	5475
665.895	6756
665.949	6721
666.002	6540
666.055	6446
666.108	6208
666.161	6967
666.214	6308
666.267	6565
666.320	6837
666.373	8168
666.426	6989
666.479	6584
666.532	6151
666.585	7153
666.638	8688
666.691	9064
666.744	8748
666.796	7755
666.849	8542
666.902	7919
666.955	7081
667.008	6402
667.060	6751
667.113	6223
667.166	6160
667.219	5966
667.271	6712
667.324	6175
667.377	6051
667.430	6113
667.482	5665
667.535	6224
667.587	6373
667.640	7751
667.693	6984
667.745	9144
667.798	14155
667.850	15495
667.903	7720
667.955	7185
668.008	6441
668.060	6209
668.113	6647
668.165	7398
668.218	7625
668.270	7576
668.322	6187
668.375	6823
668.427	6772
668.479	6289
668.532	6568
668.584	7101
668.636	6753
668.689	6087
668.741	6443
668.793	7034
668.845	6695
668.898	7227
668.950	6901
669.002	6807
669.054	7283
669.106	6588
669.158	8289
669.211	6769
669.263	6451
669.315	6955
669.367	7843
669.419	7041
669.471	8788
669.523	8556
669.575	9515
669.627	11206
669.679	10690
669.731	8829
669.783	8477
669.835	7861
669.886	10033
669.938	9547
669.990	8917
670.042	8826
670.094	8974
670.146	10568
670.197	11263
670.249	13721
670.301	16089
670.353	20376
670.404	28208
670.456	39638
670.508	58335
670.560	87294
670.611	134290
670.663	214505
670.715	354593
670.766	729820
670.818	1299425
670.869	681778
670.921	140756
670.972	57409
671.024	37591
671.075	27220
671.127	21499
671.178	17423
671.230	15674
671.281	13873
671.333	12334
671.384	11795
671.436	12460
671.487	12501
671.538	14162
671.590	15049
671.641	19214
671.692	26220
671.744	39237
671.795	78222
671.846	63310
671.897	22946
671.949	12731
672.000	11343
672.051	9821
672.102	9482
672.153	8130
672.204	8212
672.256	7525
672.307	7428
672.358	7813
672.409	8438
672.460	7324
672.511	7667
672.562	6334
672.613	6733
672.664	7230
672.715	7193
672.766	6766
672.817	6620
672.868	6501
672.919	6640
672.970	6407
673.021	5989
673.071	5672
673.122	6295
673.173	6044
673.224	6813
673.275	6410
673.326	6325
673.376	6414
673.427	5346
673.478	5936
673.528	5635
673.579	5695
673.630	5954
673.680	5857
673.731	5847
673.782	5640
673.832	5727
673.883	5734
673.934	6520
673.984	5559
674.035	5622
674.085	6076
674.136	7148
674.186	5861
674.237	7378
674.287	7312
674.338	11205
674.388	8392
674.438	5073
674.489	6624
674.539	6760
674.589	6418
674.640	5949
674.690	6536
674.740	6248
674.791	5885
674.841	6726
674.891	7251
674.942	6192
674.992	5728
675.042	5960
675.092	5287
675.142	5010
675.193	5419
675.243	6363
675.293	5488
675.343	6258
675.393	6043
675.443	5326
675.493	5599
675.543	4881
675.593	5254
675.643	6452
675.693	5858
675.743	5211
675.793	5057
675.843	5512
675.893	5413
675.943	5868
675.993	5280
676.043	5341
676.093	5173
676.142	5209
676.192	4674
676.242	4968
676.292	4752
676.341	5676
676.391	4993
676.441	5605
676.491	4897
676.540	5644
676.590	5164
676.640	4412
676.689	4975
676.739	4687
676.789	5356
676.838	4329
676.888	4692
676.937	5432
676.987	4645
677.037	4821
677.086	4209
677.136	4916
677.185	4496
677.235	5191
677.284	4760
677.333	4407
677.383	4496
677.432	3534
677.482	4422
677.531	4649
677.580	4526
677.630	4357
677.679	4750
677.728	4067
677.778	4546
677.827	4955
677.876	3881
677.925	3774
677.975	3992
678.024	4716
678.073	4453
678.122	4453
678.171	3910
678.220	5195
678.269	4640
678.319	5188
678.368	5907
678.417	4999
678.466	6248
678.515	5136
678.564	4800
678.613	5737
678.662	4983
678.711	4143
678.760	5164
678.809	5353
678.857	5136
678.906	4067
678.955	5005
679.004	4878
679.053	5432
679.102	4627
679.151	5318
679.199	5051
679.248	4865
679.297	4046
679.346	3954
679.394	4826
679.443	3649
679.492	3929
679.540	4543
679.589	3973
679.638	4700
679.686	4051
679.735	4086
679.784	4071
679.832	4520
679.881	5914
679.929	4474
679.978	3917
680.026	3869
680.075	4108
680.123	4364
680.172	4402
680.220	3417
680.268	4117
680.317	4171
680.365	3852
680.414	4310
680.462	4215
680.510	3402
680.559	4223
680.607	3016
680.655	4690
680.703	3694
680.752	4162
680.800	4428
680.848	3609
680.896	3996
680.945	4168
680.993	3952
681.041	3889
681.089	3682
681.137	4050
681.185	2632
681.233	3207
681.258	3567
681.281	3870
681.329	4288
681.377	3440
681.380	3516
681.425	4220
681.473	3600
681.502	4004
681.521	4221
681.569	5017
681.617	4524
681.624	4558
681.665	4489
681.713	4112
681.745	4538
681.761	4683
681.809	3978
681.857	4727
681.867	4842
681.904	5098
681.952	4766
681.989	4707
682.000	4643
682.048	4327
682.096	5392
682.111	5127
682.143	4445
682.191	5635
682.233	5304
682.239	5217
682.286	5206
682.334	5534
682.354	5732
682.382	5899
682.430	5187
682.476	6109
682.477	6098
682.525	6214
682.572	5771
682.598	5780
682.620	5730
682.667	5616
682.715	5731
682.720	5850
682.763	6668
682.810	6700
682.841	6666
682.857	6607
682.905	5901
682.952	6685
682.963	6682
683.000	6488
683.047	6673
683.085	6618
683.095	6550
683.142	6554
683.190	5945
683.206	6082
683.237	6311
683.284	6440
683.328	7329
683.332	7366
683.379	6795
683.426	6002
683.449	6366
683.473	6758
683.521	7292
683.568	6464
683.571	6544
683.615	7143
683.662	6146
683.693	6470
683.709	6628
683.757	7019
683.804	7796
683.814	7727
683.851	7341
683.898	7802
683.936	7474
683.945	7369
683.992	7647
684.039	7451
684.057	7572
684.086	7720
684.133	8846
684.179	8073
684.180	8030
684.227	8485
684.274	9469
684.300	9114
684.321	8614
684.368	9114
684.415	9079
684.422	9045
684.462	8790
684.509	8971
684.543	9278
684.556	9277
684.603	8714
684.649	8496
684.665	8518
684.696	8792
684.743	8233
684.786	9437
684.790	9517
684.837	9501
684.883	9283
684.908	9476
684.930	9660
684.977	9719
685.023	10282
685.029	10256
685.070	9821
685.117	9713
685.150	9976
685.164	10019
685.210	9909
685.257	10425
685.272	10451
685.303	10639
685.350	10365
685.393	10917
685.396	10936
685.443	10883
685.490	11502
685.514	11325
685.536	11345
685.583	11970
685.629	12477
685.636	12571
685.675	12407
685.722	12032
685.757	11993
685.768	11950
685.815	11216
685.861	11531
685.878	11456
685.908	11660
685.954	11808
686.000	11864
686.000	11848
686.047	12046
686.093	12058
686.121	12349
686.139	12930
686.185	13658
686.232	13654
686.242	13880
686.278	13742
686.324	13815
686.363	13234
686.370	13084
686.416	12247
686.463	11282
686.484	11352
686.509	11595
686.555	11171
686.601	11653
686.606	11574
686.647	11105
686.693	11735
686.727	11634
686.739	11575
686.785	11581
686.831	11786
686.848	11895
686.877	12110
686.923	11712
686.969	11747
686.969	11744
687.015	11573
687.061	11000
687.090	11213
687.107	11467
687.153	12284
687.199	11915
687.211	12050
687.245	12297
687.291	12273
687.332	12003
687.336	11980
687.382	12787
687.428	13301
687.453	13009
687.474	12886
687.520	12995
687.565	13003
687.574	13122
687.611	13091
687.657	12442
687.695	12671
687.702	12763
687.748	12516
687.794	12851
687.816	12845
687.839	13028
687.885	13549
687.931	13543
687.937	13547
687.976	13082
688.022	12771
688.058	12568
688.067	12616
688.113	13409
688.158	13116
688.179	13485
688.204	13854
688.249	13551
688.295	13724
688.300	13701
688.340	13494
688.386	13813
688.421	13672
688.431	13704
688.477	13411
688.522	14301
688.542	14226
688.567	14101
688.613	14280
688.658	14413
688.663	14464
688.703	14682
688.749	14217
688.784	14232
688.794	14278
688.839	14080
688.884	13920
688.905	14001
688.930	14154
688.975	14073
689.020	13563
689.026	13639
689.065	14156
689.110	14150
689.146	13973
689.155	14005
689.201	14101
689.246	14421
689.267	14192
689.291	13847
689.336	14248
689.381	14109
689.388	14128
689.426	14296
689.471	13962
689.509	14045
689.516	14118
689.561	14361
689.606	14502
689.630	14613
689.651	14617
689.696	14677
689.741	14623
689.750	14686
689.785	15026
689.830	14338
689.871	14531
689.875	14546
689.920	14360
689.965	13842
689.992	13641
690.010	13707
690.054	14134
690.099	14050
690.112	14226
690.144	14567
690.189	14099
690.233	14336
690.233	14357
690.278	14643
690.323	14851
690.354	14970
690.367	14906
690.412	14894
690.457	14719
690.474	14634
690.501	14710
690.546	14895
690.590	14724
690.595	14701
690.635	14671
690.680	14713
690.716	14538
690.724	14502
690.769	14664
690.813	14760
690.836	14735
690.857	14827
690.902	14659
690.946	14760
690.957	14765
690.991	14966
691.035	14856
691.077	15589
691.080	15666
691.124	15983
691.168	16437
691.198	16752
691.213	16974
691.257	17338
691.301	17840
691.318	18050
691.346	18028
691.390	17757
691.434	17638
691.439	17564
691.478	16885
691.522	16569
691.559	16167
691.567	16217
691.611	16149
691.655	16323
691.680	16302
691.699	16529
691.743	16757
691.787	17633
691.800	17765
691.831	17552
691.875	16947
691.919	16634
691.921	16597
691.964	16875
692.008	17271
692.041	17320
692.052	17463
692.096	18026
692.139	18514
692.162	18696
692.183	18386
692.227	17677
692.271	17424
692.282	17260
692.315	17427
692.359	17646
692.402	17524
692.403	17555
692.447	18022
692.490	18190
692.523	18113
692.534	18040
692.578	18046
692.622	18128
692.643	18007
692.666	18084
692.709	17966
692.753	18094
692.763	18162
692.797	18014
692.840	17324
692.884	16698
692.884	16730
692.928	16625
692.971	17151
693.004	16920
693.015	16856
693.059	17112
693.102	16864
693.124	16839
693.146	17045
693.189	16930
693.233	17477
693.245	17570
693.276	17770
693.320	17877
693.363	17706
693.365	17681
693.407	18669
693.450	19251
693.485	19747
693.493	19676
693.537	19232
693.580	18687
693.605	18405
693.624	18587
693.667	18930
693.710	19052
693.725	19143
693.753	19057
693.797	18668
693.840	18594
693.845	18541
693.883	19687
693.926	20562
693.966	21419
693.970	21418
694.013	21013
694.056	20787
694.086	20433
694.099	20162
694.142	19213
694.185	18275
694.206	17876
694.229	18287
694.272	18680
694.315	19570
694.326	19570
694.358	19537
694.401	19896
694.444	20257
694.446	20221
694.487	20465
694.530	20949
694.566	21073
694.573	21204
694.616	21716
694.659	22559
694.686	22951
694.702	22395
694.745	20595
694.787	18891
694.806	18094
694.830	17994
694.873	17892
694.916	17630
694.926	17532
694.959	17600
695.002	17346
695.044	17799
695.046	17759
695.087	18189
695.130	18753
695.166	19006
695.172	19068
695.215	19263
695.258	19521
695.286	19769
695.301	19798
695.343	19343
695.386	19275
695.406	19105
695.428	19132
695.471	19025
695.514	18898
695.526	18928
695.556	19030
695.599	18855
695.641	18790
695.646	18731
695.684	19001
695.726	19211
695.766	19173
695.769	19205
695.811	19399
695.854	19416
695.886	19370
695.896	19454
695.938	19601
695.981	19681
696.005	19748
696.023	19681
696.065	19331
696.108	19027
696.125	18909
696.150	19069
696.192	19167
696.235	19156
696.245	19113
696.277	19611
696.319	20347
696.361	20952
696.365	20961
696.404	20472
696.446	19820
696.485	19193
696.488	19263
696.530	19508
696.572	19717
696.604	19911
696.614	19991
696.656	20120
696.698	20196
696.724	20238
696.740	20346
696.783	20395
696.825	20540
696.844	20536
696.867	20267
696.909	19666
696.951	18946
696.964	18747
696.992	19266
697.034	19866
697.076	20411
697.083	20438
697.118	20174
697.160	20000
697.202	19717
697.203	19658
697.244	19819
697.286	20058
697.323	20171
697.327	20211
697.369	20066
697.411	19977
697.442	19824
697.453	19915
697.494	20181
697.536	20405
697.562	20453
697.578	20585
697.620	20842
697.661	21109
697.682	21168
697.703	21368
697.744	21710
697.786	22046
697.801	22070
697.828	22360
697.869	22849
697.911	23311
697.921	23355
697.952	24042
697.994	24918
698.035	25750
698.040	25789
698.077	24450
698.118	22820
698.160	21169
698.160	21105
698.201	21020
698.243	20954
698.279	20747
698.284	20833
698.325	21204
698.367	21532
698.399	21737
698.408	21792
698.449	21752
698.491	21755
698.518	21682
698.532	21633
698.573	21328
698.614	21022
698.638	20784
698.656	20928
698.697	21150
698.738	21363
698.757	21410
698.779	21560
698.820	21730
698.862	21907
698.877	21920
698.903	22306
698.944	22815
698.985	23330
698.996	23413
699.026	23513
699.067	23559
699.116	23555
699.235	22265
699.354	21219
699.474	21701
699.593	22264
699.713	23880
699.832	24734
699.951	22335
700.070	24036
700.190	22123
700.309	21733
700.428	21552
700.547	22656
700.667	22594
700.786	21284
700.905	23463
701.024	21103
701.143	21978
701.262	22232
701.381	19834
701.500	20672
701.619	21282
701.738	24188
701.857	22157
701.976	19345
702.095	19499
702.214	18583
702.333	21950
702.452	23291
702.571	22236
702.690	20624
702.809	19434
702.928	19576
703.047	19039
703.165	18485
703.284	19372
703.403	18226
703.522	18552
703.640	20689
703.759	22119
703.878	22679
703.997	33106
704.115	21674
704.234	18625
704.353	18528
704.471	18346
704.590	17787
704.708	17816
704.827	17622
704.946	16276
705.064	16596
705.183	19952
705.301	17518
705.420	20420
705.538	24716
705.656	24918
705.775	20951
705.893	19829
706.012	21277
706.130	23942
706.249	21741
706.367	22298
706.485	21365
706.604	23356
706.722	21991
706.840	22583
706.958	27390
707.077	26727
707.195	21960
707.313	21399
707.431	20464
707.549	19274
707.668	19222
707.786	19759
707.904	20596
708.022	19711
708.140	19010
708.258	19085
708.376	19377
708.494	19482
708.612	19339
708.730	20496
708.848	27312
708.966	28076
709.084	25199
709.202	25802
709.320	23067
709.438	24149
709.556	23842
709.674	24597
709.791	23291
709.909	24252
710.027	22661
710.145	22653
710.263	21373
710.380	22942
710.498	22840
710.616	22456
710.733	21909
710.851	21680
710.969	22808
711.086	23955
711.204	21814
711.322	22698
711.439	22034
711.557	22170
711.674	23003
711.792	21441
711.909	21903
712.027	20923
712.144	18974
712.262	20359
712.379	20090
712.497	22437
712.614	29280
712.732	31981
712.849	27365
712.966	24844
713.084	26829
713.201	35216
713.318	28903
713.436	27241
713.553	25068
713.670	25787
713.787	26732
713.905	28841
714.022	30887
714.139	25749
714.256	25609
714.373	29614
714.490	34983
714.608	53263
714.725	103469
714.842	445523
714.959	815441
715.076	81898
715.193	32667
715.310	27124
715.427	25780
715.544	23629
715.661	23742
715.778	23596
715.895	22461
716.011	25925
716.128	23770
716.245	22837
716.362	23157
716.479	26204
716.596	30746
716.713	22444
716.829	22536
716.946	21448
717.063	22238
717.180	20135
717.296	19941
717.413	20557
717.530	20270
717.646	20008
717.763	20502
717.880	19378
717.996	18258
718.113	19541
718.229	21180
718.346	19581
718.462	17922
718.579	20240
718.695	23646
718.812	41765
718.928	37260
719.045	27569
719.161	23425
719.277	18456
719.394	18584
719.510	18225
719.626	18494
719.743	19510
719.859	23453
719.975	26646
720.092	40571
720.208	120710
720.324	396585
720.440	92939
720.557	22720
720.673	24046
720.789	32640
720.905	44866
721.021	77809
721.137	46661
721.253	18389
721.369	18618
721.486	18556
721.602	20194
721.718	27342
721.834	18571
721.950	15663
722.066	17587
722.181	15616
722.297	16935
722.413	16826
722.529	16739
722.645	15047
722.761	15362
722.877	14867
722.993	15437
723.108	15484
723.224	17200
723.340	16215
723.456	15115
723.571	15243
723.687	14810
723.803	14603
723.918	14492
724.034	14515
724.150	15346
724.265	14190
724.381	15624
724.497	26719
724.612	48948
724.728	16457
724.843	13061
724.959	14587
725.074	15950
725.190	25730
725.305	43583
725.421	16404
725.536	16527
725.651	12678
725.767	13070
725.882	12350
725.997	12042
726.113	12131
726.228	12872
726.343	12562
726.459	11742
726.574	11801
726.689	12726
726.804	12946
726.920	12562
727.035	12885
727.150	12605
727.265	13505
727.380	12433
727.495	13061
727.610	12260
727.725	10533
727.841	11695
727.956	12062
728.071	11862
728.186	13321
728.301	12609
728.416	10677
728.531	12061
728.645	11355
728.760	11357
728.875	12116
728.990	15282
729.105	12889
729.220	13033
729.335	13352
729.449	14292
729.564	11011
729.679	11130
729.794	10069
729.908	11477
730.023	11952
730.138	11798
730.253	9380
730.367	11131
730.482	9462
730.596	9428
730.711	10226
730.826	11110
730.940	12281
731.055	11973
731.169	11958
731.284	10961
731.398	10081
731.513	10866
731.627	12606
731.742	12612
731.856	12578
731.970	16426
732.085	12260
732.199	15019
732.313	16215
732.428	24717
732.542	51326
732.656	161546
732.771	162475
732.885	29496
732.999	15964
733.113	15125
733.227	14557
733.342	13633
733.456	12833
733.570	11774
733.684	10946
733.798	11419
733.912	11364
734.026	11229
734.140	10527
734.254	10674
734.368	11322
734.482	16775
734.596	26254
734.710	12202
734.824	9569
734.938	11148
735.052	9839
735.166	11044
735.280	12104
735.393	11853
735.507	10282
735.621	11201
735.735	12739
735.849	21678
735.962	15236
736.076	10060
736.190	10501
736.303	11367
736.417	12592
736.531	20634
736.644	10834
736.758	10865
736.872	9651
736.985	9897
737.099	8700
737.212	9895
737.326	8352
737.439	9561
737.553	9581
737.666	9682
737.780	9488
737.893	8931
738.007	8854
738.120	8560
738.233	8756
738.347	8951
738.460	9177
738.573	10308
738.687	9239
738.800	10250
738.913	10162
739.026	13010
739.140	10527
739.253	8378
739.366	8271
739.479	8190
739.592	8439
739.705	9149
739.818	7925
739.932	9464
740.045	8160
740.158	9519
740.271	8595
740.384	9393
740.497	8736
740.610	8939
740.723	9531
740.836	10214
740.949	9585
741.062	10703
741.174	13252
741.287	12888
741.400	9746
741.513	9398
741.626	8243
741.739	11113
741.851	9793
741.964	9410
742.077	8257
742.189	9043
742.302	9011
742.415	11206
742.527	11169
742.640	9941
742.753	8769
742.865	8604
742.978	7451
743.090	8193
743.203	7326
743.316	7851
743.428	7786
743.541	7403
743.653	7140
743.766	7266
743.878	7557
743.990	7487
744.103	9789
744.215	11836
744.327	10035
744.440	10084
744.552	10082
744.664	16213
744.777	11005
744.889	7740
745.001	6246
745.113	6985
745.226	7335
745.338	6752
745.450	6034
745.562	6943
745.674	6800
745.786	7341
745.898	6763
746.010	6230
746.122	6267
746.234	6137
746.347	7388
746.459	7154
746.570	6701
746.682	6700
746.794	6816
746.906	10700
747.018	7752
747.130	6501
747.242	6613
747.354	6471
747.466	6383
747.577	6525
747.689	6901
747.801	6297
747.913	6425
748.024	6553
748.136	6048
748.248	6860
748.359	5638
748.471	5711
748.583	6118
748.694	5907
748.806	5984
748.918	6380
749.029	7582
749.141	7457
749.252	7726
749.364	6972
749.475	8464
749.587	16950
749.698	15395
749.809	6500
749.921	6276
750.032	6403
750.144	5864
750.255	6081
750.366	4974
750.478	5863
750.589	6171
750.700	5776
750.811	6777
750.923	6980
751.034	7858
751.145	16954
751.256	26355
751.367	8459
751.479	5571
751.590	5446
751.701	5002
751.812	5211
751.923	5991
752.034	6205
752.145	6225
752.256	6131
752.367	5362
752.478	5541
752.589	5582
752.700	6392
752.811	5203
752.922	5108
753.032	5162
753.143	6639
753.254	8144
753.365	5926
753.476	5506
753.586	5800
753.697	4769
753.808	4534
753.919	4613
754.029	5156
754.140	5015
754.251	5481
754.361	5017
754.472	5776
754.582	5036
754.693	4905
754.804	4799
754.914	5403
755.025	3907
755.135	5089
755.246	4840
755.356	4829
755.466	5042
755.577	4943
755.687	4572
755.798	5223
755.908	5563
756.018	4829
756.129	4977
756.239	4989
756.349	4721
756.460	5406
756.570	5719
756.680	5851
756.790	5257
756.900	5748
757.011	5617
757.121	4839
757.231	4491
757.341	4972
757.451	4694
757.561	4743
757.671	3903
757.781	4631
757.891	4997
758.001	3856
758.111	4719
758.221	5428
758.331	5170
758.441	6880
758.551	7058
758.661	8287
758.771	10686
758.880	6386
758.990	4786
759.100	5743
759.210	4895
759.320	6074
759.429	4922
759.539	5117
759.649	5401
759.758	5662
759.868	6655
759.978	6301
760.087	6331
760.197	6588
760.307	6054
760.416	6520
760.526	6006
760.635	6592
760.745	4910
760.854	6456
760.964	5782
761.073	6808
761.182	7162
761.292	6113
761.401	6611
761.511	7016
761.620	5699
761.729	5445
761.839	4809
761.948	5807
762.057	5255
762.166	6621
762.276	5394
762.385	6055
762.494	4513
762.603	5578
762.712	5285
762.822	5520
762.931	5350
763.040	5167
763.149	5044
763.258	5447
763.367	5318
763.476	5253
763.585	5166
763.694	5260
763.803	4479
763.912	5757
764.021	5218
764.130	5645
764.238	4659
764.347	5783
764.456	4652
764.565	5233
764.674	4589
764.783	6009
764.891	5608
765.000	5587
765.109	5514
765.217	6130
765.326	5942
765.435	7329
765.543	8178
765.652	8000
765.761	8457
765.869	8648
765.978	10901
766.086	14873
766.195	24280
766.303	47442
766.412	117224
766.520	406099
766.629	545568
766.737	112262
766.846	31211
766.954	19523
767.062	13700
767.171	11770
767.279	10127
767.387	8943
767.496	7563
767.604	7785
767.712	6085
767.820	6526
767.928	6154
768.037	5813
768.145	6518
768.253	7073
768.361	6869
768.469	6947
768.577	6088
768.685	6972
768.793	5209
768.901	6486
769.009	5924
769.117	6543
769.225	7404
769.333	7866
769.441	9446
769.549	12298
769.657	20864
769.765	44734
769.873	137543
769.981	434997
770.088	199050
770.196	27476
770.304	13235
770.412	11207
770.519	9054
770.627	8438
770.735	6410
770.842	6614
770.950	5629
771.058	6658
771.165	7176
771.273	5851
771.380	6258
771.488	6199
771.595	6372
771.703	6999
771.810	7077
771.918	5827
772.025	6356
772.133	6531
772.240	6871
772.348	6736
772.455	6704
772.562	7758
772.670	6260
772.777	7154
772.884	6372
772.991	6432
773.099	6025
773.206	6197
773.313	6735
773.420	6689
773.528	5898
773.635	6103
773.742	6170
773.849	5996
773.956	5213
774.063	6408
774.170	5854
774.277	5696
774.384	5899
774.491	6433
774.598	5618
774.705	6009
774.812	6057
774.919	9510
775.026	8018
775.133	6815
775.239	6242
775.346	6257
775.453	6047
775.560	6422
775.667	5293
775.773	6119
775.880	5895
775.987	5557
776.093	5821
776.200	6333
776.307	5680
776.413	6379
776.520	5160
776.627	5822
776.733	5733
776.840	5944
776.946	6332
777.053	6531
777.159	7264
777.266	12865
777.372	13491
777.478	11397
777.585	13342
777.691	10428
777.798	5732
777.904	6003
778.010	6398
778.117	7757
778.223	9845
778.329	5355
778.435	5582
778.542	6011
778.648	4751
778.754	5829
778.860	4547
778.966	4923
779.072	5304
779.178	5111
779.284	5284
779.391	4351
779.497	4954
779.603	5874
779.708	4614
779.815	6210
779.920	5597
780.026	7088
780.132	12761
780.238	7382
780.344	4616
780.450	4740
780.556	4918
780.661	4990
780.767	4073
780.873	6245
780.979	5226
781.085	4412
781.190	4468
781.296	5531
781.402	4893
781.507	4617
781.613	4409
781.719	3408
781.824	4035
781.930	4733
782.035	4851
782.141	4531
782.246	4799
782.352	5339
782.457	4189
782.563	3858
782.668	5300
782.773	4706
782.879	4220
782.984	5611
783.090	4415
783.195	5622
783.300	8178
783.405	9108
783.511	5553
783.616	4404
783.721	5071
783.826	5346
783.932	4960
784.037	4468
784.142	3950
784.247	4739
784.352	4851
784.457	4335
784.562	4650
784.667	5077
784.772	4160
784.877	4732
784.982	4499
785.087	4384
785.192	4070
785.297	5124
785.402	4091
785.507	5395
785.611	4475
785.716	4472
785.821	3987
785.926	4289
786.031	3945
786.135	3756
786.240	4282
786.345	4888
786.450	3750
786.554	4000
786.659	3789
786.763	4288
786.868	4463
786.973	3827
787.077	3593
787.182	3893
787.286	2728
787.391	4235
787.495	3432
787.600	3654
787.704	2997
787.809	3348
787.913	3741
788.017	4652
788.122	3110
788.226	3625
788.330	3029
788.435	3164
788.539	2655
788.643	3200
788.747	2924
788.852	3641
788.956	2731
789.060	3609
789.164	2751
789.268	3445
789.372	2739
789.476	3617
789.580	2773
789.684	2983
789.788	3407
789.892	4143
789.996	2872
790.100	3603
790.204	2961
790.308	4066
790.412	3524
790.516	4591
790.620	3199
790.724	3413
790.828	3090
790.931	3272
791.035	2990
791.139	3353
791.242	3315
791.346	3314
791.450	2308
791.554	3963
791.657	3084
791.761	3769
791.864	3074
791.968	3587
792.072	3526
792.175	4001
792.279	3167
792.382	3973
792.486	3330
792.589	3475
792.693	3347
792.796	3837
792.899	3813
793.003	3608
793.106	3559
793.209	3020
793.313	3827
793.416	2500
793.519	2925
793.623	3767
793.726	5379
793.829	9635
793.932	5382
794.035	3940
794.138	2945
794.242	3504
794.345	4089
794.448	5034
794.551	5526
794.654	7736
794.757	9179
794.860	7983
794.963	5094
795.066	4822
795.169	3560
795.272	3244
795.375	2312
795.477	2548
795.580	2663
795.683	3152
795.786	1973
795.889	2533
795.991	2743
796.094	4117
796.197	3043
796.300	3450
796.402	2760
796.505	3057
796.608	3103
796.710	3312
796.813	1864
796.915	3038
797.018	2755
797.120	3130
797.223	2058
797.326	3030
797.428	2297
797.530	2805
797.633	2404
797.735	3385
797.838	3179
797.940	6231
798.042	6837
798.145	3045
798.247	2455
798.349	3287
798.452	2344
798.554	2572
798.656	2195
798.758	3163
798.860	2527
798.962	2567
799.065	2835
799.167	3194
799.269	2441
799.371	3273
799.473	2210
799.575	3828
799.677	3709
799.779	5678
799.881	3846
799.983	7617
800.085	5892
800.187	3402
800.289	2594
800.390	2587
800.492	2170
800.594	2667
800.696	2435
800.798	2666
800.899	1662
801.001	2594
801.103	2139
801.205	2203
801.306	2030
801.408	2230
801.509	2668
801.611	2251
801.713	2534
801.814	1642
801.916	2538
802.017	2871
802.119	1824
802.220	2711
802.322	1762
802.423	2975
802.525	3851
802.626	4472
802.727	2178
802.829	2492
802.930	2790
803.031	3029
803.133	1507
803.234	1634
803.335	1733
803.436	2054
803.538	1206
803.639	1882
803.740	2395
803.841	2350
803.942	2172
804.043	2339
804.144	2669
804.245	2536
804.346	1778
804.447	1920
804.548	2579
804.649	3768
804.750	5798
804.851	2979
804.952	1585
805.053	2246
805.154	1398
805.255	2648
805.355	1637
805.456	2441
805.557	1690
805.658	2024
805.758	1774
805.859	1992
805.960	2037
806.061	1549
806.161	1500
806.262	2223
806.362	1729
806.463	2505
806.564	1641
806.664	2452
806.765	2233
806.865	3537
806.966	3218
807.066	1445
807.166	2453
807.267	2349
807.367	1279
807.468	1882
807.568	1695
807.668	2092
807.769	1694
807.869	2132
807.969	1779
808.069	2727
808.170	2185
808.270	3102
808.370	1852
808.470	1901
808.570	3178
808.670	5526
808.770	2138
808.870	1770
808.970	1516
809.070	3249
809.170	1040
809.271	2199
809.370	1788
809.470	2638
809.570	1528
809.670	2192
809.770	2076
809.870	2058
809.970	2070
810.070	2156
810.169	2035
810.269	1490
810.369	2123
810.469	1956
810.568	1573
810.668	963
810.768	1736
810.867	2411
810.967	1119
811.066	1563
811.166	1238
811.265	2820
811.365	1064
811.464	1674
811.564	1361
811.663	1353
811.763	1649
811.862	1551
811.962	2214
812.061	2011
812.160	1806
812.260	1835
812.359	2107
812.458	3207
812.557	4845
812.657	12134
812.756	25151
812.855	13421
812.954	2954
813.053	2925
813.153	1936
813.252	3038
813.351	2179
813.450	2352
813.549	1083
813.648	1877
813.747	1553
813.846	2172
813.945	1277
814.044	2169
814.143	2137
814.242	2275
814.341	1997
814.439	2250
814.538	2368
814.637	2882
814.736	1388
814.835	3258
814.933	2822
815.032	4029
815.131	3454
815.229	2781
815.328	3161
815.427	4163
815.525	3398
815.624	3813
815.722	3375
815.821	3387
815.919	3773
816.018	3826
816.116	4436
816.215	4477
816.313	4591
816.412	4395
816.510	4580
816.609	5708
816.707	4701
816.805	6098
816.904	5302
817.002	5697
817.100	6718
817.198	7232
817.296	8832
817.395	9034
817.493	10546
817.591	11560
817.689	13489
817.787	17373
817.885	22930
817.983	33952
818.081	58056
818.179	113150
818.277	247577
818.375	571889
818.473	729511
818.571	304134
818.669	108475
818.767	62394
818.865	48984
818.963	47599
819.061	50610
819.158	70465
819.256	109924
819.354	209671
819.452	436403
819.549	901319
819.647	875950
819.745	374507
819.842	152511
819.940	83458
820.038	54256
820.135	40586
820.233	29453
820.330	23687
820.428	18983
820.525	16280
820.623	14485
820.720	12280
820.818	10926
820.915	11462
821.012	9188
821.110	8633
821.207	7138
821.304	7320
821.402	6409
821.499	7140
821.596	6984
821.693	8436
821.791	7669
821.888	6075
821.985	7182
822.082	10787
822.179	13787
822.276	6890
822.373	5719
822.470	5878
822.567	4213
822.664	4866
822.761	3276
822.858	4488
822.955	3416
823.052	3454
823.149	2884
823.246	3700
823.343	4438
823.440	3957
823.536	2392
823.633	3039
823.730	3152
823.827	3636
823.923	2215
824.020	4050
824.117	1772
824.213	3489
824.310	4380
824.407	4083
824.503	1888
824.600	2318
824.696	2973
824.793	2392
824.889	2904
824.986	3212
825.082	3196
825.179	3015
825.275	2062
825.371	2435
825.468	2400
825.564	2154
825.660	1846
825.757	2492
825.853	2233
825.949	1907
826.045	2232
826.142	2549
826.238	1876
826.334	1897
826.430	1704
826.526	2938
826.622	2245
826.718	2105
826.814	1678
826.910	2681
827.006	2108
827.102	2116
827.198	1670
827.294	1600
827.390	1194
827.486	1994
827.582	1475
827.678	1449
827.774	817
827.869	1383
827.965	2077
828.061	1542
828.157	1208
828.252	2625
828.348	1759
828.444	2112
828.539	1425
828.635	1549
828.731	1750
828.826	1270
828.922	1158
829.017	1417
829.113	2055
829.208	2155
829.304	1985
829.399	2465
829.495	2004
829.590	1787
829.685	1733
829.781	1480
829.876	1345
829.971	1963
830.066	1202
830.162	1188
830.257	1217
830.352	1905
830.447	1323
830.543	1285
830.638	1274
830.733	2381
830.828	2200
830.923	2348
831.018	1347
831.113	1770
831.208	2329
831.303	1744
831.398	2042
831.493	1897
831.588	1665
831.683	1221
831.778	1354
831.873	1635
831.967	590
832.062	1677
832.157	1064
832.252	1846
832.346	1250
832.441	1726
832.536	1599
832.631	4049
832.725	6913
832.820	10421
832.914	2735
833.009	1113
833.104	1804
833.198	2345
833.293	2981
833.387	2454
833.482	1192
833.576	2543
833.670	1651
833.765	2178
833.859	1445
833.954	2433
834.048	2355
834.142	1876
834.237	1495
834.331	973
834.425	1649
834.519	1745
834.613	591
834.708	1452
834.802	753
834.896	1761
834.990	630
835.084	1183
835.178	1663
835.272	1841
835.366	1012
835.460	2405
835.554	869
835.648	1543
835.742	861
835.836	1321
835.930	-284
836.024	1543
836.117	1469
836.211	1816
836.305	1600
836.399	1829
836.493	3059
836.586	2679
836.680	1608
836.774	1438
836.867	1028
836.961	1323
837.055	872
837.148	1417
837.242	1000
837.335	896
837.429	633
837.522	1547
837.616	676
837.709	1856
837.803	2766
837.896	4233
837.989	1249
838.083	2159
838.176	1840
838.269	3433
838.363	6629
838.456	1873
838.549	1429
838.642	2270
838.735	4575
838.829	9414
838.922	6501
839.015	2124
839.108	1024
839.201	1726
839.294	743
839.387	1261
839.480	1770
839.573	1850
839.666	1334
839.759	3032
839.852	1709
839.945	196
840.038	1045
840.131	980
840.223	209
840.316	875
840.409	278
840.502	1516
840.594	1044
840.687	834
840.780	706
840.873	1710
840.965	1333
841.058	1750
841.150	1574
841.243	3296
841.336	4705
841.428	1244
841.521	50
841.613	1038
841.706	1613
841.798	2387
841.890	1153
841.983	1301
842.075	427
842.167	1368
842.260	679
842.352	1853
842.444	1832
842.537	3490
842.629	4211
842.721	8261
842.813	3804
842.905	1075
842.997	345
843.090	1429
843.182	1602
843.274	2926
843.366	4823
843.458	9689
843.550	21572
843.642	22012
843.734	5891
843.826	1898
843.918	1655
844.009	3381
844.101	1278
844.193	914
844.285	866
844.377	2009
844.469	1616
844.560	2682
844.652	2870
844.744	4482
844.835	2206
844.927	1975
845.019	630
845.110	2250
845.202	1869
845.293	1722
845.385	760
845.476	676
845.568	1100
845.659	1474
845.751	852
845.842	1585
845.934	615
846.025	1323
846.116	1156
846.208	686
846.299	91
846.390	1450
846.482	538
846.573	1257
846.664	1609
846.755	2723
846.846	3310
846.937	3940
847.029	1518
847.120	1283
847.211	-234
847.302	2109
847.393	1260
847.484	1566
847.575	150
847.666	1261
847.757	472
847.847	914
847.938	1259
848.029	1334
848.120	685
848.211	1126
848.302	268
848.392	1243
848.483	560
848.574	951
848.664	769
848.755	1108
848.846	727
848.936	1396
849.027	805
849.118	1386
849.208	1184
849.299	1754
849.389	2025
849.480	3953
849.570	8109
849.661	16026
849.751	26168
849.841	55817
849.932	38814
850.022	6091
850.112	2841
850.203	2208
850.293	1734
850.383	1141
850.474	1068
850.564	1680
850.654	878
850.744	701
850.834	1174
850.924	1318
851.014	1161
851.104	964
851.194	2246
851.284	1368
851.374	1355
851.464	3822
851.554	1637
851.644	1998
851.734	1177
851.824	1937
851.914	2198
852.004	1772
852.094	76
852.183	1035
852.273	673
852.363	1425
852.452	826
852.542	1583
852.632	235
852.721	1624
852.811	470
852.901	1229
852.990	1508
853.080	1953
853.169	1196
853.259	2066
853.348	1727
853.438	2683
853.527	2589
853.617	3970
853.706	6181
853.795	11699
853.885	20846
853.974	45342
854.063	93667
854.152	150790
854.242	300459
854.331	201136
854.420	37417
854.509	11081
854.598	6464
854.687	6587
854.777	3835
854.866	3895
854.955	3464
855.044	2482
855.133	1673
855.222	1509
855.311	1808
855.400	1662
855.488	1233
855.577	1000
855.666	1882
855.755	1925
855.844	1508
855.933	1076
856.021	1082
856.110	1379
856.199	1419
856.288	1166
856.376	1313
856.465	611
856.554	772
856.642	867
856.731	964
856.819	1598
856.908	607
856.996	1058
857.085	686
857.173	962
857.262	-52
857.350	952
857.438	916
857.527	497
857.615	1274
857.703	927
857.792	476
857.880	111
857.968	761
858.056	1192
858.145	151
858.233	1127
858.321	1628
858.409	919
858.497	1014
858.585	803
858.673	719
858.761	1007
858.849	102
858.937	815
859.025	758
859.113	-116
859.201	562
859.289	1641
859.377	854
859.465	1556
859.552	416
859.640	818
859.728	1545
859.816	1420
859.903	1476
859.991	591
860.079	122
860.166	797
860.254	624
860.342	453
860.429	835
860.517	180
860.604	170
860.692	1022
860.779	-223
860.867	1153
860.954	205
861.042	859
861.129	593
861.216	2390
861.304	826
861.391	451
861.478	477
861.565	1117
861.653	977
861.740	457
861.827	62
861.914	851
862.001	116
862.089	864
862.176	377
862.263	1540
862.350	374
862.437	473
862.524	631
862.611	132
862.698	883
862.785	1536
862.871	595
862.958	1615
863.045	1262
863.132	1392
863.219	961
863.306	667
863.392	507
863.479	1120
863.566	298
863.652	1201
863.739	301
863.826	883
863.912	219
863.999	911
864.086	30
864.172	1055
864.259	-164
864.345	823
864.432	847
864.518	1265
864.604	516
864.691	1512
864.777	1399
864.863	1763
864.950	1508
865.036	1962
865.122	1616
865.209	3066
865.295	2833
865.381	3112
865.467	3205
865.553	4355
865.639	4499
865.726	6808
865.812	11846
865.898	23707
865.984	47089
866.070	73751
866.156	114117
866.242	194092
866.328	87122
866.414	16050
866.499	6365
866.585	5094
866.671	4710
866.757	3644
866.843	2706
866.928	2864
867.014	3315
867.100	2405
867.186	2365
867.271	3203
867.357	3419
867.442	3161
867.528	4639
867.614	3236
867.699	2183
867.785	2639
867.870	3065
867.956	3652
868.041	5472
868.127	4126
868.212	2427
868.297	4024
868.383	4173
868.468	3365
868.553	3686
868.639	6332
868.724	7422
868.809	10031
868.894	15583
868.979	7224
869.065	2141
869.150	1697
869.235	1718
869.320	2001
869.405	1680
869.490	2416
869.575	1132
869.660	1663
869.745	1265
869.830	1600
869.915	2193
870.000	1628
870.085	737
870.169	1513
870.254	1961
870.339	1849
870.424	1536
870.509	812
870.593	1831
870.678	1800
870.763	1063
870.847	1463
870.932	1634
871.016	1985
871.101	1830
871.186	2229
871.270	983
871.355	1897
871.439	1197
871.523	1346
871.608	1141
871.692	1713
871.777	1314
871.861	2312
871.945	1537
872.030	1397
872.114	1165
872.198	1859
872.282	957
872.367	1542
872.451	922
872.535	1127
872.619	1445
872.703	1091
872.787	406
872.871	1665
872.955	923
873.039	1228
873.123	1088
873.207	1250
873.291	1720
873.375	1216
873.459	1388
873.543	1551
873.627	630
873.711	1422
873.794	724
873.878	910
873.962	731
874.045	1899
874.129	622
874.137	695
874.213	1421
874.245	1300
874.296	1102
874.352	1459
874.380	1637
874.460	414
874.464	365
874.547	1277
874.568	1178
874.631	893
874.676	1174
874.714	1388
874.784	1328
874.798	1324
874.881	1687
874.892	1581
874.965	804
874.999	983
875.048	1270
875.107	1717
875.131	1883
875.215	1865
875.215	1865
875.298	1026
875.323	1095
875.381	1331
875.430	1129
875.465	941
875.538	1381
875.548	1444
875.631	1128
875.646	1116
875.714	1033
875.753	1105
875.798	1215
875.861	911
875.881	804
875.964	1116
875.968	1125
876.047	1302
876.076	1142
876.130	918
876.183	1321
876.213	1500
876.291	1638
876.296	1652
876.379	2339
876.398	2135
876.462	1430
876.506	1315
876.545	1176
876.613	1105
876.628	1111
876.711	1922
876.721	1814
876.794	874
876.828	953
876.877	1292
876.935	1574
876.960	1573
877.043	2417
877.043	2411
877.125	1287
877.150	1429
877.208	1782
877.258	1967
877.291	2083
877.365	2675
877.374	2741
877.456	2531
877.472	2638
877.539	2937
877.579	2622
877.622	2437
877.687	2368
877.704	2298
877.787	2495
877.794	2498
877.869	2772
877.901	2634
877.952	2247
878.008	2202
878.034	2219
878.115	1230
878.117	1210
878.199	1833
878.222	1733
878.282	1584
878.329	1633
878.364	1656
878.437	1980
878.447	2010
878.529	1654
878.544	1633
878.611	1564
878.651	1661
878.694	1899
878.758	1445
878.776	1279
878.858	1831
878.865	1797
878.941	1430
878.972	1698
879.023	1962
879.078	1574
879.105	1535
879.185	1679
879.187	1681
879.269	2117
879.292	2204
879.351	2457
879.399	2347
879.433	2201
879.506	1893
879.516	1870
879.598	1758
879.613	1819
879.680	1856
879.720	1608
879.762	1468
879.827	1500
879.844	1534
879.926	1423
879.933	1459
880.007	1678
880.040	1711
880.089	1957
880.147	2710
880.171	3024
880.253	4174
880.254	4187
880.335	7184
880.360	8276
880.417	11206
880.467	13537
880.499	17057
880.574	26584
880.580	27081
880.662	39245
880.680	37311
880.744	21228
880.787	11148
880.825	6014
880.893	2635
880.907	2177
880.989	1745
881.000	1561
881.070	1093
881.106	1564
881.152	1967
881.213	1723
881.233	1552
881.315	1195
881.319	1150
881.396	1068
881.426	1390
881.478	1842
881.532	1509
881.559	1302
881.639	1603
881.641	1615
881.722	1545
881.745	1408
881.803	1111
881.852	1392
881.885	1431
881.958	1491
881.966	1570
882.047	2000
882.064	2079
882.129	2155
882.171	2417
882.210	2700
882.277	3091
882.291	3391
882.372	5769
882.383	5927
882.454	4682
882.489	3378
882.535	2097
882.596	1457
882.616	1402
882.697	1553
882.702	1548
882.778	1616
882.808	1592
882.859	1259
882.914	1003
882.940	1147
883.020	1239
883.021	1240
883.102	1344
883.127	1250
883.183	1488
883.233	1788
883.264	1901
883.339	2086
883.345	2051
883.426	1623
883.445	1496
883.507	1401
883.551	1227
883.587	1280
883.657	1217
883.668	1213
883.749	2246
883.763	2228
883.830	1993
883.869	2061
883.910	1812
883.975	1032
883.991	998
884.072	1443
884.081	1458
884.152	1575
884.187	1657
884.233	1556
884.292	1535
884.314	1718
884.394	2124
884.398	2136
884.475	1553
884.504	1427
884.555	1704
884.610	1850
884.636	1765
884.716	1752
884.716	1756
884.797	1109
884.821	1116
884.877	1610
884.927	1730
884.958	1651
885.033	1957
885.038	1973
885.118	1652
885.139	1641
885.199	1560
885.244	1392
885.279	1463
885.350	1766
885.359	1844
885.439	2163
885.456	2308
885.520	2573
885.561	2603
885.600	2092
885.667	1149
885.680	1128
885.760	916
885.773	942
885.840	1685
885.878	1857
885.920	1836
885.984	2124
886.000	2037
886.080	1572
886.089	1499
886.160	1527
886.195	1479
886.240	1560
886.300	1817
886.320	2006
886.400	2673
886.406	2713
886.480	2239
886.511	1961
886.560	2011
886.616	2367
886.640	2714
886.720	3443
886.722	3452
886.800	2537
886.827	2229
886.879	2066
886.932	2089
886.959	2156
887.038	1912
887.039	1909
887.119	1507
887.143	1275
887.198	1660
887.248	2154
887.278	2148
887.354	1944
887.358	1979
887.437	2697
887.459	2824
887.517	2054
887.564	1585
887.596	1870
887.669	2313
887.676	2249
887.755	1399
887.774	1189
887.835	1512
887.880	1742
887.914	1870
887.985	2120
887.994	2083
888.073	1730
888.090	1631
888.153	2380
888.195	2917
888.232	2861
888.300	2702
888.311	2663
888.391	2352
888.405	2267
888.470	2163
888.510	2161
888.549	2258
888.615	2367
888.628	2309
888.708	1921
888.720	1848
888.787	2079
888.825	2212
888.866	2062
888.930	1855
888.945	1849
889.024	1684
889.035	1673
889.103	1667
889.140	1638
889.182	1866
889.245	2163
889.261	2111
889.340	1889
889.349	1854
889.419	2344
889.454	2586
889.498	2265
889.559	1818
889.577	1795
889.656	1681
889.664	1668
889.735	2182
889.768	2424
889.814	2380
889.873	2305
889.978	2137
890.083	1647
890.187	1851
890.292	2456
890.397	2521
890.501	2180
890.606	1887
890.710	2004
890.815	1977
890.919	2105
891.024	1700
891.128	2485
891.233	2559
891.337	2067
891.442	1589
891.546	1860
891.650	1826
891.755	1742
891.859	2701
891.963	2341
892.068	2626
892.172	1841
892.276	2635
892.380	2733
892.484	2287
892.589	2633
892.693	2093
892.797	1947
892.901	2278
893.005	2117
893.109	2764
893.213	2834
893.317	2391
893.421	1338
893.525	1467
893.629	1883
893.733	1595
893.837	1691
893.941	2678
894.045	2925
894.148	2566
894.252	2053
894.356	1775
894.460	2916
894.564	2991
894.667	1897
894.771	1647
894.875	1246
894.978	1965
895.082	2318
895.186	1838
895.289	2268
895.393	2082
895.496	2322
895.600	2547
895.703	2348
895.807	2176
895.910	1562
896.014	2474
896.117	1530
896.221	2258
896.324	2080
896.427	1206
896.531	1627
896.634	2237
896.737	1624
896.840	1629
896.944	2008
897.047	2096
897.150	1923
897.253	2689
897.356	1923
897.460	1927
897.563	2253
897.666	2447
897.769	1440
897.872	2144
897.975	1856
898.078	1831
898.181	1871
898.284	1985
898.387	1770
898.490	2299
898.593	1590
898.695	1425
898.798	1563
898.901	2046
899.004	1282
899.107	1813
899.209	1351
899.312	2305
899.415	1728
899.518	1878
899.620	1771
899.723	1711
899.826	2020
899.928	3995
900.031	4879
900.133	2262
900.236	2481
900.338	1586
900.441	1777
900.543	1612
900.646	2085
900.748	1431
900.851	2225
900.953	2324
901.055	1684
901.158	2339
901.260	2921
901.362	1441
901.465	1547
901.567	1940
901.669	2055
901.771	1766
901.873	1382
901.976	2648
902.078	2242
902.180	1985
902.282	1570
902.384	2183
902.486	2200
902.588	2414
902.690	1923
902.792	1996
902.894	2375
902.996	1743
903.098	2239
903.200	1382
903.302	1547
903.404	1239
903.505	1395
903.607	1686
903.709	1252
903.811	2070
903.913	2180
904.014	1510
904.116	1918
904.218	2228
904.319	2628
904.421	2254
904.523	1924
904.624	2096
904.726	2261
904.827	2045
904.929	1692
905.030	2011
905.132	1063
905.233	2515
905.335	1743
905.436	1506
905.537	1592
905.639	1903
905.740	1367
905.841	1774
905.943	2233
906.044	2090
906.145	2154
906.247	2103
906.348	1794
906.449	1559
906.550	1952
906.651	2049
906.752	1826
906.854	1573
906.955	1925
907.056	2268
907.157	1080
907.258	1643
907.359	1482
907.460	2406
907.561	1680
907.662	1558
907.762	1945
907.863	1703
907.964	2261
908.065	2025
908.166	1428
908.267	2226
908.367	1552
908.468	1273
908.569	1716
908.670	1152
908.770	2513
908.871	2470
908.971	2997
909.072	3112
909.173	2138
909.273	2059
909.374	2047
909.474	2485
909.575	2922
909.675	1435
909.776	2005
909.876	1831
909.977	1719
910.077	2322
910.177	1873
910.278	1713
910.378	2265
910.478	2172
910.579	2255
910.679	1786
910.779	1290
910.879	2277
910.980	2004
911.080	2469
911.180	1097
911.280	1812
911.380	1788
911.480	1339
911.580	1525
911.680	1896
911.780	2399
911.880	1923
911.980	1776
912.080	2674
912.180	1972
912.280	1694
912.380	2410
912.480	2183
912.580	1875
912.679	1924
912.779	528
912.879	1840
912.979	1960
913.078	1403
913.178	1728
913.278	492
913.377	1398
913.477	1755
913.577	1185
913.676	2015
913.776	2007
913.875	1853
913.975	1536
914.074	2219
914.174	1480
914.273	1960
914.373	1409
914.472	1793
914.572	1470
914.671	1614
914.770	1299
914.870	1827
914.969	1313
915.068	2040
915.167	940
915.267	1660
915.366	2094
915.465	2159
915.564	2035
915.663	2282
915.763	917
915.862	1596
915.961	2640
916.060	1151
916.159	799
916.258	1731
916.357	1221
916.456	2317
916.555	1656
916.654	2270
916.752	2404
916.851	1418
916.950	1278
917.049	3074
917.148	1419
917.247	1540
917.345	1247
917.444	1886
917.543	1932
917.642	1244
917.740	1157
917.839	2285
917.937	1280
918.036	1830
918.135	2028
918.233	2279
918.332	1301
918.430	2354
918.529	1624
918.627	1301
918.726	1515
918.824	2134
918.923	1899
919.021	1059
919.119	846
919.218	1619
919.316	1795
919.414	1777
919.512	1093
919.611	1772
919.709	1408
919.807	1440
919.905	1875
920.003	1454
920.102	1896
920.200	2132
920.298	1155
920.396	2168
920.494	2077
920.592	1127
920.690	2041
920.788	2143
920.886	2155
920.984	1817
921.082	1648
921.180	2123
921.277	1902
921.375	1861
921.473	2282
921.571	2672
921.669	2074
921.766	2798
921.864	2787
921.962	3564
922.060	2011
922.157	2635
922.255	1786
922.352	2560
922.450	2271
922.548	2233
922.645	3039
922.743	2217
922.840	3151
922.938	4587
923.035	3802
923.133	3665
923.230	3617
923.327	4387
923.425	5247
923.522	3868
923.619	4781
923.717	4101
923.814	3843
923.911	3915
924.008	3973
924.106	3965
924.203	4025
924.300	3691
924.397	3798
924.494	3658
924.591	3812
924.688	4218
924.786	3509
924.883	3543
924.979	4068
925.077	3835
925.173	3955
925.270	3593
925.367	4394
925.464	4556
925.561	4458
925.658	4468
925.755	4124
925.852	4687
925.948	5403
926.045	4503
926.142	4188
926.239	4929
926.335	4520
926.432	4363
926.529	4565
926.625	4282
926.722	4369
926.818	4473
926.915	3311
927.011	3694
927.108	3120
927.204	3213
927.301	3410
927.397	3676
927.494	3985
927.590	3856
927.687	3315
927.783	3165
927.879	3886
927.976	5154
928.072	3129
928.168	3950
928.264	3089
928.361	3359
928.457	3351
928.553	4042
928.649	3688
928.745	3251
928.841	3528
928.937	2497
929.033	3779
929.129	3200
929.225	3309
929.321	3861
929.417	2754
929.513	3181
929.609	3858
929.705	3661
929.801	3513
929.897	3589
929.993	2598
930.089	3348
930.184	3094
930.280	2415
930.376	3829
930.471	3629
930.567	3399
930.663	2258
930.758	2735
930.854	3137
930.950	3700
931.045	2870
931.141	2400
931.236	3955
931.332	3944
931.427	3379
931.523	3704
931.618	4021
931.714	3045
931.809	3578
931.905	3474
932.000	4124
932.095	2381
932.191	3048
932.286	4607
932.381	3566
932.476	2955
932.572	2616
932.667	2236
932.762	3542
932.857	2708
932.952	3563
933.047	2836
933.142	2420
933.237	3161
933.332	3218
933.427	3168
933.522	2744
933.617	3205
933.712	2068
933.807	3096
933.902	3889
933.997	2655
934.092	2666
934.187	2139
934.282	3217
934.376	2869
934.471	3278
934.566	2517
934.661	2584
934.755	2724
934.850	3418
934.945	2982
935.039	2728
935.134	2848
935.228	2539
935.323	2750
935.417	3743
935.512	2508
935.606	2152
935.701	2223
935.795	2433
935.890	3022
935.984	3031
936.079	2081
936.173	1559
936.267	2470
936.362	2677
936.456	2399
936.550	2180
936.644	2784
936.738	2816
936.833	2160
936.927	1494
937.021	2322
937.115	2385
937.209	2388
937.303	2620
937.397	2486
937.491	2032
937.585	3307
937.679	3009
937.773	2822
937.867	2682
937.961	2424
938.055	2241
938.149	2948
938.243	2970
938.337	2413
938.430	2467
938.524	2392
938.618	2691
938.712	2657
938.805	3984
938.899	2862
938.993	3413
939.086	2864
939.180	2710
939.274	2424
939.367	3943
939.461	3499
939.554	3125
939.648	1851
939.741	2004
939.835	2268
939.928	2374
940.022	3481
940.115	2586
940.208	2560
940.302	2915
940.395	2526
940.488	3284
940.582	2334
940.675	1799
940.768	2110
940.861	2687
940.954	2529
941.048	2355
941.141	2566
941.234	2475
941.327	3691
941.420	4782
941.513	5223
941.606	3434
941.699	2608
941.792	2596
941.885	2491
941.978	3174
942.071	2407
942.164	2553
942.257	2482
942.349	1825
942.442	2374
942.535	3145
942.628	2335
942.721	2432
942.813	2018
942.906	3044
942.999	2522
943.091	1836
943.184	2205
943.277	2107
943.369	1504
943.462	2667
943.554	1986
943.647	1976
943.739	1742
943.832	2284
943.924	1433
944.017	2299
944.109	727
944.201	2531
944.294	2998
944.386	1915
944.478	2663
944.571	2206
944.663	1728
944.755	2153
944.847	2257
944.940	3068
945.032	1864
945.124	1895
945.216	2027
945.308	2256
945.400	2570
945.492	2759
945.584	1065
945.676	2493
945.768	3009
945.860	1869
945.952	2789
946.044	2668
946.136	2317
946.228	2423
946.320	1691
946.412	1755
946.503	3024
946.595	2871
946.687	3111
946.779	2395
946.870	1491
946.962	1247
947.054	1765
947.145	1867
947.237	1805
947.329	2191
947.420	2561
947.512	2671
947.603	1865
947.695	2532
947.786	1914
947.878	1789
947.969	1264
948.061	2240
948.152	1668
948.243	2175
948.335	1681
948.426	1803
948.517	2711
948.609	1745
948.700	1204
948.791	2204
948.882	1922
948.973	1909
949.065	1156
949.156	2601
949.247	2110
949.338	1809
949.429	900
949.520	1719
949.611	1528
949.702	1996
949.793	1897
949.884	2095
949.975	1758
950.066	2047
950.157	1279
950.247	2392
950.338	1447
950.429	1664
950.520	2132
950.611	2603
950.701	1707
950.792	2214
950.883	2163
950.973	2904
951.064	2592
951.155	2950
951.245	2281
951.336	1820
951.427	2103
951.517	2022
951.608	1929
951.698	1605
951.788	1330
951.879	1818
951.969	1078
952.060	2033
952.150	1066
952.240	2189
952.331	2130
952.421	2070
952.511	1734
952.602	1519
952.692	1339
952.782	2235
952.872	1362
952.962	1742
953.052	1802
953.143	1986
953.233	1607
953.323	1727
953.413	1891
953.503	1906
953.593	1227
953.683	1831
953.773	1998
953.863	1348
953.953	1261
954.042	1598
954.132	2142
954.222	1782
954.312	2047
954.402	1527
954.492	1747
954.581	2254
954.671	3223
954.761	2420
954.850	3003
954.940	2304
955.030	1313
955.119	1315
955.209	929
955.298	2176
955.388	1979
955.477	1832
955.567	1782
955.656	1183
955.746	972
955.835	1752
955.925	1898
956.014	1141
956.103	1682
956.193	1600
956.282	2329
956.371	1388
956.461	1079
956.550	1186
956.639	1980
956.728	1556
956.817	2077
956.906	1194
956.995	1665
957.085	2043
957.174	2337
957.263	1286
957.352	1250
957.441	2046
957.530	1696
957.619	1789
957.708	1018
957.796	1163
957.885	1143
957.974	1040
958.063	1396
958.152	2091
958.241	880
958.329	1379
958.418	1305
958.507	1134
958.596	1794
958.684	1634
958.773	1677
958.861	1375
958.950	1439
959.039	1173
959.127	1753
959.216	1334
959.304	1155
959.393	1596
959.481	1940
959.570	1450
959.658	2056
959.746	1292
959.835	1922
959.923	1981
960.011	3205
960.100	2147
960.188	1130
960.276	2040
960.365	1048
960.453	1247
960.541	875
960.629	1092
960.717	985
960.805	1582
960.893	1429
960.981	1261
961.069	1084
961.158	1828
961.245	1966
961.333	1700
961.421	1844
961.509	1658
961.597	1362
961.685	1525
961.773	1610
961.861	1284
961.949	1531
962.036	1518
962.124	1391
962.212	1506
962.299	1535
962.387	1608
962.475	699
962.562	687
962.650	1282
962.738	1154
962.825	1181
962.913	1675
963.000	1468
963.088	1000
963.175	1097
963.263	1459
963.350	1952
963.438	1817
963.525	2036
963.612	1670
963.700	2438
963.787	6071
963.874	12444
963.962	6585
964.049	1323
964.136	1048
964.223	1319
964.310	1242
964.398	1397
964.485	1577
964.572	1862
964.659	2090
964.746	2822
964.833	3126
964.920	1752
965.007	1004
965.094	1248
965.181	1270
965.268	1322
965.355	1975
965.441	1075
965.528	1909
965.615	903
965.702	1316
965.789	1422
965.875	1098
965.962	1502
966.049	1215
966.136	1170
966.222	1576
966.309	1197
966.395	1161
966.482	1820
966.569	1328
966.655	1799
966.742	1151
966.828	990
966.915	1321
967.001	1202
967.087	2185
967.174	814
967.260	1594
967.347	1681
967.433	2988
967.519	4186
967.605	8778
967.692	3783
967.778	1838
967.864	324
967.950	1608
968.036	1032
968.123	1491
968.209	844
968.295	1120
968.381	974
968.467	1154
968.553	456
968.639	1048
968.725	1260
968.811	1245
968.897	2447
968.983	2668
969.069	2055
969.154	1313
969.240	1198
969.326	1935
969.412	486
969.497	1300
969.583	361
969.669	1205
969.755	600
969.840	820
969.926	1670
970.012	1812
970.097	1454
970.183	1603
970.268	2527
970.354	1717
970.439	1534
970.525	3455
970.610	5656
970.696	3444
970.781	1281
970.866	1135
970.952	-180
971.037	1147
971.122	1502
971.208	797
971.293	1679
971.378	381
971.463	946
971.549	742
971.634	296
971.719	1186
971.804	1271
971.889	1717
971.974	1538
972.059	1688
972.144	1113
972.229	906
972.314	915
972.399	1291
972.484	1193
972.569	905
972.654	684
972.739	1420
972.824	3104
972.908	3567
972.993	1491
973.078	1678
973.163	1422
973.247	698
973.332	677
973.417	1310
973.501	1207
973.586	1185
973.671	1451
973.755	1594
973.840	1738
973.924	1346
974.009	1464
974.093	1287
974.178	1955
974.262	1235
974.346	2799
974.431	2495
974.515	1613
974.600	584
974.684	1277
974.768	1044
974.852	959
974.937	611
975.021	541
975.105	1282
975.189	1195
975.273	1135
975.358	1053
975.442	757
975.526	405
975.610	1364
975.694	825
975.778	816
975.862	432
975.946	988
976.030	1437
976.114	1256
976.198	878
976.281	737
976.365	856
976.449	1070
976.533	1180
976.617	1234
976.700	1353
976.784	1287
976.868	309
976.951	1802
977.035	1716
977.119	1689
977.202	597
977.286	1385
977.369	874
977.453	1192
977.536	1192
977.620	1702
977.703	1792
977.787	1240
977.870	1481
977.953	865
978.037	1242
978.120	1031
978.203	1180
978.287	2585
978.370	3941
978.453	2127
978.536	127
978.620	1280
978.703	1399
978.786	2108
978.869	1777
978.952	1257
979.035	419
979.118	1110
979.201	1137
979.284	340
979.367	827
979.450	937
979.533	780
979.616	1145
979.699	187
979.782	1130
979.865	1468
979.948	1319
980.030	1841
980.113	1634
980.196	944
980.279	348
980.361	572
980.444	708
980.526	720
980.609	1208
980.692	1445
980.774	1161
980.857	749
980.939	1506
981.022	1084
981.104	1326
981.187	545
981.269	1459
981.352	1596
981.434	795
981.516	1176
981.599	903
981.681	1181
981.763	1005
981.846	1139
981.928	669
982.010	331
982.092	628
982.174	1044
982.256	251
982.339	654
982.421	273
982.503	519
982.585	754
982.667	509
982.749	590
982.831	703
982.913	770
982.995	1179
983.077	1362
983.158	814
983.240	1611
983.322	1085
983.404	1336
983.486	1536
983.568	1342
983.649	1614
983.731	1477
983.813	1318
983.894	1784
983.976	875
984.058	813
984.139	610
984.221	226
984.302	1252
984.384	815
984.465	1396
984.547	840
984.628	849
984.710	-72
984.791	1081
984.872	536
984.954	284
985.035	935
985.116	665
985.198	891
985.279	1385
985.360	510
985.441	414
985.522	1206
985.604	762
985.685	567
985.766	1212
985.847	816
985.928	988
986.009	468
986.090	-23
986.171	1544
986.252	842
986.333	91
986.414	1500
986.495	665
986.576	2105
986.656	712
986.737	1598
986.818	539
986.899	747
986.980	724
987.060	806
987.141	1120
987.222	731
987.302	996
987.383	1668
987.464	1318
987.544	1210
987.625	1031
987.705	1717
987.786	1619
987.866	1017
987.947	1059
988.027	1228
988.108	1299
988.188	820
988.268	844
988.349	620
988.429	1751
988.509	807
988.589	1369
988.670	179
988.750	1657
988.830	965
988.910	1682
988.990	1429
989.070	1391
989.151	1196
989.231	734
989.311	630
989.391	712
989.471	1275
989.551	1606
989.631	434
989.711	1367
989.791	669
989.870	861
989.950	807
990.030	1303
990.110	1197
990.190	842
990.269	1301
990.349	792
990.429	1182
990.509	1587
990.588	-154
990.668	688
990.747	600
990.827	807
990.907	222
990.986	150
991.066	-17
991.145	263
991.225	615
991.304	867
991.383	1438
991.463	927
991.542	709
991.622	346
991.701	944
991.780	259
991.859	848
991.939	388
992.018	168
992.097	744
992.176	624
992.256	669
992.335	342
992.414	11
992.493	585
992.572	930
992.651	1112
992.730	887
992.809	-10
992.888	1172
992.967	-151
993.046	803
993.125	121
993.203	53
993.282	728
993.361	57
993.440	1067
993.519	299
993.597	398
993.676	499
993.755	645
993.834	765
993.912	230
993.991	480
994.069	514
994.148	1046
994.226	486
994.305	411
994.384	-89
994.462	583
994.540	728
994.619	195
994.697	640
994.776	280
994.854	125
994.932	909
995.011	91
995.089	213
995.167	-178
995.245	734
995.324	-579
995.402	-91
995.480	-930
995.558	24
995.636	-81
995.714	-922
995.792	253
995.870	443
995.948	34
996.026	318
996.104	-103
996.182	566
996.260	-253
996.338	233
996.416	-5
996.494	403
996.572	312
996.649	164
996.727	75
996.805	739
996.883	439
996.960	442
997.038	712
997.116	-358
997.193	336
997.271	524
997.348	-478
997.426	443
997.504	163
997.581	571
997.658	50
997.736	-232
997.813	-878
997.891	-283
997.968	-117
998.046	97
998.123	431
998.200	381
998.277	-77
998.355	220
998.432	84
998.509	318
998.586	-125
998.663	58
998.741	-443
998.818	-534
998.895	114
998.972	-165
999.049	-380
999.126	394
999.203	343
999.280	278
999.357	-373
999.434	-292
999.511	817
999.587	436
999.664	-15
999.741	4
999.818	568
999.895	389
999.971	-1110
1000.048	-86
1000.125	419
1000.202	38
1000.278	-249
1000.355	-215
1000.431	-165
1000.508	-138
1000.584	180
1000.661	433
1000.738	316
1000.814	-257
1000.890	140
1000.967	-67
1001.043	-571
1001.120	-422
1001.196	151
1001.272	-28
1001.349	-67
1001.425	-68
1001.501	-936
1001.577	-763
1001.654	-498
1001.730	-305
1001.806	-218
1001.882	-661
1001.958	-103
1002.034	-149
1002.110	-583
1002.186	-234
1002.262	-655
1002.338	-143
1002.414	114
1002.490	-870
1002.566	-677
1002.642	-606
1002.718	-236
1002.794	27
1002.870	-430
1002.945	330
1003.021	7
1003.097	-482
1003.173	-364
1003.248	-201
1003.324	-886
1003.400	-40
1003.475	-173
1003.551	-796
1003.626	-742
1003.702	-744
1003.777	-444
1003.853	106
1003.928	-1282
1004.004	-781
1004.079	-498
1004.155	-686
1004.230	-484
1004.305	-193
1004.381	-498
1004.456	-275
1004.531	224
1004.607	-727
1004.682	-564
1004.757	-635
1004.832	-246
1004.907	-53
1004.982	388
1005.057	195
1005.133	716
1005.208	-1355
1005.283	-118
1005.358	-162
1005.433	-934
1005.508	357
1005.583	-476
1005.657	-340
1005.732	254
1005.807	-501
1005.882	-699
1005.957	146
1006.032	280
1006.106	-146
1006.181	-313
1006.256	-304
1006.331	-1035
1006.405	-840
1006.480	-261
1006.554	68
1006.629	659
1006.704	-472
1006.778	-753
1006.853	-124
1006.927	-673
1007.002	-581
1007.076	-295
1007.150	-1036
1007.225	-954
1007.299	-965
1007.373	-327
1007.448	-376
1007.522	-871
1007.596	-321
1007.671	-1203
1007.745	146
1007.819	-11
1007.893	-539
1007.967	-167
1008.041	-570
1008.115	73
1008.190	-700
1008.264	-345
1008.338	-698
1008.412	-257
1008.486	-920
1008.560	89
1008.633	273
1008.707	-357
1008.781	-488
1008.855	-479
1008.929	-923
1009.003	79
1009.076	-59
1009.150	-146
1009.224	-5
1009.298	-467
1009.371	-418
1009.445	-660
1009.519	-149
1009.592	-691
1009.666	-6
1009.739	-18
1009.813	-324
1009.886	-803
1009.960	-1118
1010.033	-101
1010.107	230
1010.180	-1475
1010.253	-295
1010.327	363
1010.400	-818
1010.473	-460
1010.547	-241
1010.620	-419
1010.693	-793
1010.766	-565
1010.840	-175
1010.913	-144
1010.986	-447
1011.059	-635
1011.132	-359
1011.205	227
1011.278	-531
1011.351	-303
1011.424	-578
1011.497	-275
1011.570	-323
1011.643	-587
1011.716	346
1011.789	-133
1011.862	-243
1011.934	-3
1012.007	236
1012.080	-335
1012.153	-511
1012.225	-419
1012.298	-270
1012.371	-316
1012.443	-613
1012.516	-745
1012.588	-747
1012.661	-218
1012.733	-432
1012.806	-270
1012.879	185
1012.951	-948
1013.023	-182
1013.096	-324
1013.168	-337
1013.241	-415
1013.313	-198
1013.385	-530
1013.458	-1083
1013.530	-353
1013.602	-492
1013.674	-540
1013.746	-615
1013.819	-805
1013.891	-344
1013.963	-1121
1014.035	117
1014.107	-757
1014.179	106
1014.251	-663
1014.323	-370
1014.395	-321
1014.467	-264
1014.539	-56
1014.611	-467
1014.683	-377
1014.754	-360
1014.826	-1151
1014.898	89
1014.970	-1097
1015.042	83
1015.113	-1299
1015.185	-733
1015.257	-1097
1015.328	187
1015.400	-1043
1015.471	-297
1015.543	-914
1015.615	-321
1015.686	-1063
1015.757	-414
1015.829	-388
1015.901	-1204
1015.972	-369
1016.043	-528
1016.115	-638
1016.186	99
1016.257	-179
1016.328	-483
1016.400	-640
1016.471	-627
1016.542	-407
1016.613	-185
1016.685	-1028
1016.756	-457
1016.827	-324
1016.898	-291
1016.969	348
1017.040	-353
1017.111	-907
1017.182	-907
1017.253	-588
1017.324	-1131
1017.395	-445
1017.466	-946
1017.537	-589
1017.608	-927
1017.678	-924
1017.749	-737
1017.820	-839
1017.891	-908
1017.961	-35
1018.032	119
1018.103	-1072
1018.173	-382
1018.244	-151
1018.315	-815
1018.385	-465
1018.456	-912
1018.526	-581
1018.597	172
1018.667	-368
1018.738	-656
1018.808	-651
1018.878	-901
1018.949	-854
1019.019	-477
1019.089	-550
1019.160	193
1019.230	-1086
1019.300	85
1019.371	-474
1019.441	231
1019.511	254
1019.581	-835
1019.651	130
1019.721	-1438
1019.791	-790
1019.861	-68
1019.931	105
1020.001	-524
1020.071	-392
1020.141	-834
1020.211	-1008
1020.281	-778
1020.351	-973
1020.421	-1036
1020.491	-574
1020.560	-489
1020.630	-547
1020.700	-676
1020.770	-921
1020.839	-564
1020.909	-417
1020.979	-768
1021.048	-1095
1021.118	302
1021.187	-77
1021.257	-411
1021.326	-393
1021.396	-665
1021.465	-299
1021.535	-115
1021.604	-1338
1021.674	-318
1021.743	230
1021.812	-681
1021.882	-1177
1021.951	-893
1022.020	-950
1022.089	-303
1022.159	-603
1022.228	-539
1022.297	-490
1022.366	-454
1022.435	-327
1022.504	-428
1022.573	-993
1022.642	-554
1022.711	-327
1022.781	-725
1022.849	-403
1022.918	-445
1022.987	-1368
1023.056	-825
1023.125	-753
1023.194	-778
1023.263	-1293
1023.331	-732
1023.400	-1123
1023.469	-430
1023.538	-99
1023.606	-887
1023.675	-996
1023.744	-326
1023.812	-983
1023.881	-72
1023.949	-206
1024.018	-531
1024.086	-441
1024.155	-716
1024.223	-1047
1024.292	-969
1024.360	-1449
1024.429	-663
1024.497	-343
1024.565	-533
1024.634	-188
1024.702	-607
1024.770	-888
1024.838	-1158
1024.907	-1169
1024.975	-480
1025.043	-877
1025.111	-827
1025.179	-272
1025.247	-1602
1025.315	-940
1025.383	-249
1025.451	-1742
1025.519	-799
1025.587	-1449
1025.655	-869
1025.723	-592
1025.791	-565
1025.859	-513
1025.927	-645
1025.995	-550
1026.062	-207
1026.130	-1029
1026.198	-431
1026.266	-1025
1026.333	-733
1026.401	-662
1026.469	-1649
1026.536	-577
1026.604	-145
1026.671	-382
1026.739	-264
1026.806	-617
1026.874	-536
1026.941	-1116
1027.009	-1504
1027.076	-1242
1027.144	12
1027.211	-1137
1027.278	-457
1027.345	-814
1027.413	-1556
1027.480	-1115
1027.547	-731
1027.614	-1160
1027.682	-90
1027.749	-406
1027.816	-743
1027.883	-417
1027.950	-663
1028.017	-704
1028.084	-908
1028.151	-1371
1028.218	-530
1028.285	-680
1028.352	-979
1028.419	-624
1028.486	-1044
1028.553	-1212
1028.619	-915
1028.686	-377
1028.753	-1302
1028.820	-1392
1028.886	-1210
1028.953	-666
1029.020	-306
1029.086	-572
1029.153	-786
1029.220	-1561
1029.286	-1574
1029.353	-799
1029.419	-952
1029.486	-1067
1029.552	-1094
1029.619	-578
1029.685	-865
1029.751	-654
1029.818	-473
1029.884	-1014
1029.951	-695
1030.017	-949
1030.083	-646
1030.149	-1365
1030.216	-905
1030.282	-591
1030.348	-1276
1030.414	-1268
1030.480	-1081
1030.546	-1184
1030.612	-175
1030.678	-1215
1030.744	-1361
1030.810	-1207
1030.876	-678
1030.942	-1043
1031.008	-1150
1031.074	-524
1031.140	-233
1031.206	-1540
1031.272	-1704
1031.337	-859
1031.403	-632
1031.469	-1106
1031.534	-799
1031.600	-1146
1031.666	-1271
1031.731	-1341
1031.797	-1428
1031.863	-865
1031.928	-817
1031.994	-1308
1032.059	-1028
1032.125	-878
1032.190	-814
1032.256	-1050
1032.321	-748
1032.386	-1094
1032.452	-106
1032.517	-1320
1032.582	-987
1032.647	-1474
1032.713	-1701
1032.778	-1008
1032.843	-483
1032.908	-904
1032.974	-555
1033.039	-634
1033.104	-436
1033.169	-706
1033.234	-1035
1033.299	-718
1033.364	597
1033.429	-154
1033.494	-106
1033.559	349
1033.624	125
1033.688	-664
1033.753	-917
1033.818	-924
1033.883	-591
1033.948	-1008
1034.013	-892
1034.077	-814
1034.142	34
1034.207	-565
1034.271	-112
1034.336	127
1034.400	868
1034.465	1611
1034.530	1607
1034.594	1573
1034.658	202
1034.723	-634
1034.787	-384
1034.852	-953
1034.916	-365
1034.981	-1210
1035.045	-430
1035.109	-692
1035.173	-613
1035.238	-1021
1035.302	-590
1035.366	-1699
1035.430	-291
1035.495	-1113
1035.559	-501
1035.623	-891
1035.687	-1205
1035.751	-1635
1035.815	-938
1035.879	-1091
1035.943	-1379
1036.007	-447
1036.071	-1196
1036.135	-765
1036.198	-218
1036.262	-773
1036.326	-788
1036.390	-1002
1036.454	0
1036.517	-497
1036.581	136
1036.645	545
1036.709	531
1036.772	1598
1036.836	1581
1036.900	151
1036.963	-883
1037.026	-1132
1037.090	-1103
1037.154	-366
1037.217	-794
1037.280	-1080
1037.344	-1483
1037.407	-1409
1037.471	-168
1037.534	-1360
1037.597	-1972
1037.661	-977
1037.724	-1406
1037.787	-746
1037.850	-924
1037.913	-589
1037.977	-433
1038.040	-1367
1038.103	215
1038.166	-568
1038.229	-985
1038.292	-1088
1038.355	-618
1038.418	-1879
1038.481	-1089
1038.544	-1221
1038.607	-747
1038.670	-1495
1038.732	-628
1038.795	-1517
1038.858	-1779
1038.921	-969
1038.984	-1180
1039.046	-605
1039.109	-757
1039.172	-1130
1039.234	-1446
1039.297	-655
1039.360	-1044
1039.422	-723
1039.485	-1139
1039.547	-653
1039.610	-667
1039.672	-463
1039.734	-337
1039.797	-1514
1039.859	-1012
1039.922	-1423
1039.984	-933
1040.046	-1066
1040.109	-1410
1040.171	-898
1040.233	-1181
1040.295	-787
1040.358	-1476
1040.420	-1220
1040.482	-1225
1040.544	-1434
1040.606	-1610
1040.668	-1464
1040.730	-1025
1040.792	-1523
1040.854	-1349
1040.916	-1835
1040.978	-1511
1041.040	-498
1041.102	-1109
1041.164	-1499
1041.225	-910
1041.287	-544
1041.349	-440
1041.411	-858
1041.472	-1970
1041.534	-715
1041.596	-860
1041.657	-789
1041.719	-1627
1041.781	-827
1041.842	-861
1041.904	-1198
1041.965	-1583
1042.027	-949
1042.088	-492
1042.150	-665
1042.211	-1470
1042.272	-1472
1042.334	-31
1042.395	-929
1042.456	-1039
1042.518	-1146
1042.579	-525
1042.640	-959
1042.701	-1250
1042.763	-952
1042.824	-1321
1042.885	-1391
1042.946	-1321
1043.007	-1153
1043.068	-325
1043.129	-1585
1043.190	-1107
1043.251	-1669
1043.312	-1493
1043.373	-564
1043.434	-725
1043.495	-1752
1043.556	-676
1043.616	-1102
1043.677	-713
1043.738	-1175
1043.799	-868
1043.859	-1143
1043.920	-827
1043.981	-1138
1044.041	-553
1044.102	-1313
1044.162	-255
1044.223	-1371
1044.284	-1414
1044.344	-1618
1044.405	-1097
1044.465	-1186
1044.525	-1395
1044.586	-654
1044.646	-1459
1044.707	-647
1044.767	-1353
1044.827	-1285
1044.887	-1115
1044.948	-1261
1045.008	-1518
1045.068	-1207
1045.128	-1107
1045.188	-992
1045.249	-1523
1045.309	-864
1045.369	-351
1045.429	-1364
1045.489	-1062
1045.549	-856
1045.609	-198
1045.669	-537
1045.729	-627
1045.789	-774
1045.848	-232
1045.908	-527
1045.968	-928
1046.028	-1316
1046.088	-848
1046.147	-364
1046.207	-475
1046.267	-760
1046.326	-798
1046.386	-296
1046.446	-449
1046.505	86
1046.565	191
1046.624	-49
1046.684	140
1046.743	-565
1046.803	-335
1046.862	315
1046.922	0
