'Start Wavelength	183.907
'End Wavelength	1046.922
'Gate Delay	5.000
'Gate Width (ms)	1.050
'Laser Output Level	0.000
'X Position	0.000
'Y Position	0.000
'Z Position	0.000
'Grid Point Number	1.000
'Shot Number	100.000
183.907	1003.000
183.977	432.000
184.047	540
184.116	-24
184.186	265
184.256	718
184.325	166
184.395	197
184.465	563
184.534	454
184.604	331
184.674	-99
184.743	123
184.813	-381
184.883	314
184.952	318
185.022	52
185.092	370
185.161	928
185.231	-424
185.301	-352
185.370	591
185.440	-475
185.509	254
185.579	-278
185.649	369
185.718	-232
185.788	-180
185.857	323
185.927	276
185.996	-320
186.066	474
186.136	161
186.205	526
186.275	202
186.344	-408
186.414	408
186.483	-489
186.553	828
186.622	708
186.692	35
186.761	66
186.831	247
186.900	99
186.970	-414
187.039	444
187.109	622
187.178	382
187.248	53
187.317	-76
187.387	689
187.456	112
187.526	-91
187.595	-521
187.664	246
187.734	684
187.803	471
187.873	279
187.942	941
188.012	-265
188.081	-127
188.150	46
188.220	605
188.289	434
188.358	536
188.428	784
188.497	201
188.567	-81
188.636	402
188.705	-478
188.775	356
188.844	382
188.913	880
188.983	259
189.052	196
189.121	194
189.191	469
189.260	251
189.329	431
189.399	259
189.468	410
189.537	216
189.606	547
189.676	255
189.745	333
189.814	463
189.883	387
189.953	463
190.022	736
190.091	1477
190.161	909
190.230	209
190.299	286
190.368	-354
190.437	-355
190.507	229
190.576	183
190.645	368
190.714	-27
190.783	-375
190.853	130
190.922	388
190.991	-412
191.060	283
191.129	-295
191.198	-441
191.268	372
191.337	328
191.406	495
191.475	220
191.544	128
191.613	784
191.682	113
191.752	93
191.821	-8
191.890	763
191.959	225
192.028	-297
192.097	818
192.166	-11
192.235	189
192.304	164
192.373	-339
192.442	21
192.511	136
192.580	167
192.650	898
192.719	173
192.788	-82
192.857	533
192.926	85
192.995	418
193.064	-99
193.133	1371
193.202	906
193.271	879
193.340	1043
193.409	960
193.478	1419
193.547	1457
193.615	1208
193.684	1014
193.753	713
193.822	918
193.891	95
193.960	150
194.029	-151
194.098	594
194.167	128
194.236	549
194.305	752
194.374	-611
194.443	715
194.512	-206
194.580	593
194.649	886
194.718	253
194.787	246
194.856	473
194.925	360
194.994	663
195.062	-294
195.131	401
195.200	611
195.269	813
195.338	338
195.407	656
195.475	893
195.544	1436
195.613	675
195.682	-5
195.751	868
195.819	541
195.888	1225
195.957	867
196.026	678
196.094	585
196.163	911
196.232	378
196.301	161
196.369	1132
196.438	1093
196.507	316
196.576	157
196.644	304
196.713	1116
196.782	348
196.850	357
196.919	302
196.988	780
197.056	473
197.125	749
197.194	7
197.262	194
197.331	1193
197.400	310
197.468	170
197.537	495
197.606	-231
197.674	1128
197.743	991
197.812	336
197.880	1520
197.949	965
198.017	1940
198.086	675
198.155	904
198.223	1618
198.292	1776
198.360	403
198.429	267
198.497	320
198.566	1371
198.635	253
198.703	658
198.772	1117
198.840	2767
198.909	761
198.977	773
199.046	644
199.114	692
199.183	524
199.251	785
199.320	885
199.388	161
199.457	-320
199.525	577
199.594	579
199.662	-242
199.731	466
199.799	774
199.867	377
199.936	1074
200.004	824
200.073	677
200.141	804
200.210	593
200.278	1014
200.346	401
200.415	1173
200.483	815
200.552	553
200.620	240
200.688	619
200.757	988
200.825	323
200.893	680
200.962	913
201.030	147
201.098	836
201.167	643
201.235	865
201.303	362
201.372	347
201.440	875
201.508	1068
201.577	469
201.645	474
201.713	474
201.781	949
201.850	1350
201.918	744
201.986	958
202.055	558
202.123	622
202.191	294
202.259	-154
202.327	529
202.396	1264
202.464	661
202.532	1465
202.600	2916
202.669	1031
202.737	788
202.805	179
202.873	990
202.941	1149
203.009	972
203.078	889
203.146	485
203.214	867
203.282	428
203.350	993
203.418	1378
203.487	1042
203.555	528
203.623	669
203.691	446
203.759	369
203.827	471
203.895	717
203.963	1083
204.031	899
204.099	286
204.168	407
204.236	875
204.304	812
204.372	1039
204.440	674
204.508	481
204.576	560
204.644	1128
204.712	284
204.780	517
204.848	539
204.916	625
204.984	-45
205.052	763
205.120	936
205.188	628
205.256	166
205.324	918
205.392	474
205.460	650
205.528	475
205.596	897
205.664	297
205.732	334
205.799	3021
205.867	2710
205.935	224
206.003	437
206.071	100
206.139	412
206.207	1308
206.275	1103
206.343	548
206.411	1037
206.478	385
206.546	514
206.614	450
206.682	237
206.750	1246
206.818	1674
206.885	865
206.953	426
207.021	1216
207.089	741
207.157	102
207.225	487
207.292	413
207.360	929
207.428	853
207.496	468
207.563	1373
207.631	524
207.699	564
207.767	301
207.834	685
207.902	379
207.970	821
208.038	466
208.105	538
208.173	990
208.241	1271
208.309	1850
208.376	971
208.444	1712
208.512	1533
208.579	1138
208.647	1863
208.715	405
208.782	807
208.850	1371
208.918	833
208.985	769
209.053	787
209.120	955
209.188	811
209.256	634
209.323	632
209.391	1277
209.459	1309
209.526	1497
209.594	1120
209.661	1149
209.729	1284
209.796	892
209.864	926
209.932	1189
209.999	842
210.067	945
210.134	1652
210.202	2042
210.269	1904
210.337	1806
210.404	1043
210.472	544
210.539	1041
210.607	1194
210.674	2041
210.742	31
210.809	1422
210.877	1786
210.944	1104
211.012	805
211.079	2272
211.146	704
211.214	1330
211.281	1752
211.349	1510
211.416	1203
211.484	1451
211.551	613
211.618	1524
211.686	958
211.753	964
211.821	1524
211.888	878
211.955	1178
212.023	922
212.090	1327
212.157	1536
212.225	1504
212.292	2369
212.359	5477
212.427	8864
212.494	1893
212.561	1783
212.629	1668
212.696	1022
212.763	1050
212.831	945
212.898	1147
212.965	1448
213.032	1423
213.100	2146
213.167	1439
213.234	838
213.301	1110
213.369	1337
213.436	1934
213.503	1281
213.570	1193
213.638	1491
213.705	788
213.772	765
213.839	2051
213.906	1033
213.973	1542
214.041	1573
214.108	1102
214.175	1094
214.242	1703
214.309	992
214.376	1677
214.444	1767
214.511	1676
214.578	964
214.645	1651
214.712	1362
214.779	2108
214.846	1279
214.913	1820
214.980	2426
215.048	2906
215.115	2008
215.182	1793
215.249	1219
215.316	2070
215.383	1502
215.450	1143
215.517	1265
215.584	1463
215.651	1149
215.718	1826
215.785	907
215.852	1519
215.919	1331
215.986	2480
216.053	1362
216.120	1150
216.187	855
216.254	1212
216.321	1561
216.388	1430
216.455	1553
216.522	2109
216.589	2537
216.656	3813
216.722	2538
216.789	2440
216.856	2316
216.923	2240
216.990	1804
217.057	2273
217.124	2257
217.191	1929
217.258	2613
217.324	2890
217.391	2716
217.458	2825
217.525	1390
217.592	1879
217.659	1042
217.725	2080
217.792	3416
217.859	2027
217.926	1430
217.993	2040
218.059	1020
218.126	1344
218.193	1464
218.260	857
218.327	1090
218.393	1244
218.460	431
218.527	781
218.594	1806
218.660	2633
218.727	2313
218.794	1103
218.860	610
218.927	1052
218.994	179
219.061	1133
219.127	1928
219.194	2382
219.261	932
219.327	227
219.394	1067
219.461	620
219.527	1556
219.594	2132
219.661	1451
219.727	1385
219.794	1587
219.860	1206
219.927	1929
219.994	3115
220.060	4051
220.127	2226
220.193	1597
220.260	1917
220.326	2546
220.393	4335
220.460	5145
220.526	3095
220.593	2303
220.659	2203
220.726	3406
220.792	6515
220.859	4420
220.925	7404
220.992	8434
221.058	9649
221.125	6996
221.191	5395
221.258	2214
221.324	1609
221.391	937
221.457	1352
221.524	1348
221.590	2953
221.657	7823
221.723	3556
221.789	4559
221.856	3236
221.922	1635
221.989	1839
222.055	1247
222.121	1828
222.188	2198
222.254	2164
222.321	1528
222.387	1028
222.453	1132
222.520	643
222.586	1047
222.652	481
222.719	932
222.785	645
222.851	1023
222.918	1808
222.984	1952
223.050	732
223.116	1050
223.183	608
223.249	625
223.315	301
223.382	874
223.448	630
223.514	556
223.580	579
223.647	1138
223.713	461
223.779	759
223.845	392
223.911	1187
223.978	371
224.044	692
224.110	371
224.176	988
224.242	1426
224.309	1033
224.375	876
224.441	1142
224.507	867
224.573	939
224.639	772
224.705	470
224.772	1083
224.838	1279
224.904	1611
224.970	1082
225.036	1351
225.102	1579
225.168	1261
225.234	1433
225.300	770
225.366	-37
225.432	546
225.499	453
225.565	1362
225.631	1624
225.697	1736
225.763	1367
225.829	2308
225.895	2233
225.961	3554
226.027	1928
226.093	2428
226.159	2724
226.225	4636
226.291	10986
226.357	11849
226.423	5876
226.489	4008
226.554	3317
226.620	2363
226.686	3793
226.752	4623
226.818	9823
226.884	19243
226.950	10918
227.016	4233
227.082	3039
227.148	1971
227.214	2534
227.279	2484
227.345	1876
227.411	2215
227.477	3131
227.543	5959
227.609	3581
227.674	2608
227.740	1449
227.806	2007
227.872	1335
227.938	1864
228.003	2183
228.069	1321
228.135	730
228.201	1242
228.267	2001
228.332	2224
228.398	2284
228.464	1640
228.530	799
228.595	607
228.661	1228
228.727	2645
228.792	1898
228.858	1621
228.924	1494
228.990	1849
229.055	1509
229.121	1557
229.187	763
229.252	1600
229.318	924
229.384	1381
229.449	2123
229.515	350
229.581	-211
229.646	1829
229.712	1267
229.777	4304
229.843	2741
229.909	3121
229.974	3250
230.040	1675
230.105	3077
230.171	2490
230.236	3650
230.302	4281
230.368	2764
230.433	2259
230.499	1867
230.564	2397
230.630	1621
230.695	1827
230.761	2146
230.826	1612
230.892	2634
230.957	1602
231.023	1199
231.088	1650
231.154	1232
231.219	1813
231.284	1953
231.350	1760
231.415	1451
231.481	1196
231.546	605
231.612	1406
231.677	810
231.742	574
231.808	2413
231.873	1153
231.939	599
232.004	3643
232.069	1393
232.135	1924
232.200	1108
232.265	1559
232.331	1262
232.396	1640
232.461	358
232.527	582
232.592	595
232.657	1340
232.723	2366
232.788	536
232.853	823
232.918	787
232.984	1310
233.049	1121
233.114	1983
233.179	2145
233.245	3448
233.310	2099
233.375	524
233.440	776
233.506	717
233.571	1345
233.636	1390
233.701	1602
233.766	2123
233.832	1360
233.897	1646
233.962	1030
234.027	590
234.092	2094
234.157	1497
234.222	1871
234.288	4166
234.353	7021
234.418	4803
234.483	3156
234.548	2633
234.613	2639
234.678	1942
234.743	2568
234.808	6522
234.873	2986
234.938	2347
235.004	1695
235.069	2221
235.134	2043
235.199	1593
235.264	1742
235.329	1183
235.394	1371
235.459	2777
235.524	1656
235.589	2462
235.654	2021
235.719	973
235.784	1810
235.849	2017
235.913	3002
235.978	4289
236.043	2886
236.108	2401
236.173	2279
236.238	2430
236.303	1670
236.368	1798
236.433	3307
236.498	4260
236.563	3746
236.627	9383
236.692	24235
236.757	11067
236.822	6134
236.887	4542
236.952	3863
237.017	3880
237.081	4134
237.146	5676
237.211	10216
237.276	29779
237.341	28951
237.405	11326
237.470	5819
237.535	3900
237.600	3390
237.664	2087
237.729	2307
237.794	4954
237.859	5197
237.923	4419
237.988	2086
238.053	3657
238.118	3655
238.182	11242
238.247	5471
238.312	3450
238.376	2942
238.441	1687
238.506	2418
238.570	1646
238.635	1630
238.700	1686
238.764	1587
238.829	5479
238.893	3536
238.958	2518
239.023	1678
239.087	2033
239.152	1807
239.216	1631
239.281	1792
239.346	1717
239.410	1358
239.475	3317
239.539	10120
239.604	4509
239.668	1668
239.733	2020
239.797	4506
239.862	9319
239.926	7360
239.991	2251
240.055	2577
240.120	1723
240.184	989
240.249	1378
240.313	1280
240.378	2852
240.442	6961
240.507	6744
240.571	2549
240.635	4504
240.700	3987
240.764	1287
240.829	1465
240.893	910
240.957	1935
241.022	6582
241.086	7141
241.151	2173
241.215	1649
241.279	2902
241.344	3152
241.408	2690
241.472	2054
241.537	2116
241.601	2688
241.665	1046
241.730	1833
241.794	2894
241.858	2235
241.922	1933
241.987	1885
242.051	1570
242.115	2025
242.179	1561
242.244	1379
242.308	2248
242.372	2410
242.436	2008
242.501	2041
242.565	1221
242.629	1775
242.693	2494
242.757	1687
242.822	1404
242.886	1644
242.950	1201
243.014	1420
243.078	2597
243.142	2325
243.206	1965
243.271	1495
243.335	2161
243.399	4185
243.463	19960
243.527	24542
243.591	6901
243.655	3759
243.719	1752
243.783	3549
243.847	4584
243.911	5287
243.975	6446
244.040	2971
244.104	2900
244.168	2038
244.232	3792
244.296	4342
244.360	5069
244.424	3062
244.488	1744
244.552	2196
244.615	772
244.679	1472
244.743	3543
244.807	1620
244.871	1388
244.935	1157
244.999	1155
245.063	1901
245.127	2701
245.191	5064
245.255	2546
245.319	3661
245.383	2180
245.446	2249
245.510	1386
245.574	1928
245.638	1798
245.702	3268
245.766	5982
245.829	2700
245.893	1979
245.957	1999
246.021	2573
246.085	2676
246.149	4376
246.212	11314
246.276	11045
246.340	4978
246.404	2930
246.467	4733
246.531	4289
246.595	4121
246.659	3288
246.722	3414
246.786	4031
246.850	5229
246.913	4328
246.977	2170
247.041	2650
247.104	2188
247.168	3605
247.232	10976
247.295	17120
247.359	5869
247.423	5022
247.486	6013
247.550	3582
247.614	3431
247.677	4330
247.741	2810
247.804	2455
247.868	3478
247.932	12002
247.995	12603
248.059	4314
248.122	2783
248.186	4609
248.249	10551
248.313	33699
248.376	24501
248.440	13038
248.503	5482
248.567	5588
248.630	8226
248.694	9007
248.757	18266
248.821	27085
248.884	12953
248.948	17572
249.011	23219
249.075	36584
249.138	20514
249.202	8237
249.265	5994
249.328	5837
249.392	5448
249.455	4687
249.519	4089
249.582	5685
249.645	8417
249.709	5063
249.772	4714
249.835	3886
249.899	3699
249.962	3858
250.025	3876
250.089	14954
250.152	10986
250.215	5408
250.279	4512
250.342	4909
250.405	3892
250.468	3790
250.532	5510
250.595	8781
250.658	47060
250.721	34438
250.785	13153
250.848	8202
250.911	5300
250.974	5318
251.038	11806
251.101	14389
251.164	6817
251.227	8442
251.290	7176
251.354	14765
251.417	54642
251.480	26280
251.543	37656
251.606	86953
251.669	35758
251.732	18892
251.795	23298
251.859	27969
251.922	49683
251.985	17564
252.048	9230
252.111	6339
252.174	7468
252.237	21631
252.300	29958
252.363	45332
252.426	56396
252.489	19832
252.552	10947
252.615	7163
252.678	11173
252.741	25875
252.804	42726
252.867	59289
252.930	30077
252.993	16326
253.056	10526
253.119	6081
253.182	6885
253.245	9622
253.308	5791
253.371	6867
253.434	6171
253.497	8225
253.559	15042
253.622	8200
253.685	12155
253.748	7967
253.811	4621
253.874	6425
253.937	5311
254.000	4960
254.062	14373
254.125	12307
254.188	14361
254.251	7583
254.314	5202
254.376	11081
254.439	8989
254.502	7501
254.565	15491
254.628	15541
254.690	7470
254.753	4223
254.816	4609
254.878	5367
254.941	14757
255.004	7638
255.067	5030
255.129	3416
255.192	2791
255.255	2773
255.317	3060
255.380	2176
255.443	1582
255.505	1799
255.568	2131
255.631	2071
255.693	2503
255.756	1295
255.819	3384
255.881	2096
255.944	1810
256.006	1781
256.069	1555
256.132	2447
256.194	4310
256.257	5818
256.319	4336
256.382	3598
256.444	3453
256.507	2852
256.569	1887
256.632	2988
256.694	4442
256.757	20774
256.819	27197
256.882	8356
256.944	4983
257.007	4346
257.069	3678
257.132	2731
257.194	3111
257.257	3192
257.319	1831
257.381	3684
257.444	13457
257.506	48906
257.569	31883
257.631	16032
257.693	8881
257.756	5125
257.818	3739
257.880	3091
257.943	2319
258.005	2016
258.067	1910
258.130	2362
258.192	4003
258.254	5391
258.317	3461
258.379	3288
258.441	11564
258.503	6127
258.566	13213
258.628	7905
258.690	2420
258.753	4460
258.815	5391
258.877	3592
258.939	2423
259.001	2018
259.064	2749
259.126	2823
259.188	3209
259.250	3465
259.312	5152
259.375	10234
259.437	4163
259.499	2380
259.561	2589
259.623	3650
259.685	2499
259.747	3336
259.809	13481
259.872	13359
259.934	30763
259.996	14434
260.058	4105
260.120	3506
260.182	2316
260.244	1583
260.306	2273
260.368	2046
260.430	2021
260.492	6705
260.554	9809
260.616	5963
260.678	19387
260.740	11020
260.802	4150
260.864	2701
260.926	2525
260.988	2624
261.050	3873
261.112	9864
261.174	20627
261.236	8869
261.298	4137
261.359	9388
261.421	6446
261.483	2304
261.545	2672
261.607	1993
261.669	2093
261.731	7413
261.793	9636
261.854	3543
261.916	2741
261.978	3211
262.040	2544
262.102	2856
262.164	3849
262.225	2475
262.287	3601
262.349	8521
262.411	3548
262.472	1482
262.534	7473
262.596	6795
262.658	2631
262.719	2000
262.781	5087
262.843	7648
262.904	3072
262.966	2710
263.028	3547
263.090	31632
263.151	35055
263.213	11767
263.275	6106
263.336	2446
263.398	2395
263.459	1690
263.521	3360
263.583	6372
263.644	3497
263.706	2189
263.767	1457
263.829	1632
263.891	994
263.952	796
264.014	529
264.075	4796
264.137	7020
264.198	2960
264.260	1474
264.321	1380
264.383	9229
264.444	9691
264.506	3103
264.567	2169
264.629	8180
264.690	7904
264.752	3606
264.813	2833
264.875	1680
264.936	1232
264.998	1833
265.059	1066
265.120	1247
265.182	5156
265.243	22405
265.305	8940
265.366	2863
265.427	2209
265.489	1808
265.550	1142
265.611	2176
265.673	1777
265.734	1575
265.795	948
265.857	1227
265.918	1977
265.979	8131
266.040	34668
266.102	12441
266.163	5482
266.224	4618
266.286	2291
266.347	856
266.408	1515
266.469	1941
266.530	1392
266.592	1601
266.653	6482
266.714	5377
266.775	2221
266.836	1076
266.898	1514
266.959	3303
267.020	2174
267.081	1887
267.142	991
267.203	854
267.264	673
267.326	2007
267.387	1066
267.448	174
267.509	1978
267.570	1232
267.631	1671
267.692	1144
267.753	2110
267.814	1220
267.875	7631
267.936	7864
267.997	4686
268.058	3729
268.119	1371
268.180	1746
268.241	1042
268.302	1152
268.363	1103
268.424	1729
268.485	1475
268.546	1198
268.607	799
268.668	922
268.729	669
268.790	1297
268.851	2222
268.912	7886
268.972	5466
269.033	2178
269.094	1355
269.155	1829
269.216	1594
269.277	1600
269.338	1301
269.398	1764
269.459	1086
269.520	3274
269.581	3748
269.642	4045
269.702	2752
269.763	1167
269.824	1274
269.885	3195
269.945	3679
270.006	1813
270.067	1232
270.128	1150
270.188	903
270.249	1399
270.310	406
270.370	1340
270.431	928
270.492	739
270.553	1665
270.613	5833
270.674	8067
270.734	2602
270.795	1127
270.856	4017
270.916	2131
270.977	2023
271.038	2605
271.098	2467
271.159	5052
271.219	2691
271.280	1661
271.340	1523
271.401	2428
271.462	4715
271.522	2523
271.583	2033
271.643	1961
271.704	1011
271.764	2506
271.825	8985
271.885	36488
271.946	23207
272.006	8489
272.066	24777
272.127	20475
272.187	5560
272.248	4352
272.308	8114
272.369	20649
272.429	6502
272.489	7334
272.550	5268
272.610	6651
272.671	3719
272.731	5264
272.791	5692
272.852	3137
272.912	2885
272.972	2043
273.033	3018
273.093	4026
273.153	3322
273.214	2354
273.274	3233
273.334	22547
273.394	19811
273.455	7517
273.515	14771
273.575	17928
273.635	7577
273.696	18024
273.756	21954
273.816	6419
273.876	4539
273.936	14374
273.997	10811
274.057	3827
274.117	3999
274.177	10645
274.237	38911
274.297	17534
274.358	15083
274.418	22336
274.478	9485
274.538	4277
274.598	4689
274.658	15428
274.718	11861
274.778	4917
274.838	3234
274.898	13078
274.958	21054
275.018	27730
275.078	10556
275.138	4809
275.198	2999
275.258	2085
275.318	3296
275.378	6257
275.438	6161
275.498	4575
275.558	16104
275.618	25304
275.678	12012
275.738	9736
275.798	6105
275.858	2719
275.918	1275
275.978	3904
276.038	2368
276.098	1377
276.157	10020
276.217	13888
276.277	5325
276.337	4517
276.397	3524
276.457	2662
276.517	1799
276.576	2552
276.636	1827
276.696	4973
276.756	11484
276.815	3816
276.875	2619
276.935	3962
276.995	2597
277.055	2205
277.114	2261
277.174	7070
277.234	12563
277.293	3896
277.353	2667
277.413	1811
277.472	3332
277.532	2393
277.592	3516
277.651	22456
277.711	17316
277.771	10302
277.830	35128
277.890	14159
277.950	29733
278.009	41741
278.069	12038
278.128	25716
278.188	17016
278.248	12703
278.307	29635
278.367	8813
278.426	4373
278.486	3328
278.545	2362
278.605	2422
278.664	2543
278.724	3053
278.783	19880
278.843	21013
278.902	5435
278.962	4945
279.021	4139
279.081	5331
279.140	5110
279.199	4540
279.259	5103
279.318	5156
279.378	6109
279.437	18752
279.496	65547
279.556	145412
279.615	55891
279.675	18810
279.734	13284
279.793	28384
279.853	28769
279.912	9022
279.971	5599
280.031	5758
280.090	22472
280.149	18733
280.208	25850
280.268	112382
280.327	50218
280.386	15541
280.445	16603
280.505	9422
280.564	5008
280.623	4765
280.682	12003
280.742	9256
280.801	3845
280.860	2562
280.919	2727
280.978	2492
281.037	2558
281.097	2394
281.156	1619
281.215	2083
281.274	5793
281.333	21954
281.392	7814
281.451	2465
281.510	2132
281.569	2525
281.628	1947
281.688	1590
281.747	2519
281.806	1663
281.865	2357
281.924	2141
281.983	2379
282.042	897
282.101	2034
282.160	1500
282.219	1165
282.278	3370
282.337	9884
282.396	3502
282.454	1081
282.513	5960
282.572	15493
282.631	5246
282.690	2223
282.749	2713
282.808	2686
282.867	2892
282.926	2836
282.985	1971
283.043	1068
283.102	1999
283.161	2629
283.220	12505
283.279	13616
283.338	3775
283.396	2669
283.455	2624
283.514	3960
283.573	5219
283.631	2864
283.690	2236
283.749	2407
283.808	8565
283.866	5321
283.925	2510
283.984	3147
284.043	4721
284.101	2902
284.160	2960
284.219	3479
284.277	3222
284.336	9388
284.395	24622
284.453	11506
284.512	6362
284.570	8315
284.629	6045
284.688	6910
284.746	6803
284.805	8767
284.863	11301
284.922	13114
284.981	16167
285.039	24022
285.098	48792
285.156	135023
285.215	212774
285.273	164626
285.332	84701
285.390	46524
285.449	29336
285.507	19328
285.566	14059
285.624	9894
285.683	8270
285.741	7144
285.799	5563
285.858	5595
285.916	4822
285.975	3954
286.033	3483
286.091	3626
286.150	2690
286.208	3791
286.267	3849
286.325	3955
286.383	7051
286.442	4550
286.500	2709
286.558	3194
286.616	2801
286.675	3816
286.733	2539
286.791	3341
286.850	3514
286.908	6228
286.966	6585
287.024	2527
287.083	1816
287.141	2367
287.199	3425
287.257	3901
287.315	2613
287.374	4560
287.432	8603
287.490	4202
287.548	3424
287.606	1661
287.664	2861
287.723	4981
287.781	3579
287.839	2829
287.897	3776
287.955	3055
288.013	5186
288.071	17422
288.129	115837
288.187	159395
288.245	47183
288.303	19125
288.361	11417
288.419	7740
288.477	5335
288.535	3345
288.593	2873
288.651	2825
288.709	2155
288.767	2037
288.825	1229
288.883	2378
288.941	1344
288.999	2291
289.057	1589
289.115	1402
289.173	1336
289.231	2456
289.289	2424
289.346	2422
289.404	3157
289.462	4383
289.520	3730
289.578	1648
289.636	1061
289.694	1235
289.751	967
289.809	1674
289.867	1170
289.925	2156
289.983	2055
290.040	1278
290.098	1737
290.156	2279
290.214	2436
290.271	1116
290.329	1374
290.387	1214
290.444	996
290.502	547
290.560	1497
290.617	1576
290.675	1616
290.733	1111
290.790	1355
290.848	1115
290.906	1437
290.963	1509
291.021	1542
291.078	1423
291.136	2156
291.194	14057
291.251	14288
291.309	3620
291.366	2054
291.424	1784
291.481	1979
291.539	2003
291.596	1586
291.654	502
291.711	301
291.769	2881
291.826	4604
291.884	1450
291.941	696
291.999	1850
292.056	2366
292.114	1911
292.171	1477
292.228	2324
292.286	3302
292.343	5456
292.401	5008
292.458	2759
292.515	1956
292.573	3058
292.630	2284
292.687	2564
292.745	1178
292.802	4453
292.859	12705
292.917	18813
292.974	6953
293.031	3127
293.089	2165
293.146	1933
293.203	1092
293.260	1616
293.318	3455
293.375	3889
293.432	1680
293.489	1526
293.546	1180
293.604	2987
293.661	22241
293.718	29621
293.775	11411
293.832	6772
293.889	5504
293.947	5066
294.004	3173
294.061	3807
294.118	12770
294.175	20463
294.232	16995
294.289	6138
294.346	4161
294.403	3246
294.460	3400
294.517	2851
294.574	1463
294.631	1425
294.688	2909
294.745	17459
294.802	44468
294.859	26005
294.916	11834
294.973	7153
295.030	5863
295.087	4197
295.144	3020
295.201	2865
295.258	2140
295.315	4445
295.372	23551
295.429	20546
295.486	7745
295.542	5660
295.599	21603
295.656	18973
295.713	23071
295.770	19844
295.827	7142
295.883	4103
295.940	3863
295.997	8306
296.054	4582
296.111	2408
296.167	2496
296.224	1403
296.281	2227
296.338	2099
296.394	1796
296.451	3364
296.508	17464
296.564	16297
296.621	13609
296.678	44384
296.734	32075
296.791	10675
296.848	6960
296.904	9374
296.961	21578
297.018	31685
297.074	13962
297.131	6840
297.187	4928
297.244	9698
297.301	50396
297.357	40969
297.414	11799
297.470	6409
297.527	4286
297.583	4965
297.640	3778
297.696	2857
297.753	2390
297.809	1455
297.866	1758
297.922	1750
297.979	1963
298.035	2216
298.092	8381
298.148	19803
298.204	10998
298.261	6019
298.317	24061
298.374	37180
298.430	15214
298.486	8120
298.543	5283
298.599	4737
298.656	5834
298.712	14827
298.768	25268
298.824	11580
298.881	4836
298.937	3053
298.993	3652
299.050	4243
299.106	3852
299.162	2952
299.218	3471
299.275	2468
299.331	3932
299.387	13446
299.443	42741
299.500	26036
299.556	10211
299.612	6134
299.668	6042
299.724	9489
299.780	5746
299.837	2979
299.893	10913
299.949	33564
300.005	23760
300.061	37444
300.117	40710
300.173	15089
300.229	9353
300.285	11573
300.341	9792
300.397	5304
300.453	3643
300.510	2968
300.566	3151
300.622	7079
300.678	23300
300.734	27596
300.790	32094
300.845	28125
300.901	23111
300.957	29444
301.013	15323
301.069	6839
301.125	6337
301.181	5018
301.237	3408
301.293	2453
301.349	3161
301.405	2707
301.461	3116
301.516	4307
301.572	5694
301.628	7341
301.684	6131
301.740	15220
301.796	13778
301.851	12936
301.907	18807
301.963	15847
302.019	55974
302.074	106553
302.130	70768
302.186	28322
302.242	13919
302.297	9074
302.353	12330
302.409	19911
302.464	11754
302.520	16562
302.576	39478
302.631	31355
302.687	14600
302.743	7028
302.798	5576
302.854	3477
302.910	4341
302.965	6092
303.021	9518
303.076	8681
303.132	13468
303.187	12165
303.243	6211
303.299	3708
303.354	4026
303.410	3214
303.465	2413
303.521	2128
303.576	2261
303.632	3946
303.687	16901
303.743	33332
303.798	17688
303.853	8293
303.909	4821
303.964	5058
304.020	9254
304.075	8943
304.130	11928
304.186	18744
304.241	16492
304.297	11634
304.352	6527
304.358	6361
304.407	5014
304.449	4244
304.463	3989
304.518	4366
304.539	3906
304.573	3159
304.629	3850
304.630	3996
304.684	10637
304.720	25865
304.739	33689
304.794	28075
304.811	23400
304.850	11925
304.902	6247
304.905	5901
304.960	4840
304.992	4723
305.015	4643
305.071	4170
305.083	4030
305.126	3588
305.173	2586
305.181	2409
305.236	2464
305.264	2880
305.292	3334
305.347	4105
305.354	4194
305.402	4786
305.445	5116
305.457	5191
305.512	5669
305.535	5263
305.567	4694
305.622	5286
305.626	5773
305.678	14430
305.716	28803
305.733	34733
305.788	27061
305.807	25648
305.843	22454
305.897	34005
305.898	34170
305.953	23143
305.988	16661
306.008	12651
306.063	7808
306.078	7034
306.118	5704
306.168	3967
306.173	3807
306.228	3477
306.259	3139
306.283	2955
306.338	2947
306.349	2971
306.393	3182
306.440	3642
306.448	3675
306.503	3718
306.530	4448
306.558	5722
306.613	12922
306.620	13926
306.668	21018
306.711	27751
306.723	28920
306.778	18598
306.801	15051
306.833	10086
306.888	5707
306.892	5488
306.943	4321
306.982	3953
306.997	3745
307.052	3342
307.072	3138
307.107	3059
307.162	4876
307.163	4896
307.217	6948
307.253	8939
307.272	9737
307.327	9332
307.343	8811
307.381	7082
307.434	6172
307.436	6257
307.491	14422
307.524	20280
307.546	23533
307.600	21621
307.614	19883
307.655	11644
307.704	6149
307.710	5908
307.765	6132
307.795	8970
307.819	12052
307.874	16947
307.885	16645
307.929	12138
307.975	9148
307.984	9042
308.038	9996
308.065	13255
308.093	20591
308.148	55757
308.156	63476
308.202	117060
308.246	124003
308.257	116319
308.312	63528
308.336	46011
308.366	36165
308.421	22149
308.426	21163
308.475	13738
308.517	9182
308.530	8400
308.585	7352
308.607	6871
308.639	6456
308.694	7133
308.697	7381
308.748	14242
308.787	19545
308.803	20185
308.857	15452
308.877	13934
308.912	11515
308.967	9957
308.967	9954
309.021	12573
309.058	16090
309.076	19484
309.130	34047
309.148	41953
309.185	71441
309.238	136865
309.239	137881
309.293	168157
309.328	162685
309.348	135136
309.402	63494
309.418	46051
309.457	31772
309.508	19375
309.511	19014
309.566	17057
309.598	17557
309.620	20575
309.674	32196
309.688	34204
309.729	33290
309.778	28032
309.783	27123
309.837	17826
309.868	13523
309.892	13987
309.946	20134
309.959	22060
310.001	32225
310.049	38282
310.055	36963
310.109	22444
310.139	15116
310.163	11889
310.218	7048
310.229	6179
310.272	4990
310.319	4342
310.326	4295
310.381	4037
310.409	4053
310.435	3716
310.489	3028
310.499	2881
310.543	3264
310.589	3983
310.598	4016
310.652	4109
310.679	4117
310.706	3678
310.760	2765
310.769	2619
310.814	2254
310.859	2053
310.868	2104
310.923	2271
310.948	2487
310.977	2750
311.031	3326
311.038	3359
311.085	2931
311.128	2679
311.139	2621
311.193	2260
311.218	2175
311.247	2331
311.301	2531
311.308	2552
311.356	2350
311.398	2243
311.410	2262
311.464	2369
311.488	2406
311.518	2479
311.572	2599
311.578	2629
311.626	3225
311.668	3720
311.680	3664
311.734	3354
311.758	3229
311.788	3456
311.842	3883
311.847	3935
311.896	4027
311.937	4166
311.950	4264
312.004	4699
312.027	4883
312.058	4244
312.112	3151
312.117	3046
312.165	2582
312.207	2200
312.297	3425
312.386	3163
312.476	3036
312.566	5190
312.656	3418
312.745	2498
312.835	2634
312.925	2282
313.015	2590
313.104	3573
313.194	2648
313.284	2775
313.374	2843
313.463	3087
313.553	1811
313.643	2831
313.732	1893
313.822	2637
313.912	2403
314.001	2806
314.091	3399
314.180	3482
314.270	3373
314.360	4491
314.449	4641
314.539	2498
314.628	1852
314.718	2955
314.808	3321
314.897	2577
314.987	1547
315.076	3542
315.166	4345
315.255	3716
315.345	2823
315.434	3378
315.524	2879
315.613	4447
315.703	4269
315.792	6729
315.881	17355
315.971	10706
316.060	5473
316.150	8350
316.239	9146
316.328	5637
316.418	2692
316.507	3298
316.597	3402
316.686	3743
316.775	3792
316.865	9118
316.954	3779
317.043	2470
317.133	2651
317.222	1622
317.311	1452
317.400	2090
317.490	2892
317.579	3915
317.668	2616
317.757	4167
317.847	8921
317.936	31966
318.025	18055
318.114	7342
318.203	5687
318.293	5963
318.382	12983
318.471	12005
318.560	13104
318.649	22580
318.738	8289
318.828	4237
318.917	3941
319.006	4057
319.095	11080
319.184	26304
319.273	20727
319.362	10130
319.451	3039
319.540	3306
319.629	6275
319.718	11604
319.807	5395
319.896	9939
319.985	32855
320.074	19386
320.163	4006
320.252	5555
320.341	4966
320.430	4901
320.519	5128
320.608	4618
320.697	3361
320.786	3638
320.875	3964
320.964	5481
321.053	7878
321.142	9990
321.230	12849
321.319	8851
321.408	19100
321.497	12006
321.586	8028
321.675	9152
321.764	9908
321.852	5455
321.941	9994
322.030	9674
322.119	6452
322.207	19419
322.296	15437
322.385	8360
322.474	8588
322.562	21945
322.651	17249
322.740	8029
322.829	14069
322.917	13445
323.006	8499
323.095	7015
323.183	5437
323.272	6322
323.361	10905
323.449	36606
323.538	18260
323.626	22023
323.715	21765
323.804	6054
323.892	19729
323.981	18187
324.069	4550
324.158	10650
324.246	15364
324.335	5059
324.424	7306
324.512	3721
324.601	3818
324.689	9576
324.778	24357
324.866	12369
324.954	4131
325.043	2533
325.131	4927
325.220	9890
325.308	12107
325.397	8486
325.485	6069
325.574	2633
325.662	2230
325.750	2885
325.839	2621
325.927	1879
326.015	2563
326.104	3566
326.192	6488
326.280	2018
326.369	2149
326.457	3824
326.545	6156
326.634	4431
326.722	1599
326.810	2574
326.898	1832
326.987	1947
327.075	5121
327.163	7098
327.251	3417
327.340	6820
327.428	14570
327.516	3285
327.604	1817
327.692	2543
327.781	2091
327.869	4384
327.957	2899
328.045	3074
328.133	2266
328.221	2312
328.309	2368
328.397	2101
328.485	2951
328.574	3665
328.662	10746
328.750	9117
328.838	3032
328.926	2809
329.014	2284
329.102	3257
329.190	6459
329.278	6144
329.366	1653
329.454	2117
329.542	1214
329.630	1774
329.718	2213
329.806	2724
329.893	2897
329.981	3590
330.069	3367
330.157	13908
330.245	54683
330.333	40798
330.421	6904
330.509	3798
330.597	12640
330.684	12677
330.772	3526
330.860	4850
330.948	6000
331.036	3738
331.123	2419
331.211	1799
331.299	2789
331.387	4217
331.475	9569
331.562	4768
331.650	1681
331.738	2569
331.825	3064
331.913	1628
332.001	1466
332.089	2140
332.176	4408
332.264	9746
332.352	12219
332.439	3628
332.527	2417
332.614	1812
332.702	2525
332.790	1649
332.877	4344
332.965	12763
333.052	5006
333.140	2994
333.228	9886
333.315	4621
333.403	2473
333.490	6172
333.578	8117
333.665	11045
333.753	8141
333.840	2420
333.928	2418
334.015	6723
334.103	10179
334.190	35203
334.278	15932
334.365	4167
334.452	4538
334.540	3634
334.627	3080
334.715	4617
334.802	6353
334.889	33057
334.977	61082
335.064	11243
335.151	3608
335.239	3194
335.326	3204
335.413	12823
335.501	30569
335.588	5399
335.675	2580
335.762	3572
335.850	6340
335.937	4747
336.024	9076
336.111	44092
336.199	35178
336.286	7767
336.373	3216
336.460	2323
336.547	1988
336.635	3908
336.722	2764
336.809	2046
336.896	3206
336.983	8617
337.070	22864
337.157	40507
337.245	27858
337.332	29220
337.419	3510
337.506	1604
337.593	1898
337.680	5910
337.767	23852
337.854	9956
337.941	8039
338.028	10341
338.115	4136
338.202	2736
338.289	6319
338.376	27004
338.463	14098
338.550	10955
338.637	19394
338.724	4401
338.811	10235
338.898	2350
338.984	1455
339.071	2192
339.158	2896
339.245	6845
339.332	5112
339.419	4233
339.506	7511
339.593	1431
339.679	1855
339.766	2031
339.853	2070
339.940	5200
340.027	2399
340.113	1976
340.200	2503
340.287	2399
340.374	2135
340.460	4669
340.547	2985
340.634	2760
340.720	11029
340.807	11761
340.894	2119
340.980	1560
341.067	1605
341.154	2485
341.240	2401
341.327	8026
341.414	3825
341.500	2630
341.587	1619
341.674	1383
341.760	4550
341.847	6548
341.933	2287
342.020	1363
342.106	1144
342.193	1271
342.279	3504
342.366	2523
342.452	5053
342.539	2940
342.625	4395
342.712	15399
342.798	8884
342.885	3498
342.971	753
343.058	1123
343.144	1376
343.230	1660
343.317	981
343.403	1538
343.490	1002
343.576	765
343.662	1611
343.749	2480
343.835	1785
343.921	3696
344.008	21341
344.094	90789
344.180	30144
344.267	4930
344.353	14675
344.439	28089
344.525	8025
344.612	3611
344.698	2807
344.784	2156
344.870	1661
344.957	1528
345.043	3193
345.129	1536
345.215	3675
345.301	3255
345.387	1941
345.474	765
345.560	662
345.646	1617
345.732	1823
345.818	1844
345.904	1708
345.990	1579
346.076	1299
346.162	3694
346.249	2331
346.335	1714
346.421	1590
346.507	5049
346.593	31011
346.679	12504
346.765	2141
346.851	2266
346.937	2530
347.023	2484
347.108	1688
347.194	2065
347.280	1514
347.366	2143
347.452	6276
347.538	34563
347.624	30201
347.710	24829
347.796	3836
347.882	1579
347.967	1256
348.053	2683
348.139	2231
348.225	1552
348.311	1907
348.397	1873
348.482	1602
348.568	2601
348.654	1145
348.740	2904
348.825	2797
348.911	2894
348.997	10213
349.083	39576
349.168	9925
349.254	2728
349.340	1428
349.425	1700
349.511	1093
349.597	3458
349.682	4098
349.768	17483
349.854	14762
349.939	2100
350.025	961
350.110	1109
350.196	387
350.282	1109
350.367	761
350.453	2091
350.538	3171
350.624	2449
350.709	2303
350.795	1320
350.880	1492
350.966	2066
351.051	1772
351.137	3000
351.222	1357
351.308	3778
351.393	16278
351.479	6815
351.564	1821
351.649	1809
351.735	2041
351.820	1485
351.906	1103
351.991	1542
352.076	6850
352.162	19273
352.247	4623
352.332	2029
352.418	2791
352.503	5041
352.588	17593
352.673	25876
352.759	4650
352.844	2144
352.929	2149
353.014	3311
353.100	1460
353.185	4175
353.270	5589
353.355	6091
353.441	1960
353.526	2484
353.611	3829
353.696	6965
353.781	3745
353.866	2550
353.952	1874
354.037	3403
354.122	10166
354.207	10604
354.292	5915
354.377	2345
354.462	1295
354.547	2276
354.632	2542
354.717	3188
354.802	5284
354.887	3754
354.972	1359
355.057	867
355.142	1651
355.227	1560
355.312	3816
355.397	5526
355.482	14923
355.567	12954
355.652	5642
355.737	7206
355.822	17046
355.907	26585
355.991	4207
356.076	1639
356.161	1341
356.246	1696
356.331	1834
356.416	3584
356.501	26414
356.585	57246
356.670	9119
356.755	3977
356.840	4148
356.924	16280
357.009	89254
357.094	59542
357.179	8162
357.263	5852
357.348	4602
357.433	5013
357.517	3733
357.602	4104
357.687	2843
357.771	4306
357.856	10152
357.941	10538
358.025	11725
358.110	82810
358.195	71858
358.279	8938
358.364	3587
358.448	10159
358.533	36774
358.617	35782
358.702	30017
358.787	17088
358.871	5244
358.956	6071
359.040	2517
359.125	2309
359.209	1251
359.294	4006
359.378	9696
359.462	5521
359.547	3807
359.631	2298
359.716	1183
359.800	2026
359.885	3104
359.969	2209
360.053	1863
360.138	2274
360.222	1510
360.306	5694
360.391	5565
360.475	5094
360.559	15385
360.644	13625
360.728	14331
360.812	12381
360.896	60940
360.981	32862
361.065	13773
361.149	3146
361.233	3148
361.318	3069
361.402	3106
361.486	3127
361.570	1677
361.654	2748
361.739	5911
361.823	24609
361.907	73098
361.991	20067
362.075	4534
362.159	10584
362.243	10316
362.327	7887
362.411	13152
362.495	8309
362.580	3938
362.664	3029
362.748	2028
362.832	3484
362.916	4553
363.000	14047
363.084	45307
363.168	86385
363.252	29275
363.336	5372
363.420	6115
363.503	18237
363.587	37195
363.671	9577
363.755	3665
363.839	5751
363.923	3550
364.007	5737
364.091	8110
364.175	7284
364.258	34543
364.342	40124
364.426	41046
364.510	34452
364.594	10384
364.677	9195
364.761	40069
364.845	56528
364.929	11448
365.013	9401
365.096	6311
365.180	9250
365.264	7017
365.347	36599
365.431	27862
365.515	6231
365.598	2657
365.682	1947
365.766	3406
365.849	6389
365.933	2752
366.017	3187
366.100	3753
366.184	1607
366.267	1921
366.351	1358
366.435	1769
366.518	1394
366.602	638
366.685	1739
366.769	1942
366.852	2881
366.936	6234
367.019	5029
367.103	2915
367.186	6199
367.270	3153
367.353	1533
367.436	1769
367.520	1784
367.603	1648
367.687	4005
367.770	6584
367.853	4942
367.937	8729
368.020	29116
368.104	9745
368.187	3976
368.270	6901
368.353	7352
368.437	6723
368.520	16485
368.603	14625
368.687	11756
368.770	33622
368.853	12786
368.936	5735
369.020	7114
369.103	4319
369.186	1919
369.269	1945
369.352	2566
369.436	6050
369.519	4169
369.602	3065
369.685	2987
369.768	2759
369.851	2133
369.934	1332
370.018	2926
370.101	4808
370.184	5610
370.267	3136
370.350	5861
370.433	9196
370.516	20262
370.599	43298
370.682	15120
370.765	14072
370.848	18221
370.931	37242
371.014	24755
371.097	3810
371.180	3454
371.263	946
371.346	1971
371.429	2070
371.511	2160
371.594	3667
371.677	6737
371.760	7468
371.843	6020
371.926	19794
372.009	85265
372.091	42617
372.174	12446
372.257	37117
372.340	26247
372.423	8820
372.505	12143
372.588	6143
372.671	8176
372.754	33133
372.836	31518
372.919	9344
373.002	24363
373.085	12582
373.167	6114
373.250	12675
373.332	35387
373.415	41681
373.498	108528
373.580	62581
373.663	36474
373.746	89820
373.828	27836
373.911	7952
373.993	6005
374.076	17245
374.159	28135
374.241	10677
374.324	25671
374.406	30157
374.489	19445
374.571	83393
374.654	61396
374.736	13941
374.819	44103
374.901	70383
374.983	98995
375.066	27695
375.148	5844
375.231	11888
375.313	37966
375.395	20685
375.478	5590
375.560	2955
375.643	3598
375.725	9505
375.807	53876
375.890	70266
375.972	24900
376.054	11129
376.136	15293
376.219	10913
376.301	10575
376.383	53103
376.465	37416
376.548	10397
376.630	12193
376.712	39584
376.794	36339
376.877	4799
376.959	1986
377.041	2220
377.123	3356
377.205	6484
377.287	2473
377.369	1188
377.452	1974
377.534	1682
377.616	1710
377.698	2029
377.780	1816
377.862	1286
377.944	1946
378.026	366
378.108	933
378.190	1747
378.272	1192
378.354	1803
378.436	587
378.518	1619
378.600	7905
378.682	9793
378.764	17007
378.846	23520
378.928	6048
379.010	6097
379.091	5046
379.173	2359
379.255	1817
379.337	1998
379.419	6439
379.501	27688
379.583	20875
379.664	3875
379.746	5452
379.828	16473
379.910	28714
379.991	32218
380.073	9083
380.155	3321
380.237	2847
380.318	1196
380.400	2447
380.482	3105
380.564	7725
380.645	7192
380.727	8080
380.809	4919
380.890	3417
380.972	2742
381.053	2147
381.135	2659
381.217	5431
381.298	20092
381.380	17154
381.461	8707
381.543	29825
381.624	71481
381.706	20950
381.787	5835
381.869	7235
381.951	12404
382.032	68204
382.113	79022
382.195	15857
382.276	7247
382.358	11744
382.439	39642
382.521	48392
382.602	81707
382.684	49756
382.765	46259
382.846	69381
382.928	90573
383.009	81178
383.090	32260
383.172	87038
383.253	229453
383.334	109576
383.416	65894
383.497	55486
383.578	18197
383.659	25341
383.741	69723
383.822	265376
383.903	240030
383.984	57034
384.066	73512
384.147	67707
384.228	18262
384.309	9496
384.390	7868
384.471	5643
384.553	5604
384.634	6643
384.715	7092
384.796	4948
384.877	4762
384.958	13826
385.039	29738
385.120	14035
385.201	4609
385.282	5954
385.363	5180
385.444	5414
385.525	6916
385.606	26276
385.687	41276
385.768	9962
385.849	6687
385.930	22950
386.011	75411
386.092	35387
386.173	5370
386.254	3528
386.335	3959
386.416	3710
386.496	8580
386.577	23735
386.658	12014
386.739	5927
386.820	4717
386.901	4368
386.981	4190
387.062	2765
387.143	4184
387.224	15546
387.304	26533
387.385	9595
387.466	4049
387.547	6643
387.627	5358
387.708	6409
387.789	26574
387.869	57451
387.950	25113
388.031	4230
388.111	1341
388.192	6291
388.273	9339
388.353	6975
388.434	3367
388.514	5106
388.595	26397
388.676	60569
388.756	31060
388.837	16885
388.917	17591
388.998	4513
389.078	2103
389.159	2778
389.239	2656
389.320	3255
389.400	3888
389.480	5391
389.561	21052
389.641	20248
389.722	3741
389.802	6067
389.883	7683
389.963	24691
390.043	27328
390.124	7679
390.204	5243
390.284	19072
390.365	21829
390.445	12557
390.525	35581
390.605	49435
390.686	19765
390.766	7064
390.846	3585
390.927	2514
391.007	2092
391.087	2337
391.167	3547
391.247	3608
391.328	4112
391.408	5821
391.488	6067
391.568	2050
391.648	2966
391.728	4223
391.808	4820
391.888	4801
391.969	9519
392.049	23317
392.129	13667
392.209	7581
392.289	24220
392.369	23487
392.449	11079
392.529	9716
392.609	6955
392.689	8224
392.769	22319
392.849	33945
392.929	15708
393.009	32861
393.089	42766
393.169	26805
393.248	57894
393.328	236967
393.408	441598
393.488	176191
393.568	40663
393.648	18416
393.728	11247
393.807	7874
393.887	7775
393.967	6727
394.047	6456
394.127	7907
394.206	9685
394.286	21851
394.366	112039
394.446	224042
394.525	74716
394.605	13883
394.685	8977
394.764	13221
394.844	23798
394.924	26278
395.003	9634
395.083	5444
395.163	4786
395.242	4590
395.322	5007
395.402	3601
395.481	4445
395.561	6962
395.640	25494
395.720	29619
395.799	28539
395.879	34117
395.958	15445
396.038	31600
396.117	148923
396.197	289960
396.276	110432
396.356	28469
396.435	17024
396.515	13658
396.594	13604
396.673	21286
396.753	56018
396.832	244899
396.912	320905
396.991	96195
397.070	22032
397.150	10354
397.229	8330
397.308	7610
397.388	15284
397.467	11821
397.546	4560
397.625	2974
397.705	4293
397.784	4496
397.863	3729
397.942	2046
398.022	2603
398.101	4697
398.180	22227
398.259	20063
398.338	5350
398.417	3785
398.497	1901
398.576	2914
398.655	2004
398.734	1802
398.813	2170
398.892	4042
398.971	22046
399.050	23071
399.129	3777
399.208	1608
399.287	1329
399.366	1149
399.445	825
399.524	765
399.603	884
399.682	2656
399.761	5734
399.840	22033
399.919	33624
399.998	6875
400.077	782
400.156	231
400.235	2005
400.313	935
400.392	1002
400.471	6394
400.550	19671
400.629	9347
400.708	1671
400.786	1880
400.865	4244
400.944	6779
401.023	4271
401.102	725
401.180	234
401.259	691
401.338	1838
401.416	1882
401.495	1244
401.574	1266
401.652	857
401.731	1040
401.810	2834
401.888	1626
401.967	917
402.046	442
402.124	1246
402.203	2398
402.281	2139
402.360	2132
402.438	5940
402.517	7876
402.596	2132
402.674	1031
402.753	908
402.831	816
402.910	506
402.988	3907
403.066	25420
403.145	30785
403.223	8078
403.302	22637
403.380	25974
403.459	20455
403.537	12617
403.615	3054
403.694	944
403.772	869
403.850	219
403.929	964
404.007	-318
404.085	2891
404.164	4465
404.242	1890
404.320	911
404.398	2076
404.477	4769
404.555	37647
404.633	72876
404.711	18408
404.789	2559
404.868	1196
404.946	1320
405.024	430
405.102	342
405.180	746
405.258	-531
405.336	873
405.415	490
405.493	2243
405.571	2890
405.649	1351
405.727	470
405.805	1387
405.883	1720
405.961	1315
406.039	2101
406.117	106
406.195	1416
406.273	5533
406.351	35525
406.429	47266
406.507	8057
406.585	2281
406.663	899
406.740	2190
406.818	1547
406.896	1561
406.974	1266
407.052	1846
407.130	14469
407.208	46237
407.285	17156
407.363	1652
407.441	140
407.519	352
407.596	1162
407.674	1876
407.752	6785
407.830	12779
407.907	6244
407.985	1971
408.063	336
408.141	267
408.218	743
408.296	2399
408.373	1256
408.451	1152
408.529	1043
408.606	857
408.684	-641
408.762	132
408.839	271
408.917	188
408.994	133
409.072	404
409.149	-432
409.227	1375
409.304	2069
409.382	2043
409.459	1758
409.537	3870
409.614	3465
409.692	2133
409.769	1710
409.846	3418
409.924	4485
410.001	4638
410.079	2484
410.156	1714
410.233	641
410.311	528
410.388	540
410.465	640
410.543	1469
410.620	1442
410.697	114
410.775	1092
410.852	35
410.929	1377
411.006	2158
411.083	1424
411.161	2966
411.238	4748
411.315	2649
411.392	1110
411.469	903
411.547	2304
411.624	779
411.701	357
411.778	371
411.855	2378
411.932	2320
412.009	781
412.086	195
412.163	660
412.240	1108
412.317	1117
412.394	1613
412.471	494
412.548	742
412.625	-154
412.702	247
412.779	1872
412.856	2522
412.933	825
413.010	0
413.087	613
413.164	5164
413.241	17020
413.318	7076
413.395	1881
413.471	1572
413.548	2270
413.625	404
413.702	515
413.779	686
413.855	283
413.932	-1506
414.009	-79
414.086	-168
414.162	255
414.239	808
414.316	4710
414.393	20466
414.469	16547
414.546	1993
414.623	267
414.699	287
414.776	-252
414.853	-36
414.929	-109
415.006	230
415.082	216
415.159	-127
415.236	443
415.312	-414
415.389	1106
415.465	2681
415.542	2446
415.618	-166
415.695	1112
415.771	968
415.848	402
415.924	978
416.000	-319
416.077	12
416.153	-402
416.230	-714
416.306	-782
416.383	-271
416.459	532
416.535	-586
416.612	-507
416.688	-519
416.764	49
416.841	-653
416.917	566
416.993	479
417.069	390
417.146	519
417.222	1799
417.298	941
417.374	-214
417.451	-251
417.527	577
417.603	875
417.679	1220
417.755	-77
417.831	-101
417.908	118
417.984	293
418.060	-168
418.136	-179
418.212	3225
418.288	1465
418.364	318
418.440	114
418.516	703
418.592	1246
418.668	3241
418.744	6448
418.820	5844
418.896	2023
418.972	-60
419.048	428
419.124	1211
419.200	2279
419.276	928
419.352	236
419.428	-321
419.504	93
419.579	335
419.655	921
419.731	364
419.807	2318
419.883	6207
419.959	8754
420.034	2614
420.110	1956
420.186	8653
420.262	16951
420.337	4462
420.413	1694
420.489	501
420.565	623
420.640	49
420.716	337
420.792	-445
420.867	840
420.943	45
421.019	1682
421.094	2077
421.170	1094
421.245	670
421.321	639
421.397	674
421.472	1626
421.548	4117
421.623	6923
421.699	3247
421.774	2746
421.850	1712
421.925	3890
422.001	4447
422.076	3930
422.152	3411
422.227	5446
422.302	7926
422.378	10363
422.453	16649
422.529	36578
422.604	100891
422.679	229596
422.755	224278
422.830	104470
422.905	37265
422.981	18109
423.056	11367
423.131	8455
423.207	6211
423.282	4046
423.357	5902
423.432	6428
423.508	3962
423.583	6658
423.658	9634
423.733	4419
423.808	2512
423.883	3114
423.959	3061
424.034	2313
424.109	2012
424.184	1727
424.259	1207
424.334	1358
424.409	189
424.484	2
424.559	1214
424.634	412
424.709	886
424.784	2295
424.859	615
424.934	776
425.009	6134
425.084	16486
425.159	13611
425.234	2605
425.309	491
425.384	1442
425.459	4483
425.534	3199
425.609	561
425.683	1182
425.758	27
425.833	823
425.908	629
425.983	2845
426.058	14769
426.132	16550
426.207	3559
426.282	2160
426.357	2089
426.431	886
426.506	584
426.581	41
426.655	1182
426.730	736
426.805	396
426.879	552
426.954	960
427.029	1136
427.103	8271
427.178	36627
427.253	41198
427.327	7866
427.402	1271
427.476	4649
427.551	5590
427.625	1873
427.700	1609
427.774	1202
427.849	1771
427.923	650
427.998	862
428.072	1242
428.147	2395
428.221	7367
428.296	35507
428.370	49911
428.444	10112
428.519	3305
428.593	4539
428.667	7719
428.742	6120
428.816	8446
428.890	15355
428.965	51390
429.039	34831
429.113	10530
429.188	7005
429.262	1723
429.336	1353
429.410	6581
429.485	10335
429.559	5124
429.633	6967
429.707	3170
429.781	2918
429.855	16750
429.930	55246
430.004	41101
430.078	28170
430.152	37313
430.226	44279
430.300	91892
430.374	37604
430.448	5308
430.522	6479
430.596	23053
430.670	32380
430.744	29546
430.818	88938
430.892	51139
430.966	6350
431.040	1755
431.114	1221
431.188	1498
431.262	111
431.336	484
431.410	2069
431.484	6038
431.557	11487
431.631	3984
431.705	1481
431.779	4034
431.853	26001
431.927	52503
432.000	16188
432.074	1630
432.148	832
432.222	1070
432.295	803
432.369	798
432.443	1174
432.516	7440
432.590	38793
432.664	44344
432.737	7611
432.811	565
432.885	289
432.958	452
433.032	256
433.106	-16
433.179	-258
433.253	14
433.326	-10
433.400	498
433.473	-172
433.547	83
433.620	553
433.694	110
433.767	2810
433.841	405
433.914	148
433.988	115
434.061	575
434.134	250
434.208	104
434.281	-467
434.355	74
434.428	195
434.501	-212
434.575	-176
434.648	-126
434.721	404
434.795	-899
434.868	-103
434.941	-833
435.014	-471
435.088	-339
435.161	294
435.234	2110
435.307	3073
435.381	2838
435.454	1489
435.527	1771
435.600	2452
435.673	2697
435.746	1441
435.819	656
435.892	705
435.966	775
436.039	350
436.112	732
436.185	-353
436.258	-450
436.331	-645
436.404	-230
436.477	528
436.550	-554
436.623	-121
436.696	-151
436.769	130
436.842	896
436.915	519
436.987	995
437.060	884
437.133	495
437.206	-149
437.279	9
437.352	331
437.425	-301
437.498	531
437.570	1821
437.643	3849
437.716	1754
437.789	523
437.861	1195
437.934	4828
438.007	9786
438.080	1867
438.152	516
438.225	1964
438.298	9574
438.370	59515
438.443	78424
438.516	21501
438.588	6954
438.661	1097
438.734	789
438.806	633
438.879	1302
438.951	1653
439.024	4279
439.096	3951
439.169	1459
439.241	451
439.314	40
439.386	1513
439.459	2267
439.531	4101
439.604	4568
439.676	1703
439.749	141
439.821	261
439.893	82
439.966	572
440.038	483
440.110	1610
440.183	1246
440.255	638
440.327	1641
440.400	3838
440.472	28006
440.544	62055
440.617	21497
440.689	4090
440.761	3201
440.833	7451
440.905	9102
440.978	4103
441.050	909
441.122	956
441.194	-150
441.266	773
441.338	653
441.411	1508
441.483	6086
441.555	26348
441.627	21499
441.699	4769
441.771	3041
441.843	2534
441.915	200
441.987	387
442.059	887
442.131	1535
442.203	2804
442.275	3579
442.347	4551
442.419	4343
442.491	11437
442.563	54029
442.635	73515
442.706	25229
442.778	17902
442.850	9685
442.922	2518
442.994	1393
443.066	2894
443.137	4110
443.209	4068
443.281	3516
443.353	6088
443.425	17898
443.496	75666
443.568	165889
443.640	118024
443.711	36342
443.783	8066
443.855	3679
443.926	2723
443.998	2312
444.070	2119
444.141	3187
444.213	3359
444.285	5035
444.356	4226
444.428	4621
444.499	2874
444.571	1668
444.642	1074
444.714	1445
444.785	3106
444.857	4297
444.928	7177
445.000	12419
445.071	7221
445.143	10120
445.214	10797
445.285	8537
445.357	18430
445.428	47730
445.500	156886
445.571	216559
445.642	130037
445.714	61513
445.785	28418
445.856	19523
445.928	8754
445.999	7253
446.070	5974
446.141	4997
446.213	5802
446.284	5778
446.355	2757
446.426	2754
446.497	2601
446.569	2240
446.640	4477
446.711	7206
446.782	4175
446.853	1633
446.924	3191
446.995	2840
447.066	2762
447.138	2244
447.209	4746
447.280	1626
447.351	710
447.422	945
447.493	1194
447.564	1742
447.635	3776
447.706	4244
447.777	1806
447.847	813
447.918	1149
447.989	945
448.060	2816
448.131	4970
448.202	9734
448.273	7524
448.344	5276
448.414	2191
448.485	1218
448.556	1008
448.627	582
448.698	900
448.768	103
448.839	153
448.910	1353
448.981	4844
449.051	3799
449.122	1429
449.193	340
449.263	835
449.334	1187
449.405	1502
449.475	3850
449.546	7084
449.616	4920
449.687	6156
449.758	3926
449.828	1047
449.899	895
449.969	1062
450.040	789
450.110	1577
450.181	2410
450.251	1343
450.322	1482
450.392	914
450.463	1120
450.533	1226
450.604	289
450.674	1253
450.744	1493
450.815	739
450.885	1585
450.955	1161
451.026	1076
451.096	998
451.166	1663
451.237	2609
451.307	8817
451.377	14712
451.447	5106
451.518	941
451.588	437
451.658	1839
451.728	1613
451.799	6929
451.869	20006
451.939	15839
452.009	3104
452.079	1363
452.149	1768
452.219	2094
452.289	8248
452.360	20015
452.430	12337
452.500	2727
452.570	3096
452.640	4418
452.710	7459
452.780	21096
452.850	24514
452.920	18282
452.990	13718
453.060	4933
453.129	3386
453.199	5506
453.269	8123
453.339	49850
453.409	91626
453.479	68787
453.549	80098
453.619	112654
453.688	100516
453.758	34421
453.828	4732
453.898	3120
453.968	1786
454.037	2344
454.087	1559
454.107	1224
454.168	1561
454.177	1599
454.247	1767
454.249	1784
454.316	1846
454.330	1865
454.386	1856
454.411	2749
454.456	3974
454.492	9099
454.525	13633
454.574	14445
454.595	14889
454.655	5372
454.665	3840
454.734	2707
454.736	2767
454.804	3740
454.817	4816
454.873	8499
454.898	13089
454.943	21228
454.979	20386
455.013	19973
455.060	10342
455.082	6044
455.141	3978
455.152	3549
455.221	5687
455.222	5900
455.291	16686
455.303	17245
455.360	20712
455.384	16564
455.430	9030
455.465	7523
455.499	5894
455.546	8802
455.569	9638
455.627	15369
455.638	16675
455.707	9312
455.708	9278
455.777	2608
455.789	2463
455.846	1773
455.869	1573
455.916	969
455.950	1082
455.985	1317
456.031	1334
456.054	1248
456.112	1793
456.124	1912
456.193	1557
456.193	1542
456.262	2295
456.274	2295
456.332	2010
456.355	2244
456.401	2534
456.436	2779
456.470	3056
456.516	2246
456.540	1836
456.597	916
456.609	738
456.678	1123
456.678	1111
456.747	1110
456.759	1207
456.817	1700
456.840	1700
456.886	1615
456.920	1655
456.955	1682
457.001	2271
457.024	2640
457.082	2302
457.093	2263
457.162	3541
457.163	3565
457.232	4929
457.243	4795
457.301	4248
457.324	3569
457.370	2501
457.405	2201
457.439	1880
457.485	1632
457.508	1614
457.566	2374
457.577	2544
457.646	3413
457.647	3437
457.715	5236
457.727	5772
457.784	9370
457.808	11269
457.853	13036
457.889	16554
457.922	17920
457.969	17258
457.991	19122
458.050	18177
458.060	18235
458.129	22914
458.130	23264
458.198	24954
458.211	24572
458.267	25405
458.292	20508
458.336	14790
458.372	10947
458.405	9225
458.453	11836
458.474	14313
458.533	22957
458.543	23481
458.611	34783
458.614	35495
458.680	36517
458.694	32736
458.749	27383
458.775	20739
458.818	11096
458.855	7744
458.887	5240
458.936	4109
458.955	3632
459.016	3377
459.024	3376
459.093	3579
459.097	3610
459.162	3870
459.177	3934
459.230	4449
459.257	4764
459.299	4908
459.338	4932
459.368	5071
459.418	5709
459.437	5539
459.499	5079
459.505	5150
459.574	4333
459.579	4317
459.643	3605
459.659	3410
459.711	3216
459.740	3296
459.780	3406
459.820	3915
459.849	4167
459.900	4014
459.917	3988
459.981	4612
459.986	4634
460.054	4415
460.061	4387
460.123	4646
460.141	4741
460.191	5331
460.222	5879
460.260	6417
460.302	7088
460.328	6670
460.382	6576
460.397	6776
460.462	5383
460.465	5423
460.534	6874
460.543	7149
460.602	13012
460.623	15210
460.671	24381
460.703	31586
460.739	26179
460.783	23528
460.808	23124
460.864	13995
460.876	13824
460.944	5570
460.945	5466
461.013	4597
461.024	4561
461.081	4611
461.104	4787
461.150	4445
461.184	4319
461.218	4596
461.264	4398
461.286	4187
461.345	3752
461.355	3774
461.423	4219
461.425	4227
461.491	4540
461.505	4675
461.559	6915
461.585	7922
461.628	13165
461.665	18059
461.696	18705
461.745	22345
461.764	20275
461.825	13731
461.832	14190
461.901	9175
461.905	8887
461.969	4856
461.985	4903
462.037	4661
462.065	4255
462.105	4875
462.145	5709
462.173	7109
462.225	9680
462.241	10676
462.305	15685
462.310	15255
462.378	10718
462.385	9917
462.446	9541
462.465	8070
462.514	5290
462.545	5342
462.582	4923
462.625	4436
462.650	4378
462.705	4257
462.718	4431
462.785	5519
462.786	5539
462.854	6713
462.865	6850
462.922	7809
462.945	8730
462.990	7410
463.025	5892
463.058	6043
463.104	5058
463.126	4722
463.184	4295
463.194	4229
463.262	4316
463.264	4337
463.330	5086
463.344	5115
463.398	5106
463.424	5159
463.466	5165
463.504	5194
463.533	5149
463.583	5039
463.601	5235
463.663	5867
463.669	6007
463.737	7550
463.743	7725
463.805	11101
463.823	12085
463.873	18583
463.903	22484
463.940	22523
463.982	23786
464.008	19929
464.062	11944
464.076	12092
464.142	7265
464.144	7193
464.211	5634
464.221	5693
464.279	5146
464.301	5112
464.347	5830
464.381	6367
464.414	6876
464.461	7505
464.482	7591
464.540	7906
464.550	7826
464.617	7359
464.620	7324
464.685	8070
464.699	8175
464.753	9233
464.779	9931
464.820	10537
464.859	11092
464.888	10672
464.938	9822
464.956	9916
465.018	10333
465.023	10238
465.091	8908
465.098	8738
465.158	7960
465.177	7656
465.226	7894
465.257	8177
465.293	8356
465.336	8509
465.361	9287
465.416	11093
465.428	11656
465.495	14549
465.496	14618
465.563	22771
465.575	24118
465.631	28103
465.654	30174
465.698	19951
465.734	11289
465.765	11397
465.813	9957
465.833	9432
465.893	8404
465.900	8400
465.968	9233
465.972	9265
466.035	8782
466.052	8677
466.102	9158
466.131	9394
466.170	9256
466.210	9149
466.237	9468
466.290	10019
466.304	10167
466.369	10722
466.372	10764
466.439	11680
466.449	11791
466.506	11936
466.528	11969
466.573	16122
466.607	19253
466.641	26170
466.687	35683
466.708	38525
466.766	46364
466.775	43350
466.842	20782
466.845	19688
466.909	16374
466.925	15438
466.977	13812
467.004	13244
467.044	14058
467.083	14878
467.111	15740
467.163	17327
467.178	17496
467.242	18101
467.245	18016
467.312	15738
467.321	15418
467.379	14932
467.400	14717
467.446	15170
467.480	15463
467.559	13266
467.638	11657
467.717	12278
467.796	12905
467.875	15453
467.955	13327
468.034	19067
468.113	38333
468.192	54158
468.271	15447
468.350	13231
468.429	14206
468.508	14794
468.588	12774
468.667	12615
468.746	11705
468.825	10863
468.904	9877
468.983	11628
469.062	16708
469.141	19446
469.220	10552
469.299	10263
469.378	10791
469.456	13649
469.535	11850
469.614	11812
469.693	11446
469.772	14822
469.851	18991
469.930	13531
470.009	10621
470.088	11304
470.166	12893
470.245	17955
470.324	20306
470.403	14315
470.482	11114
470.560	10787
470.639	11025
470.718	12643
470.797	10172
470.875	12507
470.954	16215
471.033	16595
471.111	9086
471.190	9133
471.269	7946
471.347	8433
471.426	9638
471.505	11118
471.583	11762
471.662	10355
471.740	10030
471.819	9571
471.898	9027
471.976	10312
472.055	9423
472.133	10408
472.212	13362
472.290	13397
472.369	8409
472.447	8915
472.526	8816
472.604	9260
472.683	9445
472.761	10859
472.839	8578
472.918	8408
472.996	9564
473.075	10541
473.153	10286
473.231	9014
473.310	10078
473.388	9945
473.466	9821
473.545	10559
473.623	14255
473.701	13564
473.780	9405
473.858	8939
473.936	10139
474.014	9532
474.093	10176
474.171	13831
474.249	18526
474.327	12217
474.405	9305
474.484	7905
474.562	8901
474.640	8517
474.718	10140
474.796	10165
474.874	9149
474.952	8056
475.030	9738
475.108	9491
475.187	12240
475.265	12585
475.343	15265
475.421	17021
475.499	8729
475.577	9682
475.655	11326
475.733	20903
475.811	34794
475.889	32562
475.966	19107
476.044	10015
476.122	11749
476.200	15555
476.278	11817
476.356	9050
476.434	9588
476.512	11276
476.590	14765
476.667	12104
476.745	8346
476.823	8682
476.901	8817
476.979	9023
477.056	8471
477.134	9559
477.212	9033
477.290	8191
477.367	6890
477.445	7394
477.523	6783
477.601	8762
477.678	7807
477.756	9335
477.834	10128
477.911	7080
477.989	7223
478.066	8197
478.144	9274
478.222	11005
478.299	17472
478.377	15768
478.454	8047
478.532	7095
478.609	8016
478.687	8943
478.764	7428
478.842	7726
478.919	8265
478.997	7994
479.074	7006
479.152	8813
479.229	10143
479.307	7588
479.384	6110
479.461	7626
479.539	7633
479.616	8693
479.694	7393
479.771	8547
479.848	8079
479.926	11176
480.003	10516
480.080	7452
480.157	6965
480.235	6923
480.312	6819
480.389	7726
480.467	11680
480.544	15646
480.621	7417
480.698	8216
480.775	9435
480.853	9520
480.930	7302
481.007	7508
481.084	8582
481.161	9569
481.238	8516
481.315	7223
481.392	6554
481.470	8044
481.547	7615
481.624	7079
481.701	7222
481.778	7715
481.855	8448
481.932	11581
482.009	19436
482.086	13541
482.163	8258
482.240	13553
482.317	21696
482.393	15772
482.470	8402
482.547	8245
482.624	6989
482.701	8025
482.778	6893
482.855	6503
482.932	6175
483.009	6323
483.085	7758
483.162	10522
483.239	8899
483.316	7023
483.393	7377
483.469	6972
483.546	8444
483.623	8085
483.699	6856
483.776	5919
483.853	7836
483.930	12163
484.006	29276
484.083	51338
484.160	27262
484.236	42921
484.313	31454
484.389	23661
484.466	21153
484.543	20968
484.619	21075
484.696	22938
484.772	21924
484.849	22993
484.925	19025
485.002	17805
485.078	20470
485.155	21379
485.231	17888
485.308	18092
485.384	19107
485.461	22491
485.537	33490
485.614	36947
485.690	17970
485.766	17102
485.843	17990
485.919	24065
485.995	25183
486.072	15829
486.148	16867
486.224	16320
486.301	16747
486.377	19251
486.453	20709
486.530	17982
486.606	24454
486.682	27011
486.758	29968
486.835	34110
486.911	27782
486.987	43808
487.063	43547
487.139	53719
487.215	38537
487.292	20364
487.368	18030
487.444	20298
487.520	24716
487.596	25759
487.672	37788
487.748	91599
487.824	137653
487.900	44965
487.976	22735
488.052	21840
488.128	25102
488.204	19503
488.280	17102
488.356	20676
488.432	36055
488.508	54638
488.584	19786
488.660	16208
488.736	15372
488.812	16477
488.888	20352
488.964	26381
489.039	51392
489.115	77891
489.191	42779
489.267	16419
489.343	14841
489.418	14127
489.494	13363
489.570	13541
489.646	13965
489.722	13973
489.797	15174
489.873	21046
489.949	41649
490.024	32466
490.100	13393
490.176	14092
490.251	15237
490.327	20885
490.403	12803
490.478	12947
490.554	11135
490.629	12011
490.705	11266
490.781	13477
490.856	12663
490.932	14323
491.007	13013
491.083	13698
491.158	12383
491.234	15816
491.309	31593
491.385	30566
491.460	11900
491.536	13131
491.611	11145
491.686	13028
491.762	17168
491.837	33425
491.913	56556
491.988	73400
492.063	90562
492.139	25396
492.214	17085
492.289	10810
492.365	9988
492.440	12434
492.515	11801
492.590	12037
492.666	10223
492.741	12985
492.816	18877
492.891	10849
492.967	9196
493.042	8503
493.117	9025
493.192	8904
493.267	10430
493.342	14098
493.418	13996
493.493	9592
493.568	8549
493.643	9522
493.718	11142
493.793	16762
493.868	18390
493.943	11576
494.018	9795
494.093	9783
494.168	9130
494.243	8823
494.318	7512
494.393	8136
494.468	7487
494.543	8774
494.618	9950
494.693	8832
494.768	7407
494.842	9950
494.917	7602
494.992	9301
495.067	8019
495.142	7568
495.217	8598
495.292	8102
495.366	9631
495.441	11481
495.516	14193
495.591	23392
495.665	67170
495.740	161923
495.815	56841
495.890	13722
495.964	11332
496.039	12446
496.114	11289
496.188	12422
496.263	11993
496.338	11413
496.412	12206
496.487	13822
496.561	14751
496.636	15830
496.710	12226
496.785	13762
496.860	15364
496.934	13031
497.009	12962
497.083	13845
497.158	14542
497.232	16371
497.307	19140
497.381	17876
497.455	19506
497.530	25184
497.604	17782
497.679	20107
497.753	30440
497.827	40332
497.902	38866
497.976	44460
498.050	85097
498.125	279653
498.199	272721
498.273	60840
498.348	50377
498.422	40225
498.496	34527
498.570	29531
498.645	22001
498.719	21021
498.793	22380
498.867	30297
498.941	44690
499.016	108824
499.090	296730
499.164	87506
499.238	14735
499.312	12451
499.386	16557
499.460	15408
499.534	13584
499.609	15748
499.683	22116
499.757	23021
499.831	50960
499.905	187969
499.979	164611
500.053	26632
500.127	26050
500.201	19212
500.275	12925
500.349	12170
500.422	13622
500.496	22334
500.570	45574
500.644	102100
500.718	194760
500.792	36856
500.866	11616
500.940	15363
501.013	11766
501.087	11661
501.161	21734
501.235	30409
501.309	59759
501.382	166023
501.456	135345
501.530	30971
501.603	53289
501.677	19014
501.751	8692
501.825	11789
501.898	23208
501.972	65478
502.046	37401
502.119	13705
502.193	29381
502.266	72708
502.340	31959
502.413	30666
502.487	59965
502.561	33501
502.634	11629
502.708	11617
502.781	9288
502.855	8009
502.928	6807
503.002	5983
503.075	6899
503.149	7372
503.222	6623
503.295	7949
503.369	9066
503.442	16098
503.516	47515
503.589	121026
503.662	74143
503.736	23899
503.809	55446
503.882	44553
503.956	67669
504.029	64537
504.102	53120
504.175	71196
504.249	23126
504.322	13992
504.395	11544
504.468	9204
504.542	8145
504.615	6715
504.688	5691
504.761	6823
504.834	8969
504.907	9968
504.980	16755
505.053	8651
505.127	10897
505.200	11936
505.273	10912
505.346	7212
505.419	5817
505.492	5474
505.565	5275
505.638	4777
505.711	5682
505.784	5711
505.857	4466
505.930	5682
506.003	5459
506.076	7018
506.149	7840
506.221	10137
506.294	9802
506.367	27508
506.440	87315
506.513	43579
506.586	10341
506.659	7710
506.731	6146
506.804	8451
506.877	10824
506.950	8919
507.022	5372
507.095	7974
507.168	9200
507.241	6366
507.313	4037
507.386	6956
507.459	8786
507.531	6816
507.604	5323
507.677	5426
507.749	4611
507.822	8068
507.894	14943
507.967	18326
508.040	9729
508.112	9001
508.185	9004
508.257	8337
508.330	11930
508.402	8880
508.475	7491
508.547	8605
508.620	8800
508.692	13530
508.765	8412
508.837	6654
508.909	6740
508.982	7736
509.054	7599
509.127	7015
509.199	6020
509.271	6172
509.344	6168
509.416	6723
509.488	6148
509.560	7313
509.633	7032
509.705	8358
509.777	7463
509.849	10408
509.922	7364
509.994	6658
510.066	6881
510.138	7847
510.210	14931
510.283	14951
510.355	11190
510.427	9766
510.499	9289
510.571	10152
510.643	9610
510.715	14931
510.787	12467
510.859	9197
510.931	10870
511.003	14221
511.076	12345
511.148	8673
511.219	8840
511.291	12228
511.363	13665
511.435	7748
511.507	6901
511.579	7151
511.651	7532
511.723	7067
511.795	7136
511.867	7806
511.939	9268
512.010	17505
512.082	13377
512.154	8808
512.226	8153
512.298	12478
512.369	18408
512.441	14335
512.513	13172
512.585	11016
512.656	10223
512.728	12185
512.800	9696
512.871	9661
512.943	8793
513.015	7736
513.086	8560
513.158	10058
513.230	10415
513.301	13742
513.373	15628
513.444	8722
513.516	7604
513.588	8833
513.659	8368
513.731	10768
513.802	11099
513.874	19639
513.945	32551
514.016	12350
514.088	9019
514.159	10260
514.231	12005
514.302	16667
514.374	12377
514.445	12558
514.516	20551
514.588	16248
514.659	11398
514.730	18995
514.802	15606
514.873	16188
514.944	14555
515.016	12285
515.087	12895
515.158	15635
515.229	19789
515.301	17288
515.372	22119
515.443	14341
515.514	10454
515.585	9581
515.656	7959
515.728	8411
515.799	8100
515.870	8932
515.941	9370
516.012	9833
516.083	11517
516.154	13689
516.225	15539
516.296	14438
516.367	11163
516.438	13302
516.509	18555
516.580	33007
516.651	90412
516.722	299000
516.793	128895
516.864	23545
516.935	21285
517.006	25838
517.077	41967
517.148	107092
517.219	339533
517.289	532953
517.360	133258
517.431	39651
517.502	14158
517.573	14121
517.643	13126
517.714	14691
517.785	13999
517.856	14015
517.926	15559
517.997	17587
518.068	23748
518.138	36370
518.209	74231
518.280	241607
518.350	805865
518.421	307209
518.492	32608
518.562	20069
518.633	20529
518.703	21639
518.774	35910
518.845	79904
518.915	78943
518.986	26346
519.056	20388
519.127	31797
519.197	48126
519.268	94519
519.338	58753
519.408	15995
519.479	19727
519.549	16358
519.620	10724
519.690	8193
519.760	9103
519.831	9391
519.901	9620
519.971	8190
520.042	9330
520.112	11206
520.182	10281
520.253	12897
520.323	8976
520.393	11799
520.463	16273
520.534	11202
520.604	20057
520.674	11214
520.744	12025
520.814	22875
520.885	24235
520.955	32619
521.025	106613
521.095	41341
521.165	8762
521.235	8142
521.305	7124
521.375	7415
521.445	8524
521.515	11289
521.585	12280
521.655	12528
521.725	9254
521.795	9953
521.865	7547
521.935	11218
522.005	9553
522.075	7044
522.145	7351
522.215	9169
522.285	11660
522.355	15678
522.424	28484
522.494	25116
522.564	14069
522.634	27846
522.704	71576
522.774	29173
522.843	7422
522.913	7399
522.983	9969
523.053	7839
523.122	8702
523.192	13662
523.262	38204
523.331	38749
523.401	9252
523.471	6492
523.540	7361
523.610	5873
523.680	5736
523.749	6728
523.819	8265
523.888	8903
523.958	5962
524.027	6310
524.097	7176
524.166	7480
524.236	7395
524.305	7442
524.375	6829
524.444	6915
524.514	6799
524.583	8191
524.653	8620
524.722	9357
524.791	6642
524.861	7549
524.930	6091
524.999	6966
525.069	10351
525.138	7755
525.207	9459
525.277	7271
525.346	7373
525.415	6515
525.484	6905
525.554	8527
525.623	7438
525.692	6956
525.761	7880
525.830	7586
525.900	10244
525.969	16170
526.038	29562
526.107	57654
526.176	155374
526.245	129044
526.314	43802
526.383	82709
526.452	121501
526.522	176142
526.591	185867
526.660	46778
526.729	23754
526.797	32124
526.867	72265
526.935	250906
527.004	418113
527.073	238528
527.142	22128
527.211	10481
527.280	11142
527.349	10576
527.418	6955
527.487	6368
527.555	5883
527.624	5416
527.693	6343
527.762	5818
527.831	5233
527.899	5455
527.968	6014
528.037	5410
528.106	7381
528.174	13795
528.243	10959
528.312	13459
528.380	18288
528.449	7528
528.518	5532
528.586	4751
528.655	4977
528.723	4798
528.792	3769
528.861	5960
528.929	4095
528.998	5738
529.066	4376
529.135	4685
529.203	5154
529.272	4537
529.340	5206
529.409	5102
529.477	5557
529.545	6775
529.614	7161
529.682	6999
529.751	8842
529.819	9038
529.887	6426
529.956	5107
530.024	5186
530.092	4971
530.161	6598
530.229	9796
530.297	6483
530.365	5223
530.434	4840
530.502	4647
530.570	5025
530.638	3680
530.707	5191
530.775	5985
530.843	5398
530.911	4566
530.979	3883
531.047	5047
531.115	5466
531.183	5652
531.252	4838
531.320	5279
531.388	5280
531.456	4517
531.524	4137
531.592	4681
531.660	5760
531.728	5382
531.796	4671
531.864	5447
531.932	5257
532.000	4790
532.067	4407
532.135	6106
532.203	6493
532.271	7788
532.339	11651
532.407	28679
532.475	17587
532.542	8699
532.610	10937
532.678	18615
532.746	56346
532.814	142151
532.881	36189
532.949	7295
533.017	6831
533.084	5997
533.152	5568
533.220	5303
533.287	5943
533.355	4943
533.423	5006
533.490	5391
533.558	5687
533.625	5805
533.693	5912
533.761	6147
533.828	5848
533.896	5636
533.963	11158
534.031	14398
534.098	18461
534.166	10512
534.233	4924
534.300	6648
534.368	6719
534.435	6085
534.503	6109
534.570	7220
534.637	6834
534.705	8892
534.772	11709
534.840	21069
534.907	69264
534.974	95400
535.041	13827
535.109	9269
535.176	6158
535.243	6418
535.310	5970
535.378	6598
535.445	5116
535.512	5944
535.579	5114
535.646	5592
535.714	6273
535.781	7335
535.848	7736
535.915	6545
535.982	5744
536.049	6009
536.116	6944
536.183	6813
536.250	5866
536.317	6575
536.384	7511
536.451	10127
536.518	11187
536.585	7997
536.652	10255
536.719	13287
536.786	11198
536.853	8744
536.920	13335
536.987	21116
537.053	23941
537.120	65060
537.187	64396
537.254	9005
537.321	6725
537.388	7626
537.454	6008
537.521	5697
537.588	6294
537.654	7693
537.721	9150
537.788	8523
537.855	6917
537.921	6899
537.988	7553
538.055	7200
538.121	6653
538.188	7922
538.254	10652
538.321	19263
538.388	12373
538.454	8492
538.521	7506
538.587	7033
538.654	6071
538.720	7470
538.787	6664
538.853	6682
538.920	8504
538.986	9820
539.053	8119
539.119	8195
539.185	7500
539.252	8713
539.318	12447
539.385	10631
539.451	10367
539.517	10785
539.583	12873
539.650	21463
539.716	53843
539.782	17226
539.849	7716
539.915	7596
539.981	7474
540.047	9550
540.114	8266
540.180	8832
540.246	8904
540.312	11129
540.378	18791
540.444	23632
540.510	23812
540.576	58197
540.643	21865
540.709	8706
540.775	7177
540.841	8029
540.907	9541
540.973	13870
541.039	12891
541.105	13940
541.171	8857
541.237	8733
541.303	8274
541.369	10455
541.435	11773
541.500	17778
541.566	12333
541.632	7814
541.698	6677
541.764	7399
541.830	6450
541.896	6948
541.961	6898
542.027	8072
542.093	7802
542.159	8638
542.224	9111
542.290	12936
542.356	15892
542.421	20919
542.487	9363
542.553	8963
542.618	8492
542.684	8578
542.750	8771
542.815	11584
542.881	18253
542.947	47338
543.012	41855
543.078	8423
543.143	6310
543.209	8160
543.274	8579
543.340	11727
543.405	18266
543.471	32958
543.536	10641
543.602	8002
543.667	6330
543.732	7330
543.798	7621
543.863	7906
543.928	7096
543.994	7475
544.059	6988
544.124	7467
544.190	6737
544.255	7102
544.320	7596
544.386	9263
544.451	10642
544.516	13424
544.581	14295
544.646	30107
544.712	51491
544.777	13783
544.842	9943
544.907	10051
544.972	8797
545.037	9118
545.102	9391
545.168	9161
545.233	9540
545.298	11078
545.363	12563
545.428	14616
545.493	20995
545.558	40613
545.623	21121
545.688	10560
545.753	9690
545.818	9184
545.883	10727
545.947	10822
546.012	10857
546.077	11711
546.142	12026
546.207	11240
546.272	13437
546.337	14876
546.401	12653
546.466	11425
546.531	11337
546.596	12638
546.661	11921
546.725	13431
546.790	12509
546.855	12836
546.919	13588
546.984	15406
547.049	16220
547.113	18619
547.178	19110
547.243	21241
547.307	24628
547.372	27160
547.436	28320
547.501	26282
547.565	28119
547.630	27939
547.695	27125
547.759	28396
547.823	27124
547.888	26152
547.952	25866
548.017	26837
548.081	29435
548.146	32730
548.210	30602
548.274	29537
548.339	28958
548.403	26743
548.468	25311
548.532	24923
548.596	25025
548.660	25659
548.725	29564
548.789	31896
548.853	32006
548.917	28992
548.982	30560
549.046	30063
549.110	23818
549.174	24183
549.238	25510
549.303	29481
549.367	29351
549.431	29373
549.495	26910
549.559	27078
549.623	31596
549.687	35514
549.751	37913
549.815	39601
549.879	41213
549.943	38221
550.007	40071
550.071	41588
550.135	39344
550.199	35497
550.263	34798
550.327	33764
550.391	36531
550.455	36891
550.519	39589
550.582	41467
550.646	47574
550.710	48819
550.774	44455
550.838	44523
550.901	45610
550.965	49765
551.029	50666
551.093	56478
551.156	63262
551.220	77733
551.284	89714
551.347	66038
551.411	67719
551.475	73749
551.538	51536
551.602	47636
551.666	43871
551.729	40782
551.793	39925
551.856	41899
551.920	38412
551.983	39954
552.047	38824
552.110	38996
552.174	38925
552.237	40387
552.301	37262
552.364	36164
552.428	35796
552.491	37088
552.554	37628
552.618	38003
552.681	38523
552.745	40820
552.808	47705
552.871	56355
552.934	44373
552.998	39299
553.061	37135
553.124	36766
553.187	35944
553.251	36166
553.314	37183
553.377	38617
553.440	39650
553.503	41980
553.567	44148
553.630	38753
553.693	40035
553.756	39635
553.819	39076
553.882	39068
553.945	38787
554.008	38417
554.071	37722
554.134	39774
554.197	37699
554.260	36364
554.323	36960
554.386	38244
554.449	38623
554.512	40347
554.575	37534
554.638	36967
554.701	37126
554.764	36885
554.827	35717
554.889	34451
554.952	31740
555.015	31869
555.078	32590
555.141	32231
555.203	32402
555.266	32013
555.329	32381
555.391	31821
555.454	31337
555.517	29905
555.580	29081
555.642	27404
555.705	27839
555.768	27377
555.830	27796
555.893	25527
555.955	25343
556.018	24466
556.080	24568
556.143	25079
556.206	24649
556.268	24857
556.330	25118
556.393	24692
556.455	24576
556.518	25787
556.580	26330
556.643	21851
556.705	21085
556.767	20621
556.830	21263
556.892	22146
556.955	25179
557.017	23257
557.079	19895
557.142	19518
557.204	21811
557.266	28226
557.328	26743
557.391	18224
557.453	16400
557.515	17008
557.577	18196
557.639	19279
557.701	17036
557.764	15705
557.826	16168
557.888	18953
557.950	19157
558.012	22617
558.074	29997
558.136	49017
558.198	113255
558.260	54149
558.322	17681
558.384	18058
558.446	19882
558.508	23361
558.570	30445
558.632	45721
558.694	78346
558.756	105917
558.818	203623
558.880	518725
558.942	212017
559.003	116151
559.065	70723
559.127	25291
559.189	27594
559.251	38357
559.312	62069
559.374	109139
559.436	311271
559.498	205070
559.559	31243
559.621	29354
559.683	40769
559.744	65615
559.806	142676
559.868	255278
559.929	63130
559.991	35683
560.052	47624
560.114	109138
560.176	94809
560.237	61729
560.299	111969
560.360	35018
560.422	14711
560.483	13348
560.545	11992
560.606	11830
560.667	11849
560.729	11365
560.790	10769
560.852	10929
560.913	10869
560.974	11001
561.036	10414
561.097	10644
561.158	10331
561.220	12093
561.281	10804
561.342	12845
561.403	14931
561.465	17576
561.526	27203
561.587	39763
561.648	15456
561.709	11221
561.771	10385
561.832	10459
561.893	10413
561.954	10279
562.015	9928
562.076	10045
562.137	9972
562.198	10338
562.259	10993
562.320	10338
562.381	11850
562.442	13399
562.503	12815
562.564	10449
562.625	10301
562.686	10204
562.747	11189
562.808	11204
562.869	9895
562.930	12246
562.991	11189
563.051	11694
563.112	9643
563.173	10179
563.234	9853
563.294	10464
563.355	9300
563.416	11082
563.477	10362
563.537	10364
563.598	11073
563.659	10242
563.720	10581
563.780	11202
563.841	11274
563.901	10779
563.962	10175
564.023	10189
564.083	11099
564.144	10781
564.204	10902
564.265	11353
564.325	13040
564.386	18775
564.446	18882
564.507	10828
564.567	10360
564.628	10453
564.688	10302
564.749	10193
564.809	12071
564.869	13138
564.930	10698
564.990	11166
565.050	9260
565.111	9657
565.171	9817
565.231	10754
565.292	10670
565.352	10137
565.412	10447
565.472	11494
565.532	11300
565.593	11508
565.653	10656
565.713	11651
565.773	12610
565.833	13078
565.893	16408
565.953	12399
566.013	11185
566.074	13791
566.134	15223
566.194	19164
566.254	21480
566.314	17209
566.374	12837
566.434	13099
566.494	13784
566.554	14602
566.614	14872
566.673	14802
566.733	15190
566.793	17106
566.853	17644
566.913	17857
566.973	17943
567.033	18221
567.092	18829
567.152	18448
567.212	18624
567.272	19381
567.331	20036
567.391	20973
567.451	21391
567.511	23761
567.570	24226
567.630	19494
567.690	18290
567.749	18217
567.809	19068
567.868	22017
567.928	24652
567.988	30364
568.047	35457
568.107	46538
568.166	62541
568.226	89637
568.285	126416
568.345	108427
568.404	83335
568.464	71159
568.523	68130
568.582	71964
568.642	83993
568.701	105679
568.761	142573
568.820	216165
568.879	220174
568.939	158563
568.998	116148
569.057	90643
569.116	72465
569.176	58915
569.235	50064
569.294	43046
569.353	36745
569.413	33880
569.472	30428
569.531	27680
569.590	25413
569.649	24610
569.708	21471
569.767	21297
569.827	22350
569.886	21835
569.945	17741
570.004	18433
570.063	17308
570.122	17232
570.181	17714
570.240	16420
570.299	18622
570.358	18559
570.417	15135
570.475	14705
570.534	15144
570.593	14893
570.652	15183
570.711	15456
570.770	13017
570.829	14643
570.887	14258
570.946	15114
571.005	12782
571.064	12870
571.122	13121
571.181	14014
571.240	12875
571.299	12619
571.357	12398
571.416	13267
571.475	12590
571.533	14708
571.592	12301
571.650	12073
571.709	11732
571.768	12241
571.826	11476
571.885	12322
571.943	11409
572.002	10824
572.060	12001
572.119	9852
572.177	10085
572.236	10665
572.294	10410
572.352	9820
572.411	10504
572.469	11182
572.528	10356
572.586	11074
572.644	11729
572.703	15784
572.761	12012
572.819	9982
572.877	8891
572.936	9727
572.994	9867
573.052	10410
573.110	10398
573.169	11944
573.227	10031
573.285	10006
573.343	8788
573.401	9801
573.459	9594
573.517	9492
573.576	10477
573.634	9691
573.692	9528
573.750	10726
573.808	10923
573.866	10326
573.924	12172
573.982	12524
574.040	11229
574.098	9457
574.155	9574
574.213	9035
574.271	9024
574.329	10609
574.387	9780
574.445	9155
574.503	8728
574.560	8348
574.618	8247
574.676	8732
574.734	8291
574.792	9312
574.849	7259
574.907	8801
574.965	8383
575.022	8507
575.080	8183
575.138	9344
575.195	9303
575.253	9939
575.311	9622
575.368	9291
575.426	8225
575.483	8630
575.541	8886
575.598	9165
575.656	9030
575.713	8827
575.771	8790
575.828	9030
575.886	8221
575.943	9440
576.001	9018
576.058	9077
576.115	10046
576.173	10838
576.230	11490
576.287	14504
576.345	11507
576.402	10183
576.459	10335
576.517	10862
576.574	11003
576.631	10802
576.688	10347
576.746	9754
576.803	8792
576.860	9780
576.917	9493
576.974	10231
577.031	8680
577.089	10446
577.146	9947
577.203	10196
577.260	10489
577.317	10884
577.374	10783
577.431	10560
577.488	10418
577.545	9446
577.602	9154
577.659	9463
577.716	9316
577.773	8903
577.830	9561
577.886	10053
577.943	9254
578.000	9425
578.057	9973
578.114	10455
578.171	9568
578.227	11001
578.284	8043
578.341	10323
578.398	9647
578.454	11804
578.511	11054
578.568	12509
578.625	10974
578.681	10699
578.738	8809
578.794	10601
578.851	9817
578.908	11187
578.964	10553
579.021	10475
579.077	9899
579.134	10765
579.190	9752
579.247	10272
579.303	9463
579.360	10333
579.416	9260
579.473	9494
579.529	9545
579.586	10041
579.642	9719
579.698	8895
579.755	10088
579.811	10874
579.867	10763
579.924	10603
579.980	10233
580.036	10029
580.093	10733
580.149	11068
580.205	10439
580.261	10580
580.317	11209
580.374	11856
580.430	12924
580.486	13051
580.542	12687
580.598	11473
580.619	11435
580.654	11382
580.692	11615
580.710	11753
580.765	11229
580.767	11224
580.823	11140
580.838	11127
580.879	11146
580.911	11646
580.935	12017
580.984	11131
580.991	11027
581.047	11519
581.057	11633
581.103	12161
581.130	11755
581.159	11378
581.203	11823
581.215	11941
581.270	12417
581.276	12304
581.326	11380
581.349	11657
581.382	12057
581.422	11621
581.438	11471
581.494	12232
581.494	12227
581.550	12531
581.567	12486
581.606	12432
581.640	12360
581.661	12308
581.713	12293
581.717	12305
581.773	11953
581.786	11932
581.829	11841
581.859	12102
581.885	12379
581.932	13088
581.940	13211
581.996	12541
582.004	12636
582.052	13315
582.077	12978
582.107	12500
582.150	12494
582.163	12532
582.219	12226
582.223	12306
582.274	13133
582.296	12817
582.330	12507
582.368	13029
582.386	13207
582.441	12269
582.441	12272
582.497	12527
582.514	12702
582.552	13071
582.587	12783
582.608	12664
582.659	11760
582.663	11679
582.719	12954
582.732	12961
582.774	13099
582.805	13323
582.830	13452
582.877	13497
582.885	13517
582.941	13274
582.950	13333
582.996	13538
583.023	13420
583.052	13393
583.095	13856
583.107	13924
583.162	13071
583.168	13088
583.218	13572
583.240	13858
583.273	14095
583.313	13158
583.328	12867
583.384	13747
583.385	13747
583.439	13663
583.458	13724
583.494	13812
583.531	13774
583.549	13765
583.603	13588
583.605	13580
583.660	14591
583.676	14570
583.715	14462
583.748	14693
583.770	14930
583.820	14852
583.825	14824
583.881	14685
583.893	14600
583.936	14584
583.965	14594
583.991	14359
584.038	14545
584.046	14625
584.101	14950
584.110	15001
584.156	15148
584.183	15156
584.211	15268
584.255	14830
584.266	14662
584.321	15014
584.328	15054
584.376	15518
584.400	15857
584.431	16244
584.472	16170
584.486	16114
584.541	16186
584.545	16212
584.596	16712
584.617	16707
584.651	16949
584.689	17299
584.706	17168
584.761	17063
584.762	17066
584.816	17822
584.834	18131
584.871	18182
584.906	17952
584.926	18099
584.978	18382
584.980	18366
585.035	19333
585.051	19531
585.090	20453
585.123	20728
585.145	20839
585.195	21801
585.200	21914
585.254	23382
585.267	23769
585.309	24725
585.340	26320
585.364	27900
585.412	32338
585.419	32913
585.473	39900
585.484	41901
585.528	50821
585.556	57925
585.583	66371
585.628	82350
585.637	88825
585.692	148644
585.700	165220
585.747	278592
585.772	280474
585.801	227465
585.845	122602
585.856	98638
585.910	44452
585.917	39513
585.965	33245
585.989	31216
586.019	30085
586.061	28575
586.074	28405
586.128	28750
586.133	28827
586.183	28863
586.205	28902
586.237	29371
586.277	29639
586.292	29689
586.346	31027
586.349	31059
586.401	31012
586.421	31515
586.455	32530
586.493	33023
586.509	33546
586.564	36965
586.565	37136
586.618	45223
586.637	47109
586.672	49375
586.709	45022
586.727	41402
586.781	38498
586.781	38482
586.835	38612
586.853	38530
586.889	37550
586.925	37284
586.944	37596
586.996	38710
586.998	38723
587.052	39819
587.068	40250
587.106	41073
587.140	41739
587.161	42129
587.212	43535
587.215	43586
587.269	45213
587.284	45789
587.323	47207
587.356	48625
587.377	49686
587.427	52144
587.431	52256
587.485	53670
587.499	54355
587.539	56627
587.571	58654
587.593	59911
587.643	62793
587.648	63074
587.702	66837
587.715	68070
587.755	71775
587.786	74059
587.810	76016
587.858	81561
587.864	82088
587.917	87802
587.930	89431
587.971	95667
588.001	100790
588.025	105084
588.073	113451
588.079	114591
588.133	127574
588.145	130772
588.187	141575
588.217	150239
588.241	159102
588.288	179376
588.295	182153
588.348	208324
588.360	214963
588.402	241426
588.431	263073
588.456	282488
588.503	325197
588.510	332030
588.564	398921
588.575	415274
588.617	484877
588.646	539666
588.671	598042
588.718	720172
588.725	744692
588.778	959072
588.789	1006854
588.832	1264168
588.861	1443407
588.886	1584138
588.932	1782905
588.939	1766495
588.993	1513508
589.004	1497544
589.047	1620293
589.075	1682654
589.100	1660276
589.147	1513281
589.154	1465087
589.207	1101938
589.218	1034946
589.261	901189
589.290	825903
589.314	812807
589.361	810292
589.368	822294
589.421	954530
589.433	989218
589.475	1225937
589.504	1392742
589.528	1504559
589.576	1624014
589.582	1609509
589.635	1518544
589.647	1494043
589.689	1394908
589.718	1281142
589.742	1086706
589.790	720663
589.795	696514
589.849	495467
589.861	452627
589.902	377936
589.932	326432
589.955	299177
590.004	245991
590.009	241919
590.062	204080
590.075	195492
590.115	177064
590.146	163745
590.168	155486
590.218	138932
590.222	137751
590.275	125249
590.289	122051
590.328	113953
590.360	108383
590.381	105143
590.431	97482
590.435	96911
590.488	89408
590.503	87527
590.541	84048
590.574	81229
590.594	79215
590.645	74568
590.647	74360
590.700	70855
590.716	69932
590.753	67323
590.787	65064
590.806	64103
590.859	61907
590.859	61809
590.912	58926
590.930	58181
590.965	57171
591.001	56284
591.018	55571
591.071	53684
591.072	53704
591.124	52044
591.143	51441
591.177	50239
591.214	49120
591.230	48992
591.283	49068
591.285	49088
591.336	47291
591.356	46670
591.389	46292
591.427	45896
591.442	45394
591.495	43480
591.498	43381
591.547	42632
591.569	42273
591.600	41166
591.640	39843
591.653	40031
591.706	40929
591.711	41053
591.759	39310
591.782	38435
591.811	39411
591.853	40992
591.864	40872
591.917	40117
591.924	40020
591.969	39278
591.995	38969
592.022	38370
592.066	37356
592.075	37383
592.127	37628
592.137	37710
592.180	38926
592.208	39739
592.233	40019
592.279	40341
592.285	39913
592.338	36382
592.350	35572
592.390	35497
592.421	35476
592.443	35314
592.491	34945
592.495	34964
592.548	35249
592.562	35326
592.600	34917
592.633	34572
592.653	34607
592.704	34516
592.705	34686
592.775	33320
592.846	34551
592.916	33809
592.987	35066
593.058	34072
593.128	33231
593.199	32178
593.270	32304
593.341	32118
593.411	32438
593.482	33195
593.553	32910
593.623	31371
593.694	32265
593.764	33903
593.835	34224
593.906	31583
593.976	31370
594.047	32028
594.117	34464
594.188	36663
594.258	34411
594.329	32522
594.399	33140
594.470	32811
594.540	33404
594.611	33431
594.681	34108
594.751	33922
594.822	34040
594.892	35269
594.963	37152
595.033	36311
595.103	38250
595.174	38811
595.244	40514
595.314	46005
595.384	44607
595.455	37594
595.525	39531
595.595	38770
595.665	40179
595.736	39837
595.806	40963
595.876	39338
595.946	40381
596.016	39134
596.087	42164
596.157	41663
596.227	41695
596.297	42088
596.367	44895
596.437	46717
596.507	50154
596.577	53741
596.647	52283
596.717	49647
596.787	51155
596.857	50803
596.927	50782
596.997	50036
597.067	51452
597.137	50705
597.207	52837
597.277	52230
597.347	52241
597.417	49775
597.487	49702
597.557	50411
597.626	51720
597.696	52364
597.766	53423
597.836	56454
597.906	53894
597.975	46554
598.045	46446
598.115	46112
598.185	49504
598.254	52321
598.324	58928
598.394	60366
598.464	60779
598.533	58819
598.603	56885
598.672	53009
598.742	54487
598.812	54218
598.881	54806
598.951	55152
599.020	54906
599.090	55174
599.159	57897
599.229	55238
599.299	54794
599.368	53546
599.437	57218
599.507	52545
599.576	50914
599.646	49454
599.715	49742
599.785	48855
599.854	48076
599.924	47624
599.993	47752
600.062	46321
600.132	47665
600.201	47514
600.270	54790
600.340	60125
600.409	59941
600.478	57817
600.547	59936
600.617	60182
600.686	50929
600.755	43176
600.824	42902
600.894	39017
600.963	39294
601.032	38695
601.101	38770
601.170	37422
601.239	35833
601.308	36447
601.378	38412
601.447	35332
601.516	36095
601.585	36139
601.654	37901
601.723	39072
601.792	37609
601.861	37274
601.930	39265
601.999	40665
602.068	40575
602.137	40817
602.206	43994
602.275	40712
602.343	42098
602.412	44296
602.481	42362
602.550	40909
602.619	42039
602.688	43802
602.756	43130
602.825	43211
602.894	43090
602.963	44883
603.032	46022
603.100	44997
603.169	44397
603.238	45521
603.307	46466
603.375	46067
603.444	46613
603.513	47314
603.581	47825
603.650	48516
603.719	49153
603.787	47961
603.856	49445
603.924	50464
603.993	51988
604.061	52919
604.130	55317
604.198	56586
604.267	57419
604.335	57668
604.404	59190
604.472	59483
604.541	60429
604.609	60891
604.678	62708
604.746	60705
604.815	62975
604.883	63466
604.951	64624
605.020	64684
605.088	64154
605.156	65839
605.225	69213
605.293	68174
605.361	67975
605.429	68177
605.498	69975
605.566	71110
605.634	74263
605.702	76426
605.771	79518
605.839	80451
605.907	79462
605.975	77998
606.043	75521
606.111	73167
606.180	74947
606.248	74336
606.316	72820
606.384	74036
606.452	75851
606.520	77367
606.588	79842
606.656	77187
606.724	78349
606.792	74954
606.860	69594
606.928	60960
606.996	57751
607.064	56371
607.132	55364
607.200	58823
607.267	61392
607.335	63066
607.403	65918
607.471	64624
607.539	61742
607.607	61839
607.674	58491
607.742	54523
607.810	55725
607.878	53865
607.946	55335
608.013	55675
608.081	59806
608.149	59350
608.216	60748
608.284	61898
608.352	63951
608.419	63345
608.487	63325
608.555	63873
608.622	62508
608.690	61934
608.757	67979
608.825	73650
608.893	73469
608.960	72370
609.028	71688
609.095	70069
609.163	68061
609.230	63327
609.298	56012
609.365	53514
609.432	58304
609.500	60864
609.567	68975
609.635	80147
609.702	90267
609.769	89160
609.837	82005
609.904	62869
609.971	61599
610.039	65618
610.106	76463
610.173	116219
610.241	259576
610.308	436202
610.375	201599
610.442	97271
610.509	67832
610.577	61594
610.644	60781
610.711	61897
610.778	64295
610.845	64123
610.912	69445
610.980	72604
611.047	74905
611.114	72085
611.181	71589
611.248	68813
611.315	70480
611.382	72822
611.449	77319
611.516	79211
611.583	78354
611.650	78780
611.717	79906
611.784	79977
611.851	82866
611.918	89305
611.984	99536
612.051	125841
612.118	201606
612.185	465969
612.252	860631
612.319	255522
612.386	114264
612.452	100625
612.519	94336
612.586	91264
612.653	92639
612.719	90978
612.786	92439
612.853	85705
612.919	80500
612.986	80455
613.053	80008
613.120	74589
613.186	70757
613.253	70945
613.319	70914
613.386	69669
613.453	70781
613.519	73259
613.586	74227
613.652	77671
613.719	78982
613.785	76556
613.852	74261
613.918	72990
613.985	71622
614.051	73460
614.118	75654
614.184	75870
614.250	71643
614.317	73774
614.383	72578
614.449	73066
614.516	74243
614.582	73743
614.648	74128
614.715	71975
614.781	71495
614.847	69592
614.914	70704
614.980	70619
615.046	68932
615.112	69038
615.179	72729
615.245	72907
615.311	77834
615.377	85132
615.443	105994
615.509	92343
615.575	81050
615.642	79062
615.708	79211
615.774	82564
615.840	86910
615.906	97037
615.972	115211
616.038	169293
616.104	302482
616.170	561304
616.236	1143260
616.302	449950
616.368	152595
616.434	121722
616.500	96066
616.565	94788
616.631	109902
616.697	118469
616.763	100826
616.829	116177
616.895	193321
616.961	292139
617.026	192822
617.092	91928
617.158	78582
617.224	76178
617.289	72792
617.355	68668
617.421	66147
617.487	65653
617.552	64703
617.618	60763
617.684	60879
617.749	61816
617.815	60809
617.880	57756
617.946	58422
618.012	56765
618.077	60152
618.143	58737
618.208	57990
618.274	59655
618.339	65430
618.405	60559
618.470	52247
618.536	52519
618.601	52719
618.667	52580
618.732	48324
618.798	47262
618.863	46593
618.928	45283
618.994	45985
619.059	46946
619.124	48734
619.190	53105
619.255	46804
619.320	44697
619.386	46528
619.451	44712
619.516	46242
619.581	44353
619.647	44617
619.712	45535
619.777	45397
619.842	43815
619.907	46198
619.972	45147
620.038	47200
620.103	44835
620.168	44239
620.233	43885
620.298	45511
620.363	45185
620.428	47289
620.493	46839
620.558	47693
620.623	47350
620.688	49250
620.753	48111
620.818	48725
620.883	48736
620.948	48741
621.013	48491
621.078	48231
621.143	47051
621.207	50498
621.272	48982
621.337	49713
621.402	48214
621.467	49353
621.532	52771
621.596	50102
621.661	48483
621.726	45778
621.791	44360
621.855	46218
621.920	47244
621.985	47434
622.049	48649
622.114	49597
622.179	50126
622.243	48781
622.308	51424
622.373	51594
622.437	52882
622.502	50949
622.566	48628
622.631	48559
622.695	49129
622.760	49398
622.824	49068
622.889	50293
622.953	49808
623.018	52316
623.082	61930
623.147	55163
623.211	51144
623.276	50699
623.340	49896
623.404	47454
623.469	46067
623.533	46593
623.597	46898
623.662	46276
623.726	45577
623.790	41816
623.854	39951
623.919	41293
623.983	40178
624.047	43161
624.111	40926
624.176	41992
624.240	42209
624.304	47308
624.368	45068
624.432	42994
624.496	43287
624.560	45165
624.625	48552
624.689	47759
624.753	45507
624.817	47208
624.881	44834
624.945	43465
625.009	39242
625.073	39655
625.137	40694
625.201	43808
625.265	47817
625.329	44188
625.393	40474
625.456	42652
625.520	42179
625.584	43720
625.648	46160
625.712	50010
625.776	61624
625.839	83471
625.903	73513
625.967	41203
626.031	40060
626.095	53160
626.158	57242
626.222	37738
626.286	31157
626.349	30092
626.413	28588
626.477	27941
626.540	29481
626.604	28670
626.668	26822
626.731	27260
626.795	27068
626.858	27741
626.922	27803
626.986	27486
627.049	26042
627.113	27151
627.176	27486
627.240	26375
627.303	25479
627.366	26145
627.430	25857
627.493	26483
627.557	26149
627.620	27000
627.684	25881
627.747	27516
627.810	26516
627.874	25568
627.937	22403
628.000	23904
628.064	23289
628.127	22855
628.190	20244
628.253	21513
628.317	20789
628.380	19140
628.443	18661
628.506	19516
628.569	18864
628.632	17725
628.696	17484
628.759	17331
628.822	16314
628.885	17420
628.948	15744
629.011	16983
629.074	16060
629.137	16001
629.200	15422
629.263	15745
629.326	16633
629.389	16314
629.452	15771
629.515	15434
629.578	15064
629.641	15372
629.704	15658
629.767	16206
629.830	15558
629.892	14367
629.955	14438
630.018	15152
630.081	14028
630.144	16303
630.207	16597
630.269	15324
630.332	14971
630.395	15949
630.458	13812
630.520	14539
630.583	13335
630.646	13895
630.708	12958
630.771	13354
630.834	13270
630.896	14725
630.959	13130
631.021	14453
631.084	13060
631.146	14288
631.209	14268
631.272	14765
631.334	13630
631.397	14040
631.459	13283
631.522	14149
631.584	14473
631.646	16640
631.709	15668
631.771	17090
631.834	17726
631.896	14792
631.958	13520
632.021	13683
632.083	13227
632.145	13113
632.208	12089
632.270	14131
632.332	12354
632.395	13187
632.457	12207
632.519	12886
632.581	12449
632.643	12779
632.706	12420
632.768	12734
632.830	12254
632.892	13063
632.954	11567
633.016	13549
633.078	12807
633.141	12677
633.203	11978
633.265	12778
633.327	12152
633.389	12845
633.451	12187
633.513	14377
633.575	14086
633.637	14432
633.698	13901
633.760	14470
633.822	12056
633.884	13808
633.946	13334
634.008	14122
634.070	14048
634.132	14565
634.193	14899
634.255	16715
634.317	16419
634.379	17165
634.441	15698
634.502	15070
634.564	13407
634.626	13115
634.687	13033
634.749	13217
634.811	11707
634.873	12251
634.934	11743
634.996	12275
635.057	12392
635.119	11104
635.181	11724
635.242	12155
635.304	11582
635.365	12874
635.427	11706
635.488	12483
635.550	11335
635.611	12537
635.673	10822
635.734	12058
635.796	12423
635.857	13855
635.918	13746
635.980	15677
636.041	15105
636.102	16454
636.164	17186
636.225	17284
636.286	16644
636.348	15274
636.409	12579
636.470	12611
636.531	11161
636.593	12457
636.654	12172
636.715	11386
636.776	9837
636.838	10527
636.899	9707
636.960	10215
637.021	9811
637.082	10483
637.143	10278
637.204	9395
637.265	9272
637.326	9948
637.387	8914
637.448	9128
637.509	9239
637.570	10273
637.631	8880
637.692	9010
637.753	8065
637.814	9497
637.875	8809
637.936	9432
637.997	8473
638.058	8611
638.119	9098
638.179	9663
638.240	8707
638.301	9518
638.362	8868
638.423	8656
638.483	8463
638.544	8536
638.605	7859
638.666	7992
638.726	8319
638.787	9052
638.848	7131
638.908	8981
638.969	7628
639.030	8547
639.090	7718
639.151	8805
639.211	7985
639.272	8973
639.332	9946
639.393	13624
639.453	8560
639.514	9032
639.574	8536
639.635	8248
639.695	7559
639.756	8337
639.816	7643
639.877	7756
639.937	8869
639.997	13877
640.058	12717
640.118	8119
640.178	6573
640.239	7540
640.299	6498
640.359	7112
640.420	6907
640.480	7857
640.540	8130
640.600	10075
640.661	8413
640.721	8279
640.781	9583
640.841	8916
640.901	8130
640.961	8092
641.021	7571
641.082	9381
641.142	9663
641.202	10933
641.262	6364
641.322	7818
641.382	6745
641.442	7484
641.502	6654
641.562	7733
641.622	6489
641.682	7639
641.742	7447
641.802	8693
641.861	7256
641.921	7546
641.981	7428
642.041	8295
642.101	8174
642.161	9305
642.221	6559
642.280	6435
642.340	6293
642.400	6657
642.460	6081
642.519	7066
642.579	6657
642.639	7005
642.698	6128
642.758	7460
642.818	6744
642.877	7272
642.937	6705
642.997	8441
643.056	7924
643.116	10048
643.175	7591
643.235	7831
643.294	7357
643.354	7873
643.414	7200
643.473	9811
643.532	9642
643.592	15213
643.651	21044
643.711	35836
643.770	64394
643.830	129487
643.889	348116
643.948	463036
644.008	63098
644.067	19067
644.126	12343
644.186	9874
644.245	9299
644.304	7913
644.363	7450
644.423	7535
644.482	6336
644.541	7383
644.600	6211
644.659	8792
644.719	9295
644.778	13672
644.837	19749
644.896	36495
644.955	79341
645.014	129396
645.073	24955
645.132	9349
645.191	8318
645.250	7862
645.309	6479
645.368	8025
645.427	8735
645.486	10908
645.545	20930
645.604	24488
645.663	8236
645.722	6716
645.781	7703
645.840	8059
645.898	9258
645.957	13572
646.016	18936
646.075	32965
646.134	58839
646.192	115782
646.251	339889
646.310	282411
646.369	31274
646.427	14394
646.486	11564
646.545	9421
646.603	7406
646.662	6949
646.721	6179
646.779	6415
646.838	5583
646.896	7449
646.955	9616
647.014	13348
647.072	20623
647.131	41909
647.189	90532
647.248	24961
647.306	7557
647.365	5895
647.423	4897
647.481	6686
647.540	3626
647.598	5880
647.657	4606
647.715	5369
647.773	4197
647.832	5789
647.890	3908
647.948	4439
648.007	4282
648.065	5093
648.123	4656
648.181	5022
648.240	4819
648.298	4343
648.356	3576
648.414	5001
648.472	4962
648.531	5480
648.589	3772
648.647	4443
648.705	3896
648.763	4957
648.821	4071
648.879	4763
648.937	4560
648.995	6199
649.053	7215
649.111	9859
649.169	14341
649.227	26862
649.285	46511
649.343	106857
649.401	249765
649.459	65110
649.516	19852
649.574	10285
649.632	7484
649.690	8366
649.748	8441
649.806	9240
649.863	15105
649.921	27255
649.979	68536
650.037	26577
650.094	5698
650.152	4699
650.210	3977
650.268	4056
650.325	4526
650.383	4735
650.440	3542
650.498	4705
650.556	3484
650.613	3720
650.671	3713
650.728	3595
650.786	3815
650.843	3808
650.901	4638
650.958	3802
651.016	2976
651.073	3376
651.131	2005
651.188	3134
651.246	3560
651.303	2706
651.360	2387
651.418	3503
651.475	2768
651.532	3120
651.590	2817
651.647	2566
651.704	2554
651.762	3539
651.819	2631
651.876	2896
651.933	2774
651.990	3495
652.048	2235
652.105	2479
652.162	2827
652.219	2791
652.276	2798
652.333	3094
652.390	1795
652.448	2124
652.505	1840
652.562	3543
652.619	1807
652.676	2957
652.733	2632
652.790	2707
652.847	1472
652.904	2496
652.961	1982
653.017	3142
653.074	2117
653.131	2826
653.188	2197
653.245	3168
653.302	2377
653.359	3549
653.415	2344
653.472	1618
653.529	1847
653.586	2493
653.642	1598
653.699	2844
653.756	1026
653.813	2526
653.869	1441
653.926	2057
653.983	1847
654.039	2822
654.096	1641
654.152	2758
654.209	1635
654.266	2780
654.322	1699
654.379	2542
654.435	2379
654.492	3545
654.548	3499
654.605	3702
654.661	5848
654.717	2635
654.774	1852
654.830	1949
654.887	2060
654.943	2681
655.000	2353
655.056	3010
655.112	1343
655.168	2371
655.225	2475
655.281	2587
655.337	2178
655.394	4381
655.450	4417
655.506	3845
655.562	3455
655.618	6685
655.675	3321
655.731	3022
655.787	2039
655.843	2409
655.899	2385
655.955	2858
656.011	1882
656.067	2945
656.123	2355
656.179	3549
656.235	3454
656.291	2374
656.347	3156
656.403	3122
656.459	2675
656.515	3600
656.571	2157
656.627	2862
656.683	1620
656.739	3633
656.795	2244
656.850	2434
656.906	2696
656.962	3273
657.018	1912
657.074	1456
657.129	1661
657.185	3451
657.241	4573
657.297	9188
657.352	4651
657.408	2067
657.464	2807
657.519	2823
657.575	2363
657.630	2210
657.686	2799
657.742	2050
657.797	1265
657.853	2489
657.908	2234
657.964	2332
658.019	1846
658.075	2634
658.130	1879
658.186	2539
658.241	1276
658.297	1848
658.352	594
658.407	2417
658.463	1065
658.518	2249
658.573	1568
658.629	2226
658.684	1577
658.739	1800
658.795	992
658.850	1825
658.905	1208
658.960	2795
659.016	1345
659.071	2304
659.126	1570
659.181	2081
659.236	2245
659.291	4320
659.346	2665
659.401	2799
659.457	2036
659.512	1635
659.567	2463
659.622	2179
659.677	1209
659.732	1369
659.787	629
659.842	1655
659.897	1688
659.952	2574
660.007	1086
660.061	1412
660.116	1476
660.171	1997
660.226	1692
660.281	1884
660.336	667
660.391	1864
660.445	1163
660.500	2372
660.555	1184
660.610	1354
660.664	2952
660.719	1552
660.774	1388
660.828	2167
660.883	776
660.938	3222
660.992	1106
661.047	1846
661.101	743
661.156	1439
661.211	949
661.265	1542
661.320	1150
661.374	1247
661.429	1422
661.483	2164
661.538	1244
661.592	1504
661.647	1503
661.701	2101
661.755	1740
661.810	1867
661.864	616
661.919	782
661.973	1500
662.027	1527
662.081	786
662.136	1708
662.190	141
662.244	2380
662.299	1875
662.353	1979
662.407	989
662.461	2209
662.515	1325
662.569	2412
662.624	2148
662.678	1438
662.732	887
662.786	1632
662.840	1783
662.894	2071
662.948	1378
663.002	1936
663.056	1705
663.110	1352
663.164	1029
663.218	1739
663.272	874
663.326	1472
663.380	1232
663.434	2400
663.488	1001
663.542	2456
663.595	1485
663.649	1858
663.703	2710
663.757	2399
663.811	1385
663.864	1821
663.918	1697
663.972	1764
664.026	1463
664.079	1924
664.133	576
664.187	1987
664.240	1186
664.294	2234
664.348	1319
664.401	2192
664.455	1686
664.508	2049
664.562	1723
664.615	2936
664.669	1629
664.722	2170
664.776	471
664.829	1773
664.883	1092
664.936	1920
664.990	2283
665.043	2581
665.097	1944
665.150	2261
665.203	1740
665.257	1727
665.310	1684
665.363	2146
665.417	1484
665.470	2354
665.523	2402
665.576	3060
665.630	966
665.683	1598
665.736	2239
665.789	2564
665.842	738
665.895	2145
665.949	1609
666.002	2210
666.055	1088
666.108	2179
666.161	1754
666.214	2485
666.267	1646
666.320	2422
666.373	1917
666.426	1815
666.479	1661
666.532	2614
666.585	1249
666.638	2984
666.691	2298
666.744	2812
666.796	2784
666.849	2600
666.902	2193
666.955	1776
667.008	1420
667.060	1706
667.113	1477
667.166	2106
667.219	1463
667.271	2348
667.324	1234
667.377	2235
667.430	2315
667.482	1408
667.535	1232
667.587	2265
667.640	1761
667.693	1733
667.745	1580
667.798	3989
667.850	3340
667.903	1879
667.955	1740
668.008	1996
668.060	2125
668.113	2828
668.165	1516
668.218	2731
668.270	1441
668.322	1658
668.375	1915
668.427	2717
668.479	1930
668.532	2248
668.584	1085
668.636	2860
668.689	1583
668.741	1576
668.793	1967
668.845	2367
668.898	2529
668.950	1726
669.002	1497
669.054	2179
669.106	1343
669.158	2244
669.211	1672
669.263	1746
669.315	1656
669.367	2210
669.419	2091
669.471	2964
669.523	1390
669.575	3638
669.627	2250
669.679	2659
669.731	1608
669.783	3208
669.835	1753
669.886	2605
669.938	1719
669.990	2196
670.042	1945
670.094	2245
670.146	3024
670.197	2640
670.249	3785
670.301	5149
670.353	5495
670.404	8291
670.456	11972
670.508	17882
670.560	28969
670.611	50036
670.663	87204
670.715	152619
670.766	363628
670.818	501913
670.869	138368
670.921	27896
670.972	14048
671.024	10405
671.075	7117
671.127	5149
671.178	4054
671.230	4772
671.281	3670
671.333	3947
671.384	3368
671.436	4069
671.487	4081
671.538	5088
671.590	5217
671.641	9231
671.692	12320
671.744	22372
671.795	40162
671.846	22674
671.897	6982
671.949	5055
672.000	3003
672.051	2656
672.102	2473
672.153	2459
672.204	1949
672.256	2733
672.307	1889
672.358	2163
672.409	1697
672.460	2269
672.511	758
672.562	1591
672.613	1732
672.664	2300
672.715	1604
672.766	1802
672.817	474
672.868	1897
672.919	1603
672.970	1156
673.021	726
673.071	1627
673.122	1013
673.173	1650
673.224	1352
673.275	1750
673.326	539
673.376	1218
673.427	1014
673.478	840
673.528	1446
673.579	1630
673.630	1191
673.680	2104
673.731	833
673.782	1474
673.832	459
673.883	1592
673.934	1464
673.984	1925
674.035	617
674.085	1914
674.136	911
674.186	1778
674.237	1377
674.287	1528
674.338	2939
674.388	2141
674.438	953
674.489	1426
674.539	494
674.589	1613
674.640	1114
674.690	1986
674.740	393
674.791	1270
674.841	1389
674.891	2123
674.942	1801
674.992	1863
675.042	714
675.092	654
675.142	1171
675.193	1984
675.243	888
675.293	663
675.343	535
675.393	1367
675.443	2095
675.493	1044
675.543	793
675.593	1055
675.643	1707
675.693	1142
675.743	948
675.793	960
675.843	-276
675.893	1322
675.943	1435
675.993	1674
676.043	1041
676.093	1244
676.142	-57
676.192	1605
676.242	526
676.292	1612
676.341	520
676.391	1484
676.441	755
676.491	841
676.540	166
676.590	709
676.640	280
676.689	944
676.739	407
676.789	1455
676.838	-127
676.888	1439
676.937	140
676.987	1198
677.037	415
677.086	1534
677.136	277
677.185	563
677.235	667
677.284	1586
677.333	-70
677.383	493
677.432	121
677.482	596
677.531	189
677.580	707
677.630	1060
677.679	852
677.728	353
677.778	860
677.827	882
677.876	1101
677.925	255
677.975	1588
678.024	265
678.073	145
678.122	396
678.171	1274
678.220	775
678.269	736
678.319	675
678.368	1383
678.417	975
678.466	1624
678.515	683
678.564	1224
678.613	696
678.662	882
678.711	118
678.760	1537
678.809	-182
678.857	1264
678.906	500
678.955	1422
679.004	1085
679.053	1436
679.102	34
679.151	1512
679.199	1182
679.248	1333
679.297	936
679.346	812
679.394	1071
679.443	1190
679.492	853
679.540	915
679.589	574
679.638	1001
679.686	606
679.735	189
679.784	822
679.832	1729
679.881	1098
679.929	232
679.978	-427
680.026	802
680.075	955
680.123	148
680.172	392
680.220	87
680.268	104
680.317	659
680.365	606
680.414	632
680.462	648
680.510	606
680.559	-191
680.607	446
680.655	418
680.703	284
680.752	-53
680.800	1045
680.848	45
680.896	1211
680.945	41
680.993	172
681.041	-38
681.089	696
681.137	69
681.185	295
681.233	634
681.258	342
681.281	17
681.329	173
681.377	1326
681.380	1327
681.425	422
681.473	555
681.502	863
681.521	995
681.569	1785
681.617	912
681.624	992
681.665	1138
681.713	1183
681.745	1847
681.761	2088
681.809	1656
681.857	2144
681.867	2030
681.904	1420
681.952	2479
681.989	1877
682.000	1647
682.048	2471
682.096	2321
682.111	2319
682.143	2133
682.191	2397
682.233	3013
682.239	3056
682.286	2892
682.334	1835
682.354	1622
682.382	1239
682.430	3063
682.476	2951
682.477	2907
682.525	2950
682.572	2526
682.598	3197
682.620	3703
682.667	2667
682.715	3598
682.720	3574
682.763	2962
682.810	4010
682.841	3717
682.857	3492
682.905	4522
682.952	4020
682.963	4231
683.000	4712
683.047	3994
683.085	4669
683.095	4807
683.142	3787
683.190	4412
683.206	4268
683.237	3969
683.284	5187
683.328	4554
683.332	4461
683.379	4790
683.426	4855
683.449	4949
683.473	4946
683.521	4521
683.568	5378
683.571	5422
683.615	5643
683.662	5251
683.693	5247
683.709	5179
683.757	6026
683.804	5926
683.814	5787
683.851	5158
683.898	5134
683.936	5949
683.945	6122
683.992	5590
684.039	6868
684.057	6675
684.086	6328
684.133	7405
684.179	7222
684.180	7182
684.227	7151
684.274	7501
684.300	7647
684.321	7669
684.368	7209
684.415	7717
684.422	7675
684.462	7203
684.509	7852
684.543	7444
684.556	7257
684.603	7105
684.649	6781
684.665	6958
684.696	7305
684.743	6964
684.786	7604
684.790	7646
684.837	7773
684.883	7643
684.908	7700
684.930	7841
684.977	8573
685.023	9414
685.029	9504
685.070	9604
685.117	8804
685.150	9133
685.164	9211
685.210	8403
685.257	8963
685.272	8814
685.303	8749
685.350	9785
685.393	9661
685.396	9608
685.443	9814
685.490	10197
685.514	10329
685.536	10608
685.583	10484
685.629	11132
685.636	11200
685.675	10864
685.722	10949
685.757	10147
685.768	9938
685.815	10876
685.861	10542
685.878	10668
685.908	10923
685.954	10309
686.000	11149
686.000	11153
686.047	11062
686.093	12406
686.121	12136
686.139	12148
686.185	13231
686.232	13767
686.242	14138
686.278	14011
686.324	12265
686.363	11911
686.370	11923
686.416	11062
686.463	11198
686.484	10685
686.509	10386
686.555	11515
686.601	11207
686.606	11300
686.647	11835
686.693	11521
686.727	11687
686.739	11774
686.785	11112
686.831	11629
686.848	11578
686.877	11495
686.923	11924
686.969	11129
686.969	11122
687.015	11423
687.061	11221
687.090	11246
687.107	11395
687.153	12309
687.199	11995
687.211	12055
687.245	12016
687.291	11843
687.332	11784
687.336	11816
687.382	12875
687.428	13339
687.453	13596
687.474	13587
687.520	13014
687.565	13492
687.574	13416
687.611	12992
687.657	12339
687.695	12432
687.702	12529
687.748	13297
687.794	13076
687.816	13276
687.839	13551
687.885	13364
687.931	13623
687.937	13688
687.976	13426
688.022	13362
688.058	12938
688.067	12964
688.113	13771
688.158	13527
688.179	13820
688.204	14091
688.249	13587
688.295	13940
688.300	13911
688.340	13804
688.386	14792
688.421	13944
688.431	13806
688.477	14396
688.522	14915
688.542	15366
688.567	15605
688.613	15149
688.658	15161
688.663	15089
688.703	14683
688.749	14986
688.784	14543
688.794	14501
688.839	14561
688.884	14867
688.905	14929
688.930	14727
688.975	14329
689.020	14366
689.026	14296
689.065	14446
689.110	14740
689.146	14560
689.155	14504
689.201	15166
689.246	14831
689.267	15021
689.291	15163
689.336	14974
689.381	14983
689.388	14776
689.426	14028
689.471	15027
689.509	15007
689.516	15011
689.561	15285
689.606	15024
689.630	15281
689.651	15485
689.696	14744
689.741	15378
689.750	15283
689.785	15110
689.830	15719
689.871	15314
689.875	15279
689.920	14971
689.965	14897
689.992	14985
690.010	15113
690.054	14540
690.099	15017
690.112	14983
690.144	15061
690.189	15161
690.233	15287
690.233	15309
690.278	15377
690.323	15020
690.354	15325
690.367	15536
690.412	15225
690.457	15512
690.474	15501
690.501	15479
690.546	15650
690.590	15573
690.595	15530
690.635	15314
690.680	15164
690.716	15358
690.724	15464
690.769	15518
690.813	15957
690.836	15747
690.857	15623
690.902	16254
690.946	16072
690.957	16092
690.991	16322
691.035	16555
691.077	16881
691.080	16941
691.124	17560
691.168	17808
691.198	18010
691.213	18148
691.257	19249
691.301	19262
691.318	19424
691.346	19489
691.390	19178
691.434	19559
691.439	19505
691.478	18835
691.522	18126
691.559	17640
691.567	17728
691.611	18167
691.655	18331
691.680	18486
691.699	18602
691.743	18342
691.787	18637
691.800	18625
691.831	18438
691.875	18320
691.919	17763
691.921	17731
691.964	18311
692.008	18483
692.041	18695
692.052	18851
692.096	18855
692.139	19552
692.162	19653
692.183	19496
692.227	19100
692.271	18712
692.282	18669
692.315	19051
692.359	18844
692.402	19508
692.403	19550
692.447	19134
692.490	19113
692.523	19241
692.534	19366
692.578	19246
692.622	19241
692.643	19158
692.666	19331
692.709	19636
692.753	19945
692.763	19926
692.797	19455
692.840	19375
692.884	18990
692.884	19027
692.928	18580
692.971	18246
693.004	18060
693.015	18237
693.059	18703
693.102	19388
693.124	19466
693.146	19387
693.189	19591
693.233	19548
693.245	19564
693.276	20118
693.320	20355
693.363	20801
693.365	20766
693.407	20565
693.450	20833
693.485	20746
693.493	20734
693.537	20754
693.580	20233
693.605	20034
693.624	20276
693.667	20651
693.710	21139
693.725	21276
693.753	21348
693.797	21204
693.840	21147
693.845	21128
693.883	22539
693.926	23517
693.966	25037
693.970	25093
694.013	24200
694.056	23971
694.086	23506
694.099	23112
694.142	22197
694.185	20743
694.206	20186
694.229	20561
694.272	20863
694.315	21492
694.326	21492
694.358	21630
694.401	22246
694.444	22472
694.446	22444
694.487	23093
694.530	23616
694.566	24016
694.573	24001
694.616	23322
694.659	23142
694.686	22709
694.702	22311
694.745	21134
694.787	19927
694.806	19433
694.830	19555
694.873	19503
694.916	19660
694.926	19593
694.959	19716
695.002	20066
695.044	19967
695.046	19937
695.087	20332
695.130	20292
695.166	20383
695.172	20501
695.215	20741
695.258	21273
695.286	21415
695.301	21395
695.343	21315
695.386	21167
695.406	21033
695.428	21153
695.471	21300
695.514	21426
695.526	21421
695.556	21213
695.599	21056
695.641	20583
695.646	20487
695.684	21225
695.726	21932
695.766	22754
695.769	22782
695.811	22150
695.854	21700
695.886	21139
695.896	21201
695.938	21455
695.981	21564
696.005	21655
696.023	21641
696.065	21173
696.108	21020
696.125	20812
696.150	20915
696.192	21262
696.235	21436
696.245	21429
696.277	21820
696.319	22048
696.361	22686
696.365	22658
696.404	22493
696.446	22538
696.485	22180
696.488	22210
696.530	22092
696.572	21670
696.604	21602
696.614	21731
696.656	21821
696.698	22009
696.724	21996
696.740	22053
696.783	22099
696.825	22213
696.844	22150
696.867	22125
696.909	21975
696.951	21992
696.964	21896
696.992	21979
697.034	22062
697.076	22014
697.083	21974
697.118	22141
697.160	22260
697.202	22442
697.203	22383
697.244	22523
697.286	22802
697.323	22858
697.327	22910
697.369	22936
697.411	22944
697.442	22900
697.453	22931
697.494	22743
697.536	22549
697.562	22363
697.578	22603
697.620	23211
697.661	23713
697.682	23906
697.703	23974
697.744	23956
697.786	23963
697.801	23884
697.828	24663
697.869	25896
697.911	27030
697.921	27239
697.952	26816
697.994	26139
698.035	25488
698.040	25337
698.077	25023
698.118	24637
698.160	24204
698.160	24134
698.201	23630
698.243	22998
698.279	22405
698.284	22505
698.325	22865
698.367	23230
698.399	23391
698.408	23542
698.449	24012
698.491	24423
698.518	24666
698.532	24667
698.573	24414
698.614	24202
698.638	23991
698.656	24095
698.697	24209
698.738	24308
698.757	24293
698.779	24575
698.820	24967
698.862	25381
698.877	25462
698.903	25736
698.944	26060
698.985	26382
698.996	26400
699.026	26522
699.067	26589
699.116	26597
699.235	25197
699.354	25218
699.474	23505
699.593	24201
699.713	27959
699.832	25235
699.951	24994
700.070	26926
700.190	24617
700.309	23260
700.428	24230
700.547	26785
700.667	23866
700.786	24290
700.905	26866
701.024	22827
701.143	25138
701.262	23432
701.381	21741
701.500	22217
701.619	23018
701.738	25227
701.857	22678
701.976	21845
702.095	20602
702.214	21661
702.333	24185
702.452	24109
702.571	23093
702.690	20842
702.809	21124
702.928	21779
703.047	20718
703.165	21731
703.284	19830
703.403	19657
703.522	20309
703.640	23518
703.759	22818
703.878	27699
703.997	33566
704.115	22432
704.234	20636
704.353	20999
704.471	19625
704.590	18946
704.708	18683
704.827	18342
704.946	18512
705.064	20002
705.183	21008
705.301	19112
705.420	23061
705.538	29487
705.656	25390
705.775	23226
705.893	22011
706.012	24074
706.130	25004
706.249	24043
706.367	22899
706.485	23555
706.604	25238
706.722	24703
706.840	24575
706.958	29324
707.077	28733
707.195	23873
707.313	22148
707.431	21420
707.549	20412
707.668	21276
707.786	21856
707.904	22541
708.022	21565
708.140	20622
708.258	20648
708.376	21024
708.494	21098
708.612	21715
708.730	22046
708.848	30605
708.966	29183
709.084	27188
709.202	26353
709.320	24289
709.438	24958
709.556	25745
709.674	24938
709.791	24555
709.909	24460
710.027	23780
710.145	23951
710.263	24393
710.380	24142
710.498	23624
710.616	23307
710.733	23733
710.851	24599
710.969	23836
711.086	25580
711.204	24196
711.322	23262
711.439	23624
711.557	23216
711.674	24297
711.792	23262
711.909	22691
712.027	22048
712.144	21351
712.262	21917
712.379	22206
712.497	25325
712.614	32091
712.732	31766
712.849	27246
712.966	26344
713.084	29214
713.201	34524
713.318	28578
713.436	27321
713.553	27960
713.670	26991
713.787	28208
713.905	33066
714.022	30847
714.139	27232
714.256	27630
714.373	33732
714.490	43540
714.608	69059
714.725	177698
714.842	766400
714.959	666551
715.076	60924
715.193	35409
715.310	28786
715.427	27326
715.544	24945
715.661	22999
715.778	24186
715.895	23801
716.011	25457
716.128	25257
716.245	22633
716.362	24590
716.479	26804
716.596	28043
716.713	22084
716.829	22627
716.946	22259
717.063	22909
717.180	20875
717.296	20275
717.413	19358
717.530	19645
717.646	20542
717.763	21096
717.880	18807
717.996	18611
718.113	19880
718.229	21756
718.346	19924
718.462	18927
718.579	20386
718.695	25044
718.812	42100
718.928	31240
719.045	29335
719.161	21459
719.277	18270
719.394	18752
719.510	18368
719.626	18868
719.743	20092
719.859	25531
719.975	33489
720.092	57061
720.208	224117
720.324	475111
720.440	54688
720.557	23674
720.673	25630
720.789	34316
720.905	45453
721.021	91620
721.137	28970
721.253	18159
721.369	18271
721.486	18427
721.602	21781
721.718	29610
721.834	17642
721.950	16106
722.066	17159
722.181	16413
722.297	15736
722.413	18152
722.529	16025
722.645	15794
722.761	14972
722.877	15577
722.993	15623
723.108	15498
723.224	17829
723.340	16883
723.456	16173
723.571	14491
723.687	15242
723.803	14579
723.918	14717
724.034	14652
724.150	15456
724.265	15340
724.381	18051
724.497	36008
724.612	41187
724.728	14932
724.843	14038
724.959	14786
725.074	17102
725.190	33907
725.305	36302
725.421	15137
725.536	15051
725.651	12577
725.767	13016
725.882	13867
725.997	12089
726.113	13543
726.228	13239
726.343	12569
726.459	13128
726.574	12033
726.689	13687
726.804	12328
726.920	12121
727.035	12499
727.150	12335
727.265	12582
727.380	12432
727.495	13220
727.610	11876
727.725	11064
727.841	11654
727.956	11972
728.071	12970
728.186	13644
728.301	11925
728.416	11201
728.531	12426
728.645	12588
728.760	11338
728.875	12009
728.990	13195
729.105	12279
729.220	12840
729.335	13027
729.449	12598
729.564	10715
729.679	10691
729.794	9760
729.908	10605
730.023	12230
730.138	11376
730.253	10011
730.367	10750
730.482	9925
730.596	9660
730.711	11599
730.826	11579
730.940	11444
731.055	11332
731.169	12316
731.284	10401
731.398	10496
731.513	11117
731.627	13610
731.742	13239
731.856	14293
731.970	15991
732.085	14164
732.199	17832
732.313	23449
732.428	40286
732.542	95482
732.656	266230
732.771	139897
732.885	29886
732.999	18876
733.113	15705
733.227	14328
733.342	13626
733.456	12133
733.570	11789
733.684	11752
733.798	10995
733.912	11841
734.026	11335
734.140	10760
734.254	10361
734.368	12841
734.482	20059
734.596	23820
734.710	9977
734.824	10687
734.938	9988
735.052	10145
735.166	10497
735.280	11952
735.393	10404
735.507	10075
735.621	10528
735.735	13947
735.849	25238
735.962	12065
736.076	9517
736.190	10221
736.303	10218
736.417	14811
736.531	17831
736.644	10196
736.758	10508
736.872	9431
736.985	8619
737.099	8594
737.212	8654
737.326	9109
737.439	8496
737.553	9487
737.666	8614
737.780	8521
737.893	8605
738.007	8377
738.120	8650
738.233	9170
738.347	7993
738.460	8860
738.573	7696
738.687	9328
738.800	9085
738.913	9049
739.026	12552
739.140	9771
739.253	8557
739.366	7621
739.479	7591
739.592	9073
739.705	7865
739.818	8581
739.932	8550
740.045	7888
740.158	8821
740.271	9166
740.384	8364
740.497	8132
740.610	7729
740.723	9466
740.836	8562
740.949	9141
741.062	8702
741.174	13588
741.287	10811
741.400	8622
741.513	7652
741.626	8001
741.739	9626
741.851	8584
741.964	8260
742.077	8243
742.189	7464
742.302	8219
742.415	9767
742.527	9850
742.640	7870
742.753	7637
742.865	7142
742.978	7302
743.090	7463
743.203	7415
743.316	6726
743.428	7295
743.541	6862
743.653	7437
743.766	6152
743.878	7289
743.990	6700
744.103	10643
744.215	9660
744.327	8231
744.440	7665
744.552	9872
744.664	14158
744.777	8600
744.889	6342
745.001	6289
745.113	6711
745.226	6843
745.338	6222
745.450	7081
745.562	6816
745.674	6506
745.786	5908
745.898	6695
746.010	6439
746.122	5866
746.234	6641
746.347	6592
746.459	6747
746.570	6004
746.682	5833
746.794	6836
746.906	7374
747.018	6087
747.130	6481
747.242	6474
747.354	6298
747.466	6526
747.577	6147
747.689	7120
747.801	5659
747.913	5951
748.024	4963
748.136	5381
748.248	5441
748.359	6068
748.471	6339
748.583	6133
748.694	5788
748.806	5822
748.918	6109
749.029	8876
749.141	6791
749.252	7652
749.364	6260
749.475	8247
749.587	16301
749.698	10339
749.809	6041
749.921	6060
750.032	5191
750.144	5323
750.255	5049
750.366	4835
750.478	5353
750.589	5639
750.700	6474
750.811	6172
750.923	6528
751.034	7475
751.145	18090
751.256	17752
751.367	7066
751.479	5375
751.590	5133
751.701	5198
751.812	5214
751.923	5013
752.034	5141
752.145	6192
752.256	4800
752.367	4746
752.478	5352
752.589	5269
752.700	5457
752.811	4815
752.922	4924
753.032	5723
753.143	6927
753.254	7038
753.365	5183
753.476	5060
753.586	4830
753.697	4991
753.808	4645
753.919	4970
754.029	4479
754.140	4857
754.251	4529
754.361	4479
754.472	4707
754.582	4345
754.693	5161
754.804	4778
754.914	5214
755.025	4854
755.135	4391
755.246	4316
755.356	4573
755.466	5359
755.577	4390
755.687	5013
755.798	4818
755.908	4576
756.018	4314
756.129	4613
756.239	3819
756.349	4753
756.460	4968
756.570	5389
756.680	5173
756.790	5085
756.900	6014
757.011	5313
757.121	4072
757.231	3956
757.341	4289
757.451	3938
757.561	4817
757.671	3367
757.781	4501
757.891	4479
758.001	3788
758.111	5289
758.221	4343
758.331	5437
758.441	6113
758.551	5828
758.661	8823
758.771	8048
758.880	5021
758.990	4755
759.100	5228
759.210	5682
759.320	5013
759.429	5183
759.539	6117
759.649	5925
759.758	5524
759.868	6663
759.978	6763
760.087	7071
760.197	7095
760.307	6417
760.416	6743
760.526	6047
760.635	5492
760.745	5784
760.854	6040
760.964	7564
761.073	8354
761.182	7398
761.292	7725
761.401	6363
761.511	7384
761.620	6898
761.729	4660
761.839	5150
761.948	6261
762.057	5647
762.166	5479
762.276	5025
762.385	5764
762.494	5090
762.603	5106
762.712	5337
762.822	4592
762.931	5327
763.040	4417
763.149	4768
763.258	4943
763.367	4519
763.476	4844
763.585	4847
763.694	5693
763.803	4628
763.912	5392
764.021	5046
764.130	4897
764.238	4721
764.347	4541
764.456	5212
764.565	5621
764.674	5273
764.783	5499
764.891	5448
765.000	5385
765.109	5694
765.217	5308
765.326	5980
765.435	7116
765.543	9335
765.652	7340
765.761	7691
765.869	7914
765.978	11789
766.086	16418
766.195	26783
766.303	51601
766.412	138046
766.520	444689
766.629	438274
766.737	86343
766.846	29830
766.954	17736
767.062	13905
767.171	10537
767.279	9492
767.387	8222
767.496	7012
767.604	6552
767.712	6168
767.820	6074
767.928	6688
768.037	5532
768.145	5862
768.253	6215
768.361	6400
768.469	5299
768.577	5692
768.685	5268
768.793	5623
768.901	6340
769.009	6430
769.117	5991
769.225	6456
769.333	6558
769.441	9691
769.549	12481
769.657	22079
769.765	46475
769.873	158862
769.981	412968
770.088	132101
770.196	24040
770.304	13349
770.412	10380
770.519	8763
770.627	7789
770.735	6373
770.842	5537
770.950	5764
771.058	6088
771.165	6549
771.273	4974
771.380	5473
771.488	6168
771.595	6033
771.703	6612
771.810	5715
771.918	5769
772.025	5734
772.133	5662
772.240	6098
772.348	6165
772.455	5509
772.562	6262
772.670	5774
772.777	5803
772.884	5054
772.991	5776
773.099	4878
773.206	4676
773.313	5392
773.420	5093
773.528	5199
773.635	4840
773.742	5828
773.849	5265
773.956	5188
774.063	5719
774.170	5132
774.277	4840
774.384	5411
774.491	5417
774.598	5638
774.705	5511
774.812	5824
774.919	7828
775.026	5836
775.133	5344
775.239	5269
775.346	4484
775.453	5030
775.560	5258
775.667	4523
775.773	4685
775.880	5494
775.987	4852
776.093	4782
776.200	4896
776.307	5231
776.413	5083
776.520	4812
776.627	4918
776.733	5297
776.840	4297
776.946	5613
777.053	5264
777.159	5884
777.266	7050
777.372	6400
777.478	7058
777.585	6450
777.691	5688
777.798	4755
777.904	4947
778.010	5806
778.117	7769
778.223	8019
778.329	5013
778.435	4674
778.542	5170
778.648	4862
778.754	4321
778.860	4111
778.966	4639
779.072	5071
779.178	5011
779.284	3832
779.391	4389
779.497	3592
779.603	5037
779.708	4039
779.815	4722
779.920	4311
780.026	7900
780.132	10748
780.238	4579
780.344	4023
780.450	4076
780.556	3957
780.661	4193
780.767	3848
780.873	4827
780.979	3906
781.085	3957
781.190	4324
781.296	4549
781.402	4215
781.507	4012
781.613	3302
781.719	3016
781.824	4392
781.930	4323
782.035	3793
782.141	3888
782.246	4223
782.352	3395
782.457	3681
782.563	3552
782.668	3542
782.773	4320
782.879	3941
782.984	4224
783.090	4097
783.195	4878
783.300	8028
783.405	6225
783.511	4482
783.616	4521
783.721	4269
783.826	4618
783.932	3732
784.037	4269
784.142	4169
784.247	4621
784.352	4398
784.457	4666
784.562	3923
784.667	3912
784.772	3942
784.877	3199
784.982	3690
785.087	4015
785.192	3840
785.297	3692
785.402	3796
785.507	3541
785.611	3893
785.716	3856
785.821	3635
785.926	3827
786.031	3051
786.135	3772
786.240	3184
786.345	3744
786.450	3242
786.554	3051
786.659	4248
786.763	3513
786.868	4441
786.973	3658
787.077	3729
787.182	3338
787.286	3351
787.391	3687
787.495	3548
787.600	3292
787.704	2328
787.809	3135
787.913	3154
788.017	3544
788.122	3305
788.226	3560
788.330	2126
788.435	2779
788.539	2328
788.643	2973
788.747	3201
788.852	2343
788.956	2595
789.060	2941
789.164	2551
789.268	2950
789.372	2989
789.476	2987
789.580	3158
789.684	3000
789.788	2801
789.892	2689
789.996	3396
790.100	2723
790.204	3581
790.308	2862
790.412	3053
790.516	3310
790.620	2795
790.724	2724
790.828	2451
790.931	3027
791.035	3151
791.139	2261
791.242	2137
791.346	3818
791.450	2693
791.554	3851
791.657	2803
791.761	3138
791.864	3045
791.968	3703
792.072	3031
792.175	3137
792.279	3331
792.382	2496
792.486	3253
792.589	2590
792.693	3355
792.796	3485
792.899	2652
793.003	2823
793.106	3374
793.209	3320
793.313	3602
793.416	3078
793.519	3479
793.623	3663
793.726	5559
793.829	8256
793.932	3948
794.035	2445
794.138	2855
794.242	4040
794.345	4138
794.448	4102
794.551	4221
794.654	7843
794.757	7823
794.860	6523
794.963	4750
795.066	3982
795.169	3865
795.272	2466
795.375	2900
795.477	2278
795.580	2538
795.683	2730
795.786	3124
795.889	1837
795.991	3698
796.094	2663
796.197	3212
796.300	4148
796.402	2768
796.505	3154
796.608	2588
796.710	1865
796.813	2388
796.915	2175
797.018	2270
797.120	2854
797.223	2094
797.326	2637
797.428	2179
797.530	2518
797.633	2295
797.735	2025
797.838	3221
797.940	6710
798.042	5197
798.145	2733
798.247	1997
798.349	2023
798.452	2214
798.554	2432
798.656	2152
798.758	2714
798.860	2211
798.962	2415
799.065	2687
799.167	2437
799.269	2408
799.371	2942
799.473	3120
799.575	2999
799.677	3312
799.779	3816
799.881	4097
799.983	6880
800.085	3924
800.187	2239
800.289	2183
800.390	2860
800.492	2878
800.594	2780
800.696	2222
800.798	1873
800.899	1582
801.001	1546
801.103	2006
801.205	1575
801.306	2830
801.408	1948
801.509	3056
801.611	2633
801.713	2660
801.814	1183
801.916	2299
802.017	2696
802.119	1083
802.220	2336
802.322	1091
802.423	2248
802.525	3830
802.626	3208
802.727	2172
802.829	1805
802.930	1815
803.031	2249
803.133	2219
803.234	1470
803.335	2166
803.436	2099
803.538	1959
803.639	1964
803.740	1676
803.841	1527
803.942	2075
804.043	2945
804.144	1591
804.245	2130
804.346	1743
804.447	2201
804.548	2256
804.649	3943
804.750	4103
804.851	2035
804.952	1899
805.053	1739
805.154	1508
805.255	1739
805.355	1533
805.456	747
805.557	1418
805.658	788
805.758	2226
805.859	1380
805.960	1938
806.061	1582
806.161	894
806.262	2013
806.362	1055
806.463	2417
806.564	2165
806.664	1972
806.765	1813
806.865	2910
806.966	3653
807.066	2483
807.166	1785
807.267	1752
807.367	1580
807.468	2398
807.568	1105
807.668	1759
807.769	2072
807.869	1287
807.969	2074
808.069	1932
808.170	2475
808.270	1740
808.370	2317
808.470	1791
808.570	3312
808.670	3515
808.770	2321
808.870	1633
808.970	1843
809.070	1875
809.170	1378
809.271	1642
809.370	2264
809.470	1689
809.570	2010
809.670	1483
809.770	1294
809.870	2337
809.970	1899
810.070	2308
810.169	2112
810.269	1432
810.369	2149
810.469	1454
810.568	1470
810.668	956
810.768	1509
810.867	1730
810.967	2227
811.066	1947
811.166	1745
811.265	1850
811.365	2188
811.464	1075
811.564	2354
811.663	2245
811.763	2089
811.862	1735
811.962	2042
812.061	1955
812.160	1755
812.260	1860
812.359	2732
812.458	2521
812.557	4888
812.657	10182
812.756	17639
812.855	7495
812.954	3166
813.053	1818
813.153	2802
813.252	2566
813.351	2556
813.450	1323
813.549	2122
813.648	2212
813.747	1823
813.846	2381
813.945	3033
814.044	2217
814.143	3040
814.242	3024
814.341	2879
814.439	3316
814.538	3008
814.637	2128
814.736	2503
814.835	3952
814.933	3035
815.032	3987
815.131	3361
815.229	3105
815.328	4208
815.427	4786
815.525	4719
815.624	4375
815.722	4721
815.821	4726
815.919	5191
816.018	5425
816.116	6378
816.215	5996
816.313	6346
816.412	5999
816.510	6121
816.609	7264
816.707	6493
816.805	7711
816.904	8154
817.002	8326
817.100	9944
817.198	11176
817.296	12946
817.395	14678
817.493	17010
817.591	19167
817.689	21911
817.787	29227
817.885	40660
817.983	60471
818.081	95721
818.179	179878
818.277	360155
818.375	701715
818.473	724644
818.571	353143
818.669	164630
818.767	106546
818.865	83885
818.963	82284
819.061	92517
819.158	121355
819.256	183696
819.354	318262
819.452	579355
819.549	914056
819.647	806283
819.745	440167
819.842	230772
819.940	136439
820.038	94386
820.135	67724
820.233	52419
820.330	41030
820.428	32995
820.525	28158
820.623	23487
820.720	20034
820.818	18512
820.915	15480
821.012	14323
821.110	12790
821.207	10404
821.304	10516
821.402	9491
821.499	9949
821.596	8817
821.693	9410
821.791	8222
821.888	8010
821.985	9525
822.082	11966
822.179	12430
822.276	7446
822.373	5961
822.470	6028
822.567	5342
822.664	5585
822.761	5078
822.858	4711
822.955	5163
823.052	3975
823.149	4554
823.246	4390
823.343	4039
823.440	2971
823.536	3492
823.633	3019
823.730	2906
823.827	3379
823.923	3316
824.020	4197
824.117	3654
824.213	2524
824.310	4013
824.407	3277
824.503	3266
824.600	2554
824.696	3121
824.793	3272
824.889	2733
824.986	3331
825.082	3225
825.179	2279
825.275	2202
825.371	2067
825.468	2787
825.564	1589
825.660	2427
825.757	2140
825.853	2832
825.949	2317
826.045	2000
826.142	1547
826.238	1952
826.334	2184
826.430	2101
826.526	1769
826.622	2473
826.718	1703
826.814	2215
826.910	2328
827.006	1926
827.102	1360
827.198	1294
827.294	1502
827.390	2556
827.486	3104
827.582	1897
827.678	1601
827.774	2061
827.869	1329
827.965	2504
828.061	1508
828.157	1893
828.252	1453
828.348	1106
828.444	1406
828.539	1975
828.635	1997
828.731	1584
828.826	1348
828.922	1793
829.017	1805
829.113	1670
829.208	1205
829.304	2067
829.399	1996
829.495	2103
829.590	2314
829.685	1204
829.781	1853
829.876	1770
829.971	1902
830.066	1788
830.162	1923
830.257	1807
830.352	1803
830.447	1985
830.543	2239
830.638	1389
830.733	2905
830.828	1839
830.923	2217
831.018	1621
831.113	1967
831.208	1849
831.303	1612
831.398	1097
831.493	1074
831.588	1881
831.683	1337
831.778	883
831.873	1420
831.967	1747
832.062	1302
832.157	1750
832.252	1689
832.346	1096
832.441	1939
832.536	2289
832.631	3426
832.725	7089
832.820	7768
832.914	1771
833.009	1352
833.104	1013
833.198	1604
833.293	2899
833.387	2221
833.482	2063
833.576	1181
833.670	1410
833.765	1334
833.859	1710
833.954	2573
834.048	1843
834.142	1515
834.237	911
834.331	1162
834.425	923
834.519	1023
834.613	1399
834.708	886
834.802	487
834.896	-27
834.990	1454
835.084	571
835.178	708
835.272	1299
835.366	1238
835.460	1896
835.554	1676
835.648	504
835.742	1084
835.836	1029
835.930	534
836.024	1351
836.117	1370
836.211	1661
836.305	1779
836.399	2025
836.493	2959
836.586	1454
836.680	366
836.774	1081
836.867	1327
836.961	600
837.055	1129
837.148	548
837.242	812
837.335	1103
837.429	1092
837.522	634
837.616	664
837.709	2490
837.803	4743
837.896	3281
837.989	793
838.083	2269
838.176	2746
838.269	4919
838.363	5249
838.456	1515
838.549	1847
838.642	1865
838.735	4412
838.829	9090
838.922	4440
839.015	1548
839.108	1331
839.201	531
839.294	483
839.387	630
839.480	841
839.573	1142
839.666	2474
839.759	3272
839.852	1382
839.945	601
840.038	330
840.131	544
840.223	76
840.316	878
840.409	1179
840.502	321
840.594	983
840.687	282
840.780	1166
840.873	733
840.965	820
841.058	1404
841.150	1952
841.243	4511
841.336	5198
841.428	781
841.521	1059
841.613	1045
841.706	1855
841.798	1389
841.890	145
841.983	635
842.075	1527
842.167	618
842.260	354
842.352	1878
842.444	2140
842.537	3081
842.629	5262
842.721	9093
842.813	2048
842.905	830
842.997	1641
843.090	980
843.182	1912
843.274	2953
843.366	6605
843.458	12287
843.550	25079
843.642	17645
843.734	3439
843.826	1200
843.918	2773
844.009	2096
844.101	1541
844.193	467
844.285	606
844.377	1101
844.469	1077
844.560	1375
844.652	1447
844.744	1607
844.835	756
844.927	478
845.019	663
845.110	1384
845.202	1835
845.293	686
845.385	846
845.476	425
845.568	667
845.659	1024
845.751	1017
845.842	343
845.934	307
846.025	371
846.116	402
846.208	500
846.299	221
846.390	586
846.482	463
846.573	447
846.664	2121
846.755	2100
846.846	3734
846.937	3661
847.029	473
847.120	312
847.211	766
847.302	733
847.393	675
847.484	626
847.575	536
847.666	564
847.757	245
847.847	108
847.938	802
848.029	800
848.120	1074
848.211	1427
848.302	631
848.392	1050
848.483	956
848.574	624
848.664	514
848.755	505
848.846	1228
848.936	-44
849.027	504
849.118	906
849.208	1608
849.299	1292
849.389	1414
849.480	3746
849.570	7880
849.661	15031
849.751	26798
849.841	49126
849.932	23589
850.022	3893
850.112	1527
850.203	825
850.293	1362
850.383	1216
850.474	664
850.564	517
850.654	793
850.744	1049
850.834	481
850.924	644
851.014	786
851.104	310
851.194	329
851.284	978
851.374	1909
851.464	2324
851.554	1347
851.644	831
851.734	1735
851.824	1570
851.914	1773
852.004	1187
852.094	256
852.183	-86
852.273	582
852.363	727
852.452	1536
852.542	547
852.632	236
852.721	861
852.811	441
852.901	165
852.990	1586
853.080	1205
853.169	1322
853.259	738
853.348	1470
853.438	1651
853.527	2960
853.617	3404
853.706	5730
853.795	10809
853.885	19545
853.974	42936
854.063	82481
854.152	138757
854.242	239094
854.331	117981
854.420	22975
854.509	8909
854.598	5550
854.687	5195
854.777	4143
854.866	4071
854.955	2602
855.044	1370
855.133	1646
855.222	1316
855.311	470
855.400	833
855.488	1183
855.577	440
855.666	492
855.755	1403
855.844	878
855.933	344
856.021	1291
856.110	856
856.199	753
856.288	338
856.376	373
856.465	191
856.554	1224
856.642	690
856.731	1045
856.819	807
856.908	334
856.996	441
857.085	270
857.173	-26
857.262	115
857.350	1465
857.438	474
857.527	620
857.615	-310
857.703	-40
857.792	137
857.880	176
857.968	583
858.056	674
858.145	616
858.233	233
858.321	654
858.409	1058
858.497	293
858.585	1255
858.673	331
858.761	5
858.849	109
858.937	466
859.025	602
859.113	276
859.201	211
859.289	833
859.377	911
859.465	481
859.552	680
859.640	120
859.728	374
859.816	620
859.903	1344
859.991	-197
860.079	517
860.166	514
860.254	-101
860.342	434
860.429	-271
860.517	-181
860.604	254
860.692	606
860.779	-379
860.867	201
860.954	904
861.042	701
861.129	654
861.216	1327
861.304	590
861.391	300
861.478	966
861.565	245
861.653	474
861.740	-158
861.827	717
861.914	413
862.001	-338
862.089	-146
862.176	619
862.263	-67
862.350	-496
862.437	-16
862.524	271
862.611	417
862.698	657
862.785	275
862.871	765
862.958	1290
863.045	122
863.132	295
863.219	604
863.306	2
863.392	526
863.479	-247
863.566	229
863.652	-112
863.739	621
863.826	79
863.912	959
863.999	-515
864.086	321
864.172	243
864.259	271
864.345	371
864.432	915
864.518	1323
864.604	680
864.691	516
864.777	993
864.863	405
864.950	1410
865.036	972
865.122	1339
865.209	2380
865.295	2838
865.381	2711
865.467	2124
865.553	2970
865.639	3785
865.726	5814
865.812	10970
865.898	20622
865.984	41387
866.070	62730
866.156	107291
866.242	143342
866.328	48087
866.414	10600
866.499	5028
866.585	4185
866.671	3267
866.757	2067
866.843	1977
866.928	2461
867.014	2067
867.100	1386
867.186	1551
867.271	1936
867.357	2517
867.442	3482
867.528	4501
867.614	2078
867.699	1511
867.785	2095
867.870	1376
867.956	1566
868.041	2086
868.127	1963
868.212	2588
868.297	2783
868.383	1709
868.468	1836
868.553	2266
868.639	3961
868.724	6203
868.809	8566
868.894	11619
868.979	3689
869.065	1303
869.150	1321
869.235	866
869.320	629
869.405	1224
869.490	261
869.575	882
869.660	1184
869.745	653
869.830	967
869.915	986
870.000	713
870.085	605
870.169	251
870.254	1367
870.339	676
870.424	432
870.509	806
870.593	524
870.678	1376
870.763	799
870.847	832
870.932	568
871.016	1160
871.101	1172
871.186	152
871.270	710
871.355	1275
871.439	180
871.523	488
871.608	507
871.692	557
871.777	617
871.861	442
871.945	911
872.030	469
872.114	377
872.198	1089
872.282	802
872.367	603
872.451	937
872.535	-60
872.619	1028
872.703	414
872.787	839
872.871	211
872.955	255
873.039	-454
873.123	431
873.207	625
873.291	93
873.375	638
873.459	445
873.543	1107
873.627	682
873.711	269
873.794	391
873.878	488
873.962	388
874.045	670
874.129	762
874.137	709
874.213	176
874.245	491
874.296	1004
874.352	387
874.380	82
874.460	1100
874.464	1143
874.547	-22
874.568	104
874.631	461
874.676	688
874.714	875
874.784	572
874.798	512
874.881	1086
874.892	1029
874.965	660
874.999	668
875.048	646
875.107	665
875.131	699
875.215	429
875.215	429
875.298	432
875.323	359
875.381	161
875.430	417
875.465	605
875.538	722
875.548	740
875.631	496
875.646	498
875.714	436
875.753	328
875.798	264
875.861	424
875.881	475
875.964	202
875.968	234
876.047	807
876.076	508
876.130	-113
876.183	501
876.213	877
876.291	945
876.296	940
876.379	734
876.398	734
876.462	851
876.506	631
876.545	410
876.613	722
876.628	788
876.711	473
876.721	438
876.794	331
876.828	501
876.877	569
876.935	377
876.960	359
877.043	234
877.043	235
877.125	369
877.150	407
877.208	462
877.258	865
877.291	1178
877.365	361
877.374	246
877.456	445
877.472	539
877.539	1083
877.579	1067
877.622	924
877.687	710
877.704	722
877.787	1433
877.794	1420
877.869	1288
877.901	1366
877.952	1258
878.008	827
878.034	652
878.115	365
878.117	363
878.199	536
878.222	417
878.282	60
878.329	389
878.364	750
878.437	849
878.447	815
878.529	330
878.544	265
878.611	91
878.651	384
878.694	626
878.758	371
878.776	351
878.858	555
878.865	566
878.941	621
878.972	598
879.023	578
879.078	582
879.105	582
879.185	661
879.187	662
879.269	812
879.292	611
879.351	202
879.399	604
879.433	761
879.506	633
879.516	639
879.598	492
879.613	501
879.680	477
879.720	516
879.762	662
879.827	548
879.844	446
879.926	314
879.933	283
880.007	418
880.040	658
880.089	810
880.147	1135
880.171	1320
880.253	1784
880.254	1793
880.335	3310
880.360	4180
880.417	5934
880.467	6631
880.499	7374
880.574	11912
880.580	12226
880.662	16600
880.680	14666
880.744	7014
880.787	4073
880.825	1881
880.893	1313
880.907	1235
880.989	933
881.000	937
881.070	752
881.106	605
881.152	572
881.213	629
881.233	596
881.315	105
881.319	98
881.396	425
881.426	494
881.478	322
881.532	220
881.559	249
881.639	113
881.641	112
881.722	733
881.745	766
881.803	983
881.852	988
881.885	821
881.958	831
881.966	865
882.047	1213
882.064	1194
882.129	852
882.171	743
882.210	871
882.277	1386
882.291	1430
882.372	2382
882.383	2240
882.454	1579
882.489	1462
882.535	1057
882.596	547
882.616	482
882.697	629
882.702	665
882.778	1032
882.808	707
882.859	-36
882.914	89
882.940	369
883.020	262
883.021	262
883.102	446
883.127	514
883.183	557
883.233	602
883.264	717
883.339	765
883.345	752
883.426	414
883.445	411
883.507	591
883.551	628
883.587	555
883.657	703
883.668	791
883.749	1301
883.763	1259
883.830	451
883.869	476
883.910	753
883.975	616
883.991	545
884.072	391
884.081	370
884.152	245
884.187	197
884.233	469
884.292	748
884.314	618
884.394	250
884.398	228
884.475	195
884.504	144
884.555	338
884.610	578
884.636	619
884.716	970
884.716	975
884.797	806
884.821	851
884.877	467
884.927	73
884.958	309
885.033	915
885.038	914
885.118	746
885.139	696
885.199	390
885.244	226
885.279	326
885.350	457
885.359	495
885.439	841
885.456	877
885.520	1042
885.561	1268
885.600	1018
885.667	423
885.680	473
885.760	925
885.773	960
885.840	616
885.878	542
885.920	527
885.984	271
886.000	332
886.080	773
886.089	814
886.160	1212
886.195	1364
886.240	1193
886.300	946
886.320	844
886.400	656
886.406	634
886.480	739
886.511	770
886.560	974
886.616	1220
886.640	1183
886.720	967
886.722	959
886.800	474
886.827	262
886.879	247
886.932	421
886.959	603
887.038	890
887.039	894
887.119	1003
887.143	1047
887.198	1087
887.248	1021
887.278	1064
887.354	1183
887.358	1190
887.437	1287
887.459	1323
887.517	1581
887.564	1712
887.596	1408
887.669	698
887.676	726
887.755	1065
887.774	1143
887.835	987
887.880	865
887.914	828
887.985	718
887.994	730
888.073	815
888.090	839
888.153	920
888.195	941
888.232	771
888.300	426
888.311	492
888.391	980
888.405	1055
888.470	657
888.510	430
888.549	707
888.615	1163
888.628	1045
888.708	333
888.720	221
888.787	783
888.825	1051
888.866	965
888.930	847
888.945	822
889.024	684
889.035	665
889.103	729
889.140	745
889.182	1191
889.245	1834
889.261	1627
889.340	618
889.349	498
889.419	738
889.454	870
889.498	711
889.559	477
889.577	552
889.656	882
889.664	915
889.735	1025
889.768	1070
889.814	1150
889.873	1252
889.978	1074
890.083	824
890.187	1192
890.292	1624
890.397	402
890.501	1466
890.606	908
890.710	669
890.815	1059
890.919	1132
891.024	543
891.128	1360
891.233	371
891.337	45
891.442	923
891.546	991
891.650	921
891.755	1473
891.859	683
891.963	1178
892.068	609
892.172	1493
892.276	731
892.380	1547
892.484	491
892.589	1409
892.693	401
892.797	1265
892.901	385
893.005	364
893.109	240
893.213	1721
893.317	507
893.421	1512
893.525	466
893.629	1765
893.733	632
893.837	951
893.941	1187
894.045	1525
894.148	1101
894.252	414
894.356	497
894.460	1453
894.564	1120
894.667	557
894.771	1217
894.875	-5
894.978	205
895.082	443
895.186	1081
895.289	1024
895.393	516
895.496	1219
895.600	800
895.703	1243
895.807	454
895.910	151
896.014	861
896.117	994
896.221	713
896.324	916
896.427	1179
896.531	358
896.634	1561
896.737	1461
896.840	883
896.944	849
897.047	511
897.150	884
897.253	933
897.356	289
897.460	551
897.563	872
897.666	354
897.769	885
897.872	531
897.975	684
898.078	154
898.181	456
898.284	1495
898.387	-237
898.490	649
898.593	1652
898.695	560
898.798	640
898.901	1242
899.004	679
899.107	698
899.209	279
899.312	1077
899.415	778
899.518	313
899.620	611
899.723	524
899.826	1286
899.928	196
900.031	1359
900.133	560
900.236	1133
900.338	276
900.441	28
900.543	554
900.646	648
900.748	1232
900.851	1708
900.953	754
901.055	932
901.158	323
901.260	562
901.362	955
901.465	726
901.567	-273
901.669	951
901.771	227
901.873	751
901.976	657
902.078	994
902.180	946
902.282	1304
902.384	267
902.486	1062
902.588	1162
902.690	747
902.792	538
902.894	1435
902.996	205
903.098	1373
903.200	-227
903.302	421
903.404	898
903.505	953
903.607	626
903.709	376
903.811	140
903.913	963
904.014	768
904.116	775
904.218	271
904.319	450
904.421	264
904.523	1030
904.624	868
904.726	987
904.827	-551
904.929	773
905.030	139
905.132	898
905.233	335
905.335	-66
905.436	369
905.537	225
905.639	-92
905.740	671
905.841	-438
905.943	837
906.044	794
906.145	1604
906.247	123
906.348	216
906.449	277
906.550	297
906.651	28
906.752	388
906.854	309
906.955	674
907.056	356
907.157	956
907.258	-115
907.359	42
907.460	543
907.561	886
907.662	444
907.762	69
907.863	181
907.964	803
908.065	610
908.166	882
908.267	310
908.367	71
908.468	1067
908.569	649
908.670	852
908.770	931
908.871	75
908.971	876
909.072	723
909.173	421
909.273	567
909.374	706
909.474	8
909.575	945
909.675	114
909.776	1092
909.876	41
909.977	839
910.077	-96
910.177	1124
910.278	70
910.378	1212
910.478	198
910.579	834
910.679	218
910.779	714
910.879	484
910.980	519
911.080	437
911.180	691
911.280	-513
911.380	761
911.480	-302
911.580	1304
911.680	624
911.780	387
911.880	69
911.980	343
912.080	-31
912.180	-84
912.280	533
912.380	640
912.480	226
912.580	-181
912.679	617
912.779	-321
912.879	137
912.979	17
913.078	545
913.178	682
913.278	328
913.377	1232
913.477	67
913.577	381
913.676	-64
913.776	1256
913.875	198
913.975	734
914.074	190
914.174	42
914.273	443
914.373	694
914.472	179
914.572	376
914.671	-311
914.770	769
914.870	-236
914.969	618
915.068	-353
915.167	333
915.267	55
915.366	426
915.465	600
915.564	906
915.663	-10
915.763	-302
915.862	341
915.961	350
916.060	322
916.159	357
916.258	-43
916.357	103
916.456	898
916.555	785
916.654	448
916.752	476
916.851	1746
916.950	495
917.049	-125
917.148	928
917.247	359
917.345	560
917.444	498
917.543	890
917.642	216
917.740	-104
917.839	-13
917.937	1019
918.036	1210
918.135	691
918.233	135
918.332	707
918.430	-376
918.529	490
918.627	446
918.726	359
918.824	162
918.923	-79
919.021	-268
919.119	390
919.218	478
919.316	657
919.414	-519
919.512	748
919.611	191
919.709	-100
919.807	-321
919.905	317
920.003	-200
920.102	568
920.200	-389
920.298	223
920.396	-211
920.494	570
920.592	564
920.690	400
920.788	544
920.886	188
920.984	179
921.082	1030
921.180	688
921.277	541
921.375	566
921.473	326
921.571	480
921.669	1043
921.766	173
921.864	722
921.962	1282
922.060	167
922.157	985
922.255	390
922.352	321
922.450	1246
922.548	-706
922.645	630
922.743	1448
922.840	1058
922.938	2173
923.035	1935
923.133	1572
923.230	1559
923.327	1657
923.425	1893
923.522	2261
923.619	1943
923.717	1936
923.814	2202
923.911	1418
924.008	1107
924.106	1518
924.203	2027
924.300	1468
924.397	2039
924.494	595
924.591	1506
924.688	1241
924.786	1178
924.883	121
924.979	1469
925.077	1876
925.173	1738
925.270	711
925.367	1757
925.464	1409
925.561	1370
925.658	1713
925.755	2189
925.852	1030
925.948	1638
926.045	1560
926.142	1440
926.239	2901
926.335	2150
926.432	2008
926.529	2268
926.625	2001
926.722	1873
926.818	1333
926.915	1534
927.011	1692
927.108	1677
927.204	1901
927.301	1914
927.397	877
927.494	1668
927.590	1126
927.687	1056
927.783	1569
927.879	1331
927.976	1185
928.072	2152
928.168	1248
928.264	1803
928.361	1564
928.457	1017
928.553	617
928.649	1360
928.745	1484
928.841	1090
928.937	1264
929.033	1496
929.129	1084
929.225	781
929.321	1412
929.417	829
929.513	645
929.609	1068
929.705	1103
929.801	1702
929.897	1496
929.993	934
930.089	556
930.184	1212
930.280	1416
930.376	1969
930.471	1679
930.567	220
930.663	1345
930.758	753
930.854	510
930.950	1402
931.045	575
931.141	1045
931.236	877
931.332	902
931.427	491
931.523	1056
931.618	965
931.714	579
931.809	1337
931.905	876
932.000	585
932.095	784
932.191	813
932.286	1437
932.381	835
932.476	1702
932.572	128
932.667	489
932.762	31
932.857	1613
932.952	1243
933.047	1878
933.142	459
933.237	1480
933.332	1062
933.427	826
933.522	1117
933.617	1204
933.712	440
933.807	805
933.902	1252
933.997	2050
934.092	715
934.187	402
934.282	1112
934.376	1077
934.471	978
934.566	400
934.661	400
934.755	1453
934.850	346
934.945	1576
935.039	579
935.134	802
935.228	1253
935.323	544
935.417	1595
935.512	152
935.606	76
935.701	1359
935.795	935
935.890	1113
935.984	1281
936.079	427
936.173	707
936.267	1199
936.362	1053
936.456	1341
936.550	991
936.644	1155
936.738	1196
936.833	-52
936.927	613
937.021	1529
937.115	441
937.209	1011
937.303	794
937.397	1506
937.491	-190
937.585	1636
937.679	1369
937.773	459
937.867	624
937.961	668
938.055	-35
938.149	1569
938.243	1019
938.337	177
938.430	715
938.524	485
938.618	1009
938.712	1603
938.805	898
938.899	816
938.993	495
939.086	954
939.180	934
939.274	2095
939.367	794
939.461	1214
939.554	808
939.648	537
939.741	690
939.835	1176
939.928	1403
940.022	1288
940.115	389
940.208	1126
940.302	882
940.395	557
940.488	273
940.582	497
940.675	529
940.768	651
940.861	904
940.954	1388
941.048	713
941.141	-415
941.234	607
941.327	581
941.420	707
941.513	1861
941.606	454
941.699	600
941.792	937
941.885	1365
941.978	529
942.071	53
942.164	164
942.257	652
942.349	-181
942.442	963
942.535	332
942.628	346
942.721	-461
942.813	429
942.906	550
942.999	698
943.091	123
943.184	550
943.277	-66
943.369	827
943.462	67
943.554	967
943.647	86
943.739	138
943.832	825
943.924	144
944.017	988
944.109	433
944.201	500
944.294	944
944.386	-139
944.478	394
944.571	-131
944.663	466
944.755	-49
944.847	-120
944.940	315
945.032	630
945.124	-355
945.216	237
945.308	585
945.400	683
945.492	234
945.584	504
945.676	696
945.768	1010
945.860	19
945.952	199
946.044	607
946.136	-365
946.228	187
946.320	559
946.412	-31
946.503	-371
946.595	730
946.687	602
946.779	82
946.870	808
946.962	-186
947.054	462
947.145	-228
947.237	459
947.329	-488
947.420	509
947.512	-392
947.603	-202
947.695	-612
947.786	-691
947.878	312
947.969	-368
948.061	396
948.152	813
948.243	-299
948.335	119
948.426	-281
948.517	293
948.609	-1112
948.700	-434
948.791	-348
948.882	101
948.973	299
949.065	157
949.156	-17
949.247	518
949.338	171
949.429	-16
949.520	518
949.611	439
949.702	230
949.793	-356
949.884	-541
949.975	345
950.066	-230
950.157	-38
950.247	-264
950.338	6
950.429	-69
950.520	1251
950.611	-26
950.701	-724
950.792	252
950.883	460
950.973	-88
951.064	28
951.155	23
951.245	320
951.336	71
951.427	294
951.517	-303
951.608	531
951.698	191
951.788	35
951.879	-169
951.969	-16
952.060	-263
952.150	-726
952.240	14
952.331	-603
952.421	-730
952.511	56
952.602	43
952.692	-180
952.782	-236
952.872	295
952.962	-13
953.052	483
953.143	-340
953.233	-309
953.323	-368
953.413	20
953.503	-314
953.593	-427
953.683	-128
953.773	-199
953.863	-663
953.953	-4
954.042	-347
954.132	566
954.222	-503
954.312	195
954.402	-607
954.492	-195
954.581	-685
954.671	-5
954.761	-435
954.850	213
954.940	-776
955.030	314
955.119	-732
955.209	235
955.298	-1452
955.388	-671
955.477	-154
955.567	132
955.656	-289
955.746	90
955.835	-607
955.925	-663
956.014	-419
956.103	-212
956.193	-326
956.282	429
956.371	-50
956.461	-767
956.550	-495
956.639	-387
956.728	-773
956.817	-461
956.906	-626
956.995	-424
957.085	-562
957.174	522
957.263	105
957.352	-944
957.441	-202
957.530	119
957.619	-881
957.708	-249
957.796	-496
957.885	91
957.974	-508
958.063	-226
958.152	-1276
958.241	225
958.329	-1263
958.418	-636
958.507	-13
958.596	162
958.684	-589
958.773	-69
958.861	-922
958.950	338
959.039	-498
959.127	319
959.216	-30
959.304	-341
959.393	-897
959.481	231
959.570	-52
959.658	-518
959.746	-724
959.835	-475
959.923	-340
960.011	409
960.100	-570
960.188	396
960.276	-416
960.365	-1207
960.453	-1309
960.541	-266
960.629	-782
960.717	-671
960.805	-1057
960.893	-210
960.981	-1180
961.069	14
961.158	-539
961.245	268
961.333	-519
961.421	-672
961.509	-658
961.597	-346
961.685	-1130
961.773	-838
961.861	-491
961.949	-334
962.036	-508
962.124	-489
962.212	-1014
962.299	314
962.387	-634
962.475	-549
962.562	-1266
962.650	631
962.738	-520
962.825	-265
962.913	-502
963.000	-756
963.088	-696
963.175	-387
963.263	-516
963.350	-1344
963.438	-477
963.525	-534
963.612	-227
963.700	351
963.787	1052
963.874	2773
963.962	259
964.049	-191
964.136	-991
964.223	-243
964.310	-598
964.398	-750
964.485	-927
964.572	-218
964.659	-512
964.746	-280
964.833	-706
964.920	-11
965.007	-934
965.094	-390
965.181	-833
965.268	263
965.355	-903
965.441	-837
965.528	-1386
965.615	-119
965.702	-911
965.789	-919
965.875	-959
965.962	-128
966.049	-963
966.136	-601
966.222	-298
966.309	-336
966.395	-617
966.482	85
966.569	-447
966.655	-556
966.742	-351
966.828	-1016
966.915	-997
967.001	-315
967.087	-273
967.174	-272
967.260	-854
967.347	-639
967.433	-574
967.519	1181
967.605	1757
967.692	-88
967.778	-729
967.864	348
967.950	-647
968.036	-819
968.123	-317
968.209	-374
968.295	-1295
968.381	-372
968.467	-842
968.553	-662
968.639	-705
968.725	96
968.811	-834
968.897	-125
968.983	324
969.069	224
969.154	-624
969.240	-103
969.326	-1083
969.412	-648
969.497	-931
969.583	-601
969.669	-767
969.755	-438
969.840	-1680
969.926	-207
970.012	-402
970.097	538
970.183	-777
970.268	-442
970.354	-929
970.439	-788
970.525	-26
970.610	1265
970.696	67
970.781	-747
970.866	-781
970.952	-793
971.037	-984
971.122	-1046
971.208	-1032
971.293	-427
971.378	-177
971.463	-661
971.549	-464
971.634	-772
971.719	-1528
971.804	-991
971.889	-1627
971.974	-925
972.059	-647
972.144	545
972.229	-488
972.314	-798
972.399	-851
972.484	-97
972.569	-310
972.654	-388
972.739	-1149
972.824	-205
972.908	230
972.993	-798
973.078	-180
973.163	-546
973.247	-1084
973.332	-516
973.417	-406
973.501	-1090
973.586	-462
973.671	-772
973.755	-786
973.840	-622
973.924	331
974.009	-983
974.093	-796
974.178	-366
974.262	167
974.346	70
974.431	-501
974.515	-786
974.600	-1035
974.684	-1220
974.768	-687
974.852	-280
974.937	-1470
975.021	-767
975.105	-1871
975.189	-309
975.273	-1289
975.358	-797
975.442	-1425
975.526	-489
975.610	-781
975.694	-933
975.778	-112
975.862	-472
975.946	-1343
976.030	-556
976.114	-1123
976.198	-887
976.281	-956
976.365	-278
976.449	-840
976.533	-938
976.617	-494
976.700	-490
976.784	-1223
976.868	-811
976.951	-848
977.035	-1046
977.119	-911
977.202	-887
977.286	-1195
977.369	-759
977.453	-509
977.536	91
977.620	-350
977.703	-494
977.787	-1691
977.870	-543
977.953	-720
978.037	-873
978.120	-499
978.203	-224
978.287	-1136
978.370	-607
978.453	-213
978.536	-1049
978.620	-856
978.703	-440
978.786	99
978.869	-774
978.952	-1275
979.035	-834
979.118	-830
979.201	-843
979.284	-451
979.367	-877
979.450	-284
979.533	-876
979.616	-977
979.699	-850
979.782	-177
979.865	-395
979.948	-757
980.030	-319
980.113	-1454
980.196	-611
980.279	-1534
980.361	-852
980.444	-1102
980.526	-612
980.609	-1105
980.692	-1221
980.774	-314
980.857	-1508
980.939	-1053
981.022	-257
981.104	-1566
981.187	-500
981.269	-1080
981.352	-1180
981.434	-921
981.516	-661
981.599	-844
981.681	-995
981.763	-796
981.846	-509
981.928	-1150
982.010	-513
982.092	-1674
982.174	-911
982.256	-1000
982.339	-317
982.421	-902
982.503	-738
982.585	-1165
982.667	-724
982.749	-1333
982.831	120
982.913	-1091
982.995	4
983.077	-612
983.158	-645
983.240	-1252
983.322	-720
983.404	-655
983.486	-857
983.568	-990
983.649	-742
983.731	-560
983.813	-396
983.894	-1154
983.976	-488
984.058	-602
984.139	-498
984.221	-1382
984.302	-163
984.384	-777
984.465	-237
984.547	-1728
984.628	-1734
984.710	-420
984.791	-364
984.872	-1009
984.954	-683
985.035	-489
985.116	-983
985.198	-1235
985.279	-122
985.360	-565
985.441	-610
985.522	-1354
985.604	-683
985.685	-1217
985.766	-195
985.847	-691
985.928	-773
986.009	289
986.090	-1680
986.171	-426
986.252	-518
986.333	-1008
986.414	-546
986.495	-932
986.576	-491
986.656	-1254
986.737	-294
986.818	-674
986.899	-419
986.980	-659
987.060	-746
987.141	-147
987.222	-718
987.302	-593
987.383	-329
987.464	-792
987.544	14
987.625	-415
987.705	-863
987.786	-1061
987.866	-296
987.947	-684
988.027	-668
988.108	-437
988.188	-139
988.268	-643
988.349	-798
988.429	-783
988.509	-845
988.589	-1250
988.670	-874
988.750	-56
988.830	-249
988.910	-1127
988.990	-860
989.070	-474
989.151	259
989.231	-677
989.311	-180
989.391	-1301
989.471	-696
989.551	-1208
989.631	-1638
989.711	-1128
989.791	-166
989.870	-1084
989.950	-52
990.030	-646
990.110	-342
990.190	-929
990.269	141
990.349	-633
990.429	-606
990.509	-540
990.588	-818
990.668	-1118
990.747	-559
990.827	-846
990.907	-709
990.986	-904
991.066	-545
991.145	-655
991.225	2
991.304	-1267
991.383	-770
991.463	-545
991.542	-423
991.622	-1173
991.701	-881
991.780	-813
991.859	-541
991.939	-474
992.018	-762
992.097	-1028
992.176	114
992.256	-578
992.335	-32
992.414	-1027
992.493	-1106
992.572	-1529
992.651	-722
992.730	-834
992.809	-1318
992.888	-1119
992.967	-1101
993.046	-981
993.125	-2382
993.203	-902
993.282	-543
993.361	-382
993.440	-471
993.519	-1087
993.597	-455
993.676	-1344
993.755	-208
993.834	-242
993.912	-335
993.991	-913
994.069	-237
994.148	-1176
994.226	-511
994.305	-606
994.384	-1218
994.462	-1113
994.540	-1356
994.619	-1298
994.697	-176
994.776	-974
994.854	-242
994.932	-1358
995.011	-727
995.089	-197
995.167	-168
995.245	-1145
995.324	-786
995.402	-384
995.480	-1188
995.558	-1172
995.636	-1462
995.714	-822
995.792	-1062
995.870	-854
995.948	-1897
996.026	-924
996.104	-1317
996.182	-737
996.260	-917
996.338	-1269
996.416	-1076
996.494	-1281
996.572	-915
996.649	-925
996.727	-858
996.805	-1786
996.883	-1061
996.960	-1229
997.038	-142
997.116	-1003
997.193	-1384
997.271	-1573
997.348	-1337
997.426	-1551
997.504	-1173
997.581	-1107
997.658	-1060
997.736	-525
997.813	-664
997.891	-919
997.968	-902
998.046	-1661
998.123	-1144
998.200	-1147
998.277	-1291
998.355	-1078
998.432	-30
998.509	-858
998.586	-207
998.663	-1542
998.741	-1093
998.818	-947
998.895	-1070
998.972	-1046
999.049	-701
999.126	-828
999.203	-563
999.280	-775
999.357	-766
999.434	-881
999.511	-774
999.587	-1024
999.664	-1166
999.741	-196
999.818	-800
999.895	-1076
999.971	-841
1000.048	-1565
1000.125	-804
1000.202	-1534
1000.278	-994
1000.355	-719
1000.431	-156
1000.508	-1801
1000.584	-1221
1000.661	-778
1000.738	-1365
1000.814	-997
1000.890	-438
1000.967	-1123
1001.043	-1043
1001.120	-689
1001.196	-1604
1001.272	-1351
1001.349	-872
1001.425	-581
1001.501	-799
1001.577	-1829
1001.654	-604
1001.730	-1870
1001.806	-545
1001.882	-1804
1001.958	-654
1002.034	-1706
1002.110	-1001
1002.186	-1358
1002.262	-1193
1002.338	-1023
1002.414	-1179
1002.490	-1273
1002.566	-1345
1002.642	-1605
1002.718	-1223
1002.794	-1256
1002.870	-880
1002.945	-1063
1003.021	-1194
1003.097	-1350
1003.173	-1071
1003.248	-958
1003.324	-866
1003.400	-1408
1003.475	-607
1003.551	-1267
1003.626	-901
1003.702	-1244
1003.777	-1518
1003.853	-1261
1003.928	-1006
1004.004	-1841
1004.079	-876
1004.155	-1483
1004.230	-1367
1004.305	-901
1004.381	-1177
1004.456	-1400
1004.531	-1636
1004.607	-1143
1004.682	-767
1004.757	-1869
1004.832	-1387
1004.907	-889
1004.982	-1127
1005.057	-826
1005.133	-730
1005.208	-766
1005.283	-1136
1005.358	-546
1005.433	-1238
1005.508	-1919
1005.583	-1219
1005.657	-1430
1005.732	-348
1005.807	-1392
1005.882	-1481
1005.957	-1584
1006.032	-325
1006.106	-1314
1006.181	-1744
1006.256	-963
1006.331	-1638
1006.405	-1542
1006.480	-1027
1006.554	-1167
1006.629	-1153
1006.704	-1484
1006.778	-1362
1006.853	-1984
1006.927	-821
1007.002	-1355
1007.076	-417
1007.150	-1186
1007.225	-378
1007.299	-1365
1007.373	-1942
1007.448	-942
1007.522	-770
1007.596	-825
1007.671	-1280
1007.745	-1000
1007.819	-1775
1007.893	-2315
1007.967	-929
1008.041	-2125
1008.115	-1061
1008.190	-2180
1008.264	-1758
1008.338	-2266
1008.412	-1294
1008.486	-1436
1008.560	-1498
1008.633	-2554
1008.707	-1092
1008.781	-570
1008.855	-1444
1008.929	-1219
1009.003	-1409
1009.076	-1529
1009.150	-1030
1009.224	-1356
1009.298	-827
1009.371	-1419
1009.445	-1017
1009.519	-1266
1009.592	-1536
1009.666	-1421
1009.739	-605
1009.813	-1348
1009.886	-942
1009.960	-1396
1010.033	-767
1010.107	-1337
1010.180	-1227
1010.253	-1643
1010.327	-1267
1010.400	-1683
1010.473	-1739
1010.547	46
1010.620	-1128
1010.693	-2126
1010.766	-1566
1010.840	-842
1010.913	-1181
1010.986	-1614
1011.059	-1878
1011.132	-1496
1011.205	-1640
1011.278	-2029
1011.351	-1254
1011.424	-943
1011.497	-1410
1011.570	-1732
1011.643	-668
1011.716	-1194
1011.789	-940
1011.862	-1199
1011.934	-1075
1012.007	-2219
1012.080	-1011
1012.153	-1268
1012.225	-1126
1012.298	-1944
1012.371	-1017
1012.443	-1271
1012.516	-1696
1012.588	-1295
1012.661	-1005
1012.733	-1812
1012.806	-1289
1012.879	-1074
1012.951	-1803
1013.023	-1084
1013.096	-800
1013.168	-2277
1013.241	-1142
1013.313	-2247
1013.385	-1723
1013.458	-2686
1013.530	-2354
1013.602	-2076
1013.674	-1329
1013.746	-2170
1013.819	-914
1013.891	-1774
1013.963	-1316
1014.035	-1574
1014.107	-897
1014.179	-2073
1014.251	-1229
1014.323	-1329
1014.395	-1233
1014.467	-920
1014.539	-946
1014.611	-1960
1014.683	-1237
1014.754	-2363
1014.826	-1339
1014.898	-1920
1014.970	-1397
1015.042	-903
1015.113	-1442
1015.185	-1340
1015.257	-2322
1015.328	-1879
1015.400	-1185
1015.471	-1256
1015.543	-1141
1015.615	-979
1015.686	-1802
1015.757	-1768
1015.829	-1718
1015.901	-2137
1015.972	-801
1016.043	-1542
1016.115	-1932
1016.186	-2206
1016.257	-2054
1016.328	-1530
1016.400	-1564
1016.471	-2102
1016.542	-1191
1016.613	-2047
1016.685	-1589
1016.756	-1610
1016.827	-1714
1016.898	-1910
1016.969	-624
1017.040	-2315
1017.111	-825
1017.182	-1589
1017.253	-927
1017.324	-1694
1017.395	-1722
1017.466	-2034
1017.537	-1660
1017.608	-1309
1017.678	-2112
1017.749	-2166
1017.820	-1591
1017.891	-1279
1017.961	-1327
1018.032	-1659
1018.103	-1124
1018.173	-2212
1018.244	-1540
1018.315	-1374
1018.385	-1464
1018.456	-1486
1018.526	-1251
1018.597	-1836
1018.667	-1918
1018.738	-1974
1018.808	-1429
1018.878	-2512
1018.949	-1630
1019.019	-1454
1019.089	-1513
1019.160	-1402
1019.230	-2645
1019.300	-1843
1019.371	-1539
1019.441	-1826
1019.511	-1052
1019.581	-2607
1019.651	-842
1019.721	-1318
1019.791	-1240
1019.861	-2279
1019.931	-727
1020.001	-1867
1020.071	-1618
1020.141	-2271
1020.211	-1155
1020.281	-2120
1020.351	-1320
1020.421	-1199
1020.491	-1961
1020.560	-2896
1020.630	-1348
1020.700	-1679
1020.770	-1180
1020.839	-1851
1020.909	-1370
1020.979	-1678
1021.048	-1588
1021.118	-2233
1021.187	-1909
1021.257	-1861
1021.326	-1972
1021.396	-2178
1021.465	-1618
1021.535	-2130
1021.604	-1874
1021.674	-2549
1021.743	-2021
1021.812	-1871
1021.882	-1438
1021.951	-1707
1022.020	-1446
1022.089	-1297
1022.159	-2016
1022.228	-1643
1022.297	-2365
1022.366	-1696
1022.435	-1878
1022.504	-1851
1022.573	-2134
1022.642	-1724
1022.711	-1904
1022.781	-1468
1022.849	-892
1022.918	-1584
1022.987	-2220
1023.056	-1839
1023.125	-1867
1023.194	-2152
1023.263	-2042
1023.331	-1028
1023.400	-2004
1023.469	-2175
1023.538	-1180
1023.606	-2338
1023.675	-1556
1023.744	-1662
1023.812	-1635
1023.881	-2213
1023.949	-1424
1024.018	-1363
1024.086	-1549
1024.155	-1389
1024.223	-1396
1024.292	-2241
1024.360	-1317
1024.429	-1485
1024.497	-2383
1024.565	-1890
1024.634	-2156
1024.702	-1677
1024.770	-1804
1024.838	-1992
1024.907	-1395
1024.975	-2214
1025.043	-1773
1025.111	-1761
1025.179	-1720
1025.247	-1917
1025.315	-1354
1025.383	-2036
1025.451	-1935
1025.519	-1651
1025.587	-1571
1025.655	-1880
1025.723	-2764
1025.791	-2267
1025.859	-1489
1025.927	-2234
1025.995	-2259
1026.062	-2084
1026.130	-2098
1026.198	-2227
1026.266	-2031
1026.333	-1869
1026.401	-1593
1026.469	-1843
1026.536	-2270
1026.604	-2339
1026.671	-1595
1026.739	-1745
1026.806	-2226
1026.874	-2403
1026.941	-2353
1027.009	-1888
1027.076	-2570
1027.144	-2306
1027.211	-2034
1027.278	-2273
1027.345	-1742
1027.413	-1513
1027.480	-2165
1027.547	-2266
1027.614	-1497
1027.682	-2003
1027.749	-1426
1027.816	-2052
1027.883	-1031
1027.950	-2847
1028.017	-2410
1028.084	-2155
1028.151	-2379
1028.218	-2250
1028.285	-2066
1028.352	-1885
1028.419	-2687
1028.486	-2125
1028.553	-1382
1028.619	-1946
1028.686	-1757
1028.753	-1644
1028.820	-1843
1028.886	-1492
1028.953	-1397
1029.020	-1851
1029.086	-1777
1029.153	-2745
1029.220	-1981
1029.286	-1684
1029.353	-1501
1029.419	-2534
1029.486	-971
1029.552	-1409
1029.619	-2525
1029.685	-2167
1029.751	-1594
1029.818	-1589
1029.884	-1798
1029.951	-928
1030.017	-1942
1030.083	-2288
1030.149	-2029
1030.216	-1813
1030.282	-1810
1030.348	-2520
1030.414	-1492
1030.480	-2033
1030.546	-1636
1030.612	-2113
1030.678	-2393
1030.744	-2428
1030.810	-2113
1030.876	-1996
1030.942	-1738
1031.008	-2127
1031.074	-1770
1031.140	-1549
1031.206	-1686
1031.272	-2689
1031.337	-1782
1031.403	-2171
1031.469	-2076
1031.534	-2447
1031.600	-1924
1031.666	-2406
1031.731	-1911
1031.797	-1946
1031.863	-1786
1031.928	-2384
1031.994	-1873
1032.059	-1808
1032.125	-2529
1032.190	-2301
1032.256	-2803
1032.321	-1880
1032.386	-2257
1032.452	-1411
1032.517	-2101
1032.582	-2112
1032.647	-1736
1032.713	-1562
1032.778	-1950
1032.843	-1916
1032.908	-2068
1032.974	-1776
1033.039	-1550
1033.104	-1723
1033.169	-1805
1033.234	-2269
1033.299	-1657
1033.364	-1778
1033.429	-2280
1033.494	-2431
1033.559	-1276
1033.624	-1761
1033.688	-2130
1033.753	-2142
1033.818	-1375
1033.883	-1679
1033.948	-1580
1034.013	-2134
1034.077	-2002
1034.142	-2418
1034.207	-1717
1034.271	-1869
1034.336	-1951
1034.400	-565
1034.465	-991
1034.530	-1068
1034.594	-832
1034.658	-1376
1034.723	-2323
1034.787	-1950
1034.852	-1944
1034.916	-1571
1034.981	-1483
1035.045	-2214
1035.109	-1248
1035.173	-1605
1035.238	-1393
1035.302	-1846
1035.366	-1785
1035.430	-2574
1035.495	-1748
1035.559	-2499
1035.623	-2268
1035.687	-2526
1035.751	-1508
1035.815	-1909
1035.879	-1805
1035.943	-2710
1036.007	-1920
1036.071	-2410
1036.135	-1650
1036.198	-1835
1036.262	-1585
1036.326	-2597
1036.390	-1894
1036.454	-1071
1036.517	-1254
1036.581	-1699
1036.645	-1426
1036.709	-2141
1036.772	-1107
1036.836	-1640
1036.900	-1317
1036.963	-2103
1037.026	-2053
1037.090	-2305
1037.154	-1974
1037.217	-3124
1037.280	-2166
1037.344	-1565
1037.407	-1888
1037.471	-1476
1037.534	-1213
1037.597	-1716
1037.661	-1648
1037.724	-1694
1037.787	-1546
1037.850	-2717
1037.913	-1096
1037.977	-1596
1038.040	-2500
1038.103	-2354
1038.166	-1389
1038.229	-1021
1038.292	-1521
1038.355	-1883
1038.418	-1732
1038.481	-1713
1038.544	-1610
1038.607	-2272
1038.670	-1618
1038.732	-2228
1038.795	-2435
1038.858	-2277
1038.921	-993
1038.984	-1381
1039.046	-2309
1039.109	-1436
1039.172	-1823
1039.234	-1742
1039.297	-1857
1039.360	-2205
1039.422	-1166
1039.485	-1533
1039.547	-1586
1039.610	-2392
1039.672	-2346
1039.734	-1757
1039.797	-1988
1039.859	-1653
1039.922	-1736
1039.984	-1963
1040.046	-1214
1040.109	-1907
1040.171	-1920
1040.233	-1484
1040.295	-1430
1040.358	-1721
1040.420	-1845
1040.482	-1784
1040.544	-1339
1040.606	-1594
1040.668	-1304
1040.730	-1165
1040.792	-1609
1040.854	-1011
1040.916	-1190
1040.978	-2129
1041.040	-1400
1041.102	-2682
1041.164	-1361
1041.225	-1434
1041.287	-1930
1041.349	-2182
1041.411	-1224
1041.472	-1514
1041.534	-852
1041.596	-1907
1041.657	-746
1041.719	-3164
1041.781	-1942
1041.842	-2495
1041.904	-1571
1041.965	-1604
1042.027	-1625
1042.088	-1813
1042.150	-2170
1042.211	-1726
1042.272	-954
1042.334	-2109
1042.395	-1520
1042.456	-1697
1042.518	-1333
1042.579	-1223
1042.640	-1797
1042.701	-1980
1042.763	-1753
1042.824	-1633
1042.885	-1517
1042.946	-1418
1043.007	-1085
1043.068	-1637
1043.129	-1534
1043.190	-1912
1043.251	-1484
1043.312	-1573
1043.373	-1237
1043.434	-1693
1043.495	-1905
1043.556	-1702
1043.616	-1466
1043.677	-1536
1043.738	-1125
1043.799	-1706
1043.859	-1493
1043.920	-1368
1043.981	-1403
1044.041	-2234
1044.102	-1861
1044.162	-1749
1044.223	-1682
1044.284	-1958
1044.344	-1687
1044.405	-1485
1044.465	-1567
1044.525	-1768
1044.586	-1490
1044.646	-1066
1044.707	-1486
1044.767	-1370
1044.827	-1375
1044.887	-2204
1044.948	-1704
1045.008	-1684
1045.068	-2460
1045.128	-1761
1045.188	-2214
1045.249	-1460
1045.309	-1794
1045.369	-796
1045.429	-1542
1045.489	-1215
1045.549	-1381
1045.609	-2210
1045.669	-1767
1045.729	-1488
1045.789	-1702
1045.848	-1656
1045.908	-1328
1045.968	-1778
1046.028	-887
1046.088	-1055
1046.147	-836
1046.207	-1623
1046.267	-933
1046.326	-1498
1046.386	-767
1046.446	-1550
1046.505	-975
1046.565	-1139
1046.624	-794
1046.684	-1319
1046.743	-453
1046.803	-1014
1046.862	-358
1046.922	0
