'Start Wavelength	183.907
'End Wavelength	1046.922
'Gate Delay	5.000
'Gate Width (ms)	1.050
'Laser Output Level	0.000
'X Position	0.000
'Y Position	0.000
'Z Position	0.000
'Grid Point Number	1.000
'Shot Number	100.000
183.907	349.000
183.977	-134.000
184.047	395
184.116	-171
184.186	-283
184.256	99
184.325	-233
184.395	-255
184.465	346
184.534	154
184.604	-454
184.674	547
184.743	857
184.813	702
184.883	-410
184.952	162
185.022	134
185.092	353
185.161	500
185.231	270
185.301	1039
185.370	763
185.440	-58
185.509	445
185.579	201
185.649	737
185.718	584
185.788	257
185.857	295
185.927	441
185.996	256
186.066	74
186.136	968
186.205	266
186.275	188
186.344	329
186.414	336
186.483	666
186.553	883
186.622	884
186.692	457
186.761	423
186.831	135
186.900	462
186.970	79
187.039	1193
187.109	1533
187.178	-70
187.248	108
187.317	1485
187.387	63
187.456	498
187.526	622
187.595	1484
187.664	554
187.734	1015
187.803	1007
187.873	800
187.942	501
188.012	1231
188.081	1033
188.150	997
188.220	1020
188.289	1035
188.358	818
188.428	1182
188.497	1023
188.567	957
188.636	874
188.705	256
188.775	612
188.844	835
188.913	846
188.983	1157
189.052	432
189.121	556
189.191	995
189.260	870
189.329	684
189.399	527
189.468	615
189.537	-247
189.606	1080
189.676	1273
189.745	588
189.814	1349
189.883	1182
189.953	1231
190.022	905
190.091	2338
190.161	1605
190.230	596
190.299	556
190.368	756
190.437	21
190.507	1428
190.576	1018
190.645	651
190.714	539
190.783	431
190.853	837
190.922	829
190.991	706
191.060	650
191.129	504
191.198	1021
191.268	468
191.337	622
191.406	382
191.475	944
191.544	149
191.613	819
191.682	251
191.752	916
191.821	1125
191.890	806
191.959	746
192.028	119
192.097	601
192.166	391
192.235	486
192.304	620
192.373	253
192.442	281
192.511	-24
192.580	616
192.650	958
192.719	554
192.788	601
192.857	1055
192.926	954
192.995	963
193.064	1326
193.133	1700
193.202	2140
193.271	1838
193.340	1479
193.409	1632
193.478	1925
193.547	2555
193.615	3394
193.684	2794
193.753	1906
193.822	932
193.891	1243
193.960	1224
194.029	1055
194.098	1102
194.167	632
194.236	1581
194.305	1632
194.374	346
194.443	919
194.512	879
194.580	832
194.649	1257
194.718	1062
194.787	699
194.856	1240
194.925	2007
194.994	854
195.062	909
195.131	1325
195.200	2096
195.269	1680
195.338	1005
195.407	1660
195.475	1121
195.544	868
195.613	1090
195.682	887
195.751	2123
195.819	1677
195.888	1171
195.957	2165
196.026	1558
196.094	1691
196.163	2073
196.232	1982
196.301	2020
196.369	1698
196.438	1586
196.507	1252
196.576	1244
196.644	723
196.713	1525
196.782	778
196.850	1507
196.919	1045
196.988	1382
197.056	1916
197.125	1507
197.194	1187
197.262	1268
197.331	1570
197.400	1053
197.468	43
197.537	874
197.606	1267
197.674	2655
197.743	1991
197.812	1922
197.880	2790
197.949	1239
198.017	2329
198.086	1713
198.155	1286
198.223	1844
198.292	3073
198.360	1727
198.429	893
198.497	1275
198.566	2656
198.635	2489
198.703	1988
198.772	2317
198.840	4194
198.909	1811
198.977	1464
199.046	1965
199.114	1505
199.183	1337
199.251	932
199.320	1164
199.388	1004
199.457	925
199.525	950
199.594	1482
199.662	910
199.731	1368
199.799	1839
199.867	1634
199.936	936
200.004	1039
200.073	1406
200.141	1059
200.210	1274
200.278	1784
200.346	1492
200.415	2440
200.483	2310
200.552	2088
200.620	1059
200.688	1860
200.757	502
200.825	1548
200.893	1052
200.962	1032
201.030	1067
201.098	1601
201.167	1494
201.235	1339
201.303	1522
201.372	1683
201.440	1741
201.508	2243
201.577	1129
201.645	1106
201.713	1572
201.781	2043
201.850	1690
201.918	2135
201.986	1819
202.055	1797
202.123	1130
202.191	1953
202.259	1749
202.327	1318
202.396	1397
202.464	2265
202.532	3310
202.600	6240
202.669	3045
202.737	2065
202.805	1520
202.873	1394
202.941	1911
203.009	1880
203.078	1195
203.146	2050
203.214	1034
203.282	1983
203.350	1555
203.418	1756
203.487	1787
203.555	1084
203.623	1572
203.691	1987
203.759	2005
203.827	1459
203.895	2283
203.963	1659
204.031	1811
204.099	1084
204.168	1589
204.236	2182
204.304	2115
204.372	2036
204.440	1665
204.508	1567
204.576	1040
204.644	2280
204.712	1339
204.780	1667
204.848	1650
204.916	1495
204.984	513
205.052	1820
205.120	1493
205.188	1443
205.256	1184
205.324	1854
205.392	1533
205.460	1465
205.528	1755
205.596	2294
205.664	1393
205.732	2062
205.799	5622
205.867	3910
205.935	2478
206.003	2097
206.071	1539
206.139	1702
206.207	2111
206.275	2186
206.343	2193
206.411	1655
206.478	1639
206.546	2233
206.614	1211
206.682	1027
206.750	1537
206.818	2714
206.885	2255
206.953	1332
207.021	2078
207.089	1132
207.157	1193
207.225	2552
207.292	1781
207.360	2350
207.428	1917
207.496	1784
207.563	2062
207.631	1733
207.699	1499
207.767	1886
207.834	2022
207.902	2017
207.970	1826
208.038	1961
208.105	2235
208.173	2603
208.241	2567
208.309	2644
208.376	3129
208.444	4826
208.512	2415
208.579	1978
208.647	2700
208.715	2701
208.782	2152
208.850	1614
208.918	1872
208.985	2166
209.053	2471
209.120	2217
209.188	1768
209.256	2367
209.323	2988
209.391	2697
209.459	2535
209.526	2244
209.594	1499
209.661	2646
209.729	2695
209.796	2168
209.864	3273
209.932	2810
209.999	3242
210.067	2608
210.134	1919
210.202	3529
210.269	3855
210.337	3931
210.404	2576
210.472	2579
210.539	2496
210.607	3916
210.674	3041
210.742	3255
210.809	3076
210.877	2728
210.944	2987
211.012	3447
211.079	2281
211.146	2812
211.214	3846
211.281	4820
211.349	2692
211.416	3466
211.484	3627
211.551	2378
211.618	2554
211.686	2954
211.753	2722
211.821	3051
211.888	2750
211.955	3085
212.023	3486
212.090	2679
212.157	2933
212.225	3168
212.292	4955
212.359	10498
212.427	13267
212.494	6526
212.561	4056
212.629	4292
212.696	3212
212.763	3714
212.831	3257
212.898	3185
212.965	2402
213.032	3503
213.100	3915
213.167	4130
213.234	3613
213.301	3244
213.369	2975
213.436	2652
213.503	3160
213.570	3332
213.638	3423
213.705	2709
213.772	3141
213.839	3858
213.906	3848
213.973	3620
214.041	3339
214.108	3644
214.175	3547
214.242	2957
214.309	3292
214.376	4294
214.444	3149
214.511	4225
214.578	3023
214.645	4033
214.712	4165
214.779	4004
214.846	4404
214.913	3858
214.980	4423
215.048	4768
215.115	5246
215.182	3794
215.249	3904
215.316	3476
215.383	3158
215.450	3906
215.517	2458
215.584	2783
215.651	3614
215.718	3673
215.785	3607
215.852	4332
215.919	4239
215.986	4188
216.053	2834
216.120	3607
216.187	3847
216.254	3828
216.321	3956
216.388	4658
216.455	5196
216.522	4463
216.589	5375
216.656	8682
216.722	5999
216.789	4801
216.856	5903
216.923	5033
216.990	4747
217.057	5636
217.124	5997
217.191	6130
217.258	6211
217.324	6779
217.391	5997
217.458	5462
217.525	4469
217.592	4191
217.659	4014
217.725	5013
217.792	6892
217.859	4686
217.926	3773
217.993	3378
218.059	3078
218.126	3541
218.193	2961
218.260	3455
218.327	3174
218.393	3379
218.460	3653
218.527	3350
218.594	4605
218.660	5884
218.727	5248
218.794	3099
218.860	3214
218.927	3278
218.994	2689
219.061	3705
219.127	5233
219.194	5085
219.261	4004
219.327	2895
219.394	2817
219.461	2907
219.527	3259
219.594	4793
219.661	2988
219.727	3028
219.794	3122
219.860	3637
219.927	3365
219.994	6981
220.060	7735
220.127	5750
220.193	4723
220.260	5927
220.326	7867
220.393	9247
220.460	8769
220.526	7048
220.593	6436
220.659	6529
220.726	7154
220.792	12403
220.859	11653
220.925	14328
220.992	14093
221.058	15589
221.125	12092
221.191	8626
221.258	4934
221.324	4842
221.391	4284
221.457	3708
221.524	4393
221.590	6722
221.657	12409
221.723	6777
221.789	9174
221.856	5891
221.922	4427
221.989	4612
222.055	4198
222.121	4043
222.188	5055
222.254	4816
222.321	3661
222.387	2427
222.453	4077
222.520	3579
222.586	3541
222.652	3430
222.719	3688
222.785	3273
222.851	3063
222.918	3587
222.984	4516
223.050	3969
223.116	2834
223.183	3167
223.249	2565
223.315	2467
223.382	2727
223.448	2991
223.514	2492
223.580	2385
223.647	3256
223.713	2393
223.779	2109
223.845	3493
223.911	2650
223.978	3017
224.044	2129
224.110	2642
224.176	2076
224.242	2877
224.309	2496
224.375	2142
224.441	2292
224.507	2281
224.573	2892
224.639	2440
224.705	2107
224.772	2134
224.838	2921
224.904	2945
224.970	1870
225.036	2463
225.102	2924
225.168	3364
225.234	2633
225.300	2534
225.366	2650
225.432	2179
225.499	3087
225.565	2935
225.631	4132
225.697	5059
225.763	3955
225.829	5025
225.895	5144
225.961	5910
226.027	6101
226.093	6585
226.159	7749
226.225	13007
226.291	22990
226.357	21875
226.423	13757
226.489	9957
226.554	6486
226.620	7515
226.686	10663
226.752	14263
226.818	23877
226.884	32035
226.950	20842
227.016	12426
227.082	8864
227.148	7749
227.214	7095
227.279	6892
227.345	5696
227.411	6104
227.477	8115
227.543	13574
227.609	11264
227.674	7337
227.740	6106
227.806	4827
227.872	4021
227.938	5932
228.003	6452
228.069	3593
228.135	3371
228.201	3026
228.267	3657
228.332	4957
228.398	5478
228.464	3170
228.530	2686
228.595	3360
228.661	4002
228.727	5973
228.792	3546
228.858	4064
228.924	3596
228.990	3621
229.055	5149
229.121	4037
229.187	2987
229.252	4328
229.318	2735
229.384	4285
229.449	4014
229.515	3421
229.581	2702
229.646	3005
229.712	4897
229.777	10481
229.843	7117
229.909	7272
229.974	7800
230.040	6775
230.105	5737
230.171	5800
230.236	7709
230.302	9091
230.368	6318
230.433	5528
230.499	5224
230.564	6332
230.630	4463
230.695	4056
230.761	4427
230.826	3985
230.892	6745
230.957	3861
231.023	3672
231.088	3932
231.154	3303
231.219	4730
231.284	6551
231.350	4908
231.415	3526
231.481	3515
231.546	3276
231.612	3473
231.677	3069
231.742	2641
231.808	3273
231.873	3106
231.939	4268
232.004	7295
232.069	4540
232.135	4025
232.200	3426
232.265	2775
232.331	3090
232.396	3437
232.461	2512
232.527	3022
232.592	2479
232.657	3803
232.723	4970
232.788	3430
232.853	3213
232.918	2997
232.984	2473
233.049	2702
233.114	4291
233.179	4302
233.245	5997
233.310	5202
233.375	2936
233.440	2723
233.506	1979
233.571	2568
233.636	2624
233.701	3072
233.766	4586
233.832	2944
233.897	4412
233.962	3875
234.027	3831
234.092	3808
234.157	3925
234.222	4144
234.288	6743
234.353	10766
234.418	7724
234.483	7112
234.548	6165
234.613	6450
234.678	5780
234.743	7298
234.808	11179
234.873	6565
234.938	4908
235.004	4223
235.069	4204
235.134	4934
235.199	4313
235.264	4739
235.329	4313
235.394	3792
235.459	4870
235.524	3857
235.589	4347
235.654	4718
235.719	3458
235.784	4004
235.849	4239
235.913	6342
235.978	7336
236.043	6471
236.108	4657
236.173	4630
236.238	4222
236.303	5312
236.368	4159
236.433	7583
236.498	8088
236.563	9117
236.627	23931
236.692	46044
236.757	26814
236.822	14430
236.887	11418
236.952	9621
237.017	8450
237.081	9457
237.146	14738
237.211	27746
237.276	53396
237.341	51627
237.405	25395
237.470	14237
237.535	10148
237.600	7591
237.664	5836
237.729	6614
237.794	10500
237.859	13574
237.923	7943
237.988	6017
238.053	7001
238.118	8703
238.182	15614
238.247	8828
238.312	6413
238.376	5696
238.441	4201
238.506	4942
238.570	3128
238.635	3807
238.700	3862
238.764	4046
238.829	8420
238.893	6228
238.958	7610
239.023	5347
239.087	4448
239.152	4843
239.216	3692
239.281	3793
239.346	4066
239.410	4128
239.475	6584
239.539	14661
239.604	6218
239.668	4904
239.733	4763
239.797	12875
239.862	19874
239.926	12754
239.991	5585
240.055	4211
240.120	4421
240.184	4361
240.249	3340
240.313	3417
240.378	4911
240.442	10322
240.507	8105
240.571	4840
240.635	7298
240.700	6086
240.764	3698
240.829	3561
240.893	3084
240.957	3828
241.022	9317
241.086	9301
241.151	5515
241.215	3674
241.279	5329
241.344	6446
241.408	5605
241.472	5810
241.537	5598
241.601	5837
241.665	4662
241.730	5497
241.794	5295
241.858	6557
241.922	5551
241.987	5556
242.051	5175
242.115	5468
242.179	4771
242.244	4878
242.308	4861
242.372	6095
242.436	5229
242.501	5466
242.565	4196
242.629	4626
242.693	4275
242.757	4806
242.822	4878
242.886	4848
242.950	4841
243.014	5481
243.078	6119
243.142	5648
243.206	5459
243.271	5964
243.335	5983
243.399	9548
243.463	37775
243.527	37748
243.591	13418
243.655	7440
243.719	4926
243.783	7781
243.847	10954
243.911	11458
243.975	15434
244.040	8100
244.104	5828
244.168	5889
244.232	10765
244.296	10690
244.360	9748
244.424	5416
244.488	5224
244.552	4298
244.615	3683
244.679	3888
244.743	7250
244.807	5044
244.871	4380
244.935	4098
244.999	3919
245.063	4918
245.127	5547
245.191	9792
245.255	6617
245.319	8429
245.383	5038
245.446	5215
245.510	4375
245.574	5250
245.638	5184
245.702	8393
245.766	11432
245.829	6592
245.893	5683
245.957	5509
246.021	6170
246.085	6355
246.149	8365
246.212	23318
246.276	20571
246.340	11075
246.404	6998
246.467	11933
246.531	9424
246.595	6686
246.659	7028
246.722	7601
246.786	8627
246.850	13169
246.913	8785
246.977	5493
247.041	5540
247.104	6753
247.168	8979
247.232	24227
247.295	30961
247.359	11250
247.423	11757
247.486	12787
247.550	7807
247.614	8855
247.677	9067
247.741	6027
247.804	6013
247.868	7999
247.932	25890
247.995	25167
248.059	9928
248.122	7192
248.186	10228
248.249	27764
248.313	59331
248.376	46359
248.440	27910
248.503	12489
248.567	13751
248.630	20298
248.694	22879
248.757	39850
248.821	50589
248.884	29085
248.948	37416
249.011	48019
249.075	65741
249.138	39761
249.202	19491
249.265	14543
249.328	12892
249.392	13667
249.455	10268
249.519	9793
249.582	13542
249.645	18017
249.709	11238
249.772	9242
249.835	9237
249.899	8429
249.962	8791
250.025	11519
250.089	29475
250.152	22232
250.215	13084
250.279	10797
250.342	10099
250.405	9333
250.468	9685
250.532	13020
250.595	22503
250.658	74703
250.721	55782
250.785	26881
250.848	16282
250.911	11200
250.974	12232
251.038	26768
251.101	26642
251.164	16667
251.227	17983
251.290	15200
251.354	32574
251.417	83071
251.480	49385
251.543	71428
251.606	120936
251.669	64849
251.732	39730
251.795	45700
251.859	51907
251.922	76700
251.985	32545
252.048	19951
252.111	15773
252.174	18523
252.237	45520
252.300	57857
252.363	82006
252.426	83109
252.489	36133
252.552	20544
252.615	16024
252.678	27955
252.741	50578
252.804	75787
252.867	92696
252.930	57579
252.993	32490
253.056	22785
253.119	15679
253.182	14799
253.245	18837
253.308	14785
253.371	16028
253.434	13775
253.497	19842
253.559	28561
253.622	20196
253.685	28845
253.748	18840
253.811	12522
253.874	14711
253.937	13143
254.000	12458
254.062	31241
254.125	26725
254.188	32794
254.251	15950
254.314	13200
254.376	25764
254.439	20234
254.502	17543
254.565	31976
254.628	31151
254.690	18009
254.753	11240
254.816	10997
254.878	12928
254.941	29316
255.004	15204
255.067	11158
255.129	9400
255.192	6293
255.255	7375
255.317	7264
255.380	4557
255.443	5023
255.505	4725
255.568	5849
255.631	5644
255.693	6054
255.756	4747
255.819	5595
255.881	4686
255.944	4271
256.006	4600
256.069	5183
256.132	5337
256.194	8487
256.257	10644
256.319	9545
256.382	7796
256.444	8175
256.507	5779
256.569	6604
256.632	7452
256.694	11115
256.757	46155
256.819	57565
256.882	21174
256.944	12515
257.007	11060
257.069	9974
257.132	7855
257.194	7346
257.257	7089
257.319	6639
257.381	9264
257.444	34304
257.506	95575
257.569	63254
257.631	33106
257.693	18615
257.756	10012
257.818	8658
257.880	6813
257.943	5849
258.005	6866
258.067	6271
258.130	6448
258.192	10244
258.254	11850
258.317	6941
258.379	9010
258.441	21591
258.503	10977
258.566	19225
258.628	11516
258.690	5491
258.753	10715
258.815	13808
258.877	7061
258.939	6859
259.001	6435
259.064	6313
259.126	7917
259.188	7019
259.250	7135
259.312	11692
259.375	18135
259.437	8415
259.499	6664
259.561	7369
259.623	7172
259.685	6042
259.747	7401
259.809	19528
259.872	21007
259.934	44674
259.996	26974
260.058	10235
260.120	5885
260.182	5687
260.244	4073
260.306	5489
260.368	5532
260.430	6875
260.492	19889
260.554	19221
260.616	12877
260.678	30604
260.740	14959
260.802	8011
260.864	7519
260.926	6861
260.988	5418
261.050	9527
261.112	28269
261.174	32303
261.236	12802
261.298	8722
261.359	14141
261.421	9863
261.483	5936
261.545	6128
261.607	4121
261.669	5139
261.731	11890
261.793	16713
261.854	8621
261.916	7132
261.978	9537
262.040	6916
262.102	5701
262.164	7421
262.225	5630
262.287	8463
262.349	18022
262.411	8185
262.472	5001
262.534	11040
262.596	9148
262.658	5088
262.719	4223
262.781	8824
262.843	10759
262.904	5812
262.966	5549
263.028	8340
263.090	53125
263.151	51459
263.213	25609
263.275	14831
263.336	7295
263.398	6316
263.459	4450
263.521	6983
263.583	15159
263.644	7807
263.706	3602
263.767	3048
263.829	3529
263.891	3435
263.952	2058
264.014	3616
264.075	18408
264.137	19409
264.198	6888
264.260	4214
264.321	5206
264.383	26794
264.444	26138
264.506	8471
264.567	7600
264.629	26343
264.690	23331
264.752	10610
264.813	6612
264.875	5517
264.936	5640
264.998	4788
265.059	4634
265.120	5792
265.182	14609
265.243	50764
265.305	22061
265.366	8972
265.427	6472
265.489	6056
265.550	4435
265.611	7009
265.673	6048
265.734	4655
265.795	4051
265.857	4018
265.918	5301
265.979	21768
266.040	73725
266.102	30381
266.163	15806
266.224	12617
266.286	6509
266.347	5347
266.408	5832
266.469	4249
266.530	3724
266.592	5045
266.653	15242
266.714	11584
266.775	6149
266.836	4248
266.898	6014
266.959	10644
267.020	5027
267.081	4817
267.142	4401
267.203	4537
267.264	3789
267.326	5142
267.387	4392
267.448	4067
267.509	4127
267.570	3929
267.631	4237
267.692	3774
267.753	3978
267.814	4281
267.875	15560
267.936	16680
267.997	14572
268.058	9391
268.119	6739
268.180	5787
268.241	3785
268.302	4874
268.363	4010
268.424	4796
268.485	5398
268.546	3747
268.607	2387
268.668	3658
268.729	2736
268.790	4537
268.851	7592
268.912	19198
268.972	12847
269.033	6894
269.094	3428
269.155	3125
269.216	4205
269.277	4173
269.338	3702
269.398	5090
269.459	5972
269.520	8096
269.581	10989
269.642	10192
269.702	7214
269.763	5434
269.824	4729
269.885	10652
269.945	7768
270.006	4085
270.067	3856
270.128	4273
270.188	4119
270.249	3699
270.310	3987
270.370	4077
270.431	4159
270.492	3131
270.553	6550
270.613	15610
270.674	16434
270.734	5886
270.795	5352
270.856	8419
270.916	4372
270.977	5757
271.038	6213
271.098	6108
271.159	13196
271.219	6017
271.280	4159
271.340	4059
271.401	6311
271.462	7948
271.522	5911
271.583	5536
271.643	4873
271.704	4871
271.764	8437
271.825	26289
271.885	71392
271.946	45322
272.006	20644
272.066	51281
272.127	36453
272.187	14610
272.248	9225
272.308	18524
272.369	33633
272.429	14203
272.489	19900
272.550	13961
272.610	17876
272.671	10520
272.731	11637
272.791	12570
272.852	9387
272.912	7812
272.972	5158
273.033	7021
273.093	9926
273.153	9509
273.214	6170
273.274	11346
273.334	46238
273.394	36376
273.455	17282
273.515	33555
273.575	35001
273.635	14918
273.696	34600
273.756	36813
273.816	14439
273.876	10361
273.936	22612
273.997	17121
274.057	8033
274.117	9033
274.177	25682
274.237	71742
274.297	29719
274.358	28637
274.418	39631
274.478	21352
274.538	8906
274.598	10561
274.658	21854
274.718	18245
274.778	8441
274.838	6906
274.898	20478
274.958	30975
275.018	46542
275.078	20115
275.138	10134
275.198	6738
275.258	6090
275.318	9595
275.378	17369
275.438	13522
275.498	9232
275.558	24968
275.618	39915
275.678	21676
275.738	22598
275.798	15418
275.858	7518
275.918	5995
275.978	8083
276.038	5656
276.098	5301
276.157	23911
276.217	29252
276.277	14845
276.337	10083
276.397	7642
276.457	8182
276.517	5187
276.576	4396
276.636	5980
276.696	12036
276.756	23971
276.815	9994
276.875	8414
276.935	9398
276.995	6437
277.055	5409
277.114	5232
277.174	17357
277.234	24150
277.293	9416
277.353	7333
277.413	5727
277.472	7767
277.532	6517
277.592	9205
277.651	41945
277.711	26571
277.771	23752
277.830	61877
277.890	25255
277.950	54331
278.009	60282
278.069	21952
278.128	47201
278.188	30297
278.248	29286
278.307	52044
278.367	15888
278.426	9273
278.486	7523
278.545	5630
278.605	5001
278.664	5595
278.724	7602
278.783	36668
278.843	31355
278.902	11593
278.962	9873
279.021	9571
279.081	11172
279.140	10241
279.199	10699
279.259	10110
279.318	9644
279.378	13436
279.437	37335
279.496	107104
279.556	175621
279.615	72412
279.675	29682
279.734	25486
279.793	53434
279.853	48297
279.912	17261
279.971	13059
280.031	12931
280.090	39734
280.149	31133
280.208	47388
280.268	143950
280.327	62599
280.386	25398
280.445	30591
280.505	16745
280.564	11483
280.623	10022
280.682	24358
280.742	16030
280.801	7887
280.860	7178
280.919	7118
280.978	6065
281.037	5592
281.097	5787
281.156	5212
281.215	5454
281.274	13760
281.333	36587
281.392	12468
281.451	6147
281.510	6284
281.569	4999
281.628	4621
281.688	4829
281.747	7050
281.806	5595
281.865	5030
281.924	5148
281.983	3910
282.042	3798
282.101	4518
282.160	4741
282.219	4455
282.278	10183
282.337	21553
282.396	7232
282.454	6118
282.513	15137
282.572	29214
282.631	10586
282.690	6719
282.749	5804
282.808	8162
282.867	7902
282.926	5809
282.985	4356
283.043	4102
283.102	5001
283.161	5856
283.220	24819
283.279	22112
283.338	8181
283.396	6921
283.455	7164
283.514	10438
283.573	11646
283.631	8777
283.690	7132
283.749	7606
283.808	19353
283.866	11531
283.925	7223
283.984	7525
284.043	11781
284.101	9129
284.160	8898
284.219	9066
284.277	10871
284.336	22773
284.395	45995
284.453	22055
284.512	17272
284.570	23042
284.629	16966
284.688	19099
284.746	21589
284.805	26054
284.863	34288
284.922	41968
284.981	54861
285.039	84285
285.098	150791
285.156	241502
285.215	228064
285.273	251073
285.332	187977
285.390	119657
285.449	78752
285.507	56908
285.566	41711
285.624	31568
285.683	24592
285.741	20871
285.799	18750
285.858	15808
285.916	14592
285.975	12544
286.033	10988
286.091	9619
286.150	9502
286.208	9228
286.267	9642
286.325	11474
286.383	16954
286.442	10968
286.500	7450
286.558	6535
286.616	7856
286.675	10512
286.733	7542
286.791	7900
286.850	8653
286.908	16275
286.966	14853
287.024	7975
287.083	7153
287.141	5535
287.199	7716
287.257	9651
287.315	6351
287.374	12036
287.432	20303
287.490	9591
287.548	8106
287.606	6185
287.664	6497
287.723	11875
287.781	7973
287.839	6628
287.897	7653
287.955	9049
288.013	13370
288.071	38605
288.129	179532
288.187	207930
288.245	73788
288.303	32787
288.361	21803
288.419	15409
288.477	10130
288.535	7493
288.593	7031
288.651	5873
288.709	4585
288.767	6315
288.825	5171
288.883	4211
288.941	4767
288.999	4688
289.057	4121
289.115	3860
289.173	4515
289.231	5021
289.289	3747
289.346	4817
289.404	6594
289.462	12109
289.520	8756
289.578	3914
289.636	3604
289.694	3548
289.751	3778
289.809	3803
289.867	4093
289.925	8526
289.983	5345
290.040	3427
290.098	4949
290.156	5779
290.214	5447
290.271	3644
290.329	3941
290.387	3578
290.444	3398
290.502	2361
290.560	3854
290.617	4189
290.675	3146
290.733	4033
290.790	3656
290.848	3099
290.906	4352
290.963	3711
291.021	3835
291.078	3240
291.136	5750
291.194	33945
291.251	25493
291.309	8409
291.366	4428
291.424	5303
291.481	5921
291.539	5236
291.596	3215
291.654	2806
291.711	2649
291.769	7533
291.826	9299
291.884	5012
291.941	3402
291.999	4280
292.056	5638
292.114	4126
292.171	3606
292.228	5108
292.286	7309
292.343	13325
292.401	11422
292.458	6729
292.515	6146
292.573	7612
292.630	6904
292.687	5809
292.745	4373
292.802	12893
292.859	29013
292.917	33692
292.974	12372
293.031	6121
293.089	5504
293.146	4840
293.203	3692
293.260	3636
293.318	8407
293.375	9559
293.432	4531
293.489	4917
293.546	3842
293.604	9770
293.661	41301
293.718	50695
293.775	20940
293.832	13705
293.889	11376
293.947	9936
294.004	6772
294.061	9334
294.118	27373
294.175	47238
294.232	36618
294.289	13429
294.346	10653
294.403	9125
294.460	6744
294.517	5703
294.574	5048
294.631	4184
294.688	6660
294.745	34165
294.802	81358
294.859	49312
294.916	20225
294.973	14276
295.030	12111
295.087	8523
295.144	6834
295.201	5327
295.258	4648
295.315	10011
295.372	39792
295.429	33195
295.486	14193
295.542	15045
295.599	50904
295.656	41894
295.713	44046
295.770	33195
295.827	13758
295.883	9023
295.940	10228
295.997	16952
296.054	10417
296.111	6783
296.167	6419
296.224	4609
296.281	5094
296.338	5231
296.394	4663
296.451	8589
296.508	32488
296.564	30358
296.621	30374
296.678	79710
296.734	54007
296.791	20736
296.848	12626
296.904	23654
296.961	42454
297.018	52302
297.074	23731
297.131	12204
297.187	10142
297.244	21663
297.301	80593
297.357	58414
297.414	20388
297.470	11815
297.527	9554
297.583	8439
297.640	7335
297.696	5850
297.753	5290
297.809	4288
297.866	4718
297.922	4655
297.979	3700
298.035	6443
298.092	15783
298.148	34600
298.204	18151
298.261	13473
298.317	47144
298.374	59893
298.430	24359
298.486	14283
298.543	10548
298.599	9859
298.656	11450
298.712	31841
298.768	42119
298.824	18942
298.881	9209
298.937	6743
298.993	8214
299.050	9554
299.106	7813
299.162	7298
299.218	6005
299.275	5520
299.331	7193
299.387	29777
299.443	70209
299.500	43279
299.556	18357
299.612	11991
299.668	13087
299.724	19688
299.780	11856
299.837	8491
299.893	23328
299.949	59604
300.005	43695
300.061	67791
300.117	63015
300.173	25901
300.229	17483
300.285	25220
300.341	19707
300.397	10777
300.453	7746
300.510	7436
300.566	6564
300.622	15705
300.678	47354
300.734	50159
300.790	54241
300.845	44151
300.901	45301
300.957	51982
301.013	26204
301.069	12693
301.125	12607
301.181	11225
301.237	7685
301.293	6514
301.349	5790
301.405	5623
301.461	5935
301.516	7430
301.572	11075
301.628	16599
301.684	13527
301.740	28440
301.796	24762
301.851	25822
301.907	35641
301.963	32884
302.019	96427
302.074	164200
302.130	109069
302.186	46628
302.242	24038
302.297	16427
302.353	24680
302.409	33040
302.464	20029
302.520	34818
302.576	66368
302.631	52611
302.687	26290
302.743	13147
302.798	9221
302.854	8007
302.910	9238
302.965	13784
303.021	18496
303.076	18302
303.132	29012
303.187	22737
303.243	11322
303.299	8158
303.354	7326
303.410	6432
303.465	5917
303.521	6323
303.576	5733
303.632	9321
303.687	31931
303.743	54051
303.798	28939
303.853	14041
303.909	9149
303.964	10214
304.020	19249
304.075	18244
304.130	26126
304.186	38026
304.241	34234
304.297	24563
304.352	13125
304.358	12763
304.407	9819
304.449	10244
304.463	10399
304.518	10182
304.539	9346
304.573	7982
304.629	8564
304.630	8830
304.684	20989
304.720	43690
304.739	55441
304.794	44282
304.811	38222
304.850	22353
304.902	12341
304.905	11765
304.960	10562
304.992	9919
305.015	9494
305.071	9751
305.083	9162
305.126	6966
305.173	6066
305.181	5919
305.236	5763
305.264	6718
305.292	7825
305.347	9463
305.354	9490
305.402	9549
305.445	10570
305.457	10881
305.512	13083
305.535	12289
305.567	11040
305.622	13368
305.626	14254
305.678	31160
305.716	53274
305.733	62293
305.788	47481
305.807	46795
305.843	43205
305.897	57812
305.898	58037
305.953	41498
305.988	31746
306.008	25363
306.063	16798
306.078	14743
306.118	11035
306.168	8499
306.173	8311
306.228	6396
306.259	6238
306.283	6279
306.338	6617
306.349	6752
306.393	7483
306.440	7671
306.448	7651
306.503	7516
306.530	9440
306.558	13522
306.613	29955
306.620	32017
306.668	45877
306.711	56113
306.723	56910
306.778	37330
306.801	31041
306.833	21917
306.888	11508
306.892	10973
306.943	9241
306.982	8405
306.997	8144
307.052	7146
307.072	7226
307.107	8096
307.162	11143
307.163	11185
307.217	17130
307.253	20763
307.272	21989
307.327	21820
307.343	21424
307.381	17976
307.434	15165
307.436	15550
307.491	34580
307.524	46750
307.546	52174
307.600	47328
307.614	44964
307.655	28025
307.704	14041
307.710	13836
307.765	15879
307.795	21176
307.819	28768
307.874	39977
307.885	40789
307.929	30735
307.975	22255
307.984	22571
308.038	28949
308.065	37638
308.093	59447
308.148	136609
308.156	149311
308.202	250660
308.246	289358
308.257	271718
308.312	156946
308.336	113947
308.366	92085
308.421	56486
308.426	53614
308.475	35661
308.517	23385
308.530	21955
308.585	18750
308.607	17750
308.639	17419
308.694	18868
308.697	19270
308.748	36276
308.787	48158
308.803	48903
308.857	41972
308.877	40069
308.912	34160
308.967	27826
308.967	27743
309.021	37544
309.058	46767
309.076	57561
309.130	99455
309.148	118370
309.185	194178
309.238	319633
309.239	321894
309.293	387334
309.328	399361
309.348	342176
309.402	179114
309.418	136426
309.457	98694
309.508	57271
309.511	56585
309.566	50978
309.598	50565
309.620	59973
309.674	88487
309.688	94644
309.729	97805
309.778	94781
309.783	92320
309.837	61778
309.868	46527
309.892	48030
309.946	60380
309.959	63781
310.001	91534
310.049	112726
310.055	108682
310.109	66941
310.139	45949
310.163	37213
310.218	20731
310.229	17654
310.272	14685
310.319	12147
310.326	11948
310.381	10804
310.409	10241
310.435	9825
310.489	9274
310.499	9212
310.543	9857
310.589	10549
310.598	10691
310.652	11500
310.679	11662
310.706	10501
310.760	8362
310.769	8014
310.814	6992
310.859	5994
310.868	6079
310.923	6759
310.948	7153
310.977	7965
311.031	9540
311.038	9722
311.085	9839
311.128	9835
311.139	9672
311.193	8947
311.218	8518
311.247	8046
311.301	7263
311.308	7166
311.356	7527
311.398	7802
311.410	7764
311.464	7489
311.488	7378
311.518	7300
311.572	7300
311.578	7307
311.626	10367
311.668	12883
311.680	12881
311.734	12778
311.758	12712
311.788	12958
311.842	13365
311.847	13402
311.896	14706
311.937	15816
311.950	16639
312.004	20038
312.027	21488
312.058	17552
312.112	10484
312.117	9761
312.165	8989
312.207	8310
312.297	12371
312.386	12559
312.476	9446
312.566	20111
312.656	13233
312.745	7309
312.835	7999
312.925	9910
313.015	8533
313.104	10734
313.194	7201
313.284	8417
313.374	10126
313.463	12102
313.553	7407
313.643	7829
313.732	6580
313.822	7366
313.912	8233
314.001	10105
314.091	11533
314.180	15912
314.270	12903
314.360	14244
314.449	13520
314.539	8941
314.628	7284
314.718	10026
314.808	12952
314.897	9434
314.987	8002
315.076	10936
315.166	14505
315.255	13863
315.345	12960
315.434	13244
315.524	11002
315.613	14688
315.703	16438
315.792	24202
315.881	63026
315.971	43480
316.060	22505
316.150	34322
316.239	37268
316.328	21542
316.418	7824
316.507	9645
316.597	11632
316.686	12591
316.775	15153
316.865	39203
316.954	14164
317.043	7013
317.133	8131
317.222	8650
317.311	7212
317.400	8840
317.490	9747
317.579	15027
317.668	9564
317.757	15887
317.847	35342
317.936	113891
318.025	73985
318.114	30583
318.203	23608
318.293	22144
318.382	48988
318.471	43490
318.560	52586
318.649	85418
318.738	35820
318.828	12970
318.917	14743
319.006	15271
319.095	43598
319.184	96825
319.273	83243
319.362	39988
319.451	12409
319.540	10234
319.629	21600
319.718	45693
319.807	19415
319.896	34400
319.985	122128
320.074	78958
320.163	16171
320.252	23360
320.341	20929
320.430	22319
320.519	22052
320.608	18913
320.697	11508
320.786	13011
320.875	14349
320.964	19718
321.053	28322
321.142	40365
321.230	51008
321.319	33523
321.408	72762
321.497	48080
321.586	29524
321.675	36693
321.764	41371
321.852	24535
321.941	39185
322.030	37824
322.119	27731
322.207	77565
322.296	67039
322.385	33167
322.474	31242
322.562	82479
322.651	70849
322.740	31974
322.829	54098
322.917	53839
323.006	36915
323.095	26991
323.183	20138
323.272	27278
323.361	44963
323.449	135063
323.538	71649
323.626	85258
323.715	91587
323.804	23384
323.892	81232
323.981	74534
324.069	18426
324.158	39781
324.246	63881
324.335	17789
324.424	30233
324.512	14679
324.601	14516
324.689	33925
324.778	86073
324.866	48353
324.954	16211
325.043	10696
325.131	19803
325.220	40280
325.308	49238
325.397	32426
325.485	28941
325.574	9426
325.662	8972
325.750	9916
325.839	9368
325.927	7666
326.015	11144
326.104	14102
326.192	27291
326.280	9896
326.369	7714
326.457	11803
326.545	23307
326.634	16099
326.722	6612
326.810	8266
326.898	7472
326.987	8542
327.075	18710
327.163	26856
327.251	14762
327.340	22904
327.428	53121
327.516	12895
327.604	8256
327.692	10462
327.781	9452
327.869	17475
327.957	14088
328.045	12849
328.133	6439
328.221	9179
328.309	9438
328.397	7257
328.485	9761
328.574	12698
328.662	42561
328.750	39678
328.838	13775
328.926	8635
329.014	6918
329.102	10559
329.190	26410
329.278	28563
329.366	7585
329.454	6412
329.542	7648
329.630	6952
329.718	6909
329.806	9938
329.893	10482
329.981	11214
330.069	11026
330.157	40504
330.245	159897
330.333	128867
330.421	23422
330.509	14589
330.597	49990
330.684	55502
330.772	17297
330.860	20415
330.948	27824
331.036	17431
331.123	6573
331.211	6926
331.299	9782
331.387	16321
331.475	46521
331.562	18018
331.650	7195
331.738	8053
331.825	13406
331.913	7886
332.001	6414
332.089	8183
332.176	19711
332.264	41368
332.352	52086
332.439	15257
332.527	10369
332.614	8539
332.702	12302
332.790	8190
332.877	17368
332.965	51893
333.052	22676
333.140	14029
333.228	40037
333.315	19043
333.403	9231
333.490	23975
333.578	33654
333.665	44109
333.753	33466
333.840	10978
333.928	9999
334.015	24496
334.103	41005
334.190	130335
334.278	66803
334.365	17553
334.452	15471
334.540	10848
334.627	11707
334.715	17080
334.802	24177
334.889	130280
334.977	225088
335.064	38282
335.151	13956
335.239	13272
335.326	14536
335.413	47171
335.501	116743
335.588	23067
335.675	11955
335.762	13639
335.850	26866
335.937	18693
336.024	34417
336.111	163699
336.199	127537
336.286	25285
336.373	11788
336.460	9324
336.547	8870
336.635	10730
336.722	11495
336.809	9286
336.896	11878
336.983	32470
337.070	95560
337.157	147021
337.245	109198
337.332	113920
337.419	15001
337.506	9050
337.593	8892
337.680	23431
337.767	104559
337.854	43669
337.941	34208
338.028	43172
338.115	22266
338.202	14663
338.289	25467
338.376	103442
338.463	58805
338.550	44585
338.637	87043
338.724	21045
338.811	41464
338.898	12898
338.984	7130
339.071	9398
339.158	10616
339.245	25885
339.332	24974
339.419	19231
339.506	32612
339.593	7125
339.679	5849
339.766	7918
339.853	8263
339.940	22162
340.027	11933
340.113	7466
340.200	11885
340.287	10483
340.374	10126
340.460	21343
340.547	11633
340.634	11203
340.720	44705
340.807	51702
340.894	7215
340.980	7847
341.067	7094
341.154	7876
341.240	10316
341.327	29476
341.414	12955
341.500	11968
341.587	7944
341.674	6567
341.760	14708
341.847	26314
341.933	11363
342.020	4422
342.106	4521
342.193	6673
342.279	14744
342.366	11139
342.452	20460
342.539	12540
342.625	18134
342.712	60122
342.798	36056
342.885	14813
342.971	5726
343.058	4456
343.144	5183
343.230	6163
343.317	5511
343.403	6147
343.490	4456
343.576	5029
343.662	5986
343.749	8639
343.835	9228
343.921	13031
344.008	64079
344.094	247631
344.180	92032
344.267	19521
344.353	46971
344.439	90385
344.525	34901
344.612	16209
344.698	11244
344.784	10866
344.870	5294
344.957	6503
345.043	11536
345.129	9538
345.215	17771
345.301	14129
345.387	8495
345.474	5461
345.560	5305
345.646	8062
345.732	6625
345.818	8140
345.904	8308
345.990	9034
346.076	9009
346.162	17553
346.249	10332
346.335	6788
346.421	6392
346.507	15985
346.593	86537
346.679	43480
346.765	9079
346.851	6958
346.937	8830
347.023	6553
347.108	7366
347.194	8682
347.280	6223
347.366	7833
347.452	18720
347.538	96498
347.624	94440
347.710	82458
347.796	18848
347.882	7898
347.967	6851
348.053	10104
348.139	8542
348.225	6784
348.311	6755
348.397	6476
348.482	7283
348.568	11453
348.654	6054
348.740	8902
348.825	12884
348.911	11061
348.997	32490
349.083	111727
349.168	33472
349.254	8158
349.340	9260
349.425	6168
349.511	7455
349.597	12159
349.682	15192
349.768	55403
349.854	49533
349.939	9245
350.025	5458
350.110	6574
350.196	5267
350.282	5635
350.367	4483
350.453	8843
350.538	14842
350.624	9654
350.709	11727
350.795	6346
350.880	6444
350.966	6548
351.051	10899
351.137	11669
351.222	6049
351.308	13459
351.393	58579
351.479	28842
351.564	7868
351.649	6169
351.735	5112
351.820	5208
351.906	6767
351.991	8490
352.076	23884
352.162	67288
352.247	17925
352.332	8547
352.418	14401
352.503	19884
352.588	59610
352.673	99109
352.759	21272
352.844	10946
352.929	8227
353.014	14844
353.100	9045
353.185	15055
353.270	23648
353.355	27986
353.441	9395
353.526	8249
353.611	15778
353.696	29779
353.781	14472
353.866	9225
353.952	6060
354.037	15310
354.122	41759
354.207	45214
354.292	24443
354.377	8432
354.462	6683
354.547	9775
354.632	10158
354.717	12127
354.802	22812
354.887	12959
354.972	6763
355.057	5251
355.142	5178
355.227	7736
355.312	11534
355.397	24156
355.482	62448
355.567	54771
355.652	20279
355.737	28874
355.822	52753
355.907	90771
355.991	14816
356.076	7991
356.161	6933
356.246	6382
356.331	6745
356.416	12757
356.501	76682
356.585	166133
356.670	32069
356.755	12828
356.840	14616
356.924	52298
357.009	261405
357.094	192376
357.179	30145
357.263	22729
357.348	15644
357.433	19696
357.517	15323
357.602	15477
357.687	10772
357.771	13139
357.856	27006
357.941	26165
358.025	35044
358.110	226527
358.195	212846
358.279	31083
358.364	15016
358.448	36051
358.533	127286
358.617	129825
358.702	102297
358.787	61664
358.871	21297
358.956	24739
359.040	9775
359.125	7039
359.209	6760
359.294	10500
359.378	24076
359.462	19954
359.547	14202
359.631	9307
359.716	6543
359.800	7256
359.885	11715
359.969	11264
360.053	7845
360.138	7466
360.222	9003
360.306	20246
360.391	20525
360.475	16324
360.559	49536
360.644	52147
360.728	57222
360.812	40089
360.896	173063
360.981	108491
361.065	59137
361.149	16022
361.233	12769
361.318	11165
361.402	12896
361.486	11794
361.570	8731
361.654	10641
361.739	20060
361.823	78290
361.907	205923
361.991	63558
362.075	17517
362.159	40426
362.243	40211
362.327	29538
362.411	42866
362.495	29103
362.580	14328
362.664	9578
362.748	9930
362.832	12686
362.916	17772
363.000	46172
363.084	135058
363.168	248285
363.252	95812
363.336	23492
363.420	23298
363.503	64450
363.587	141262
363.671	36122
363.755	16532
363.839	23915
363.923	15573
364.007	18996
364.091	32727
364.175	29660
364.258	123208
364.342	146029
364.426	130656
364.510	105751
364.594	41477
364.677	32053
364.761	114008
364.845	164797
364.929	41598
365.013	39178
365.096	24010
365.180	37923
365.264	26757
365.347	126277
365.431	106276
365.515	25897
365.598	13194
365.682	9592
365.766	13947
365.849	28517
365.933	12812
366.017	14810
366.100	16842
366.184	6819
366.267	7274
366.351	8098
366.435	6620
366.518	6074
366.602	4669
366.685	5901
366.769	8225
366.852	12235
366.936	27815
367.019	21434
367.103	11513
367.186	26080
367.270	13563
367.353	6731
367.436	6909
367.520	6801
367.603	7770
367.687	12642
367.770	25390
367.853	19276
367.937	28125
368.020	86746
368.104	33220
368.187	16325
368.270	27349
368.353	27653
368.437	26809
368.520	68306
368.603	62857
368.687	40453
368.770	113282
368.853	47830
368.936	21916
369.020	32334
369.103	15275
369.186	8383
369.269	10215
369.352	13383
369.436	28401
369.519	19314
369.602	12017
369.685	8257
369.768	11515
369.851	9677
369.934	6404
370.018	7787
370.101	20149
370.184	21828
370.267	13446
370.350	19760
370.433	32342
370.516	60827
370.599	128274
370.682	52908
370.765	47265
370.848	67445
370.931	117619
371.014	83546
371.097	16387
371.180	10941
371.263	6446
371.346	6468
371.429	5954
371.511	7741
371.594	13127
371.677	23235
371.760	29921
371.843	23091
371.926	55500
372.009	230925
372.091	129593
372.174	41658
372.257	105484
372.340	78710
372.423	31188
372.505	51513
372.588	26792
372.671	24740
372.754	104231
372.836	101568
372.919	33900
373.002	97697
373.085	51744
373.167	21030
373.250	41363
373.332	104262
373.415	123227
373.498	298190
373.580	189178
373.663	103497
373.746	253843
373.828	87107
373.911	26630
373.993	21621
374.076	61903
374.159	113686
374.241	37792
374.324	83426
374.406	102662
374.489	55639
374.571	224576
374.654	174181
374.736	43610
374.819	121465
374.901	196096
374.983	272857
375.066	83148
375.148	19297
375.231	41229
375.313	141366
375.395	84604
375.478	22567
375.560	10697
375.643	13030
375.725	29249
375.807	146697
375.890	203432
375.972	96427
376.054	42205
376.136	59950
376.219	43132
376.301	30886
376.383	149172
376.465	110884
376.548	38715
376.630	44870
376.712	113479
376.794	113880
376.877	16569
376.959	7550
377.041	8016
377.123	15043
377.205	30427
377.287	11697
377.369	5971
377.452	7691
377.534	7820
377.616	6613
377.698	7520
377.780	6625
377.862	7418
377.944	8639
378.026	5447
378.108	5816
378.190	6228
378.272	5467
378.354	4107
378.436	4941
378.518	7535
378.600	35824
378.682	40877
378.764	53554
378.846	83502
378.928	22803
379.010	24839
379.091	20474
379.173	7902
379.255	7095
379.337	9487
379.419	22277
379.501	89699
379.583	75970
379.664	14235
379.746	21636
379.828	55570
379.910	96839
379.991	108581
380.073	33241
380.155	11223
380.237	10078
380.318	7230
380.400	8740
380.482	12536
380.564	29758
380.645	27008
380.727	32221
380.809	18397
380.890	13245
380.972	11571
381.053	10313
381.135	10357
381.217	17160
381.298	67488
381.380	63006
381.461	26312
381.543	86122
381.624	215078
381.706	68699
381.787	20959
381.869	22164
381.951	35088
382.032	182598
382.113	219411
382.195	58094
382.276	27272
382.358	37417
382.439	112702
382.521	138528
382.602	222331
382.684	146368
382.765	147848
382.846	239123
382.928	340294
383.009	312388
383.090	130099
383.172	324500
383.253	809530
383.334	408323
383.416	213898
383.497	178092
383.578	71727
383.659	101543
383.741	269907
383.822	899844
383.903	825239
383.984	224767
384.066	234124
384.147	230815
384.228	66286
384.309	32457
384.390	31184
384.471	21117
384.553	21134
384.634	24503
384.715	30340
384.796	19639
384.877	17272
384.958	44365
385.039	101660
385.120	50989
385.201	18042
385.282	19087
385.363	22876
385.444	22038
385.525	23303
385.606	74240
385.687	120560
385.768	35939
385.849	25858
385.930	63847
386.011	199781
386.092	103496
386.173	20733
386.254	13142
386.335	13605
386.416	13656
386.496	28189
386.577	80970
386.658	47147
386.739	22414
386.820	18569
386.901	17448
386.981	14729
387.062	10960
387.143	14787
387.224	50465
387.304	88886
387.385	35367
387.466	20750
387.547	24215
387.627	20260
387.708	19828
387.789	79342
387.869	175217
387.950	79744
388.031	13418
388.111	9887
388.192	21620
388.273	40009
388.353	33672
388.434	15273
388.514	18222
388.595	72393
388.676	166420
388.756	103413
388.837	63004
388.917	67059
388.998	17285
389.078	11148
389.159	10635
389.239	10239
389.320	12622
389.400	15555
389.480	18399
389.561	65283
389.641	64332
389.722	16310
389.802	23141
389.883	27158
389.963	70085
390.043	85297
390.124	31622
390.204	19731
390.284	67214
390.365	80473
390.445	46936
390.525	131387
390.605	181480
390.686	74495
390.766	24999
390.846	12614
390.927	7817
391.007	9826
391.087	10701
391.167	12110
391.247	12201
391.328	13521
391.408	23190
391.488	24027
391.568	10253
391.648	11568
391.728	18428
391.808	16312
391.888	18987
391.969	26924
392.049	73548
392.129	48585
392.209	27774
392.289	72099
392.369	73952
392.449	42473
392.529	42991
392.609	24488
392.689	25729
392.769	60063
392.849	101984
392.929	49249
393.009	103852
393.089	135236
393.169	84251
393.248	172660
393.328	663649
393.408	1220962
393.488	554656
393.568	140511
393.648	62940
393.728	38536
393.807	28395
393.887	24238
393.967	21367
394.047	21643
394.127	25492
394.206	31535
394.286	66559
394.366	304514
394.446	633543
394.525	248770
394.605	54329
394.685	30256
394.764	47990
394.844	92396
394.924	106087
395.003	38368
395.083	20144
395.163	18083
395.242	15625
395.322	16346
395.402	13957
395.481	15026
395.561	25307
395.640	94452
395.720	112474
395.799	102188
395.879	131747
395.958	57932
396.038	96535
396.117	411966
396.197	813003
396.276	374119
396.356	111524
396.435	66165
396.515	51069
396.594	44641
396.673	69126
396.753	162252
396.832	668291
396.912	919832
396.991	325000
397.070	76064
397.150	37535
397.229	25553
397.308	24808
397.388	45603
397.467	39699
397.546	15135
397.625	11790
397.705	14164
397.784	16634
397.863	12533
397.942	8416
398.022	7936
398.101	17925
398.180	84334
398.259	87281
398.338	24399
398.417	12058
398.497	9669
398.576	9331
398.655	8234
398.734	7351
398.813	6413
398.892	13930
398.971	82011
399.050	94577
399.129	15980
399.208	5803
399.287	5799
399.366	5624
399.445	5081
399.524	5588
399.603	5691
399.682	8817
399.761	22684
399.840	77687
399.919	126932
399.998	31994
400.077	6082
400.156	5137
400.235	6758
400.313	6355
400.392	7078
400.471	20335
400.550	68034
400.629	38133
400.708	8600
400.786	8111
400.865	17396
400.944	33963
401.023	19816
401.102	5513
401.180	3172
401.259	4448
401.338	5479
401.416	8073
401.495	9678
401.574	7945
401.652	6599
401.731	7921
401.810	10293
401.888	8020
401.967	3114
402.046	5440
402.124	5781
402.203	12170
402.281	9851
402.360	7150
402.438	23857
402.517	34884
402.596	11545
402.674	9134
402.753	7165
402.831	5104
402.910	4839
402.988	13697
403.066	73140
403.145	94622
403.223	25334
403.302	61999
403.380	78560
403.459	61312
403.537	45340
403.615	14580
403.694	6003
403.772	4476
403.850	3547
403.929	3019
404.007	4077
404.085	8198
404.164	17381
404.242	9530
404.320	6305
404.398	13394
404.477	28075
404.555	104862
404.633	215629
404.711	62413
404.789	14386
404.868	8336
404.946	7223
405.024	3790
405.102	3672
405.180	3493
405.258	3405
405.336	3921
405.415	3919
405.493	9299
405.571	14781
405.649	7871
405.727	3511
405.805	7280
405.883	8036
405.961	8236
406.039	10355
406.117	8662
406.195	6977
406.273	18156
406.351	108423
406.429	151873
406.507	34314
406.585	11226
406.663	4816
406.740	8769
406.818	9908
406.896	6821
406.974	4935
407.052	7468
407.130	42454
407.208	146045
407.285	62500
407.363	8487
407.441	5972
407.519	6022
407.596	5295
407.674	12394
407.752	41117
407.830	79991
407.907	37775
407.985	12832
408.063	6365
408.141	3925
408.218	5824
408.296	12054
408.373	9101
408.451	6676
408.529	7764
408.606	5362
408.684	3178
408.762	2643
408.839	1961
408.917	2095
408.994	2892
409.072	3882
409.149	3973
409.227	5177
409.304	9404
409.382	9245
409.459	7319
409.537	10701
409.614	12707
409.692	9220
409.769	8026
409.846	10381
409.924	15452
410.001	17390
410.079	11924
410.156	7201
410.233	6424
410.311	6512
410.388	5236
410.465	5452
410.543	8177
410.620	4818
410.697	4331
410.775	7940
410.852	4936
410.929	5584
411.006	9482
411.083	7307
411.161	9930
411.238	18670
411.315	12110
411.392	5394
411.469	5609
411.547	9735
411.624	6018
411.701	5661
411.778	3437
411.855	11442
411.932	12124
412.009	4801
412.086	4339
412.163	4029
412.240	6669
412.317	6835
412.394	9337
412.471	4950
412.548	3106
412.625	4206
412.702	3960
412.779	9960
412.856	12286
412.933	5151
413.010	2939
413.087	4669
413.164	17125
413.241	60506
413.318	30388
413.395	8579
413.471	10668
413.548	10707
413.625	3083
413.702	5411
413.779	6211
413.855	3348
413.932	1570
414.009	2251
414.086	2388
414.162	3266
414.239	3205
414.316	16330
414.393	68382
414.469	63717
414.546	8676
414.623	2640
414.699	2591
414.776	3372
414.853	4464
414.929	3462
415.006	3467
415.082	5091
415.159	4750
415.236	3846
415.312	3616
415.389	5332
415.465	11784
415.542	10316
415.618	3905
415.695	7267
415.771	7250
415.848	5437
415.924	3828
416.000	4633
416.077	3292
416.153	1893
416.230	1380
416.306	1303
416.383	2692
416.459	2775
416.535	1254
416.612	1490
416.688	3121
416.764	2420
416.841	1800
416.917	3092
416.993	2897
417.069	3127
417.146	5750
417.222	7877
417.298	7865
417.374	4272
417.451	3844
417.527	4923
417.603	6991
417.679	6612
417.755	4045
417.831	2600
417.908	1531
417.984	2470
418.060	1451
418.136	5090
418.212	15499
418.288	9765
418.364	3008
418.440	2643
418.516	5428
418.592	7414
418.668	14593
418.744	24562
418.820	26222
418.896	10581
418.972	2462
419.048	2523
419.124	7167
419.200	13265
419.276	5699
419.352	1887
419.428	1436
419.504	2482
419.579	6001
419.655	5058
419.731	4027
419.807	8428
419.883	25865
419.959	32295
420.034	10758
420.110	6691
420.186	28575
420.262	60937
420.337	16748
420.413	7493
420.489	4816
420.565	3481
420.640	2550
420.716	3642
420.792	3308
420.867	3446
420.943	3148
421.019	5755
421.094	9559
421.170	5418
421.245	3692
421.321	3569
421.397	4871
421.472	7450
421.548	23365
421.623	39081
421.699	15108
421.774	7765
421.850	8546
421.925	11138
422.001	14199
422.076	11209
422.152	10075
422.227	17630
422.302	23543
422.378	27607
422.453	47057
422.529	89853
422.604	233132
422.679	520832
422.755	535249
422.830	286093
422.905	104667
422.981	52137
423.056	32367
423.131	22265
423.207	15684
423.282	14629
423.357	17900
423.432	21997
423.508	13069
423.583	21469
423.658	33564
423.733	13904
423.808	9733
423.883	11590
423.959	11676
424.034	10073
424.109	7413
424.184	6465
424.259	4695
424.334	3828
424.409	2364
424.484	2864
424.559	4803
424.634	4409
424.709	5052
424.784	8767
424.859	6255
424.934	5883
425.009	18439
425.084	54760
425.159	49028
425.234	9922
425.309	2335
425.384	3166
425.459	7998
425.534	7431
425.609	3290
425.683	4671
425.758	2315
425.833	3414
425.908	4412
425.983	8520
426.058	45569
426.132	57622
426.207	12407
426.282	7318
426.357	10990
426.431	5987
426.506	2400
426.581	4032
426.655	4086
426.730	2672
426.805	3593
426.879	3998
426.954	4925
427.029	5857
427.103	22320
427.178	102559
427.253	123916
427.327	24554
427.402	5898
427.476	14651
427.551	15657
427.625	6362
427.700	5945
427.774	4337
427.849	4829
427.923	4612
427.998	2994
428.072	4109
428.147	7932
428.221	19227
428.296	91137
428.370	134303
428.444	30615
428.519	11159
428.593	19183
428.667	29433
428.742	21826
428.816	28851
428.890	37679
428.965	137459
429.039	93107
429.113	32746
429.188	24737
429.262	6619
429.336	5922
429.410	19563
429.485	31243
429.559	17642
429.633	25371
429.707	11051
429.781	8398
429.855	42594
429.930	150002
430.004	116338
430.078	89976
430.152	124021
430.226	109844
430.300	226019
430.374	95341
430.448	15135
430.522	15604
430.596	72480
430.670	105432
430.744	68934
430.818	228134
430.892	137517
430.966	18134
431.040	7203
431.114	4216
431.188	3023
431.262	3782
431.336	4005
431.410	5450
431.484	21824
431.557	36999
431.631	11237
431.705	3416
431.779	8506
431.853	58494
431.927	131570
432.000	38588
432.074	5810
432.148	4369
432.222	6398
432.295	3621
432.369	2495
432.443	4482
432.516	17466
432.590	101222
432.664	118980
432.737	21373
432.811	4544
432.885	1559
432.958	2520
433.032	1695
433.106	1815
433.179	1000
433.253	1228
433.326	1622
433.400	1434
433.473	1295
433.547	1101
433.620	684
433.694	3773
433.767	9217
433.841	4597
433.914	1989
433.988	917
434.061	1212
434.134	1836
434.208	1299
434.281	909
434.355	517
434.428	1699
434.501	1445
434.575	940
434.648	1197
434.721	1839
434.795	862
434.868	894
434.941	991
435.014	719
435.088	713
435.161	2390
435.234	4998
435.307	10255
435.381	8388
435.454	4520
435.527	4502
435.600	6561
435.673	6365
435.746	4546
435.819	3184
435.892	3612
435.966	2367
436.039	2245
436.112	2904
436.185	1542
436.258	1328
436.331	735
436.404	316
436.477	316
436.550	964
436.623	312
436.696	787
436.769	1632
436.842	2533
436.915	1557
436.987	3566
437.060	4031
437.133	1357
437.206	960
437.279	1281
437.352	1959
437.425	1295
437.498	2006
437.570	4407
437.643	9660
437.716	4872
437.789	2144
437.861	2341
437.934	14384
438.007	21956
438.080	4993
438.152	2799
438.225	4569
438.298	17995
438.370	130999
438.443	172623
438.516	46657
438.588	14318
438.661	3227
438.734	1594
438.806	2391
438.879	4336
438.951	4041
439.024	9207
439.096	10170
439.169	2842
439.241	2472
439.314	1246
439.386	2332
439.459	5551
439.531	10755
439.604	11418
439.676	3949
439.749	1261
439.821	1132
439.893	1116
439.966	799
440.038	2544
440.110	4759
440.183	3147
440.255	2361
440.327	3193
440.400	8028
440.472	60173
440.544	138484
440.617	44022
440.689	8437
440.761	7983
440.833	15186
440.905	19344
440.978	7621
441.050	2175
441.122	1530
441.194	1148
441.266	2153
441.338	1882
441.411	2999
441.483	12293
441.555	61023
441.627	44724
441.699	9618
441.771	8556
441.843	6160
441.915	1976
441.987	1642
442.059	1016
442.131	2868
442.203	5400
442.275	8283
442.347	9851
442.419	7519
442.491	18135
442.563	98307
442.635	130575
442.706	41247
442.778	39721
442.850	17941
442.922	4646
442.994	3672
443.066	6990
443.137	9448
443.209	6061
443.281	7010
443.353	11387
443.425	29839
443.496	129948
443.568	297431
443.640	192680
443.711	52487
443.783	12176
443.855	7328
443.926	3901
443.998	4204
444.070	4884
444.141	6353
444.213	6632
444.285	10563
444.356	9732
444.428	9583
444.499	6457
444.571	3180
444.642	2201
444.714	2293
444.785	6303
444.857	9325
444.928	15121
445.000	24105
445.071	11772
445.143	21779
445.214	18145
445.285	13842
445.357	30831
445.428	77953
445.500	268274
445.571	366383
445.642	203758
445.714	89039
445.785	49558
445.856	33082
445.928	13429
445.999	13346
446.070	9406
446.141	7347
446.213	9958
446.284	10007
446.355	6317
446.426	5053
446.497	4014
446.569	4167
446.640	10187
446.711	13131
446.782	5936
446.853	3049
446.924	6356
446.995	5361
447.066	4192
447.138	5997
447.209	8855
447.280	2926
447.351	1421
447.422	1299
447.493	2116
447.564	4519
447.635	6360
447.706	8153
447.777	2418
447.847	1298
447.918	686
447.989	2554
448.060	4565
448.131	8737
448.202	17424
448.273	13192
448.344	8679
448.414	3223
448.485	1947
448.556	2072
448.627	1091
448.698	1170
448.768	500
448.839	1657
448.910	3112
448.981	9585
449.051	5626
449.122	2935
449.193	1231
449.263	1178
449.334	1103
449.405	1719
449.475	6175
449.546	11825
449.616	7619
449.687	10566
449.758	5134
449.828	2994
449.899	1642
449.969	2108
450.040	1729
450.110	1468
450.181	3546
450.251	3978
450.322	2200
450.392	2399
450.463	1732
450.533	1056
450.604	1369
450.674	1410
450.744	1820
450.815	1769
450.885	1766
450.955	2199
451.026	1319
451.096	2069
451.166	3086
451.237	3992
451.307	16745
451.377	22988
451.447	6554
451.518	2283
451.588	1521
451.658	2189
451.728	2938
451.799	9364
451.869	34216
451.939	22492
452.009	3750
452.079	1791
452.149	1690
452.219	2465
452.289	12786
452.360	35827
452.430	15518
452.500	3708
452.570	4492
452.640	6432
452.710	10633
452.780	33134
452.850	32072
452.920	26299
452.990	20232
453.060	6381
453.129	5017
453.199	8608
453.269	11291
453.339	82194
453.409	153143
453.479	92959
453.549	130230
453.619	172602
453.688	151970
453.758	42468
453.828	6863
453.898	3888
453.968	3745
454.037	3433
454.087	2453
454.107	2029
454.168	2633
454.177	2697
454.247	1656
454.249	1708
454.316	2389
454.330	2525
454.386	2849
454.411	4106
454.456	5422
454.492	13805
454.525	21235
454.574	19736
454.595	19218
454.655	6776
454.665	4785
454.734	3584
454.736	3733
454.804	6317
454.817	8149
454.873	13373
454.898	21289
454.943	35061
454.979	30234
455.013	26543
455.060	14856
455.082	9940
455.141	7490
455.152	6908
455.221	10812
455.222	11263
455.291	30084
455.303	31220
455.360	37100
455.384	36526
455.430	32495
455.465	37515
455.499	42988
455.546	30786
455.569	24010
455.627	25113
455.638	25732
455.707	11991
455.708	11957
455.777	2656
455.789	2767
455.846	3187
455.869	3077
455.916	2816
455.950	2752
455.985	2547
456.031	2918
456.054	3108
456.112	3819
456.124	3965
456.193	2440
456.193	2409
456.262	3344
456.274	3568
456.332	4184
456.355	4778
456.401	5239
456.436	5177
456.470	5283
456.516	3904
456.540	3241
456.597	1896
456.609	1607
456.678	1973
456.678	1954
456.747	2195
456.759	2229
456.817	2287
456.840	2155
456.886	2019
456.920	2268
456.955	2489
457.001	2861
457.024	3287
457.082	4105
457.093	4188
457.162	6298
457.163	6347
457.232	7674
457.243	7654
457.301	7036
457.324	5734
457.370	4363
457.405	3850
457.439	3213
457.485	3361
457.508	3472
457.566	4204
457.577	4420
457.646	5601
457.647	5648
457.715	9246
457.727	10041
457.784	15769
457.808	18698
457.853	21078
457.889	26215
457.922	26931
457.969	23874
457.991	26648
458.050	27291
458.060	27746
458.129	37754
458.130	38322
458.198	36630
458.211	35114
458.267	31575
458.292	23943
458.336	16349
458.372	13299
458.405	13928
458.453	19231
458.474	24307
458.533	40831
458.543	41795
458.611	56718
458.614	57810
458.680	49686
458.694	41969
458.749	29819
458.775	21784
458.818	11461
458.855	8655
458.887	6853
458.936	6059
458.955	5742
459.016	5891
459.024	5850
459.093	5520
459.097	5534
459.162	6398
459.177	6528
459.230	6978
459.257	7569
459.299	7813
459.338	8212
459.368	8935
459.418	9120
459.437	8390
459.499	7603
459.505	7707
459.574	6814
459.579	6771
459.643	5777
459.659	5654
459.711	5924
459.740	6163
459.780	6622
459.820	7635
459.849	8047
459.900	8439
459.917	8453
459.981	8911
459.986	8945
460.054	8499
460.061	8511
460.123	9567
460.141	9804
460.191	11332
460.222	12784
460.260	14205
460.302	15682
460.328	14367
460.382	12916
460.397	13305
460.462	11831
460.465	11978
460.534	16487
460.543	17070
460.602	35338
460.623	42241
460.671	69697
460.703	89845
460.739	71848
460.783	60068
460.808	56389
460.864	25122
460.876	23631
460.944	9438
460.945	9272
461.013	7809
461.024	7844
461.081	8284
461.104	8381
461.150	7401
461.184	6919
461.218	7011
461.264	6683
461.286	6766
461.345	7381
461.355	7358
461.423	6982
461.425	6984
461.491	8293
461.505	8522
461.559	14685
461.585	17598
461.628	28923
461.665	39434
461.696	42091
461.745	49036
461.764	41806
461.825	20200
461.832	20867
461.901	13497
461.905	13168
461.969	8277
461.985	8230
462.037	8006
462.065	7646
462.105	9106
462.145	10663
462.173	14510
462.225	21526
462.241	23902
462.305	34386
462.310	33222
462.378	18298
462.385	16218
462.446	14102
462.465	12011
462.514	8593
462.545	8404
462.582	8313
462.625	8301
462.650	8135
462.705	7724
462.718	8035
462.785	9652
462.786	9727
462.854	13977
462.865	14673
462.922	17086
462.945	18439
462.990	14097
463.025	10476
463.058	10335
463.104	8642
463.126	8161
463.184	7381
463.194	7375
463.262	8178
463.264	8197
463.330	9095
463.344	9310
463.398	9916
463.424	10169
463.466	10217
463.504	10171
463.533	9985
463.583	9824
463.601	10438
463.663	12219
463.669	12582
463.737	16727
463.743	17154
463.805	25285
463.823	27574
463.873	42472
463.903	51390
463.940	52064
463.982	54179
464.008	43190
464.062	20479
464.076	20164
464.142	11925
464.144	11811
464.211	8848
464.221	8755
464.279	9636
464.301	10006
464.347	10797
464.381	11433
464.414	13290
464.461	15834
464.482	15840
464.540	15809
464.550	15373
464.617	12677
464.620	12542
464.685	13725
464.699	13912
464.753	16175
464.779	17532
464.820	18152
464.859	18761
464.888	19138
464.938	19315
464.956	19150
465.018	18749
465.023	18472
465.091	14452
465.098	14019
465.158	14144
465.177	14065
465.226	14164
465.257	14394
465.293	15375
465.336	16318
465.361	17865
465.416	21410
465.428	22763
465.495	29837
465.496	30016
465.563	50772
465.575	54234
465.631	63253
465.654	67338
465.698	41702
465.734	20564
465.765	19298
465.813	15114
465.833	14737
465.893	14530
465.900	14496
465.968	14835
465.972	14829
466.035	14351
466.052	14215
466.102	15540
466.131	16252
466.170	16296
466.210	16278
466.237	16377
466.290	16477
466.304	16812
466.369	18137
466.372	18217
466.439	19747
466.449	19910
466.506	21663
466.528	22300
466.573	30572
466.607	36734
466.641	54481
466.687	78969
466.708	85922
466.766	104735
466.775	96848
466.842	36900
466.845	33986
466.909	26954
466.925	25116
466.977	22952
467.004	22040
467.044	22625
467.083	23215
467.111	24844
467.163	27800
467.178	28522
467.242	31251
467.245	31182
467.312	28488
467.321	28076
467.379	27693
467.400	27471
467.446	29097
467.480	30175
467.559	25524
467.638	23015
467.717	23663
467.796	24923
467.875	28420
467.955	26075
468.034	39216
468.113	88227
468.192	128316
468.271	32202
468.350	25147
468.429	27330
468.508	27533
468.588	22380
468.667	22852
468.746	24551
468.825	22618
468.904	18838
468.983	23533
469.062	36832
469.141	42815
469.220	19579
469.299	19555
469.378	21172
469.456	23569
469.535	21726
469.614	22412
469.693	23299
469.772	28606
469.851	41764
469.930	28368
470.009	21379
470.088	22423
470.166	27901
470.245	42254
470.324	51824
470.403	35305
470.482	24801
470.560	21965
470.639	22329
470.718	27471
470.797	21551
470.875	24262
470.954	35165
471.033	37740
471.111	16276
471.190	16309
471.269	16272
471.347	16197
471.426	18335
471.505	21487
471.583	21511
471.662	19830
471.740	17162
471.819	17164
471.898	17580
471.976	16164
472.055	17864
472.133	20181
472.212	26902
472.290	28356
472.369	18033
472.447	16657
472.526	15365
472.604	16908
472.683	19167
472.761	19628
472.839	18177
472.918	17311
472.996	18693
473.075	20596
473.153	20269
473.231	17538
473.310	20161
473.388	20550
473.466	18578
473.545	20968
473.623	29381
473.701	27421
473.780	18355
473.858	18148
473.936	19711
474.014	17429
474.093	21657
474.171	29832
474.249	43502
474.327	27290
474.405	17371
474.484	16660
474.562	17848
474.640	17497
474.718	18578
474.796	18650
474.874	16463
474.952	16262
475.030	16082
475.108	17366
475.187	19419
475.265	22078
475.343	32702
475.421	36576
475.499	17472
475.577	17240
475.655	22685
475.733	47741
475.811	85060
475.889	77286
475.966	47580
476.044	18544
476.122	25196
476.200	33809
476.278	24403
476.356	16637
476.434	18531
476.512	22357
476.590	32387
476.667	26183
476.745	16367
476.823	17564
476.901	15598
476.979	17385
477.056	16273
477.134	17704
477.212	18011
477.290	17795
477.367	14622
477.445	15060
477.523	15105
477.601	16122
477.678	15616
477.756	19321
477.834	21599
477.911	15410
477.989	15358
478.066	15314
478.144	18917
478.222	22991
478.299	41875
478.377	35221
478.454	15799
478.532	14890
478.609	16180
478.687	16671
478.764	14938
478.842	15707
478.919	18165
478.997	16491
479.074	14485
479.152	17640
479.229	23603
479.307	14745
479.384	11395
479.461	13651
479.539	13840
479.616	18283
479.694	14632
479.771	17020
479.848	17872
479.926	25328
480.003	25430
480.080	13411
480.157	12625
480.235	13392
480.312	14258
480.389	16201
480.467	27393
480.544	35066
480.621	18295
480.698	16188
480.775	19457
480.853	19294
480.930	15293
481.007	15711
481.084	20770
481.161	22569
481.238	19682
481.315	14297
481.392	13770
481.470	15011
481.547	15452
481.624	14885
481.701	14163
481.778	14604
481.855	17706
481.932	26603
482.009	47132
482.086	31837
482.163	16832
482.240	27125
482.317	50961
482.393	36558
482.470	15794
482.547	16740
482.624	15734
482.701	16407
482.778	16367
482.855	12841
482.932	13074
483.009	13702
483.085	17032
483.162	21844
483.239	20232
483.316	15408
483.393	14061
483.469	14221
483.546	17322
483.623	18491
483.699	14163
483.776	13902
483.853	17036
483.930	26950
484.006	66739
484.083	121747
484.160	54044
484.236	69946
484.313	53145
484.389	41582
484.466	37100
484.543	35850
484.619	36858
484.696	39848
484.772	40340
484.849	44053
484.925	34869
485.002	34027
485.078	36164
485.155	38716
485.231	32537
485.308	31739
485.384	34351
485.461	42493
485.537	72128
485.614	85332
485.690	34074
485.766	31894
485.843	32649
485.919	49104
485.995	52517
486.072	29391
486.148	27725
486.224	28324
486.301	30687
486.377	36391
486.453	38717
486.530	32106
486.606	43104
486.682	48000
486.758	59740
486.835	73376
486.911	56495
486.987	94722
487.063	98964
487.139	127805
487.215	88942
487.292	40282
487.368	33672
487.444	37793
487.520	47984
487.596	49897
487.672	71332
487.748	177377
487.824	275874
487.900	97230
487.976	43391
488.052	41333
488.128	49240
488.204	40566
488.280	31764
488.356	39278
488.432	80885
488.508	130383
488.584	43684
488.660	29451
488.736	28433
488.812	31651
488.888	40575
488.964	55715
489.039	122062
489.115	189716
489.191	106677
489.267	32542
489.343	29628
489.418	25182
489.494	24100
489.570	24143
489.646	24123
489.722	24794
489.797	27859
489.873	42428
489.949	95994
490.024	81485
490.100	26134
490.176	25302
490.251	31433
490.327	43295
490.403	24709
490.478	22856
490.554	19967
490.629	20979
490.705	20670
490.781	23966
490.856	22701
490.932	27979
491.007	26413
491.083	27068
491.158	23943
491.234	32700
491.309	71000
491.385	74717
491.460	24683
491.536	25046
491.611	22243
491.686	25073
491.762	35861
491.837	77363
491.913	135389
491.988	179964
492.063	233240
492.139	61664
492.214	35971
492.289	19815
492.365	19767
492.440	24872
492.515	25347
492.590	24200
492.666	19622
492.741	27420
492.816	44041
492.891	24300
492.967	18247
493.042	16575
493.117	17910
493.192	20263
493.267	32881
493.342	83789
493.418	118952
493.493	26923
493.568	15823
493.643	17084
493.718	23384
493.793	37682
493.868	42300
493.943	27218
494.018	18734
494.093	17988
494.168	16743
494.243	16192
494.318	14465
494.393	15220
494.468	15116
494.543	15679
494.618	19522
494.693	17361
494.768	16491
494.842	18147
494.917	15117
494.992	17656
495.067	15352
495.142	14173
495.217	16571
495.292	15391
495.366	18408
495.441	23220
495.516	30567
495.591	51967
495.665	162079
495.740	404419
495.815	153464
495.890	27573
495.964	22154
496.039	22760
496.114	22639
496.188	25421
496.263	25963
496.338	21140
496.412	23655
496.487	28942
496.561	30413
496.636	31502
496.710	23970
496.785	27551
496.860	32360
496.934	25438
497.009	25454
497.083	25622
497.158	28565
497.232	32582
497.307	39908
497.381	32683
497.455	36688
497.530	48499
497.604	35632
497.679	35547
497.753	55175
497.827	73658
497.902	65704
497.976	80670
498.050	173465
498.125	611004
498.199	642740
498.273	112406
498.348	84769
498.422	68423
498.496	61797
498.570	55013
498.645	39648
498.719	39117
498.793	43268
498.867	64631
498.941	97009
499.016	240603
499.090	686447
499.164	232524
499.238	30340
499.312	26426
499.386	32901
499.460	30269
499.534	26102
499.609	32326
499.683	48528
499.757	52385
499.831	113225
499.905	433412
499.979	425680
500.053	64220
500.127	62214
500.201	46463
500.275	26608
500.349	25429
500.422	29266
500.496	46066
500.570	108713
500.644	237122
500.718	476839
500.792	102156
500.866	25870
500.940	32434
501.013	25368
501.087	25788
501.161	48551
501.235	71014
501.309	141698
501.382	397032
501.456	361512
501.530	75091
501.603	131406
501.677	50532
501.751	20473
501.825	26702
501.898	51667
501.972	158432
502.046	101478
502.119	29563
502.193	67369
502.266	176015
502.340	87632
502.413	70750
502.487	151705
502.561	87472
502.634	27675
502.708	22969
502.781	20644
502.855	16469
502.928	15265
503.002	14298
503.075	14993
503.149	15092
503.222	14269
503.295	16539
503.369	20811
503.442	35151
503.516	110108
503.589	301772
503.662	201171
503.736	57875
503.809	134598
503.882	119654
503.956	156224
504.029	160608
504.102	110023
504.175	146217
504.249	55004
504.322	31317
504.395	26769
504.468	18157
504.542	18011
504.615	14239
504.688	12565
504.761	12646
504.834	17786
504.907	23571
504.980	38118
505.053	19241
505.127	24776
505.200	26516
505.273	27249
505.346	17128
505.419	13345
505.492	11860
505.565	10416
505.638	11221
505.711	11332
505.784	11564
505.857	10041
505.930	11613
506.003	11063
506.076	12314
506.149	17377
506.221	24465
506.294	22217
506.367	61558
506.440	209916
506.513	118893
506.586	25261
506.659	15764
506.731	13600
506.804	16887
506.877	27725
506.950	17913
507.022	12486
507.095	18128
507.168	22245
507.241	12617
507.313	11093
507.386	14965
507.459	21095
507.531	13658
507.604	11288
507.677	10750
507.749	10345
507.822	14691
507.894	31736
507.967	35142
508.040	19516
508.112	16971
508.185	17222
508.257	16801
508.330	24980
508.402	16913
508.475	15750
508.547	17512
508.620	17704
508.692	28416
508.765	17551
508.837	12686
508.909	12210
508.982	13591
509.054	15343
509.127	14290
509.199	12140
509.271	12402
509.344	11022
509.416	11954
509.488	12499
509.560	12288
509.633	14064
509.705	16726
509.777	17075
509.849	23650
509.922	17406
509.994	12610
510.066	12996
510.138	15039
510.210	25486
510.283	24655
510.355	21078
510.427	16977
510.499	18137
510.571	18507
510.643	17240
510.715	28403
510.787	27110
510.859	16954
510.931	22443
511.003	28353
511.076	25336
511.148	15835
511.219	17627
511.291	26304
511.363	32812
511.435	15871
511.507	13545
511.579	14348
511.651	13999
511.723	14564
511.795	13525
511.867	14406
511.939	18944
512.010	39688
512.082	33593
512.154	15496
512.226	16552
512.298	22711
512.369	34536
512.441	26017
512.513	27227
512.585	21314
512.656	19835
512.728	22989
512.800	17999
512.871	16491
512.943	17492
513.015	15369
513.086	16684
513.158	18789
513.230	20401
513.301	29546
513.373	34146
513.444	19214
513.516	15921
513.588	17204
513.659	17802
513.731	24051
513.802	23707
513.874	42037
513.945	79691
514.016	27668
514.088	16357
514.159	19217
514.231	24299
514.302	32469
514.374	22912
514.445	23975
514.516	43618
514.588	37237
514.659	23132
514.730	42220
514.802	34717
514.873	27941
514.944	26044
515.016	24230
515.087	27266
515.158	31871
515.229	45859
515.301	31073
515.372	37048
515.443	25164
515.514	20519
515.585	17308
515.656	17333
515.728	16367
515.799	16224
515.870	17439
515.941	19072
516.012	19219
516.083	23486
516.154	27750
516.225	33712
516.296	29793
516.367	26025
516.438	31106
516.509	45141
516.580	81126
516.651	234226
516.722	801878
516.793	379574
516.864	57254
516.935	50570
517.006	61250
517.077	105351
517.148	268823
517.219	859852
517.289	1460035
517.360	369761
517.431	110673
517.502	34766
517.573	29688
517.643	28424
517.714	30007
517.785	30442
517.856	29748
517.926	35350
517.997	39489
518.068	56357
518.138	88522
518.209	184711
518.280	595342
518.350	1978209
518.421	882057
518.492	94757
518.562	48487
518.633	46438
518.703	48698
518.774	73077
518.845	158709
518.915	165203
518.986	60610
519.056	45480
519.127	72998
519.197	112302
519.268	227674
519.338	162965
519.408	38499
519.479	44614
519.549	35528
519.620	21884
519.690	18533
519.760	18509
519.831	19992
519.901	20496
519.971	15907
520.042	18250
520.112	22625
520.182	24356
520.253	27352
520.323	18139
520.393	20614
520.463	26424
520.534	21140
520.604	33988
520.674	23110
520.744	22889
520.814	40553
520.885	48558
520.955	75334
521.025	254663
521.095	119760
521.165	19004
521.235	18494
521.305	16842
521.375	15457
521.445	17134
521.515	25799
521.585	27033
521.655	29266
521.725	21616
521.795	21467
521.865	15487
521.935	23227
522.005	24219
522.075	13914
522.145	15735
522.215	18923
522.285	28784
522.355	37958
522.424	69841
522.494	65304
522.564	35789
522.634	61929
522.704	173371
522.774	76918
522.843	17647
522.913	16716
522.983	23271
523.053	18756
523.122	18465
523.192	30207
523.262	90848
523.331	102557
523.401	21210
523.471	12744
523.540	14613
523.610	11338
523.680	12423
523.749	13139
523.819	17083
523.888	19508
523.958	12579
524.027	13133
524.097	14818
524.166	13899
524.236	15878
524.305	15464
524.375	13157
524.444	13016
524.514	14028
524.583	15216
524.653	20662
524.722	21065
524.791	14767
524.861	13579
524.930	13900
524.999	14009
525.069	21019
525.138	17865
525.207	22174
525.277	16053
525.346	15994
525.415	13560
525.484	15239
525.554	18647
525.623	18485
525.692	15967
525.761	15598
525.830	15777
525.900	21127
525.969	31917
526.038	59125
526.107	109998
526.176	308637
526.245	286130
526.314	95280
526.383	162050
526.452	256348
526.522	346781
526.591	418585
526.660	117520
526.729	56550
526.797	66847
526.867	151744
526.935	529107
527.004	877727
527.073	553812
527.142	54144
527.211	23705
527.280	21518
527.349	23689
527.418	14439
527.487	13420
527.555	12829
527.624	11236
527.693	11975
527.762	11448
527.831	11067
527.899	11646
527.968	12669
528.037	12014
528.106	15884
528.174	29665
528.243	27384
528.312	33785
528.380	48641
528.449	16724
528.518	11431
528.586	9639
528.655	9424
528.723	9941
528.792	9733
528.861	11666
528.929	10293
528.998	9375
529.066	8707
529.135	9620
529.203	9262
529.272	9568
529.340	9758
529.409	10380
529.477	11246
529.545	14128
529.614	16329
529.682	16947
529.751	20971
529.819	16888
529.887	15349
529.956	10953
530.024	11599
530.092	10385
530.161	13101
530.229	22311
530.297	14061
530.365	9595
530.434	9135
530.502	9305
530.570	9130
530.638	8738
530.707	10778
530.775	11922
530.843	9513
530.911	9601
530.979	8891
531.047	9475
531.115	9890
531.183	10086
531.252	9682
531.320	9578
531.388	10617
531.456	9651
531.524	9746
531.592	10601
531.660	10909
531.728	10463
531.796	10313
531.864	9839
531.932	10371
532.000	10651
532.067	11278
532.135	11262
532.203	13958
532.271	16315
532.339	25946
532.407	70758
532.475	47576
532.542	18787
532.610	23058
532.678	41718
532.746	120008
532.814	330287
532.881	96420
532.949	15470
533.017	12449
533.084	11499
533.152	10563
533.220	10850
533.287	14055
533.355	10461
533.423	9741
533.490	10345
533.558	10146
533.625	10652
533.693	12688
533.761	12444
533.828	12659
533.896	14999
533.963	25512
534.031	34426
534.098	44205
534.166	24815
534.233	13048
534.300	12324
534.368	13481
534.435	11597
534.503	11697
534.570	12912
534.637	14114
534.705	15934
534.772	22099
534.840	41941
534.907	130554
534.974	209671
535.041	32558
535.109	18076
535.176	13156
535.243	11547
535.310	12514
535.378	12052
535.445	9731
535.512	10404
535.579	10913
535.646	11778
535.714	12399
535.781	14368
535.848	14583
535.915	13026
535.982	12876
536.049	13272
536.116	12954
536.183	12126
536.250	12602
536.317	13564
536.384	16411
536.451	23633
536.518	25690
536.585	19457
536.652	20594
536.719	31174
536.786	27217
536.853	20505
536.920	28391
536.987	51639
537.053	56308
537.120	147264
537.187	160274
537.254	19722
537.321	13136
537.388	14844
537.454	11601
537.521	12004
537.588	12551
537.654	14569
537.721	16213
537.788	15653
537.855	13208
537.921	12790
537.988	13621
538.055	13605
538.121	14510
538.188	16521
538.254	24397
538.321	47102
538.388	32420
538.454	15043
538.521	13504
538.587	13206
538.654	12868
538.720	13151
538.787	13935
538.853	15053
538.920	18216
538.986	17991
539.053	15612
539.119	15123
539.185	16100
539.252	17615
539.318	28168
539.385	20836
539.451	19539
539.517	20032
539.583	24755
539.650	46009
539.716	123771
539.782	44647
539.849	16330
539.915	14815
539.981	16281
540.047	19091
540.114	17376
540.180	17104
540.246	18318
540.312	25274
540.378	45138
540.444	54645
540.510	50322
540.576	134668
540.643	57412
540.709	14366
540.775	14738
540.841	15087
540.907	18861
540.973	29827
541.039	26562
541.105	30007
541.171	17844
541.237	15407
541.303	16448
541.369	19565
541.435	24653
541.500	40094
541.566	30084
541.632	15068
541.698	13654
541.764	12557
541.830	13599
541.896	13968
541.961	13335
542.027	15379
542.093	14904
542.159	16721
542.224	19055
542.290	25832
542.356	39958
542.421	49118
542.487	22120
542.553	16323
542.618	17454
542.684	16104
542.750	16926
542.815	23510
542.881	39219
542.947	107573
543.012	102916
543.078	16498
543.143	14041
543.209	16626
543.274	17326
543.340	22337
543.405	41241
543.471	78603
543.536	22619
543.602	14083
543.667	14045
543.732	14641
543.798	13116
543.863	14752
543.928	12895
543.994	12286
544.059	13165
544.124	13591
544.190	14012
544.255	14137
544.320	14654
544.386	16784
544.451	22055
544.516	28480
544.581	31865
544.646	66757
544.712	123445
544.777	31469
544.842	18286
544.907	21250
544.972	17847
545.037	16465
545.102	17833
545.168	18257
545.233	18680
545.298	20328
545.363	26031
545.428	31121
545.493	43826
545.558	95029
545.623	50761
545.688	19641
545.753	18972
545.818	18839
545.883	18805
545.947	19117
546.012	20098
546.077	23233
546.142	22054
546.207	21981
546.272	26892
546.337	30222
546.401	23249
546.466	22326
546.531	20464
546.596	23785
546.661	23954
546.725	22184
546.790	21219
546.855	22070
546.919	23673
546.984	26405
547.049	27553
547.113	32556
547.178	32124
547.243	35439
547.307	40239
547.372	45320
547.436	48546
547.501	42017
547.565	43678
547.630	46564
547.695	48036
547.759	46817
547.823	46437
547.888	39939
547.952	40589
548.017	42593
548.081	50023
548.146	54733
548.210	52795
548.274	44827
548.339	43876
548.403	42189
548.468	38716
548.532	38854
548.596	39712
548.660	40875
548.725	44704
548.789	51611
548.853	52626
548.917	45085
548.982	49907
549.046	52299
549.110	37366
549.174	36882
549.238	40468
549.303	42472
549.367	45125
549.431	43739
549.495	41361
549.559	42095
549.623	45881
549.687	53581
549.751	62140
549.815	60075
549.879	58928
549.943	53685
550.007	57184
550.071	58768
550.135	60493
550.199	54808
550.263	51106
550.327	49846
550.391	58383
550.455	57316
550.519	55018
550.582	60952
550.646	71598
550.710	77043
550.774	65024
550.838	64900
550.901	66748
550.965	71831
551.029	75595
551.093	85755
551.156	100766
551.220	135747
551.284	168430
551.347	111506
551.411	120044
551.475	143929
551.538	76865
551.602	64425
551.666	61083
551.729	57702
551.793	56068
551.856	56107
551.920	55555
551.983	55314
552.047	53991
552.110	54066
552.174	55661
552.237	56247
552.301	52338
552.364	51554
552.428	49186
552.491	49404
552.554	54010
552.618	53965
552.681	57472
552.745	63481
552.808	80040
552.871	107242
552.934	75660
552.998	57678
553.061	55389
553.124	52206
553.187	50434
553.251	52713
553.314	52916
553.377	55013
553.440	64907
553.503	89558
553.567	137534
553.630	69763
553.693	52151
553.756	52922
553.819	52502
553.882	50425
553.945	51429
554.008	50356
554.071	50447
554.134	50948
554.197	48254
554.260	46137
554.323	48164
554.386	51007
554.449	51066
554.512	49989
554.575	48231
554.638	48145
554.701	48701
554.764	46600
554.827	45131
554.889	44117
554.952	42188
555.015	40267
555.078	41450
555.141	43033
555.203	41584
555.266	41603
555.329	42148
555.391	42051
555.454	42067
555.517	41782
555.580	39225
555.642	36771
555.705	36469
555.768	36732
555.830	36358
555.893	34490
555.955	34541
556.018	34056
556.080	32691
556.143	34028
556.206	34039
556.268	35405
556.330	35263
556.393	35151
556.455	34922
556.518	40514
556.580	45040
556.643	32278
556.705	29392
556.767	30216
556.830	31833
556.892	32977
556.955	42727
557.017	38089
557.079	30082
557.142	30062
557.204	34524
557.266	48884
557.328	49592
557.391	27655
557.453	25786
557.515	26816
557.577	29428
557.639	31717
557.701	25314
557.764	25297
557.826	25712
557.888	28940
557.950	30050
558.012	35623
558.074	50005
558.136	81681
558.198	211938
558.260	112448
558.322	31546
558.384	29141
558.446	32968
558.508	39846
558.570	52586
558.632	83969
558.694	145459
558.756	187198
558.818	359829
558.880	995561
558.942	460428
559.003	216450
559.065	146895
559.127	43828
559.189	47474
559.251	64643
559.312	106016
559.374	187712
559.436	574786
559.498	440248
559.559	60354
559.621	49104
559.683	68026
559.744	112180
559.806	246899
559.868	499585
559.929	134168
559.991	59166
560.052	80940
560.114	195037
560.176	187363
560.237	106911
560.299	214431
560.360	72276
560.422	25057
560.483	22431
560.545	21269
560.606	21481
560.667	19593
560.729	19699
560.790	19590
560.852	19039
560.913	18653
560.974	17829
561.036	18801
561.097	18449
561.158	17590
561.220	18550
561.281	18623
561.342	21180
561.403	25022
561.465	31766
561.526	51998
561.587	85082
561.648	31435
561.709	19252
561.771	19261
561.832	17711
561.893	17746
561.954	17593
562.015	16833
562.076	17527
562.137	17492
562.198	17469
562.259	17803
562.320	18616
562.381	20063
562.442	25627
562.503	26114
562.564	17020
562.625	17125
562.686	17633
562.747	19273
562.808	19182
562.869	18305
562.930	21011
562.991	20428
563.051	19089
563.112	17178
563.173	16143
563.234	16227
563.294	16775
563.355	16689
563.416	17932
563.477	16472
563.537	17433
563.598	18329
563.659	17907
563.720	17465
563.780	18355
563.841	19187
563.901	18084
563.962	16155
564.023	17330
564.083	17172
564.144	18872
564.204	18601
564.265	19529
564.325	21985
564.386	34375
564.446	41152
564.507	18972
564.567	17241
564.628	17988
564.688	16307
564.749	17162
564.809	19098
564.869	22349
564.930	18252
564.990	16786
565.050	16065
565.111	17167
565.171	16485
565.231	17164
565.292	16319
565.352	16002
565.412	16791
565.472	16758
565.532	18930
565.593	17744
565.653	16442
565.713	18831
565.773	19484
565.833	20966
565.893	27421
565.953	21601
566.013	18714
566.074	19506
566.134	24745
566.194	33573
566.254	40593
566.314	27693
566.374	20853
566.434	19832
566.494	19782
566.554	20858
566.614	20809
566.673	21112
566.733	22470
566.793	23824
566.853	25243
566.913	24434
566.973	25493
567.033	26350
567.092	26473
567.152	25515
567.212	26543
567.272	26608
567.331	26861
567.391	28086
567.451	29079
567.511	33662
567.570	38354
567.630	27419
567.690	24211
567.749	24046
567.809	26192
567.868	28952
567.928	32674
567.988	38155
568.047	45109
568.107	54752
568.166	73256
568.226	104905
568.285	149322
568.345	137462
568.404	106258
568.464	88445
568.523	81234
568.582	83126
568.642	96289
568.701	121692
568.761	162424
568.820	246502
568.879	267481
568.939	199873
568.998	144910
569.057	106793
569.116	83278
569.176	66598
569.235	56179
569.294	48374
569.353	42794
569.413	38511
569.472	35418
569.531	32071
569.590	29833
569.649	27459
569.708	25922
569.767	26728
569.827	28319
569.886	27295
569.945	21727
570.004	22201
570.063	21861
570.122	22040
570.181	23832
570.240	22160
570.299	23993
570.358	24029
570.417	20170
570.475	18135
570.534	18871
570.593	20291
570.652	19757
570.711	21831
570.770	19251
570.829	21348
570.887	19411
570.946	21548
571.005	18114
571.064	17980
571.122	19129
571.181	21100
571.240	18596
571.299	16689
571.357	17119
571.416	18506
571.475	19300
571.533	22136
571.592	17102
571.650	17856
571.709	16513
571.768	16441
571.826	16597
571.885	16050
571.943	14917
572.002	15247
572.060	15845
572.119	14092
572.177	14083
572.236	13938
572.294	13719
572.352	13606
572.411	14082
572.469	13859
572.528	13789
572.586	14723
572.644	15294
572.703	21385
572.761	17392
572.819	14484
572.877	12813
572.936	13177
572.994	13412
573.052	13912
573.110	14610
573.169	14406
573.227	13311
573.285	13947
573.343	13286
573.401	13880
573.459	13387
573.517	12908
573.576	13560
573.634	12914
573.692	13615
573.750	14559
573.808	13822
573.866	13396
573.924	17310
573.982	17707
574.040	14454
574.098	13555
574.155	13031
574.213	12708
574.271	12641
574.329	13462
574.387	13190
574.445	12211
574.503	11618
574.560	11008
574.618	12009
574.676	11458
574.734	11745
574.792	12119
574.849	12337
574.907	11558
574.965	11092
575.022	11518
575.080	10081
575.138	11040
575.195	11608
575.253	12974
575.311	13745
575.368	12318
575.426	11401
575.483	11837
575.541	11819
575.598	11476
575.656	12339
575.713	12029
575.771	11213
575.828	11907
575.886	11023
575.943	12383
576.001	12682
576.058	13241
576.115	13058
576.173	15656
576.230	17670
576.287	18776
576.345	17470
576.402	13537
576.459	13419
576.517	13616
576.574	14344
576.631	14743
576.688	14016
576.746	12373
576.803	11534
576.860	12842
576.917	13115
576.974	12569
577.031	12514
577.089	13157
577.146	12363
577.203	12595
577.260	13416
577.317	13523
577.374	15090
577.431	15631
577.488	13550
577.545	11787
577.602	12927
577.659	12978
577.716	12436
577.773	13407
577.830	12506
577.886	12291
577.943	12127
578.000	12076
578.057	12414
578.114	13517
578.171	12371
578.227	13486
578.284	13067
578.341	12845
578.398	13271
578.454	14456
578.511	14054
578.568	16647
578.625	14260
578.681	13502
578.738	11966
578.794	12714
578.851	12339
578.908	11529
578.964	13040
579.021	13373
579.077	11697
579.134	12438
579.190	12007
579.247	11303
579.303	11960
579.360	12689
579.416	11410
579.473	11261
579.529	10939
579.586	11653
579.642	12324
579.698	12046
579.755	12722
579.811	12333
579.867	12925
579.924	12559
579.980	12078
580.036	12197
580.093	12892
580.149	13146
580.205	13623
580.261	13633
580.317	14493
580.374	14697
580.430	16149
580.486	15849
580.542	14865
580.598	13729
580.619	13575
580.654	13317
580.692	13065
580.710	12951
580.765	12621
580.767	12618
580.823	13389
580.838	13468
580.879	13704
580.911	13157
580.935	12764
580.984	12976
580.991	13019
581.047	13340
581.057	13217
581.103	12643
581.130	12786
581.159	12984
581.203	13735
581.215	13919
581.270	13749
581.276	13704
581.326	13430
581.349	13668
581.382	14023
581.422	14177
581.438	14253
581.494	14783
581.494	14780
581.550	14815
581.567	14785
581.606	14676
581.640	14663
581.661	14674
581.713	13680
581.717	13604
581.773	13720
581.786	13727
581.829	13825
581.859	13737
581.885	13637
581.932	14084
581.940	14163
581.996	14260
582.004	14277
582.052	14389
582.077	13859
582.107	13254
582.150	14123
582.163	14384
582.219	13973
582.223	14023
582.274	14645
582.296	14525
582.330	14416
582.368	16079
582.386	16747
582.441	15040
582.441	15037
582.497	14448
582.514	14616
582.552	15094
582.587	15608
582.608	15949
582.659	15972
582.663	15962
582.719	15361
582.732	15141
582.774	14429
582.805	14708
582.830	14975
582.877	15363
582.885	15419
582.941	15316
582.950	15426
582.996	16022
583.023	15834
583.052	15675
583.095	16351
583.107	16509
583.162	16792
583.168	16838
583.218	17394
583.240	17343
583.273	17235
583.313	17143
583.328	16996
583.384	16235
583.385	16240
583.439	16672
583.458	16585
583.494	16544
583.531	16413
583.549	16217
583.603	16873
583.605	16904
583.660	17048
583.676	17014
583.715	16822
583.748	17258
583.770	17671
583.820	17949
583.825	17950
583.881	18191
583.893	18092
583.936	17848
583.965	18164
583.991	18401
584.038	17940
584.046	17892
584.101	18624
584.110	18648
584.156	18433
584.183	18358
584.211	18575
584.255	18749
584.266	18675
584.321	17920
584.328	17919
584.376	18433
584.400	18913
584.431	19514
584.472	19685
584.486	19687
584.541	19753
584.545	19754
584.596	20074
584.617	19849
584.651	19736
584.689	21005
584.706	21445
584.761	21215
584.762	21214
584.816	22210
584.834	22192
584.871	22134
584.906	22387
584.926	22548
584.978	22522
584.980	22546
585.035	24369
585.051	24597
585.090	25382
585.123	26733
585.145	27598
585.195	27926
585.200	28000
585.254	30141
585.267	30725
585.309	33263
585.340	35914
585.364	38712
585.412	43410
585.419	43715
585.473	48606
585.484	50351
585.528	59678
585.556	67323
585.583	77830
585.628	97541
585.637	107434
585.692	191277
585.700	213566
585.747	392054
585.772	415766
585.801	344797
585.845	213424
585.856	176132
585.910	68571
585.917	56792
585.965	46378
585.989	41793
586.019	39737
586.061	37411
586.074	37218
586.128	37567
586.133	37557
586.183	38158
586.205	38122
586.237	38732
586.277	39396
586.292	39274
586.346	38840
586.349	38797
586.401	39525
586.421	40158
586.455	41557
586.493	43031
586.509	44496
586.564	48893
586.565	49092
586.618	66756
586.637	71641
586.672	78856
586.709	76062
586.727	67408
586.781	51551
586.781	51610
586.835	50124
586.853	49477
586.889	47613
586.925	46615
586.944	47106
586.996	48059
586.998	48159
587.052	50030
587.068	50546
587.106	51587
587.140	52083
587.161	52669
587.212	54534
587.215	54735
587.269	57424
587.284	57993
587.323	59610
587.356	60736
587.377	61706
587.427	64223
587.431	64518
587.485	66943
587.499	67800
587.539	70619
587.571	72322
587.593	73924
587.643	77206
587.648	77708
587.702	82909
587.715	83950
587.755	88206
587.786	91236
587.810	94295
587.858	101034
587.864	101936
587.917	109184
587.930	110893
587.971	119846
588.001	126090
588.025	131803
588.073	143029
588.079	144698
588.133	157884
588.145	160670
588.187	175279
588.217	186343
588.241	198145
588.288	221476
588.295	225550
588.348	258623
588.360	265908
588.402	299828
588.431	324606
588.456	350891
588.503	404679
588.510	414524
588.564	497712
588.575	516242
588.617	610513
588.646	681682
588.671	765725
588.718	933058
588.725	971461
588.778	1283351
588.789	1350010
588.832	1766043
588.861	2058345
588.886	2324117
588.932	2753136
588.939	2742145
588.993	2446776
589.004	2420778
589.047	2531253
589.075	2568128
589.100	2555781
589.147	2401393
589.154	2321975
589.207	1691165
589.218	1566490
589.261	1333567
589.290	1186125
589.314	1163050
589.361	1132094
589.368	1153304
589.421	1338142
589.433	1382344
589.475	1770302
589.504	2044326
589.528	2274201
589.576	2608111
589.582	2593727
589.635	2439802
589.647	2393310
589.689	2259573
589.718	2113304
589.742	1781154
589.790	1137513
589.795	1101289
589.849	762613
589.861	685020
589.902	572206
589.932	489605
589.955	451847
590.004	369164
590.009	363693
590.062	299285
590.075	283158
590.115	256138
590.146	234715
590.168	224408
590.218	200712
590.222	199861
590.275	182931
590.289	178195
590.328	168876
590.360	160849
590.381	156091
590.431	143112
590.435	142864
590.488	133529
590.503	130716
590.541	126071
590.574	121444
590.594	119701
590.645	114205
590.647	114246
590.700	108172
590.716	106016
590.753	103020
590.787	99926
590.806	98914
590.859	94903
590.859	95091
590.912	92191
590.930	90980
590.965	90068
591.001	88735
591.018	88395
591.071	86591
591.072	86344
591.124	83901
591.143	82720
591.177	82080
591.214	80838
591.230	80336
591.283	78205
591.285	77914
591.336	78358
591.356	78213
591.389	78631
591.427	78704
591.442	77778
591.495	73399
591.498	72881
591.547	70961
591.569	69868
591.600	69842
591.640	69322
591.653	69294
591.706	68350
591.711	68058
591.759	69126
591.782	69452
591.811	71014
591.853	72934
591.864	72991
591.917	71829
591.924	71464
591.969	67629
591.995	65186
592.022	65232
592.066	64793
592.075	65354
592.127	67716
592.137	67983
592.180	72520
592.208	75134
592.233	75579
592.279	75503
592.285	74709
592.338	66211
592.350	64079
592.390	63212
592.421	62242
592.443	62254
592.491	61719
592.495	61907
592.548	61998
592.562	61849
592.600	62026
592.633	61827
592.653	61791
592.704	60883
592.705	61210
592.775	59989
592.846	60287
592.916	60416
592.987	63146
593.058	62924
593.128	60294
593.199	58133
593.270	57312
593.341	57689
593.411	56160
593.482	58513
593.553	58286
593.623	57009
593.694	56554
593.764	59375
593.835	60502
593.906	57967
593.976	56299
594.047	58334
594.117	62012
594.188	69015
594.258	63961
594.329	57186
594.399	58136
594.470	57508
594.540	57446
594.611	57757
594.681	58043
594.751	58041
594.822	59823
594.892	61989
594.963	64174
595.033	63795
595.103	63052
595.174	64413
595.244	72612
595.314	94983
595.384	91052
595.455	64827
595.525	66763
595.595	68246
595.665	69556
595.736	67660
595.806	67058
595.876	68416
595.946	67848
596.016	67979
596.087	68937
596.157	69515
596.227	69394
596.297	69651
596.367	73041
596.437	78356
596.507	85434
596.577	102544
596.647	100316
596.717	80231
596.787	80582
596.857	81151
596.927	81332
596.997	80721
597.067	81017
597.137	83642
597.207	85940
597.277	83887
597.347	84621
597.417	80422
597.487	79285
597.557	81437
597.626	83490
597.696	86123
597.766	89276
597.836	99926
597.906	102517
597.975	77700
598.045	75802
598.115	75625
598.185	77909
598.254	83621
598.324	91287
598.394	95533
598.464	97246
598.533	93687
598.603	90047
598.672	85066
598.742	86462
598.812	86170
598.881	86946
598.951	86452
599.020	85013
599.090	87538
599.159	89097
599.229	89568
599.299	86012
599.368	85138
599.437	87931
599.507	84098
599.576	82275
599.646	81912
599.715	79322
599.785	78103
599.854	78479
599.924	80374
599.993	82318
600.062	75694
600.132	76041
600.201	77386
600.270	84274
600.340	94575
600.409	92563
600.478	90708
600.547	89828
600.617	92896
600.686	83596
600.755	72865
600.824	69249
600.894	68077
600.963	66218
601.032	63532
601.101	62510
601.170	61885
601.239	60635
601.308	61510
601.378	63158
601.447	60976
601.516	59430
601.585	60055
601.654	63738
601.723	65802
601.792	61853
601.861	62890
601.930	65786
601.999	70360
602.068	69514
602.137	67243
602.206	73105
602.275	68375
602.343	69656
602.412	74089
602.481	71718
602.550	67167
602.619	67314
602.688	68795
602.756	70664
602.825	69540
602.894	68474
602.963	70541
603.032	72147
603.100	71837
603.169	71247
603.238	72930
603.307	73381
603.375	71702
603.444	73359
603.513	75131
603.581	75789
603.650	76595
603.719	75206
603.787	73899
603.856	76054
603.924	78896
603.993	82926
604.061	82571
604.130	84482
604.198	87191
604.267	89896
604.335	89800
604.404	89856
604.472	91455
604.541	92460
604.609	93265
604.678	93545
604.746	93613
604.815	95661
604.883	98609
604.951	98624
605.020	98436
605.088	100570
605.156	101232
605.225	104000
605.293	102894
605.361	102784
605.429	105352
605.498	105394
605.566	108983
605.634	111897
605.702	114749
605.771	119984
605.839	121322
605.907	120198
605.975	117313
606.043	112365
606.111	111743
606.180	111273
606.248	112703
606.316	114925
606.384	112264
606.452	114546
606.520	120695
606.588	125120
606.656	116312
606.724	117059
606.792	111200
606.860	103271
606.928	93396
606.996	86579
607.064	84545
607.132	84520
607.200	87737
607.267	92196
607.335	92945
607.403	96270
607.471	97057
607.539	93886
607.607	91069
607.674	89051
607.742	83266
607.810	85527
607.878	85337
607.946	84058
608.013	84980
608.081	90017
608.149	91350
608.216	90059
608.284	93224
608.352	94818
608.419	95537
608.487	98752
608.555	104532
608.622	94267
608.690	92368
608.757	100580
608.825	110363
608.893	109790
608.960	109109
609.028	112092
609.095	111801
609.163	114387
609.230	97492
609.298	87791
609.365	82098
609.432	86275
609.500	92325
609.567	103827
609.635	115304
609.702	131112
609.769	133843
609.837	126667
609.904	104132
609.971	98143
610.039	104742
610.106	128481
610.173	203764
610.241	458549
610.308	939406
610.375	574551
610.442	250017
610.509	123518
610.577	101053
610.644	96943
610.711	96154
610.778	98147
610.845	97893
610.912	103888
610.980	111358
611.047	115688
611.114	118785
611.181	110670
611.248	104324
611.315	104778
611.382	110086
611.449	112005
611.516	115695
611.583	116584
611.650	115869
611.717	119322
611.784	120021
611.851	125886
611.918	134714
611.984	155843
612.051	197358
612.118	331891
612.185	780456
612.252	1713017
612.319	598914
612.386	191731
612.452	157597
612.519	143562
612.586	141091
612.653	148345
612.719	134390
612.786	134642
612.853	126986
612.919	117626
612.986	118249
613.053	117107
613.120	109786
613.186	103370
613.253	102693
613.319	103106
613.386	102436
613.453	105563
613.519	108138
613.586	111028
613.652	121653
613.719	128348
613.785	123073
613.852	113250
613.918	107622
613.985	106035
614.051	111410
614.118	127721
614.184	162558
614.250	129172
614.317	107359
614.383	106631
614.449	105255
614.516	106572
614.582	107116
614.648	109666
614.715	104244
614.781	105167
614.847	101804
614.914	104919
614.980	103526
615.046	103123
615.112	100436
615.179	105489
615.245	106541
615.311	112452
615.377	125560
615.443	165319
615.509	150188
615.575	121552
615.642	118515
615.708	115597
615.774	122200
615.840	132768
615.906	149601
615.972	183236
616.038	273943
616.104	515136
616.170	987178
616.236	2214554
616.302	1105676
616.368	287476
616.434	217235
616.500	156822
616.565	149009
616.631	174392
616.697	204144
616.763	162409
616.829	184213
616.895	312049
616.961	529048
617.026	399287
617.092	162480
617.158	122266
617.224	112894
617.289	110084
617.355	100954
617.421	99087
617.487	98197
617.552	95614
617.618	89402
617.684	91044
617.749	90428
617.815	89517
617.880	85535
617.946	83987
618.012	84159
618.077	88702
618.143	87182
618.208	83305
618.274	85039
618.339	94126
618.405	89841
618.470	78039
618.536	77817
618.601	80443
618.667	82369
618.732	74827
618.798	70318
618.863	69150
618.928	67853
618.994	69251
619.059	72463
619.124	79298
619.190	87996
619.255	72668
619.320	69101
619.386	69502
619.451	68086
619.516	67332
619.581	66071
619.647	68191
619.712	68545
619.777	67655
619.842	64994
619.907	67621
619.972	67847
620.038	69289
620.103	67670
620.168	64945
620.233	65485
620.298	66046
620.363	64896
620.428	67284
620.493	67689
620.558	69516
620.623	69127
620.688	71484
620.753	68063
620.818	69767
620.883	71104
620.948	70570
621.013	70667
621.078	72038
621.143	69133
621.207	73329
621.272	72609
621.337	72957
621.402	74488
621.467	76814
621.532	84619
621.596	82141
621.661	76606
621.726	70927
621.791	68325
621.855	70484
621.920	72627
621.985	73713
622.049	77059
622.114	81202
622.179	78801
622.243	75619
622.308	78628
622.373	77796
622.437	81458
622.502	77139
622.566	73251
622.631	74657
622.695	75967
622.760	74717
622.824	75131
622.889	73978
622.953	76542
623.018	82088
623.082	104512
623.147	89401
623.211	77972
623.276	76687
623.340	77974
623.404	71865
623.469	69519
623.533	71158
623.597	70536
623.662	69861
623.726	69692
623.790	64822
623.854	62071
623.919	61624
623.983	62167
624.047	64522
624.111	63040
624.176	65073
624.240	67228
624.304	72774
624.368	70341
624.432	65698
624.496	65394
624.560	68822
624.625	73982
624.689	74594
624.753	67449
624.817	69398
624.881	67792
624.945	65529
625.009	59795
625.073	59813
625.137	60524
625.201	69329
625.265	76438
625.329	69759
625.393	64097
625.456	66962
625.520	65248
625.584	69099
625.648	74316
625.712	86457
625.776	119462
625.839	206439
625.903	191888
625.967	78566
626.031	68248
626.095	103411
626.158	124229
626.222	64627
626.286	49968
626.349	47571
626.413	47219
626.477	46092
626.540	47401
626.604	46517
626.668	45495
626.731	45054
626.795	44654
626.858	46885
626.922	45757
626.986	45015
627.049	44048
627.113	43878
627.176	44405
627.240	43160
627.303	42197
627.366	43063
627.430	43113
627.493	44796
627.557	42835
627.620	44450
627.684	43891
627.747	45813
627.810	45670
627.874	42569
627.937	39952
628.000	38879
628.064	41519
628.127	39806
628.190	35995
628.253	35565
628.317	35563
628.380	34160
628.443	34471
628.506	34830
628.569	34454
628.632	31739
628.696	30707
628.759	31459
628.822	30915
628.885	30650
628.948	30092
629.011	30244
629.074	29509
629.137	30447
629.200	29100
629.263	29621
629.326	29917
629.389	27348
629.452	28320
629.515	29447
629.578	29436
629.641	29311
629.704	30251
629.767	30358
629.830	29244
629.892	27708
629.955	26828
630.018	27403
630.081	28433
630.144	32720
630.207	33344
630.269	31042
630.332	29121
630.395	32216
630.458	27471
630.520	25988
630.583	26370
630.646	26385
630.708	23698
630.771	25983
630.834	26191
630.896	26183
630.959	25764
631.021	25042
631.084	26176
631.146	26305
631.209	29303
631.272	31448
631.334	26124
631.397	26004
631.459	26103
631.522	26373
631.584	28875
631.646	29190
631.709	30311
631.771	32347
631.834	37679
631.896	30162
631.958	27308
632.021	25625
632.083	24960
632.145	26008
632.208	26734
632.270	24846
632.332	24849
632.395	23346
632.457	24603
632.519	25570
632.581	24073
632.643	23245
632.706	24071
632.768	22466
632.830	22975
632.892	22252
632.954	22933
633.016	24370
633.078	23478
633.141	23165
633.203	23253
633.265	23550
633.327	22123
633.389	22313
633.451	24196
633.513	26741
633.575	30053
633.637	28369
633.698	30103
633.760	25541
633.822	24517
633.884	24368
633.946	25265
634.008	26619
634.070	26597
634.132	27792
634.193	29532
634.255	31246
634.317	32043
634.379	32972
634.441	32292
634.502	30535
634.564	27481
634.626	25877
634.687	24382
634.749	23867
634.811	22862
634.873	22723
634.934	22482
634.996	22062
635.057	21692
635.119	21813
635.181	22278
635.242	23448
635.304	23250
635.365	23355
635.427	21851
635.488	22720
635.550	22515
635.611	23304
635.673	22069
635.734	24431
635.796	24080
635.857	26409
635.918	27267
635.980	28220
636.041	31355
636.102	32875
636.164	33609
636.225	33562
636.286	31991
636.348	28815
636.409	26541
636.470	24938
636.531	22892
636.593	22947
636.654	25523
636.715	22060
636.776	19857
636.838	19383
636.899	19370
636.960	19396
637.021	18275
637.082	18575
637.143	18650
637.204	18367
637.265	17510
637.326	18699
637.387	17534
637.448	17847
637.509	17233
637.570	17526
637.631	17580
637.692	16907
637.753	15889
637.814	16040
637.875	15961
637.936	16633
637.997	17365
638.058	16651
638.119	17830
638.179	17795
638.240	16340
638.301	17390
638.362	16210
638.423	16690
638.483	16330
638.544	16511
638.605	15259
638.666	16364
638.726	16005
638.787	16188
638.848	15114
638.908	15569
638.969	14375
639.030	15229
639.090	15097
639.151	15623
639.211	15972
639.272	17267
639.332	21247
639.393	31019
639.453	17829
639.514	18375
639.574	16883
639.635	14909
639.695	14325
639.756	14875
639.816	15358
639.877	16038
639.937	18451
639.997	29401
640.058	30300
640.118	16256
640.178	14182
640.239	14301
640.299	13581
640.359	14374
640.420	14144
640.480	14301
640.540	16213
640.600	19023
640.661	18642
640.721	17188
640.781	17910
640.841	21369
640.901	18958
640.961	15115
641.021	14718
641.082	16671
641.142	19493
641.202	23282
641.262	14616
641.322	13900
641.382	12616
641.442	13684
641.502	12699
641.562	13842
641.622	13771
641.682	14115
641.742	15345
641.802	16757
641.861	14765
641.921	15080
641.981	14945
642.041	15608
642.101	16111
642.161	19186
642.221	13390
642.280	12720
642.340	12741
642.400	12092
642.460	12680
642.519	13049
642.579	13297
642.639	13594
642.698	12654
642.758	14569
642.818	13415
642.877	13185
642.937	14033
642.997	14231
643.056	16845
643.116	20939
643.175	14858
643.235	14138
643.294	14064
643.354	15320
643.414	15969
643.473	17992
643.532	21478
643.592	28604
643.651	39803
643.711	66683
643.770	118860
643.830	240651
643.889	599477
643.948	1056063
644.008	183749
644.067	41911
644.126	26981
644.186	21944
644.245	18558
644.304	15565
644.363	15198
644.423	14545
644.482	13625
644.541	14778
644.600	14435
644.659	17275
644.719	18949
644.778	26271
644.837	36980
644.896	65088
644.955	135769
645.014	279462
645.073	70676
645.132	22199
645.191	16832
645.250	15784
645.309	15398
645.368	15731
645.427	16862
645.486	21346
645.545	36553
645.604	53045
645.663	17320
645.722	14440
645.781	14996
645.840	16345
645.898	18466
645.957	25349
646.016	35837
646.075	60201
646.134	110317
646.192	212578
646.251	597278
646.310	694725
646.369	85124
646.427	30571
646.486	25236
646.545	19479
646.603	14579
646.662	13604
646.721	12248
646.779	12951
646.838	12710
646.896	14856
646.955	18212
647.014	23996
647.072	36959
647.131	71520
647.189	185204
647.248	68862
647.306	15370
647.365	12448
647.423	11348
647.481	11014
647.540	9625
647.598	10411
647.657	9326
647.715	10124
647.773	9441
647.832	9842
647.890	9318
647.948	9687
648.007	9277
648.065	9631
648.123	9330
648.181	10283
648.240	10135
648.298	10899
648.356	10035
648.414	10035
648.472	9834
648.531	9426
648.589	9148
648.647	9095
648.705	9060
648.763	9001
648.821	9817
648.879	9620
648.937	10538
648.995	11878
649.053	14492
649.111	19475
649.169	28554
649.227	48725
649.285	88299
649.343	183092
649.401	504391
649.459	187521
649.516	50882
649.574	30600
649.632	21938
649.690	34865
649.748	35495
649.806	23168
649.863	32779
649.921	54696
649.979	131404
650.037	70584
650.094	12890
650.152	10889
650.210	9677
650.268	9644
650.325	8854
650.383	9786
650.440	9590
650.498	8702
650.556	8854
650.613	8189
650.671	7768
650.728	7823
650.786	8370
650.843	9138
650.901	9143
650.958	8472
651.016	7081
651.073	6907
651.131	7016
651.188	7214
651.246	7014
651.303	7362
651.360	7528
651.418	6880
651.475	7713
651.532	6987
651.590	6923
651.647	7338
651.704	5982
651.762	7803
651.819	7536
651.876	7138
651.933	7040
651.990	6768
652.048	6571
652.105	6511
652.162	6034
652.219	6615
652.276	6237
652.333	6719
652.390	5838
652.448	6910
652.505	6507
652.562	6845
652.619	7388
652.676	6843
652.733	9433
652.790	8750
652.847	5969
652.904	6102
652.961	6107
653.017	5855
653.074	5710
653.131	6669
653.188	6245
653.245	5913
653.302	6027
653.359	5714
653.415	7152
653.472	5279
653.529	6454
653.586	6286
653.642	5667
653.699	6248
653.756	4934
653.813	6068
653.869	5600
653.926	5375
653.983	5314
654.039	6487
654.096	5676
654.152	6192
654.209	5543
654.266	6569
654.322	6062
654.379	6755
654.435	6736
654.492	8024
654.548	8554
654.605	11076
654.661	17367
654.717	8793
654.774	6732
654.830	7078
654.887	7468
654.943	6623
655.000	7838
655.056	7204
655.112	7256
655.168	6596
655.225	6916
655.281	7246
655.337	7197
655.394	10407
655.450	15280
655.506	11140
655.562	10132
655.618	16711
655.675	11529
655.731	7093
655.787	6141
655.843	7431
655.899	5831
655.955	6546
656.011	5974
656.067	7047
656.123	6719
656.179	7036
656.235	7593
656.291	7497
656.347	6907
656.403	7019
656.459	7796
656.515	7397
656.571	6735
656.627	8200
656.683	6034
656.739	7238
656.795	6391
656.850	6624
656.906	6131
656.962	8134
657.018	6082
657.074	6277
657.129	6624
657.185	9174
657.241	9925
657.297	17831
657.352	11191
657.408	6249
657.464	6012
657.519	6639
657.575	5937
657.630	6309
657.686	6015
657.742	5749
657.797	5848
657.853	5173
657.908	6665
657.964	6182
658.019	4855
658.075	5267
658.130	5471
658.186	6034
658.241	5012
658.297	5559
658.352	5172
658.407	6171
658.463	5228
658.518	5510
658.573	6041
658.629	5333
658.684	5557
658.739	5631
658.795	5114
658.850	5684
658.905	4946
658.960	5669
659.016	4313
659.071	6251
659.126	5522
659.181	5731
659.236	7232
659.291	10303
659.346	10285
659.401	6892
659.457	6755
659.512	7089
659.567	7430
659.622	6962
659.677	5393
659.732	5039
659.787	5774
659.842	6190
659.897	7195
659.952	9173
660.007	6151
660.061	5460
660.116	4949
660.171	6192
660.226	5085
660.281	6470
660.336	4935
660.391	5803
660.445	5021
660.500	4828
660.555	4894
660.610	5199
660.664	5852
660.719	5479
660.774	4924
660.828	5926
660.883	5978
660.938	5270
660.992	5186
661.047	6328
661.101	5020
661.156	5636
661.211	5391
661.265	5610
661.320	4848
661.374	5808
661.429	4559
661.483	5352
661.538	5155
661.592	5563
661.647	6091
661.701	5992
661.755	5807
661.810	6021
661.864	5194
661.919	5858
661.973	4153
662.027	5413
662.081	5127
662.136	4827
662.190	6278
662.244	5951
662.299	5890
662.353	5397
662.407	4743
662.461	5391
662.515	5790
662.569	6208
662.624	5921
662.678	5717
662.732	5677
662.786	5353
662.840	5693
662.894	5858
662.948	5092
663.002	5737
663.056	4790
663.110	4150
663.164	5300
663.218	5800
663.272	5153
663.326	6077
663.380	6009
663.434	6587
663.488	5431
663.542	5546
663.595	5446
663.649	5508
663.703	6309
663.757	6152
663.811	5378
663.864	5592
663.918	5021
663.972	5101
664.026	5318
664.079	4790
664.133	4985
664.187	5665
664.240	5614
664.294	5363
664.348	5465
664.401	5647
664.455	5287
664.508	4558
664.562	4953
664.615	5161
664.669	5266
664.722	5486
664.776	4503
664.829	5230
664.883	5623
664.936	4923
664.990	5142
665.043	6310
665.097	5727
665.150	6906
665.203	6344
665.257	6104
665.310	5852
665.363	5520
665.417	5994
665.470	6791
665.523	6166
665.576	6780
665.630	5386
665.683	6014
665.736	5716
665.789	5959
665.842	6388
665.895	5894
665.949	6070
666.002	5171
666.055	5783
666.108	6821
666.161	6370
666.214	6944
666.267	5142
666.320	6167
666.373	7074
666.426	7066
666.479	5070
666.532	6309
666.585	6198
666.638	8332
666.691	7850
666.744	7959
666.796	7667
666.849	8007
666.902	7604
666.955	6182
667.008	5546
667.060	6211
667.113	5139
667.166	6058
667.219	5005
667.271	6004
667.324	6317
667.377	5690
667.430	6137
667.482	6112
667.535	6058
667.587	6501
667.640	6091
667.693	7344
667.745	8260
667.798	11015
667.850	12141
667.903	6992
667.955	5391
668.008	6340
668.060	6213
668.113	7376
668.165	7197
668.218	6632
668.270	6537
668.322	6037
668.375	6404
668.427	7556
668.479	6777
668.532	6812
668.584	6371
668.636	6446
668.689	5296
668.741	6051
668.793	6609
668.845	6769
668.898	6125
668.950	6823
669.002	6483
669.054	6443
669.106	6282
669.158	7514
669.211	6341
669.263	5684
669.315	7041
669.367	7854
669.419	8553
669.471	7685
669.523	7946
669.575	8764
669.627	10490
669.679	10083
669.731	7621
669.783	8866
669.835	8156
669.886	8621
669.938	8489
669.990	7834
670.042	7072
670.094	8349
670.146	8548
670.197	9609
670.249	10353
670.301	13508
670.353	16252
670.404	22593
670.456	29951
670.508	43938
670.560	67787
670.611	109835
670.663	180176
670.715	306600
670.766	633043
670.818	991512
670.869	451441
670.921	98263
670.972	45385
671.024	30119
671.075	22695
671.127	17513
671.178	14461
671.230	13087
671.281	12382
671.333	11502
671.384	9754
671.436	11049
671.487	12163
671.538	13369
671.590	15261
671.641	20023
671.692	27088
671.744	42295
671.795	77708
671.846	59360
671.897	22236
671.949	12833
672.000	10587
672.051	9423
672.102	8725
672.153	8017
672.204	7564
672.256	6963
672.307	7100
672.358	7671
672.409	7333
672.460	6892
672.511	6427
672.562	6794
672.613	7267
672.664	6368
672.715	6564
672.766	7041
672.817	6297
672.868	5739
672.919	5929
672.970	6069
673.021	6173
673.071	5626
673.122	6019
673.173	5548
673.224	6284
673.275	6789
673.326	5623
673.376	5965
673.427	5069
673.478	5932
673.528	6054
673.579	5293
673.630	5298
673.680	5806
673.731	5569
673.782	5102
673.832	4984
673.883	5439
673.934	5987
673.984	6886
674.035	5272
674.085	6161
674.136	5890
674.186	5578
674.237	6956
674.287	7448
674.338	10744
674.388	8261
674.438	5321
674.489	6196
674.539	6394
674.589	6226
674.640	5787
674.690	6287
674.740	5778
674.791	6097
674.841	6526
674.891	6117
674.942	5186
674.992	5439
675.042	5493
675.092	4995
675.142	4723
675.193	5507
675.243	5496
675.293	5723
675.343	5597
675.393	5981
675.443	5796
675.493	5884
675.543	4407
675.593	5963
675.643	5463
675.693	5424
675.743	6141
675.793	5344
675.843	4348
675.893	5141
675.943	4439
675.993	5212
676.043	5003
676.093	5604
676.142	4844
676.192	4596
676.242	4212
676.292	4285
676.341	4337
676.391	5279
676.441	5184
676.491	4850
676.540	4209
676.590	4430
676.640	4306
676.689	4282
676.739	4777
676.789	4054
676.838	4346
676.888	4600
676.937	3978
676.987	4831
677.037	3791
677.086	4335
677.136	3360
677.185	4894
677.235	4388
677.284	4416
677.333	4324
677.383	4350
677.432	3381
677.482	3768
677.531	4029
677.580	4258
677.630	4186
677.679	3793
677.728	3864
677.778	4002
677.827	3721
677.876	4479
677.925	3276
677.975	3512
678.024	4676
678.073	4022
678.122	4903
678.171	4520
678.220	4611
678.269	4662
678.319	4587
678.368	5227
678.417	5330
678.466	5629
678.515	4283
678.564	5421
678.613	4773
678.662	4862
678.711	4034
678.760	3867
678.809	4104
678.857	3917
678.906	4864
678.955	4636
679.004	4450
679.053	4208
679.102	4455
679.151	5415
679.199	4011
679.248	4567
679.297	3637
679.346	4158
679.394	4543
679.443	4899
679.492	3308
679.540	3347
679.589	4070
679.638	5228
679.686	3918
679.735	4316
679.784	3141
679.832	4361
679.881	4610
679.929	4600
679.978	3717
680.026	4121
680.075	3871
680.123	3777
680.172	3379
680.220	3274
680.268	3367
680.317	3841
680.365	3644
680.414	4066
680.462	4048
680.510	3155
680.559	3246
680.607	3821
680.655	3397
680.703	3659
680.752	4097
680.800	3949
680.848	3255
680.896	3448
680.945	3140
680.993	3696
681.041	3518
681.089	3638
681.137	3965
681.185	3121
681.233	3136
681.258	3403
681.281	3626
681.329	3437
681.377	3319
681.380	3360
681.425	3570
681.473	4065
681.502	4181
681.521	4210
681.569	4720
681.617	3494
681.624	3594
681.665	4015
681.713	3547
681.745	4252
681.761	4547
681.809	3837
681.857	4402
681.867	4430
681.904	4431
681.952	4091
681.989	4335
682.000	4367
682.048	4365
682.096	4127
682.111	4190
682.143	4232
682.191	5017
682.233	4863
682.239	4807
682.286	4866
682.334	4024
682.354	4207
682.382	4392
682.430	4235
682.476	5247
682.477	5243
682.525	4872
682.572	4468
682.598	4844
682.620	5135
682.667	4685
682.715	4487
682.720	4563
682.763	5001
682.810	5672
682.841	5273
682.857	5064
682.905	6341
682.952	5496
682.963	5615
683.000	5800
683.047	5177
683.085	5705
683.095	5819
683.142	5508
683.190	5953
683.206	5543
683.237	4746
683.284	5613
683.328	5576
683.332	5551
683.379	5573
683.426	5247
683.449	5462
683.473	5626
683.521	5350
683.568	5211
683.571	5253
683.615	5603
683.662	6301
683.693	6364
683.709	6337
683.757	6615
683.804	5787
683.814	5719
683.851	5383
683.898	6307
683.936	6043
683.945	5979
683.992	6556
684.039	6281
684.057	6382
684.086	6504
684.133	7025
684.179	7021
684.180	7003
684.227	7690
684.274	7711
684.300	7822
684.321	7774
684.368	7474
684.415	7617
684.422	7571
684.462	7121
684.509	7229
684.543	6878
684.556	6729
684.603	7229
684.649	6561
684.665	6743
684.696	7173
684.743	7152
684.786	7897
684.790	7950
684.837	7491
684.883	7064
684.908	7623
684.930	8100
684.977	7934
685.023	8036
685.029	8041
685.070	8141
685.117	8591
685.150	8465
685.164	8258
685.210	8226
685.257	8858
685.272	8757
685.303	8843
685.350	8466
685.393	8656
685.396	8637
685.443	8651
685.490	9075
685.514	9434
685.536	9918
685.583	9743
685.629	10660
685.636	10542
685.675	9185
685.722	10074
685.757	9403
685.768	9209
685.815	9982
685.861	9339
685.878	9350
685.908	9516
685.954	9361
686.000	9648
686.000	9642
686.047	9470
686.093	10777
686.121	10530
686.139	10714
686.185	12145
686.232	11947
686.242	12244
686.278	12249
686.324	10971
686.363	11608
686.370	11673
686.416	10288
686.463	9880
686.484	9569
686.509	9645
686.555	10021
686.601	9823
686.606	9869
686.647	9930
686.693	9553
686.727	9495
686.739	9557
686.785	9488
686.831	9823
686.848	9699
686.877	9406
686.923	9859
686.969	9854
686.969	9851
687.015	9858
687.061	9097
687.090	9395
687.107	9682
687.153	9377
687.199	9975
687.211	9832
687.245	9467
687.291	9977
687.332	10317
687.336	10329
687.382	10285
687.428	10333
687.453	10235
687.474	10366
687.520	10368
687.565	10915
687.574	10944
687.611	10402
687.657	10269
687.695	10023
687.702	10089
687.748	10147
687.794	11178
687.816	11594
687.839	12115
687.885	11631
687.931	11681
687.937	11768
687.976	11506
688.022	11120
688.058	10631
688.067	10596
688.113	10781
688.158	10550
688.179	10513
688.204	10540
688.249	10188
688.295	10569
688.300	10595
688.340	10792
688.386	10350
688.421	10234
688.431	10259
688.477	10733
688.522	10600
688.542	10873
688.567	11096
688.613	10910
688.658	11078
688.663	11070
688.703	11079
688.749	11033
688.784	11370
688.794	11469
688.839	11215
688.884	11226
688.905	11376
688.930	11648
688.975	11323
689.020	11190
689.026	11241
689.065	11294
689.110	11213
689.146	10394
689.155	10329
689.201	11371
689.246	10868
689.267	11058
689.291	11062
689.336	11217
689.381	11032
689.388	11029
689.426	11341
689.471	11702
689.509	11587
689.516	11553
689.561	11578
689.606	11347
689.630	11597
689.651	11730
689.696	11484
689.741	11148
689.750	11107
689.785	11204
689.830	11494
689.871	11288
689.875	11277
689.920	11515
689.965	10864
689.992	11095
690.010	11238
690.054	10777
690.099	11213
690.112	11085
690.144	10926
690.189	10988
690.233	10849
690.233	10863
690.278	11277
690.323	11499
690.354	11285
690.367	11157
690.412	11467
690.457	11468
690.474	11510
690.501	11686
690.546	11617
690.590	11541
690.595	11525
690.635	11356
690.680	11214
690.716	11191
690.724	11242
690.769	11303
690.813	11170
690.836	11010
690.857	11082
690.902	12087
690.946	12569
690.957	12789
690.991	13457
691.035	13412
691.077	13733
691.080	13826
691.124	15450
691.168	17199
691.198	17459
691.213	17253
691.257	17946
691.301	18022
691.318	18086
691.346	17635
691.390	16790
691.434	15812
691.439	15677
691.478	14443
691.522	13455
691.559	12518
691.567	12614
691.611	13099
691.655	13078
691.680	13341
691.699	13486
691.743	13610
691.787	13850
691.800	13884
691.831	13888
691.875	13800
691.919	13583
691.921	13557
691.964	13516
692.008	13562
692.041	13564
692.052	13686
692.096	13632
692.139	14318
692.162	14345
692.183	14153
692.227	14358
692.271	14066
692.282	13963
692.315	13863
692.359	13536
692.402	13748
692.403	13776
692.447	13822
692.490	13900
692.523	13728
692.534	13675
692.578	14026
692.622	13819
692.643	13880
692.666	14087
692.709	13898
692.753	14155
692.763	14233
692.797	14214
692.840	13842
692.884	13317
692.884	13343
692.928	13583
692.971	13604
693.004	13762
693.015	13829
693.059	13833
693.102	14017
693.124	13977
693.146	14019
693.189	14007
693.233	14037
693.245	14043
693.276	14149
693.320	14289
693.363	14307
693.365	14281
693.407	14706
693.450	15049
693.485	15420
693.493	15442
693.537	15251
693.580	14973
693.605	14989
693.624	15325
693.667	15861
693.710	16438
693.725	16553
693.753	17073
693.797	17972
693.840	19040
693.845	19142
693.883	22235
693.926	25444
693.966	28050
693.970	28054
694.013	27686
694.056	27362
694.086	26956
694.099	25818
694.142	22261
694.185	18811
694.206	17040
694.229	16790
694.272	16340
694.315	15673
694.326	15588
694.358	16039
694.401	16345
694.444	16541
694.446	16520
694.487	16956
694.530	17475
694.566	17660
694.573	17623
694.616	17214
694.659	16907
694.686	16437
694.702	15953
694.745	15034
694.787	13852
694.806	13443
694.830	13592
694.873	13406
694.916	13494
694.926	13446
694.959	13725
695.002	14119
695.044	14284
695.046	14268
695.087	14323
695.130	14338
695.166	14299
695.172	14423
695.215	14981
695.258	15510
695.286	15888
695.301	15825
695.343	15518
695.386	15100
695.406	14988
695.428	15025
695.471	14744
695.514	14603
695.526	14470
695.556	14301
695.599	14334
695.641	14129
695.646	14091
695.684	14474
695.726	14730
695.766	15099
695.769	15129
695.811	14814
695.854	14674
695.886	14444
695.896	14465
695.938	14553
695.981	14549
696.005	14463
696.023	14477
696.065	14545
696.108	14611
696.125	14616
696.150	14743
696.192	14960
696.235	14873
696.245	14894
696.277	15312
696.319	15507
696.361	15972
696.365	15957
696.404	15507
696.446	15214
696.485	14668
696.488	14706
696.530	14858
696.572	14984
696.604	15109
696.614	15200
696.656	15298
696.698	15455
696.724	15467
696.740	15325
696.783	14954
696.825	14533
696.844	14419
696.867	14611
696.909	14537
696.951	14611
696.964	14561
696.992	14650
697.034	14967
697.076	15051
697.083	15046
697.118	15205
697.160	15375
697.202	15514
697.203	15478
697.244	15503
697.286	15552
697.323	15514
697.327	15541
697.369	15471
697.411	15333
697.442	15253
697.453	15228
697.494	14882
697.536	14610
697.562	14372
697.578	14733
697.620	15565
697.661	16464
697.682	16892
697.703	16895
697.744	16692
697.786	16546
697.801	16456
697.828	16773
697.869	17145
697.911	17562
697.921	17607
697.952	18108
697.994	18734
698.035	19438
698.040	19463
698.077	18478
698.118	17310
698.160	16103
698.160	16052
698.201	16082
698.243	16064
698.279	16025
698.284	16047
698.325	15839
698.367	15642
698.399	15435
698.408	15562
698.449	15961
698.491	16368
698.518	16594
698.532	16510
698.573	16126
698.614	15737
698.638	15469
698.656	15582
698.697	15755
698.738	15946
698.757	15984
698.779	16153
698.820	16407
698.862	16664
698.877	16716
698.903	16842
698.944	16972
698.985	17100
698.996	17093
699.026	17221
699.067	17332
699.116	17421
699.235	17361
699.354	16577
699.474	15898
699.593	17266
699.713	18977
699.832	18669
699.951	17311
700.070	18174
700.190	16965
700.309	16109
700.428	16331
700.547	18345
700.667	16438
700.786	16859
700.905	17868
701.024	16732
701.143	16871
701.262	16602
701.381	14468
701.500	14476
701.619	16787
701.738	17794
701.857	15572
701.976	14894
702.095	13539
702.214	13785
702.333	15690
702.452	17535
702.571	16155
702.690	15109
702.809	14584
702.928	14222
703.047	13485
703.165	14176
703.284	13649
703.403	14034
703.522	13971
703.640	16484
703.759	16088
703.878	17970
703.997	25594
704.115	16289
704.234	14193
704.353	14468
704.471	13524
704.590	13647
704.708	12937
704.827	12289
704.946	12290
705.064	12728
705.183	15446
705.301	13301
705.420	15297
705.538	21139
705.656	20062
705.775	18042
705.893	15429
706.012	21793
706.130	28985
706.249	18221
706.367	16510
706.485	17031
706.604	17984
706.722	17689
706.840	18363
706.958	23392
707.077	23783
707.195	18540
707.313	16431
707.431	15235
707.549	15499
707.668	15417
707.786	15915
707.904	15727
708.022	15273
708.140	16051
708.258	14595
708.376	15235
708.494	14282
708.612	15455
708.730	16159
708.848	22272
708.966	22355
709.084	20198
709.202	18989
709.320	17909
709.438	18714
709.556	19008
709.674	18404
709.791	18977
709.909	18879
710.027	17740
710.145	17395
710.263	17386
710.380	17620
710.498	18942
710.616	17408
710.733	17378
710.851	17338
710.969	18404
711.086	19055
711.204	18098
711.322	17622
711.439	17480
711.557	18320
711.674	18633
711.792	16739
711.909	18102
712.027	16618
712.144	17803
712.262	15515
712.379	16091
712.497	17915
712.614	23988
712.732	24944
712.849	21459
712.966	19854
713.084	22531
713.201	27866
713.318	23584
713.436	21416
713.553	19336
713.670	21017
713.787	21234
713.905	22958
714.022	24435
714.139	21490
714.256	20281
714.373	23763
714.490	28320
714.608	42269
714.725	86016
714.842	376105
714.959	544783
715.076	49646
715.193	24519
715.310	20755
715.427	19188
715.544	18032
715.661	18101
715.778	17609
715.895	18288
716.011	19515
716.128	18826
716.245	17741
716.362	18156
716.479	20052
716.596	23456
716.713	17022
716.829	17775
716.946	16048
717.063	16828
717.180	15936
717.296	16053
717.413	15647
717.530	16140
717.646	15018
717.763	16596
717.880	14568
717.996	15174
718.113	15553
718.229	15768
718.346	15275
718.462	15268
718.579	15358
718.695	19401
718.812	33579
718.928	27559
719.045	21946
719.161	18061
719.277	14636
719.394	14015
719.510	13870
719.626	14282
719.743	14689
719.859	18661
719.975	21137
720.092	30930
720.208	98201
720.324	286199
720.440	51034
720.557	17308
720.673	18027
720.789	25808
720.905	36291
721.021	70381
721.137	33364
721.253	14686
721.369	14433
721.486	14713
721.602	16183
721.718	23732
721.834	14045
721.950	11737
722.066	13479
722.181	12990
722.297	12028
722.413	13491
722.529	12443
722.645	12697
722.761	11344
722.877	11048
722.993	11434
723.108	11625
723.224	12864
723.340	12372
723.456	13203
723.571	11054
723.687	11386
723.803	11313
723.918	10356
724.034	11191
724.150	11575
724.265	12033
724.381	12104
724.497	24434
724.612	38675
724.728	12087
724.843	10751
724.959	11244
725.074	13417
725.190	23137
725.305	34753
725.421	12949
725.536	12353
725.651	10373
725.767	10052
725.882	9782
725.997	8714
726.113	9020
726.228	9952
726.343	9264
726.459	9352
726.574	8803
726.689	10494
726.804	9865
726.920	8483
727.035	9307
727.150	9402
727.265	10151
727.380	9665
727.495	11347
727.610	9034
727.725	7848
727.841	9603
727.956	9438
728.071	13448
728.186	14678
728.301	9507
728.416	8551
728.531	9501
728.645	9282
728.760	8094
728.875	10814
728.990	11914
729.105	10995
729.220	10036
729.335	10503
729.449	10166
729.564	9045
729.679	8181
729.794	7072
729.908	8144
730.023	9247
730.138	8887
730.253	8151
730.367	7930
730.482	7418
730.596	7806
730.711	8489
730.826	8983
730.940	9345
731.055	9455
731.169	9111
731.284	7569
731.398	7369
731.513	7922
731.627	9643
731.742	9518
731.856	10103
731.970	12109
732.085	8493
732.199	11320
732.313	12698
732.428	18325
732.542	40200
732.656	124261
732.771	99677
732.885	19623
732.999	11521
733.113	9993
733.227	11151
733.342	10125
733.456	8615
733.570	8184
733.684	8028
733.798	8140
733.912	9342
734.026	7751
734.140	7840
734.254	7633
734.368	8011
734.482	13798
734.596	21949
734.710	8435
734.824	7475
734.938	7138
735.052	7568
735.166	7915
735.280	9598
735.393	8177
735.507	7200
735.621	7682
735.735	9480
735.849	18878
735.962	10656
736.076	7275
736.190	8141
736.303	8843
736.417	11582
736.531	15921
736.644	7916
736.758	8121
736.872	7564
736.985	6544
737.099	6830
737.212	5926
737.326	6475
737.439	6663
737.553	7487
737.666	6674
737.780	6920
737.893	5955
738.007	6963
738.120	5880
738.233	6637
738.347	6236
738.460	7006
738.573	6119
738.687	6965
738.800	6707
738.913	7709
739.026	9528
739.140	8349
739.253	6489
739.366	5519
739.479	5778
739.592	5883
739.705	5582
739.818	5765
739.932	5825
740.045	5981
740.158	6749
740.271	6427
740.384	5658
740.497	6909
740.610	5502
740.723	7460
740.836	7071
740.949	7894
741.062	7222
741.174	10177
741.287	9763
741.400	6756
741.513	6499
741.626	7066
741.739	7558
741.851	8007
741.964	6831
742.077	6036
742.189	5527
742.302	6295
742.415	7054
742.527	8249
742.640	6420
742.753	5962
742.865	4835
742.978	6104
743.090	5313
743.203	6146
743.316	5636
743.428	4650
743.541	4790
743.653	4486
743.766	4923
743.878	4812
743.990	5252
744.103	7595
744.215	7642
744.327	5878
744.440	5497
744.552	6782
744.664	11656
744.777	7828
744.889	4646
745.001	5212
745.113	4265
745.226	4488
745.338	4392
745.450	4822
745.562	4695
745.674	4619
745.786	5042
745.898	4655
746.010	4796
746.122	4644
746.234	4897
746.347	4554
746.459	4368
746.570	4652
746.682	4372
746.794	5102
746.906	5736
747.018	5170
747.130	4970
747.242	4421
747.354	3952
747.466	4136
747.577	5041
747.689	4728
747.801	5210
747.913	4563
748.024	4163
748.136	3985
748.248	3874
748.359	4340
748.471	3857
748.583	3702
748.694	3736
748.806	4666
748.918	5154
749.029	6179
749.141	5930
749.252	5374
749.364	4448
749.475	6230
749.587	13092
749.698	10741
749.809	5222
749.921	4196
750.032	3418
750.144	4080
750.255	3110
750.366	4198
750.478	3991
750.589	3893
750.700	3591
750.811	4753
750.923	4906
751.034	5818
751.145	13804
751.256	18409
751.367	4356
751.479	3527
751.590	3676
751.701	3944
751.812	3403
751.923	3024
752.034	3890
752.145	2979
752.256	3326
752.367	3782
752.478	3547
752.589	3536
752.700	3458
752.811	3506
752.922	2937
753.032	3685
753.143	4817
753.254	6028
753.365	4231
753.476	4019
753.586	3205
753.697	3649
753.808	4440
753.919	3499
754.029	2955
754.140	3522
754.251	3194
754.361	4200
754.472	2900
754.582	3458
754.693	3718
754.804	4416
754.914	3708
755.025	3592
755.135	2964
755.246	2895
755.356	3181
755.466	3505
755.577	2993
755.687	3259
755.798	3382
755.908	3222
756.018	3001
756.129	3668
756.239	3665
756.349	3678
756.460	3108
756.570	3286
756.680	3913
756.790	3923
756.900	4498
757.011	4244
757.121	3472
757.231	3108
757.341	3246
757.451	2948
757.561	3148
757.671	3937
757.781	2505
757.891	3841
758.001	3086
758.111	4448
758.221	3309
758.331	3201
758.441	4576
758.551	4962
758.661	6843
758.771	7631
758.880	4714
758.990	3893
759.100	4965
759.210	4283
759.320	3890
759.429	3931
759.539	3793
759.649	4274
759.758	3944
759.868	5974
759.978	4306
760.087	4857
760.197	5189
760.307	5009
760.416	5341
760.526	5239
760.635	4642
760.745	4295
760.854	4094
760.964	4739
761.073	4864
761.182	5051
761.292	5570
761.401	4538
761.511	5000
761.620	4091
761.729	3885
761.839	4308
761.948	4284
762.057	4022
762.166	5875
762.276	4311
762.385	4828
762.494	4573
762.603	4033
762.712	3945
762.822	4456
762.931	4774
763.040	3363
763.149	3850
763.258	3385
763.367	4251
763.476	4561
763.585	4445
763.694	3649
763.803	4754
763.912	4257
764.021	5099
764.130	4261
764.238	4692
764.347	4541
764.456	4937
764.565	5253
764.674	5441
764.783	5940
764.891	5282
765.000	4924
765.109	5473
765.217	7005
765.326	7939
765.435	8542
765.543	11122
765.652	11031
765.761	12752
765.869	14797
765.978	21126
766.086	31788
766.195	55433
766.303	108544
766.412	260988
766.520	658061
766.629	659527
766.737	248976
766.846	85344
766.954	44395
767.062	30740
767.171	21705
767.279	18831
767.387	14021
767.496	11797
767.604	9819
767.712	9757
767.820	9165
767.928	8531
768.037	7678
768.145	7798
768.253	6885
768.361	7349
768.469	6214
768.577	6590
768.685	7064
768.793	6748
768.901	7388
769.009	8077
769.117	7434
769.225	8963
769.333	10126
769.441	14706
769.549	23695
769.657	43398
769.765	93389
769.873	276344
769.981	594542
770.088	300740
770.196	71164
770.304	31106
770.412	20413
770.519	15533
770.627	12364
770.735	9821
770.842	9100
770.950	7941
771.058	6771
771.165	7940
771.273	6592
771.380	6465
771.488	5864
771.595	5491
771.703	5973
771.810	5800
771.918	5036
772.025	4754
772.133	5297
772.240	6337
772.348	5282
772.455	6407
772.562	6322
772.670	5212
772.777	3977
772.884	5849
772.991	4230
773.099	4898
773.206	3715
773.313	4077
773.420	4884
773.528	4556
773.635	4033
773.742	4922
773.849	4000
773.956	4217
774.063	4702
774.170	4764
774.277	5069
774.384	3971
774.491	3993
774.598	4617
774.705	4154
774.812	4794
774.919	6189
775.026	5132
775.133	5060
775.239	4679
775.346	3946
775.453	4497
775.560	3792
775.667	3949
775.773	4526
775.880	4217
775.987	3972
776.093	4304
776.200	3676
776.307	4260
776.413	2806
776.520	4572
776.627	3806
776.733	3875
776.840	3931
776.946	4590
777.053	4941
777.159	4437
777.266	6436
777.372	6514
777.478	6676
777.585	6116
777.691	5900
777.798	4137
777.904	4159
778.010	4403
778.117	5405
778.223	6817
778.329	3973
778.435	4252
778.542	3867
778.648	3244
778.754	3242
778.860	3618
778.966	3262
779.072	3783
779.178	4205
779.284	4132
779.391	3950
779.497	3930
779.603	3868
779.708	3657
779.815	4285
779.920	5714
780.026	12032
780.132	29603
780.238	7459
780.344	3727
780.450	3344
780.556	3594
780.661	3552
780.767	2597
780.873	3484
780.979	3765
781.085	3054
781.190	4439
781.296	4020
781.402	3393
781.507	2839
781.613	3574
781.719	3303
781.824	3295
781.930	3562
782.035	2765
782.141	3737
782.246	3818
782.352	3145
782.457	2966
782.563	3559
782.668	3037
782.773	2767
782.879	3429
782.984	3413
783.090	4565
783.195	4060
783.300	6795
783.405	6167
783.511	4391
783.616	3883
783.721	4117
783.826	3702
783.932	3446
784.037	2682
784.142	3058
784.247	3108
784.352	3820
784.457	3714
784.562	3684
784.667	2792
784.772	4147
784.877	2415
784.982	3900
785.087	3093
785.192	3716
785.297	3366
785.402	3430
785.507	2965
785.611	2314
785.716	2358
785.821	3349
785.926	2642
786.031	3630
786.135	2909
786.240	2851
786.345	2655
786.450	2776
786.554	2678
786.659	3352
786.763	2698
786.868	3182
786.973	2180
787.077	3533
787.182	2503
787.286	3502
787.391	2868
787.495	2081
787.600	2598
787.704	2249
787.809	1977
787.913	2530
788.017	2770
788.122	2432
788.226	2352
788.330	2150
788.435	1802
788.539	2391
788.643	2201
788.747	2645
788.852	2039
788.956	1969
789.060	2420
789.164	2054
789.268	1640
789.372	2065
789.476	2057
789.580	2378
789.684	1999
789.788	1982
789.892	1630
789.996	2699
790.100	2206
790.204	1714
790.308	1943
790.412	2957
790.516	2650
790.620	2558
790.724	2724
790.828	2407
790.931	2611
791.035	2241
791.139	2154
791.242	2422
791.346	3125
791.450	1965
791.554	2099
791.657	2453
791.761	2671
791.864	2788
791.968	2188
792.072	2705
792.175	2822
792.279	2436
792.382	2032
792.486	2768
792.589	1738
792.693	2755
792.796	2572
792.899	2887
793.003	1515
793.106	2355
793.209	2041
793.313	2585
793.416	2535
793.519	2777
793.623	2522
793.726	4041
793.829	7329
793.932	3754
794.035	1564
794.138	2225
794.242	3161
794.345	3640
794.448	3368
794.551	4024
794.654	7303
794.757	9954
794.860	13486
794.963	5605
795.066	3358
795.169	2861
795.272	2162
795.375	2133
795.477	2098
795.580	2008
795.683	866
795.786	1926
795.889	1119
795.991	2286
796.094	1870
796.197	2830
796.300	2995
796.402	1876
796.505	1621
796.608	1858
796.710	1483
796.813	2107
796.915	2269
797.018	2336
797.120	1172
797.223	1598
797.326	1412
797.428	1467
797.530	1769
797.633	1545
797.735	2499
797.838	2760
797.940	5015
798.042	5054
798.145	2439
798.247	1128
798.349	1568
798.452	2399
798.554	1649
798.656	1632
798.758	1543
798.860	1979
798.962	1121
799.065	1160
799.167	1615
799.269	1907
799.371	2123
799.473	2253
799.575	2468
799.677	3099
799.779	3393
799.881	1971
799.983	4880
800.085	3839
800.187	826
800.289	1321
800.390	1191
800.492	1835
800.594	1780
800.696	1396
800.798	983
800.899	1116
801.001	1200
801.103	1356
801.205	1261
801.306	1375
801.408	1276
801.509	1802
801.611	1187
801.713	1134
801.814	1335
801.916	1492
802.017	1032
802.119	1349
802.220	1445
802.322	1308
802.423	1989
802.525	2467
802.626	3386
802.727	1259
802.829	1327
802.930	1713
803.031	1412
803.133	1258
803.234	246
803.335	853
803.436	1393
803.538	1279
803.639	694
803.740	689
803.841	136
803.942	888
804.043	1517
804.144	875
804.245	1506
804.346	2140
804.447	1733
804.548	1584
804.649	2962
804.750	3508
804.851	1434
804.952	986
805.053	804
805.154	785
805.255	847
805.355	1413
805.456	1297
805.557	333
805.658	1307
805.758	1165
805.859	933
805.960	1606
806.061	1387
806.161	924
806.262	930
806.362	849
806.463	68
806.564	1371
806.664	514
806.765	1020
806.865	706
806.966	1695
807.066	1216
807.166	1724
807.267	1564
807.367	1207
807.468	787
807.568	913
807.668	1454
807.769	1336
807.869	1226
807.969	1768
808.069	446
808.170	1289
808.270	1194
808.370	1631
808.470	1006
808.570	2654
808.670	2782
808.770	1337
808.870	823
808.970	464
809.070	531
809.170	1547
809.271	656
809.370	1346
809.470	1403
809.570	1467
809.670	1167
809.770	1323
809.870	929
809.970	1191
810.070	1107
810.169	938
810.269	450
810.369	1471
810.469	-24
810.568	937
810.668	479
810.768	1080
810.867	613
810.967	1217
811.066	1273
811.166	674
811.265	672
811.365	1372
811.464	690
811.564	1405
811.663	668
811.763	1299
811.862	997
811.962	1040
812.061	1012
812.160	1392
812.260	1386
812.359	2157
812.458	2159
812.557	5122
812.657	10762
812.756	21065
812.855	9288
812.954	2734
813.053	1322
813.153	1738
813.252	1103
813.351	1297
813.450	899
813.549	1131
813.648	1054
813.747	1507
813.846	1206
813.945	959
814.044	930
814.143	1376
814.242	1649
814.341	1943
814.439	1420
814.538	1743
814.637	1559
814.736	966
814.835	1589
814.933	1580
815.032	2056
815.131	2046
815.229	2397
815.328	2432
815.427	2757
815.525	2521
815.624	2547
815.722	2188
815.821	2375
815.919	2624
816.018	2615
816.116	3625
816.215	3373
816.313	3134
816.412	3194
816.510	2729
816.609	3600
816.707	4464
816.805	3902
816.904	4042
817.002	3560
817.100	5295
817.198	5056
817.296	5611
817.395	6403
817.493	7846
817.591	7859
817.689	9728
817.787	11717
817.885	16975
817.983	25628
818.081	44667
818.179	88081
818.277	197488
818.375	455333
818.473	549911
818.571	210859
818.669	74044
818.767	43140
818.865	34916
818.963	34431
819.061	38448
819.158	52550
819.256	84669
819.354	165476
819.452	347691
819.549	703100
819.647	662266
819.745	262832
819.842	103161
819.940	56333
820.038	38452
820.135	26958
820.233	21024
820.330	16472
820.428	13236
820.525	11722
820.623	10124
820.720	8105
820.818	7895
820.915	7075
821.012	5607
821.110	5975
821.207	4776
821.304	4192
821.402	4660
821.499	4380
821.596	4573
821.693	4899
821.791	4888
821.888	4695
821.985	5355
822.082	7555
822.179	9060
822.276	4307
822.373	3757
822.470	2998
822.567	2580
822.664	2372
822.761	2970
822.858	2267
822.955	2255
823.052	1767
823.149	1762
823.246	2300
823.343	3049
823.440	2347
823.536	2133
823.633	1786
823.730	2613
823.827	1871
823.923	1936
824.020	2556
824.117	1794
824.213	2013
824.310	2601
824.407	1742
824.503	1978
824.600	2324
824.696	1477
824.793	1223
824.889	1318
824.986	1805
825.082	1545
825.179	1531
825.275	759
825.371	1895
825.468	1180
825.564	819
825.660	1849
825.757	1489
825.853	1486
825.949	1040
826.045	854
826.142	1259
826.238	1441
826.334	1271
826.430	1145
826.526	886
826.622	529
826.718	749
826.814	1291
826.910	1631
827.006	1138
827.102	374
827.198	1784
827.294	1187
827.390	1210
827.486	896
827.582	1187
827.678	308
827.774	1272
827.869	1189
827.965	1043
828.061	761
828.157	997
828.252	1365
828.348	655
828.444	1125
828.539	1154
828.635	831
828.731	1642
828.826	482
828.922	1097
829.017	434
829.113	781
829.208	707
829.304	1019
829.399	895
829.495	996
829.590	222
829.685	536
829.781	1052
829.876	580
829.971	968
830.066	1025
830.162	169
830.257	344
830.352	1144
830.447	1422
830.543	242
830.638	43
830.733	1500
830.828	1201
830.923	1138
831.018	1134
831.113	944
831.208	1001
831.303	880
831.398	285
831.493	1116
831.588	783
831.683	1153
831.778	1051
831.873	596
831.967	886
832.062	886
832.157	775
832.252	479
832.346	1408
832.441	1057
832.536	2231
832.631	3006
832.725	4519
832.820	6368
832.914	1735
833.009	103
833.104	1406
833.198	1171
833.293	1995
833.387	1380
833.482	1207
833.576	975
833.670	1091
833.765	620
833.859	1197
833.954	1289
834.048	1649
834.142	505
834.237	467
834.331	147
834.425	598
834.519	1270
834.613	688
834.708	676
834.802	326
834.896	549
834.990	1093
835.084	724
835.178	664
835.272	976
835.366	964
835.460	310
835.554	554
835.648	348
835.742	545
835.836	-69
835.930	584
836.024	628
836.117	1277
836.211	864
836.305	1286
836.399	1654
836.493	2057
836.586	1649
836.680	485
836.774	-140
836.867	1226
836.961	193
837.055	247
837.148	780
837.242	689
837.335	715
837.429	950
837.522	888
837.616	1090
837.709	1376
837.803	2879
837.896	2373
837.989	1016
838.083	1469
838.176	1670
838.269	2858
838.363	5604
838.456	1771
838.549	695
838.642	1741
838.735	3519
838.829	7097
838.922	4563
839.015	944
839.108	843
839.201	92
839.294	938
839.387	758
839.480	-112
839.573	219
839.666	1447
839.759	2498
839.852	1533
839.945	517
840.038	-244
840.131	706
840.223	-703
840.316	1058
840.409	669
840.502	111
840.594	235
840.687	87
840.780	248
840.873	892
840.965	80
841.058	53
841.150	1178
841.243	2723
841.336	3968
841.428	701
841.521	756
841.613	247
841.706	1553
841.798	650
841.890	674
841.983	-12
842.075	336
842.167	483
842.260	712
842.352	802
842.444	1671
842.537	1984
842.629	4485
842.721	7270
842.813	2527
842.905	-107
842.997	489
843.090	95
843.182	922
843.274	1415
843.366	4193
843.458	9017
843.550	19747
843.642	16939
843.734	3466
843.826	832
843.918	1053
844.009	1443
844.101	1138
844.193	633
844.285	1114
844.377	584
844.469	418
844.560	1314
844.652	859
844.744	1253
844.835	1739
844.927	-136
845.019	747
845.110	824
845.202	917
845.293	-154
845.385	176
845.476	109
845.568	1302
845.659	366
845.751	285
845.842	469
845.934	-288
846.025	449
846.116	898
846.208	212
846.299	375
846.390	348
846.482	651
846.573	578
846.664	567
846.755	1189
846.846	2665
846.937	2993
847.029	734
847.120	-151
847.211	185
847.302	223
847.393	416
847.484	-284
847.575	-140
847.666	-786
847.757	42
847.847	161
847.938	736
848.029	420
848.120	389
848.211	-396
848.302	88
848.392	-276
848.483	415
848.574	365
848.664	231
848.755	-2
848.846	329
848.936	138
849.027	511
849.118	184
849.208	308
849.299	243
849.389	1161
849.480	2117
849.570	4571
849.661	10362
849.751	16842
849.841	37877
849.932	22370
850.022	3132
850.112	1082
850.203	20
850.293	356
850.383	89
850.474	393
850.564	591
850.654	773
850.744	93
850.834	54
850.924	105
851.014	189
851.104	-251
851.194	608
851.284	486
851.374	1365
851.464	1527
851.554	1260
851.644	461
851.734	1751
851.824	926
851.914	1174
852.004	286
852.094	235
852.183	-198
852.273	-356
852.363	79
852.452	-11
852.542	315
852.632	-24
852.721	520
852.811	-571
852.901	-154
852.990	324
853.080	581
853.169	437
853.259	-55
853.348	328
853.438	195
853.527	1236
853.617	1614
853.706	3930
853.795	8038
853.885	13387
853.974	32709
854.063	67117
854.152	109420
854.242	214238
854.331	130610
854.420	21059
854.509	5897
854.598	3527
854.687	2879
854.777	2658
854.866	1818
854.955	2238
855.044	342
855.133	669
855.222	171
855.311	701
855.400	776
855.488	407
855.577	64
855.666	837
855.755	220
855.844	929
855.933	601
856.021	1131
856.110	899
856.199	-615
856.288	-119
856.376	97
856.465	-153
856.554	289
856.642	-100
856.731	-29
856.819	135
856.908	309
856.996	198
857.085	-229
857.173	-23
857.262	-733
857.350	-721
857.438	74
857.527	-577
857.615	-237
857.703	-381
857.792	-495
857.880	-210
857.968	-35
858.056	-862
858.145	628
858.233	-152
858.321	176
858.409	178
858.497	12
858.585	325
858.673	-324
858.761	48
858.849	-205
858.937	-135
859.025	-638
859.113	-464
859.201	-451
859.289	24
859.377	165
859.465	146
859.552	384
859.640	-839
859.728	-286
859.816	-89
859.903	642
859.991	-287
860.079	694
860.166	-757
860.254	-530
860.342	-582
860.429	-116
860.517	-89
860.604	-486
860.692	94
860.779	-640
860.867	305
860.954	200
861.042	-631
861.129	20
861.216	538
861.304	-447
861.391	85
861.478	-308
861.565	-170
861.653	410
861.740	-431
861.827	81
861.914	375
862.001	659
862.089	227
862.176	-279
862.263	22
862.350	-389
862.437	-861
862.524	-162
862.611	-784
862.698	-15
862.785	349
862.871	-822
862.958	-107
863.045	-135
863.132	-320
863.219	-336
863.306	-1109
863.392	434
863.479	609
863.566	383
863.652	91
863.739	-137
863.826	-75
863.912	-374
863.999	-552
864.086	-26
864.172	-593
864.259	156
864.345	-158
864.432	-76
864.518	-19
864.604	200
864.691	-325
864.777	58
864.863	274
864.950	328
865.036	-78
865.122	455
865.209	1472
865.295	1314
865.381	1625
865.467	2010
865.553	1541
865.639	2300
865.726	4250
865.812	7761
865.898	15085
865.984	32721
866.070	50173
866.156	80640
866.242	130556
866.328	51701
866.414	8437
866.499	3208
866.585	2633
866.671	2633
866.757	1702
866.843	997
866.928	1562
867.014	569
867.100	298
867.186	392
867.271	1212
867.357	1572
867.442	1933
867.528	2543
867.614	1438
867.699	362
867.785	387
867.870	625
867.956	834
868.041	2233
868.127	1447
868.212	290
868.297	1353
868.383	1844
868.468	1700
868.553	1960
868.639	3188
868.724	3804
868.809	7321
868.894	10927
868.979	2733
869.065	668
869.150	171
869.235	44
869.320	169
869.405	489
869.490	-110
869.575	637
869.660	442
869.745	129
869.830	-300
869.915	496
870.000	110
870.085	240
870.169	252
870.254	757
870.339	162
870.424	-17
870.509	404
870.593	538
870.678	23
870.763	705
870.847	119
870.932	-601
871.016	568
871.101	817
871.186	73
871.270	700
871.355	648
871.439	136
871.523	183
871.608	317
871.692	-233
871.777	0
871.861	543
871.945	606
872.030	-342
872.114	445
872.198	-674
872.282	105
872.367	335
872.451	-404
872.535	-226
872.619	-63
872.703	177
872.787	150
872.871	-87
872.955	-294
873.039	-546
873.123	10
873.207	-375
873.291	-63
873.375	-279
873.459	-241
873.543	-335
873.627	-3
873.711	-72
873.794	-467
873.878	160
873.962	-820
874.045	-138
874.129	45
874.137	-26
874.213	-740
874.245	-272
874.296	481
874.352	-189
874.380	-513
874.460	-112
874.464	-97
874.547	-191
874.568	-256
874.631	-421
874.676	-393
874.714	-379
874.784	139
874.798	238
874.881	491
874.892	466
874.965	327
874.999	187
875.048	-27
875.107	-78
875.131	-85
875.215	8
875.215	9
875.298	853
875.323	443
875.381	-525
875.430	305
875.465	868
875.538	209
875.548	124
875.631	613
875.646	531
875.714	52
875.753	24
875.798	79
875.861	-768
875.881	-1060
875.964	-43
875.968	-82
876.047	-639
876.076	-337
876.130	106
876.183	-345
876.213	-562
876.291	638
876.296	718
876.379	665
876.398	490
876.462	10
876.506	115
876.545	136
876.613	404
876.628	462
876.711	316
876.721	284
876.794	31
876.828	182
876.877	427
876.935	428
876.960	465
877.043	274
877.043	274
877.125	324
877.150	280
877.208	237
877.258	787
877.291	1167
877.365	1252
877.374	1232
877.456	716
877.472	521
877.539	58
877.579	708
877.622	1173
877.687	832
877.704	790
877.787	1198
877.794	1182
877.869	968
877.901	999
877.952	1101
878.008	903
878.034	735
878.115	317
878.117	311
878.199	450
878.222	337
878.282	145
878.329	558
878.364	860
878.437	451
878.447	368
878.529	-105
878.544	-125
878.611	18
878.651	21
878.694	-55
878.758	335
878.776	451
878.858	22
878.865	43
878.941	338
878.972	443
879.023	695
879.078	544
879.105	371
879.185	90
879.187	96
879.269	803
879.292	806
879.351	338
879.399	331
879.433	487
879.506	578
879.516	605
879.598	410
879.613	465
879.680	560
879.720	529
879.762	442
879.827	262
879.844	253
879.926	147
879.933	138
880.007	-136
880.040	218
880.089	1023
880.147	1346
880.171	1365
880.253	1591
880.254	1599
880.335	3725
880.360	4462
880.417	6125
880.467	7627
880.499	9478
880.574	15069
880.580	15385
880.662	22081
880.680	20533
880.744	10953
880.787	5255
880.825	2034
880.893	878
880.907	744
880.989	702
881.000	673
881.070	455
881.106	275
881.152	303
881.213	658
881.233	634
881.315	24
881.319	6
881.396	298
881.426	438
881.478	328
881.532	264
881.559	369
881.639	340
881.641	334
881.722	275
881.745	178
881.803	328
881.852	610
881.885	627
881.958	399
881.966	391
882.047	366
882.064	461
882.129	823
882.171	1061
882.210	1389
882.277	1052
882.291	1060
882.372	2884
882.383	2885
882.454	1468
882.489	829
882.535	674
882.596	458
882.616	285
882.697	-22
882.702	-42
882.778	304
882.808	456
882.859	454
882.914	460
882.940	320
883.020	-326
883.021	-323
883.102	153
883.127	288
883.183	126
883.233	-208
883.264	-102
883.339	345
883.345	331
883.426	367
883.445	239
883.507	103
883.551	227
883.587	196
883.657	75
883.668	170
883.749	877
883.763	970
883.830	794
883.869	692
883.910	749
883.975	749
883.991	717
884.072	556
884.081	582
884.152	793
884.187	659
884.233	408
884.292	144
884.314	147
884.394	441
884.398	437
884.475	44
884.504	-125
884.555	6
884.610	264
884.636	278
884.716	398
884.716	403
884.797	601
884.821	694
884.877	471
884.927	-141
884.958	-42
885.033	651
885.038	650
885.118	659
885.139	551
885.199	512
885.244	722
885.279	695
885.350	539
885.359	578
885.439	876
885.456	848
885.520	181
885.561	-22
885.600	184
885.667	417
885.680	370
885.760	40
885.773	31
885.840	326
885.878	269
885.920	242
885.984	347
886.000	425
886.080	974
886.089	979
886.160	426
886.195	363
886.240	596
886.300	649
886.320	658
886.400	981
886.406	982
886.480	782
886.511	681
886.560	697
886.616	811
886.640	769
886.720	526
886.722	519
886.800	482
886.827	411
886.879	702
886.932	986
886.959	743
887.038	257
887.039	265
887.119	502
887.143	655
887.198	593
887.248	443
887.278	496
887.354	616
887.358	617
887.437	548
887.459	548
887.517	738
887.564	879
887.596	725
887.669	184
887.676	209
887.755	663
887.774	757
887.835	836
887.880	867
887.914	463
887.985	-369
887.994	-342
888.073	-119
888.090	-54
888.153	873
888.195	1465
888.232	1102
888.300	330
888.311	399
888.391	886
888.405	995
888.470	415
888.510	-22
888.549	414
888.615	1198
888.628	1042
888.708	82
888.720	-81
888.787	521
888.825	893
888.866	839
888.930	712
888.945	764
889.024	1021
889.035	1054
889.103	486
889.140	158
889.182	277
889.245	496
889.261	530
889.340	651
889.349	662
889.419	1000
889.454	1173
889.498	963
889.559	657
889.577	625
889.656	484
889.664	470
889.735	160
889.768	15
889.814	713
889.873	1636
889.978	219
890.083	1301
890.187	780
890.292	881
890.397	469
890.501	97
890.606	-4
890.710	1245
890.815	948
890.919	1056
891.024	748
891.128	1061
891.233	723
891.337	851
891.442	318
891.546	1253
891.650	107
891.755	1543
891.859	450
891.963	628
892.068	853
892.172	1070
892.276	-58
892.380	612
892.484	395
892.589	1159
892.693	711
892.797	1168
892.901	170
893.005	1553
893.109	240
893.213	1035
893.317	816
893.421	988
893.525	260
893.629	576
893.733	672
893.837	581
893.941	877
894.045	646
894.148	452
894.252	736
894.356	779
894.460	1261
894.564	761
894.667	1000
894.771	130
894.875	848
894.978	474
895.082	656
895.186	478
895.289	1059
895.393	701
895.496	870
895.600	424
895.703	879
895.807	216
895.910	321
896.014	421
896.117	294
896.221	264
896.324	875
896.427	-306
896.531	632
896.634	592
896.737	488
896.840	26
896.944	386
897.047	790
897.150	642
897.253	271
897.356	1461
897.460	-219
897.563	750
897.666	-338
897.769	631
897.872	782
897.975	257
898.078	219
898.181	746
898.284	535
898.387	69
898.490	270
898.593	815
898.695	-273
898.798	879
898.901	1040
899.004	779
899.107	663
899.209	641
899.312	-29
899.415	503
899.518	-228
899.620	380
899.723	68
899.826	1284
899.928	2016
900.031	1487
900.133	851
900.236	766
900.338	449
900.441	987
900.543	-621
900.646	693
900.748	-207
900.851	303
900.953	295
901.055	648
901.158	446
901.260	853
901.362	-455
901.465	930
901.567	339
901.669	373
901.771	-414
901.873	140
901.976	-334
902.078	209
902.180	-527
902.282	-104
902.384	438
902.486	593
902.588	513
902.690	1575
902.792	232
902.894	507
902.996	507
903.098	29
903.200	237
903.302	192
903.404	-216
903.505	1011
903.607	-196
903.709	205
903.811	157
903.913	181
904.014	-725
904.116	920
904.218	-522
904.319	494
904.421	338
904.523	709
904.624	6
904.726	337
904.827	-346
904.929	-16
905.030	1024
905.132	677
905.233	109
905.335	-536
905.436	-121
905.537	780
905.639	252
905.740	335
905.841	-963
905.943	748
906.044	-811
906.145	714
906.247	-59
906.348	780
906.449	606
906.550	120
906.651	197
906.752	778
906.854	425
906.955	796
907.056	-34
907.157	263
907.258	366
907.359	-46
907.460	288
907.561	-279
907.662	-825
907.762	186
907.863	-419
907.964	729
908.065	4
908.166	-25
908.267	229
908.367	422
908.468	-230
908.569	840
908.670	185
908.770	620
908.871	-88
908.971	1057
909.072	764
909.173	1134
909.273	39
909.374	507
909.474	-663
909.575	507
909.675	-30
909.776	278
909.876	416
909.977	467
910.077	-825
910.177	-63
910.278	5
910.378	439
910.478	-261
910.579	565
910.679	42
910.779	822
910.879	306
910.980	329
911.080	-371
911.180	623
911.280	-23
911.380	7
911.480	-257
911.580	406
911.680	-22
911.780	835
911.880	204
911.980	-204
912.080	-474
912.180	1032
912.280	-228
912.380	314
912.480	93
912.580	371
912.679	-113
912.779	623
912.879	-768
912.979	-376
913.078	132
913.178	-252
913.278	-218
913.377	-190
913.477	-403
913.577	-173
913.676	199
913.776	348
913.875	258
913.975	117
914.074	-263
914.174	459
914.273	-760
914.373	217
914.472	-469
914.572	37
914.671	-248
914.770	-246
914.870	-160
914.969	67
915.068	-492
915.167	624
915.267	-222
915.366	607
915.465	21
915.564	333
915.663	-582
915.763	502
915.862	410
915.961	-24
916.060	-644
916.159	711
916.258	-234
916.357	212
916.456	634
916.555	-179
916.654	-227
916.752	600
916.851	108
916.950	-312
917.049	202
917.148	664
917.247	-547
917.345	613
917.444	-16
917.543	-236
917.642	-1350
917.740	254
917.839	366
917.937	484
918.036	134
918.135	57
918.233	-569
918.332	86
918.430	-513
918.529	1433
918.627	346
918.726	538
918.824	144
918.923	583
919.021	68
919.119	-66
919.218	-901
919.316	-75
919.414	-622
919.512	232
919.611	-43
919.709	332
919.807	-492
919.905	-85
920.003	-101
920.102	369
920.200	457
920.298	-150
920.396	572
920.494	-139
920.592	-303
920.690	-137
920.788	-609
920.886	-350
920.984	2
921.082	868
921.180	-639
921.277	307
921.375	27
921.473	-2
921.571	-317
921.669	940
921.766	-149
921.864	395
921.962	165
922.060	-113
922.157	-610
922.255	572
922.352	473
922.450	-314
922.548	366
922.645	1497
922.743	394
922.840	886
922.938	131
923.035	728
923.133	1000
923.230	1610
923.327	620
923.425	2002
923.522	178
923.619	1074
923.717	875
923.814	1180
923.911	70
924.008	949
924.106	306
924.203	943
924.300	-98
924.397	350
924.494	-203
924.591	1811
924.688	581
924.786	455
924.883	123
924.979	535
925.077	815
925.173	619
925.270	309
925.367	402
925.464	811
925.561	1987
925.658	95
925.755	1279
925.852	442
925.948	1273
926.045	1047
926.142	1001
926.239	747
926.335	850
926.432	1678
926.529	819
926.625	-475
926.722	1188
926.818	34
926.915	527
927.011	-53
927.108	479
927.204	-489
927.301	797
927.397	463
927.494	102
927.590	311
927.687	399
927.783	-12
927.879	779
927.976	-480
928.072	943
928.168	-285
928.264	318
928.361	-159
928.457	1480
928.553	30
928.649	269
928.745	-676
928.841	297
928.937	-70
929.033	141
929.129	-140
929.225	-242
929.321	-89
929.417	41
929.513	-233
929.609	204
929.705	-309
929.801	729
929.897	-343
929.993	223
930.089	-434
930.184	-362
930.280	-375
930.376	-219
930.471	9
930.567	154
930.663	-337
930.758	373
930.854	-185
930.950	1334
931.045	164
931.141	522
931.236	-56
931.332	899
931.427	-67
931.523	-128
931.618	-224
931.714	-378
931.809	231
931.905	117
932.000	530
932.095	185
932.191	116
932.286	126
932.381	-371
932.476	-206
932.572	-148
932.667	470
932.762	233
932.857	389
932.952	-446
933.047	716
933.142	-500
933.237	602
933.332	-623
933.427	310
933.522	-460
933.617	-157
933.712	-710
933.807	-72
933.902	26
933.997	684
934.092	-779
934.187	261
934.282	-342
934.376	525
934.471	-545
934.566	-383
934.661	-603
934.755	68
934.850	-542
934.945	-256
935.039	-419
935.134	66
935.228	-812
935.323	109
935.417	320
935.512	55
935.606	-215
935.701	-165
935.795	-629
935.890	443
935.984	-252
936.079	617
936.173	-112
936.267	-448
936.362	-963
936.456	53
936.550	-657
936.644	650
936.738	-563
936.833	706
936.927	-22
937.021	-108
937.115	70
937.209	-571
937.303	-267
937.397	-297
937.491	-977
937.585	746
937.679	-237
937.773	-392
937.867	-443
937.961	189
938.055	-626
938.149	-235
938.243	-546
938.337	-87
938.430	-921
938.524	-92
938.618	-212
938.712	366
938.805	-391
938.899	168
938.993	-467
939.086	-414
939.180	-947
939.274	-206
939.367	-44
939.461	254
939.554	-137
939.648	572
939.741	9
939.835	-48
939.928	-828
940.022	-519
940.115	313
940.208	-431
940.302	-1228
940.395	-360
940.488	337
940.582	135
940.675	-462
940.768	-652
940.861	-812
940.954	-283
941.048	-178
941.141	174
941.234	-276
941.327	506
941.420	1637
941.513	1738
941.606	196
941.699	121
941.792	596
941.885	104
941.978	-405
942.071	-167
942.164	-34
942.257	-530
942.349	-736
942.442	-238
942.535	-563
942.628	-326
942.721	93
942.813	408
942.906	316
942.999	-154
943.091	-165
943.184	-209
943.277	-556
943.369	-445
943.462	-1006
943.554	-153
943.647	-1441
943.739	-9
943.832	89
943.924	9
944.017	-819
944.109	-584
944.201	-523
944.294	146
944.386	-174
944.478	-323
944.571	-1168
944.663	-435
944.755	-572
944.847	134
944.940	-457
945.032	-210
945.124	-1030
945.216	-34
945.308	-727
945.400	-123
945.492	-848
945.584	-74
945.676	-243
945.768	458
945.860	-1033
945.952	493
946.044	-545
946.136	-292
946.228	-961
946.320	-386
946.412	-143
946.503	-141
946.595	-543
946.687	-376
946.779	-262
946.870	-743
946.962	-1689
947.054	-295
947.145	-381
947.237	362
947.329	-358
947.420	-404
947.512	-553
947.603	-316
947.695	-639
947.786	-167
947.878	-370
947.969	-415
948.061	-1040
948.152	-204
948.243	-661
948.335	-430
948.426	-870
948.517	-103
948.609	-916
948.700	-330
948.791	-1006
948.882	-349
948.973	-690
949.065	-390
949.156	-889
949.247	-208
949.338	-618
949.429	-400
949.520	-788
949.611	291
949.702	-568
949.793	-301
949.884	-1081
949.975	-1115
950.066	-174
950.157	-395
950.247	-949
950.338	-113
950.429	-1087
950.520	-349
950.611	293
950.701	-589
950.792	-504
950.883	-454
950.973	-425
951.064	-261
951.155	-1103
951.245	-365
951.336	-823
951.427	502
951.517	-311
951.608	-532
951.698	-277
951.788	-634
951.879	-689
951.969	-1024
952.060	-616
952.150	-617
952.240	-703
952.331	68
952.421	-173
952.511	-195
952.602	-483
952.692	-229
952.782	-968
952.872	-370
952.962	-1463
953.052	-208
953.143	-1690
953.233	77
953.323	71
953.413	-648
953.503	-509
953.593	-324
953.683	-1014
953.773	-380
953.863	-1472
953.953	-454
954.042	-779
954.132	-673
954.222	-600
954.312	-151
954.402	-1313
954.492	-503
954.581	-316
954.671	549
954.761	-952
954.850	-198
954.940	-1051
955.030	379
955.119	-891
955.209	-709
955.298	-796
955.388	-319
955.477	-317
955.567	-730
955.656	-1265
955.746	-910
955.835	-1171
955.925	-625
956.014	-1416
956.103	-932
956.193	-889
956.282	247
956.371	-977
956.461	-438
956.550	-590
956.639	-303
956.728	-402
956.817	-401
956.906	-591
956.995	-154
957.085	-878
957.174	-21
957.263	-876
957.352	-875
957.441	-1275
957.530	-533
957.619	-1497
957.708	-274
957.796	-548
957.885	-719
957.974	-1133
958.063	-342
958.152	-177
958.241	236
958.329	-1664
958.418	-1310
958.507	-916
958.596	-667
958.684	-1049
958.773	-134
958.861	-1899
958.950	-1
959.039	-992
959.127	115
959.216	-1753
959.304	-386
959.393	-1353
959.481	-498
959.570	-703
959.658	-896
959.746	-732
959.835	-777
959.923	-184
960.011	1239
960.100	-575
960.188	-326
960.276	-871
960.365	-840
960.453	-1535
960.541	-908
960.629	-1096
960.717	-675
960.805	-877
960.893	-609
960.981	-1267
961.069	-1155
961.158	-863
961.245	-685
961.333	-841
961.421	-838
961.509	-1634
961.597	-468
961.685	-787
961.773	-975
961.861	-911
961.949	-1450
962.036	-1805
962.124	-1485
962.212	-1829
962.299	-792
962.387	-1490
962.475	-354
962.562	-975
962.650	-835
962.738	-1018
962.825	-852
962.913	-1461
963.000	-1555
963.088	-1051
963.175	-1477
963.263	-1551
963.350	-426
963.438	-534
963.525	-1058
963.612	-556
963.700	1332
963.787	3638
963.874	8804
963.962	2679
964.049	-541
964.136	-1302
964.223	-656
964.310	-2290
964.398	-238
964.485	-2506
964.572	-1000
964.659	-833
964.746	602
964.833	-327
964.920	-612
965.007	-1700
965.094	-1533
965.181	-1391
965.268	-960
965.355	-1038
965.441	-702
965.528	-1003
965.615	-489
965.702	-1631
965.789	-1379
965.875	-1634
965.962	-1002
966.049	-1579
966.136	-1040
966.222	-1572
966.309	-989
966.395	-1545
966.482	-999
966.569	-1564
966.655	141
966.742	-1022
966.828	-594
966.915	-743
967.001	-1093
967.087	-1686
967.174	-1073
967.260	-626
967.347	-184
967.433	-1054
967.519	2158
967.605	4650
967.692	461
967.778	-1138
967.864	-962
967.950	-2123
968.036	-1069
968.123	-1613
968.209	-687
968.295	-2154
968.381	-360
968.467	-1384
968.553	-471
968.639	-1514
968.725	-1257
968.811	-835
968.897	74
968.983	-77
969.069	-1551
969.154	-1310
969.240	-1879
969.326	-1258
969.412	-1537
969.497	-1857
969.583	-1526
969.669	-1121
969.755	-1347
969.840	-1675
969.926	-1500
970.012	-1462
970.097	-689
970.183	-998
970.268	-444
970.354	-538
970.439	-848
970.525	37
970.610	2118
970.696	-221
970.781	-1061
970.866	-1613
970.952	-1345
971.037	-2417
971.122	-1623
971.208	-1148
971.293	-1148
971.378	-2491
971.463	-949
971.549	-1741
971.634	-1737
971.719	-2030
971.804	-1312
971.889	-1168
971.974	-649
972.059	-2137
972.144	-1531
972.229	-1602
972.314	-575
972.399	-1586
972.484	-837
972.569	-1682
972.654	-1339
972.739	-950
972.824	87
972.908	241
972.993	-993
973.078	-1642
973.163	-718
973.247	-1663
973.332	-2062
973.417	-1616
973.501	-1645
973.586	-1450
973.671	-1418
973.755	-1540
973.840	-838
973.924	-1538
974.009	-1502
974.093	-1286
974.178	-407
974.262	-1218
974.346	-738
974.431	-4
974.515	-992
974.600	-1682
974.684	-1854
974.768	-2575
974.852	-628
974.937	-1834
975.021	-1716
975.105	-1491
975.189	-1441
975.273	-1665
975.358	-1859
975.442	-1817
975.526	-1799
975.610	-2542
975.694	-1365
975.778	-1371
975.862	-1447
975.946	-2073
976.030	-838
976.114	-1843
976.198	-1559
976.281	-1846
976.365	-837
976.449	-1415
976.533	-667
976.617	-2502
976.700	-1329
976.784	-1725
976.868	-756
976.951	-1938
977.035	-686
977.119	-946
977.202	-1057
977.286	-2167
977.369	-1089
977.453	-1564
977.536	-1307
977.620	-2223
977.703	-1298
977.787	-1657
977.870	-1378
977.953	-1213
978.037	-1737
978.120	-1769
978.203	-1395
978.287	-627
978.370	802
978.453	-1370
978.536	-955
978.620	-1635
978.703	-691
978.786	-1100
978.869	-844
978.952	-1969
979.035	-1476
979.118	-2100
979.201	-1794
979.284	-1636
979.367	-1309
979.450	-1673
979.533	-1617
979.616	-1843
979.699	-1442
979.782	-2274
979.865	-1745
979.948	-1650
980.030	-1355
980.113	-1759
980.196	-1354
980.279	-1592
980.361	-1469
980.444	-2178
980.526	-1804
980.609	-2028
980.692	-1162
980.774	-2117
980.857	-1581
980.939	-1905
981.022	-1162
981.104	-1845
981.187	-1212
981.269	-1290
981.352	-1532
981.434	-2531
981.516	-1352
981.599	-1754
981.681	-1129
981.763	-3089
981.846	-1826
981.928	-1601
982.010	-1241
982.092	-2824
982.174	-1011
982.256	-1765
982.339	-1021
982.421	-2118
982.503	-1749
982.585	-2258
982.667	-1168
982.749	-1656
982.831	-2152
982.913	-1885
982.995	-1186
983.077	-1683
983.158	-812
983.240	-1384
983.322	-1817
983.404	-1419
983.486	-1615
983.568	-1704
983.649	-1413
983.731	-1843
983.813	-2601
983.894	-2935
983.976	-1715
984.058	-1995
984.139	-1756
984.221	-2152
984.302	-1643
984.384	-2362
984.465	-1377
984.547	-2602
984.628	-1471
984.710	-2020
984.791	-661
984.872	-1452
984.954	-1630
985.035	-2191
985.116	-945
985.198	-1918
985.279	-1282
985.360	-1860
985.441	-685
985.522	-1195
985.604	-1516
985.685	-1421
985.766	-1227
985.847	-1885
985.928	-1218
986.009	-2006
986.090	-1765
986.171	-1207
986.252	-1178
986.333	-2160
986.414	-1116
986.495	-1880
986.576	-986
986.656	-1614
986.737	-2013
986.818	-1875
986.899	-784
986.980	-2567
987.060	-908
987.141	-1782
987.222	-1950
987.302	-1750
987.383	-1879
987.464	-2477
987.544	-977
987.625	-1800
987.705	-970
987.786	-2108
987.866	-835
987.947	-1714
988.027	-1591
988.108	-2254
988.188	-858
988.268	-2273
988.349	-933
988.429	-1555
988.509	-2200
988.589	-2346
988.670	-1405
988.750	-847
988.830	-1760
988.910	-1945
988.990	-1032
989.070	-2237
989.151	-924
989.231	-2774
989.311	-1214
989.391	-1238
989.471	-904
989.551	-1240
989.631	-1390
989.711	-2093
989.791	-952
989.870	-1846
989.950	-775
990.030	-2077
990.110	-910
990.190	-1926
990.269	-1554
990.349	-1858
990.429	-1331
990.509	-1794
990.588	-1529
990.668	-1705
990.747	-1282
990.827	-1920
990.907	-1292
990.986	-2127
991.066	-728
991.145	-1795
991.225	-1893
991.304	-1969
991.383	-1213
991.463	-1336
991.542	-589
991.622	-1945
991.701	-999
991.780	-2102
991.859	-1435
991.939	-1682
992.018	-1418
992.097	-1919
992.176	-1084
992.256	-2811
992.335	-976
992.414	-1473
992.493	-821
992.572	-2018
992.651	-1150
992.730	-2250
992.809	-1275
992.888	-2574
992.967	-1741
993.046	-1818
993.125	-1569
993.203	-972
993.282	-1065
993.361	-1897
993.440	-2218
993.519	-2484
993.597	-1225
993.676	-2268
993.755	-1197
993.834	-1645
993.912	-1759
993.991	-1416
994.069	-1650
994.148	-2502
994.226	-1233
994.305	-1721
994.384	-446
994.462	-1760
994.540	-1390
994.619	-1737
994.697	-1226
994.776	-2018
994.854	-1334
994.932	-2664
995.011	-1212
995.089	-2241
995.167	-1195
995.245	-1782
995.324	-1363
995.402	-1665
995.480	-756
995.558	-2339
995.636	-1842
995.714	-2094
995.792	-1326
995.870	-2712
995.948	-1204
996.026	-1426
996.104	-1787
996.182	-1736
996.260	-1204
996.338	-2110
996.416	-1163
996.494	-1773
996.572	-1364
996.649	-1891
996.727	-2169
996.805	-1356
996.883	-1906
996.960	-2505
997.038	-1437
997.116	-1815
997.193	-2181
997.271	-1585
997.348	-1600
997.426	-1863
997.504	-520
997.581	-1595
997.658	-1333
997.736	-1335
997.813	-1470
997.891	-2183
997.968	-1151
998.046	-1636
998.123	-1794
998.200	-1840
998.277	-2107
998.355	-889
998.432	-1705
998.509	-1265
998.586	-1382
998.663	-1889
998.741	-1780
998.818	-2176
998.895	-2299
998.972	-1593
999.049	-1090
999.126	-2121
999.203	-1524
999.280	-2128
999.357	-1793
999.434	-1922
999.511	-1050
999.587	-2553
999.664	-1991
999.741	-2179
999.818	-782
999.895	-1892
999.971	-942
1000.048	-2124
1000.125	-1248
1000.202	-2097
1000.278	-680
1000.355	-1697
1000.431	-2058
1000.508	-1869
1000.584	-1211
1000.661	-1782
1000.738	-977
1000.814	-1669
1000.890	-1834
1000.967	-1549
1001.043	-1195
1001.120	-2013
1001.196	-1625
1001.272	-2139
1001.349	-1382
1001.425	-2402
1001.501	-1094
1001.577	-2428
1001.654	-1686
1001.730	-2511
1001.806	-1449
1001.882	-1992
1001.958	-637
1002.034	-1622
1002.110	-1134
1002.186	-2566
1002.262	-1711
1002.338	-2195
1002.414	-1281
1002.490	-1665
1002.566	-2007
1002.642	-1567
1002.718	-583
1002.794	-2776
1002.870	-1681
1002.945	-1697
1003.021	-1802
1003.097	-2522
1003.173	-1480
1003.248	-1601
1003.324	-1953
1003.400	-2428
1003.475	-1696
1003.551	-1689
1003.626	-1611
1003.702	-2176
1003.777	-1373
1003.853	-2158
1003.928	-1810
1004.004	-2516
1004.079	-1092
1004.155	-2165
1004.230	-2381
1004.305	-1779
1004.381	-1185
1004.456	-2030
1004.531	-1849
1004.607	-2219
1004.682	-1301
1004.757	-2452
1004.832	-1830
1004.907	-1398
1004.982	-964
1005.057	-2115
1005.133	-1506
1005.208	-2973
1005.283	-1576
1005.358	-2115
1005.433	-1951
1005.508	-1326
1005.583	-1853
1005.657	-2056
1005.732	-1177
1005.807	-1926
1005.882	-1550
1005.957	-1936
1006.032	-1425
1006.106	-1918
1006.181	-1717
1006.256	-1645
1006.331	-1392
1006.405	-2138
1006.480	-1124
1006.554	-1954
1006.629	-1437
1006.704	-1984
1006.778	-991
1006.853	-1522
1006.927	-1726
1007.002	-2064
1007.076	-1311
1007.150	-2123
1007.225	-953
1007.299	-1888
1007.373	-1204
1007.448	-1628
1007.522	-1533
1007.596	-2020
1007.671	-1856
1007.745	-1683
1007.819	-1724
1007.893	-2025
1007.967	-1669
1008.041	-3034
1008.115	-1250
1008.190	-2155
1008.264	-1202
1008.338	-2199
1008.412	-1352
1008.486	-1540
1008.560	-1891
1008.633	-1734
1008.707	-2410
1008.781	-2524
1008.855	-1410
1008.929	-2808
1009.003	-1874
1009.076	-2648
1009.150	-1944
1009.224	-2275
1009.298	-1131
1009.371	-2599
1009.445	-1317
1009.519	-1840
1009.592	-1461
1009.666	-2135
1009.739	-1858
1009.813	-3133
1009.886	-2111
1009.960	-2190
1010.033	-1782
1010.107	-2735
1010.180	-1763
1010.253	-1995
1010.327	-1545
1010.400	-2598
1010.473	-1225
1010.547	-2119
1010.620	-1675
1010.693	-2479
1010.766	-1039
1010.840	-1716
1010.913	-1380
1010.986	-2232
1011.059	-1553
1011.132	-2148
1011.205	-1557
1011.278	-2485
1011.351	-1503
1011.424	-2141
1011.497	-2117
1011.570	-2693
1011.643	-1242
1011.716	-2269
1011.789	-1792
1011.862	-1892
1011.934	-1823
1012.007	-2222
1012.080	-1429
1012.153	-2519
1012.225	-1802
1012.298	-2543
1012.371	-2329
1012.443	-2346
1012.516	-1638
1012.588	-1704
1012.661	-1164
1012.733	-1925
1012.806	-1578
1012.879	-1277
1012.951	-1644
1013.023	-2487
1013.096	-865
1013.168	-2487
1013.241	-890
1013.313	-1991
1013.385	-1670
1013.458	-2661
1013.530	-1843
1013.602	-2093
1013.674	-1288
1013.746	-1653
1013.819	-1409
1013.891	-2383
1013.963	-2243
1014.035	-1885
1014.107	-1558
1014.179	-1860
1014.251	-2357
1014.323	-1346
1014.395	-1727
1014.467	-2308
1014.539	-1514
1014.611	-2072
1014.683	-1493
1014.754	-1824
1014.826	-2262
1014.898	-2051
1014.970	-2206
1015.042	-1618
1015.113	-1877
1015.185	-3406
1015.257	-2068
1015.328	-1943
1015.400	-1445
1015.471	-2430
1015.543	-1649
1015.615	-2517
1015.686	-1846
1015.757	-2328
1015.829	-1465
1015.901	-2277
1015.972	-2156
1016.043	-2552
1016.115	-1487
1016.186	-2716
1016.257	-2602
1016.328	-2041
1016.400	-1145
1016.471	-2459
1016.542	-2175
1016.613	-2537
1016.685	-2093
1016.756	-2427
1016.827	-2171
1016.898	-2581
1016.969	-1470
1017.040	-2705
1017.111	-1247
1017.182	-2201
1017.253	-1755
1017.324	-3052
1017.395	-2095
1017.466	-2404
1017.537	-1875
1017.608	-1804
1017.678	-1837
1017.749	-2257
1017.820	-1435
1017.891	-3215
1017.961	-1914
1018.032	-1838
1018.103	-1839
1018.173	-2585
1018.244	-2273
1018.315	-1739
1018.385	-1901
1018.456	-2811
1018.526	-1824
1018.597	-2395
1018.667	-1473
1018.738	-3072
1018.808	-2473
1018.878	-2676
1018.949	-1619
1019.019	-2574
1019.089	-1902
1019.160	-2474
1019.230	-1964
1019.300	-1577
1019.371	-2490
1019.441	-1959
1019.511	-1966
1019.581	-3038
1019.651	-2201
1019.721	-2722
1019.791	-1670
1019.861	-2633
1019.931	-2151
1020.001	-2591
1020.071	-1812
1020.141	-1785
1020.211	-1657
1020.281	-3117
1020.351	-2081
1020.421	-2518
1020.491	-1828
1020.560	-1246
1020.630	-1863
1020.700	-2552
1020.770	-2129
1020.839	-2198
1020.909	-2005
1020.979	-2024
1021.048	-1882
1021.118	-2291
1021.187	-1727
1021.257	-2103
1021.326	-885
1021.396	-2683
1021.465	-2738
1021.535	-2544
1021.604	-1792
1021.674	-2051
1021.743	-1537
1021.812	-1910
1021.882	-1805
1021.951	-1272
1022.020	-1842
1022.089	-2362
1022.159	-1738
1022.228	-2373
1022.297	-2550
1022.366	-2004
1022.435	-2236
1022.504	-2748
1022.573	-2411
1022.642	-2193
1022.711	-1702
1022.781	-2400
1022.849	-1625
1022.918	-2715
1022.987	-1516
1023.056	-1690
1023.125	-1534
1023.194	-2726
1023.263	-1538
1023.331	-2627
1023.400	-1929
1023.469	-2386
1023.538	-1569
1023.606	-2474
1023.675	-1137
1023.744	-2226
1023.812	-1547
1023.881	-2373
1023.949	-2054
1024.018	-2915
1024.086	-2002
1024.155	-2356
1024.223	-1995
1024.292	-1906
1024.360	-1335
1024.429	-1262
1024.497	-2029
1024.565	-1802
1024.634	-1710
1024.702	-2517
1024.770	-1229
1024.838	-2434
1024.907	-1606
1024.975	-1949
1025.043	-1627
1025.111	-2076
1025.179	-2056
1025.247	-1872
1025.315	-1698
1025.383	-1405
1025.451	-2357
1025.519	-2697
1025.587	-2324
1025.655	-2123
1025.723	-1861
1025.791	-2507
1025.859	-1672
1025.927	-2418
1025.995	-2062
1026.062	-3040
1026.130	-1945
1026.198	-1723
1026.266	-2372
1026.333	-1879
1026.401	-1426
1026.469	-1853
1026.536	-1632
1026.604	-2951
1026.671	-1710
1026.739	-1762
1026.806	-1041
1026.874	-2320
1026.941	-1748
1027.009	-2220
1027.076	-2368
1027.144	-1913
1027.211	-1683
1027.278	-2490
1027.345	-1926
1027.413	-2456
1027.480	-1676
1027.547	-1863
1027.614	-2086
1027.682	-1698
1027.749	-1639
1027.816	-2257
1027.883	-1160
1027.950	-1902
1028.017	-1282
1028.084	-2172
1028.151	-2166
1028.218	-2399
1028.285	-1613
1028.352	-2245
1028.419	-1675
1028.486	-2018
1028.553	-1703
1028.619	-2730
1028.686	-2020
1028.753	-1811
1028.820	-1630
1028.886	-1702
1028.953	-1851
1029.020	-2000
1029.086	-1619
1029.153	-3527
1029.220	-1729
1029.286	-1816
1029.353	-1369
1029.419	-2336
1029.486	-1828
1029.552	-1803
1029.619	-2021
1029.685	-2070
1029.751	-1132
1029.818	-1012
1029.884	-1745
1029.951	-2774
1030.017	-2041
1030.083	-2160
1030.149	-1125
1030.216	-2129
1030.282	-1411
1030.348	-1959
1030.414	-1575
1030.480	-2641
1030.546	-1586
1030.612	-2581
1030.678	-2124
1030.744	-2072
1030.810	-2301
1030.876	-2118
1030.942	-1189
1031.008	-2313
1031.074	-2558
1031.140	-2239
1031.206	-2058
1031.272	-2060
1031.337	-1654
1031.403	-2141
1031.469	-1834
1031.534	-2936
1031.600	-1356
1031.666	-2435
1031.731	-1780
1031.797	-2309
1031.863	-1151
1031.928	-1803
1031.994	-2296
1032.059	-2499
1032.125	-1590
1032.190	-2659
1032.256	-2635
1032.321	-2015
1032.386	-1382
1032.452	-1817
1032.517	-463
1032.582	-2125
1032.647	-2448
1032.713	-2087
1032.778	-2200
1032.843	-1524
1032.908	-1821
1032.974	-1607
1033.039	-1126
1033.104	-2196
1033.169	-2445
1033.234	-1676
1033.299	-1967
1033.364	-1628
1033.429	-2112
1033.494	-1303
1033.559	-1250
1033.624	-1550
1033.688	-1709
1033.753	-2384
1033.818	-1740
1033.883	-2609
1033.948	-1619
1034.013	-1844
1034.077	-1318
1034.142	-695
1034.207	-978
1034.271	-913
1034.336	-889
1034.400	-406
1034.465	-165
1034.530	-1732
1034.594	-491
1034.658	-969
1034.723	-1518
1034.787	-2534
1034.852	-1631
1034.916	-2353
1034.981	-1561
1035.045	-2361
1035.109	-1867
1035.173	-2135
1035.238	-2129
1035.302	-2277
1035.366	-1210
1035.430	-1839
1035.495	-2352
1035.559	-1515
1035.623	-2131
1035.687	-2482
1035.751	-1295
1035.815	-2011
1035.879	-2297
1035.943	-2084
1036.007	-1410
1036.071	-2555
1036.135	-1823
1036.198	-2778
1036.262	-1787
1036.326	-2292
1036.390	-2046
1036.454	-2785
1036.517	-1679
1036.581	-2695
1036.645	-471
1036.709	-2323
1036.772	-572
1036.836	-1743
1036.900	-1910
1036.963	-2190
1037.026	-1323
1037.090	-2123
1037.154	-1975
1037.217	-2543
1037.280	-1614
1037.344	-2306
1037.407	-2096
1037.471	-2181
1037.534	-1970
1037.597	-1853
1037.661	-1723
1037.724	-2650
1037.787	-1367
1037.850	-2211
1037.913	-2876
1037.977	-1676
1038.040	-2315
1038.103	-2415
1038.166	-1906
1038.229	-3147
1038.292	-2316
1038.355	-2533
1038.418	-1353
1038.481	-1870
1038.544	-1606
1038.607	-2791
1038.670	-1334
1038.732	-2684
1038.795	-2196
1038.858	-1924
1038.921	-1245
1038.984	-1692
1039.046	-2311
1039.109	-2569
1039.172	-2249
1039.234	-3005
1039.297	-1385
1039.360	-2834
1039.422	-2809
1039.485	-2748
1039.547	-2133
1039.610	-3201
1039.672	-1484
1039.734	-2926
1039.797	-1053
1039.859	-3067
1039.922	-2052
1039.984	-2701
1040.046	-2435
1040.109	-2541
1040.171	-2066
1040.233	-2573
1040.295	-2472
1040.358	-3131
1040.420	-2286
1040.482	-1965
1040.544	-2228
1040.606	-2351
1040.668	-1123
1040.730	-2444
1040.792	-2003
1040.854	-2816
1040.916	-2396
1040.978	-2329
1041.040	-1933
1041.102	-2640
1041.164	-2115
1041.225	-2406
1041.287	-1997
1041.349	-3115
1041.411	-1737
1041.472	-2534
1041.534	-1368
1041.596	-2255
1041.657	-1938
1041.719	-2018
1041.781	-2110
1041.842	-2346
1041.904	-2068
1041.965	-1490
1042.027	-2069
1042.088	-3091
1042.150	-1585
1042.211	-2170
1042.272	-2261
1042.334	-1707
1042.395	-1926
1042.456	-2439
1042.518	-1665
1042.579	-2020
1042.640	-2020
1042.701	-2775
1042.763	-2416
1042.824	-2454
1042.885	-1622
1042.946	-2239
1043.007	-2031
1043.068	-2441
1043.129	-1168
1043.190	-2151
1043.251	-2347
1043.312	-2199
1043.373	-1500
1043.434	-2270
1043.495	-2416
1043.556	-2150
1043.616	-2461
1043.677	-2469
1043.738	-2217
1043.799	-2729
1043.859	-1593
1043.920	-2655
1043.981	-2136
1044.041	-1971
1044.102	-1327
1044.162	-2441
1044.223	-2346
1044.284	-1862
1044.344	-1918
1044.405	-1868
1044.465	-1996
1044.525	-3041
1044.586	-2055
1044.646	-2522
1044.707	-1284
1044.767	-2474
1044.827	-2146
1044.887	-2555
1044.948	-1418
1045.008	-2156
1045.068	-1936
1045.128	-2861
1045.188	-1915
1045.249	-2125
1045.309	-1386
1045.369	-1849
1045.429	-1885
1045.489	-1852
1045.549	-1824
1045.609	-2652
1045.669	-2608
1045.729	-2187
1045.789	-2209
1045.848	-2718
1045.908	-1532
1045.968	-1631
1046.028	-992
1046.088	-2250
1046.147	-1925
1046.207	-1928
1046.267	-1039
1046.326	-2219
1046.386	-1530
1046.446	-2068
1046.505	-1426
1046.565	-1628
1046.624	-912
1046.684	-1535
1046.743	125
1046.803	-1865
1046.862	-992
1046.922	0
