'Start Wavelength	183.907
'End Wavelength	1046.922
'Gate Delay	5.000
'Gate Width (ms)	1.050
'Laser Output Level	0.000
'X Position	0.000
'Y Position	0.000
'Z Position	0.000
'Grid Point Number	1.000
'Shot Number	100.000
183.907	953.000
183.977	152.000
184.047	286
184.116	260
184.186	222
184.256	319
184.325	485
184.395	312
184.465	575
184.534	776
184.604	-214
184.674	421
184.743	197
184.813	348
184.883	-122
184.952	930
185.022	575
185.092	503
185.161	444
185.231	471
185.301	332
185.370	960
185.440	590
185.509	-187
185.579	-368
185.649	1231
185.718	341
185.788	481
185.857	-158
185.927	1080
185.996	1065
186.066	305
186.136	655
186.205	628
186.275	1482
186.344	724
186.414	474
186.483	273
186.553	1386
186.622	1621
186.692	945
186.761	-34
186.831	810
186.900	950
186.970	1120
187.039	1373
187.109	1475
187.178	537
187.248	541
187.317	1339
187.387	1316
187.456	1465
187.526	1521
187.595	1039
187.664	654
187.734	1367
187.803	1342
187.873	1175
187.942	1713
188.012	1429
188.081	481
188.150	1029
188.220	2087
188.289	974
188.358	1462
188.428	995
188.497	1091
188.567	1471
188.636	1124
188.705	777
188.775	757
188.844	1180
188.913	1170
188.983	1224
189.052	1101
189.121	1129
189.191	1186
189.260	1762
189.329	1718
189.399	679
189.468	91
189.537	563
189.606	961
189.676	1512
189.745	1789
189.814	1913
189.883	1374
189.953	1754
190.022	2604
190.091	6885
190.161	5276
190.230	1442
190.299	1507
190.368	356
190.437	740
190.507	1647
190.576	874
190.645	1887
190.714	1015
190.783	1487
190.853	1518
190.922	955
190.991	736
191.060	985
191.129	975
191.198	1675
191.268	189
191.337	956
191.406	1953
191.475	1025
191.544	112
191.613	1033
191.682	1053
191.752	1646
191.821	953
191.890	1370
191.959	739
192.028	1088
192.097	333
192.166	1911
192.235	1275
192.304	733
192.373	116
192.442	548
192.511	622
192.580	299
192.650	1053
192.719	885
192.788	1465
192.857	867
192.926	663
192.995	1570
193.064	2679
193.133	4030
193.202	4229
193.271	2986
193.340	3237
193.409	4117
193.478	3470
193.547	5155
193.615	5680
193.684	4886
193.753	3208
193.822	2214
193.891	1896
193.960	1705
194.029	2116
194.098	1653
194.167	976
194.236	1103
194.305	505
194.374	1866
194.443	1291
194.512	1843
194.580	1429
194.649	2493
194.718	2352
194.787	1941
194.856	1984
194.925	1584
194.994	1587
195.062	2016
195.131	2492
195.200	3350
195.269	2360
195.338	2048
195.407	1867
195.475	2277
195.544	3287
195.613	2859
195.682	2010
195.751	3947
195.819	2815
195.888	2164
195.957	3751
196.026	2552
196.094	3678
196.163	3966
196.232	2824
196.301	2452
196.369	3270
196.438	1962
196.507	2293
196.576	1604
196.644	1097
196.713	2395
196.782	1089
196.850	1514
196.919	1560
196.988	2053
197.056	1198
197.125	2044
197.194	1920
197.262	1580
197.331	2011
197.400	1458
197.468	1341
197.537	1805
197.606	2869
197.674	5263
197.743	5033
197.812	3532
197.880	7423
197.949	4148
198.017	6820
198.086	2646
198.155	1686
198.223	4740
198.292	7354
198.360	2477
198.429	2374
198.497	2872
198.566	7689
198.635	4654
198.703	2980
198.772	4138
198.840	10624
198.909	5114
198.977	2820
199.046	2978
199.114	2782
199.183	2902
199.251	1565
199.320	2021
199.388	1943
199.457	1775
199.525	2757
199.594	2105
199.662	1601
199.731	2280
199.799	1989
199.867	3255
199.936	2169
200.004	2238
200.073	2325
200.141	2048
200.210	1621
200.278	1967
200.346	2141
200.415	3282
200.483	3447
200.552	2240
200.620	2861
200.688	1912
200.757	2890
200.825	2283
200.893	2156
200.962	2636
201.030	2369
201.098	2306
201.167	2683
201.235	2017
201.303	1845
201.372	3170
201.440	2406
201.508	3555
201.577	3015
201.645	2419
201.713	2546
201.781	3230
201.850	3186
201.918	2815
201.986	1959
202.055	2319
202.123	2186
202.191	2187
202.259	1819
202.327	1478
202.396	1989
202.464	2798
202.532	5959
202.600	11494
202.669	4280
202.737	2150
202.805	2148
202.873	2755
202.941	3128
203.009	2238
203.078	2586
203.146	2565
203.214	2148
203.282	1841
203.350	2658
203.418	2677
203.487	2584
203.555	2513
203.623	2702
203.691	2128
203.759	1753
203.827	2854
203.895	2477
203.963	2947
204.031	2926
204.099	2519
204.168	2703
204.236	2259
204.304	3143
204.372	3309
204.440	2453
204.508	1976
204.576	1982
204.644	2241
204.712	2199
204.780	2419
204.848	2396
204.916	2627
204.984	2456
205.052	2507
205.120	3098
205.188	2946
205.256	2341
205.324	2390
205.392	2400
205.460	2968
205.528	2475
205.596	2160
205.664	2819
205.732	3949
205.799	15709
205.867	9848
205.935	2905
206.003	2909
206.071	2884
206.139	3296
206.207	3822
206.275	2891
206.343	3306
206.411	2810
206.478	2872
206.546	3641
206.614	3094
206.682	3204
206.750	3231
206.818	4488
206.885	3343
206.953	2585
207.021	3348
207.089	3550
207.157	3226
207.225	2936
207.292	2240
207.360	2943
207.428	2265
207.496	3110
207.563	2699
207.631	3223
207.699	2098
207.767	3709
207.834	3191
207.902	3740
207.970	2808
208.038	3113
208.105	3263
208.173	4274
208.241	5059
208.309	4802
208.376	5558
208.444	8464
208.512	4033
208.579	3305
208.647	4540
208.715	3350
208.782	3795
208.850	4045
208.918	4158
208.985	3648
209.053	4317
209.120	3504
209.188	3393
209.256	3056
209.323	4919
209.391	5352
209.459	3412
209.526	2986
209.594	3298
209.661	3060
209.729	3835
209.796	3333
209.864	4305
209.932	3701
209.999	4290
210.067	4743
210.134	4145
210.202	5131
210.269	5541
210.337	5011
210.404	3821
210.472	3587
210.539	3941
210.607	5286
210.674	4960
210.742	4537
210.809	4208
210.877	6039
210.944	5073
211.012	5075
211.079	4273
211.146	4270
211.214	4478
211.281	6251
211.349	4748
211.416	4858
211.484	5294
211.551	4384
211.618	4333
211.686	4241
211.753	4599
211.821	4576
211.888	4303
211.955	5016
212.023	3693
212.090	4769
212.157	4924
212.225	6090
212.292	11659
212.359	27409
212.427	37749
212.494	13893
212.561	6857
212.629	6539
212.696	6206
212.763	5316
212.831	5169
212.898	4676
212.965	4734
213.032	5058
213.100	5854
213.167	6581
213.234	5310
213.301	4595
213.369	4563
213.436	4537
213.503	4580
213.570	5984
213.638	6369
213.705	4185
213.772	4509
213.839	8479
213.906	5944
213.973	6494
214.041	4381
214.108	5264
214.175	4824
214.242	4787
214.309	3825
214.376	5424
214.444	5055
214.511	7265
214.578	4843
214.645	5911
214.712	6281
214.779	5301
214.846	5879
214.913	6097
214.980	6624
215.048	7393
215.115	7667
215.182	7091
215.249	5498
215.316	5218
215.383	4728
215.450	4933
215.517	5127
215.584	4642
215.651	4171
215.718	5400
215.785	5868
215.852	7062
215.919	7777
215.986	5754
216.053	4538
216.120	5310
216.187	6069
216.254	5174
216.321	5685
216.388	6528
216.455	6558
216.522	6666
216.589	8519
216.656	15111
216.722	9484
216.789	8415
216.856	7650
216.923	6489
216.990	6986
217.057	7480
217.124	8297
217.191	9177
217.258	10833
217.324	12417
217.391	10634
217.458	8982
217.525	6323
217.592	6277
217.659	7096
217.725	6390
217.792	11830
217.859	6829
217.926	4653
217.993	4313
218.059	4226
218.126	5093
218.193	4321
218.260	4142
218.327	4218
218.393	4755
218.460	3556
218.527	2872
218.594	6367
218.660	12371
218.727	9678
218.794	4556
218.860	4760
218.927	3119
218.994	3073
219.061	5305
219.127	7753
219.194	8653
219.261	3876
219.327	4233
219.394	2810
219.461	2743
219.527	3802
219.594	7444
219.661	4163
219.727	3976
219.794	3814
219.860	3834
219.927	5029
219.994	10240
220.060	13299
220.127	6897
220.193	5871
220.260	7047
220.326	10046
220.393	17311
220.460	16286
220.526	10931
220.593	7577
220.659	7788
220.726	11904
220.792	23870
220.859	19252
220.925	27361
220.992	28580
221.058	32130
221.125	26011
221.191	17964
221.258	7989
221.324	6985
221.391	5528
221.457	5484
221.524	5370
221.590	11970
221.657	27790
221.723	13030
221.789	18976
221.856	11520
221.922	6712
221.989	5099
222.055	5019
222.121	4550
222.188	5408
222.254	4419
222.321	4243
222.387	2831
222.453	2565
222.520	3924
222.586	3117
222.652	3778
222.719	4202
222.785	4022
222.851	3289
222.918	2839
222.984	4976
223.050	4640
223.116	4137
223.183	3284
223.249	2845
223.315	2732
223.382	3327
223.448	3117
223.514	3092
223.580	2464
223.647	3154
223.713	2544
223.779	2194
223.845	3679
223.911	2691
223.978	2211
224.044	3327
224.110	2621
224.176	2581
224.242	2967
224.309	2690
224.375	2877
224.441	3155
224.507	3307
224.573	3459
224.639	3394
224.705	1994
224.772	2339
224.838	3118
224.904	4338
224.970	3115
225.036	3767
225.102	4150
225.168	3996
225.234	3351
225.300	4627
225.366	3166
225.432	2393
225.499	3269
225.565	4514
225.631	3957
225.697	4228
225.763	5258
225.829	6054
225.895	8029
225.961	11665
226.027	9081
226.093	8729
226.159	9524
226.225	17344
226.291	41407
226.357	41624
226.423	20641
226.489	13721
226.554	9827
226.620	9791
226.686	15835
226.752	21479
226.818	38933
226.884	67288
226.950	38845
227.016	17784
227.082	12261
227.148	10443
227.214	10357
227.279	8391
227.345	7144
227.411	6969
227.477	8984
227.543	16108
227.609	13860
227.674	8479
227.740	6127
227.806	5730
227.872	4476
227.938	8308
228.003	9434
228.069	4860
228.135	4085
228.201	4496
228.267	5081
228.332	7395
228.398	9293
228.464	4613
228.530	3346
228.595	3360
228.661	5984
228.727	10706
228.792	5736
228.858	4952
228.924	5744
228.990	6944
229.055	8148
229.121	6047
229.187	4468
229.252	5938
229.318	3730
229.384	6169
229.449	6389
229.515	3208
229.581	1902
229.646	4602
229.712	6168
229.777	19116
229.843	10476
229.909	10038
229.974	10264
230.040	7847
230.105	6730
230.171	7890
230.236	11503
230.302	16162
230.368	9607
230.433	6314
230.499	5805
230.564	6727
230.630	4751
230.695	3360
230.761	4792
230.826	5707
230.892	8352
230.957	4968
231.023	3134
231.088	5171
231.154	3085
231.219	5270
231.284	10461
231.350	7098
231.415	4005
231.481	2739
231.546	4009
231.612	3394
231.677	2511
231.742	4156
231.808	3276
231.873	3719
231.939	3546
232.004	10932
232.069	5878
232.135	5375
232.200	4304
232.265	3282
232.331	2583
232.396	3052
232.461	2722
232.527	3285
232.592	4442
232.657	5850
232.723	12757
232.788	5295
232.853	3372
232.918	3310
232.984	3070
233.049	5231
233.114	12079
233.179	7449
233.245	20383
233.310	11008
233.375	3997
233.440	4422
233.506	4412
233.571	3489
233.636	3395
233.701	5096
233.766	16205
233.832	10038
233.897	7017
233.962	7914
234.027	7159
234.092	5746
234.157	6401
234.222	7081
234.288	18281
234.353	36401
234.418	26992
234.483	14297
234.548	9574
234.613	7915
234.678	8179
234.743	16827
234.808	39097
234.873	15439
234.938	7601
235.004	7344
235.069	6842
235.134	6618
235.199	5273
235.264	4543
235.329	5314
235.394	5881
235.459	9358
235.524	8187
235.589	5094
235.654	5090
235.719	4324
235.784	4232
235.849	11704
235.913	19452
235.978	28280
236.043	17419
236.108	8587
236.173	10679
236.238	7585
236.303	5692
236.368	6873
236.433	18745
236.498	19596
236.563	13481
236.627	39682
236.692	88111
236.757	44357
236.822	27430
236.887	20568
236.952	13423
237.017	15176
237.081	14690
237.146	22214
237.211	43194
237.276	106529
237.341	112412
237.405	46029
237.470	26269
237.535	17698
237.600	10381
237.664	8729
237.729	8383
237.794	17069
237.859	22310
237.923	16933
237.988	11438
238.053	19882
238.118	19299
238.182	54177
238.247	26014
238.312	22418
238.376	13740
238.441	12773
238.506	8384
238.570	6184
238.635	6000
238.700	6192
238.764	7186
238.829	29232
238.893	16708
238.958	12467
239.023	8400
239.087	7133
239.152	7553
239.216	5875
239.281	5157
239.346	5057
239.410	5455
239.475	15287
239.539	53178
239.604	20326
239.668	8556
239.733	6046
239.797	12941
239.862	29624
239.926	29712
239.991	10163
240.055	7453
240.120	7255
240.184	6780
240.249	6221
240.313	5880
240.378	9942
240.442	39760
240.507	28410
240.571	11968
240.635	29390
240.700	17874
240.764	8145
240.829	6036
240.893	5239
240.957	7639
241.022	36672
241.086	38519
241.151	14015
241.215	7353
241.279	18373
241.344	18920
241.408	8865
241.472	7803
241.537	7306
241.601	7317
241.665	5737
241.730	6493
241.794	7861
241.858	6707
241.922	6119
241.987	6760
242.051	5497
242.115	6862
242.179	5858
242.244	5596
242.308	5792
242.372	10472
242.436	10171
242.501	7792
242.565	6593
242.629	5815
242.693	5725
242.757	5879
242.822	6591
242.886	7604
242.950	7737
243.014	7990
243.078	10587
243.142	8109
243.206	9075
243.271	8994
243.335	9413
243.399	17741
243.463	93205
243.527	95831
243.591	28491
243.655	14193
243.719	10299
243.783	11398
243.847	22444
243.911	24370
243.975	34000
244.040	15604
244.104	8680
244.168	8800
244.232	21341
244.296	20881
244.360	19077
244.424	13213
244.488	9622
244.552	9356
244.615	7598
244.679	6833
244.743	13995
244.807	8846
244.871	6234
244.935	5550
244.999	7335
245.063	7314
245.127	9525
245.191	18393
245.255	11512
245.319	14593
245.383	9533
245.446	8186
245.510	7741
245.574	8792
245.638	8060
245.702	15903
245.766	21858
245.829	12558
245.893	10456
245.957	8165
246.021	9380
246.085	11313
246.149	17098
246.212	43060
246.276	37502
246.340	18957
246.404	12654
246.467	22348
246.531	21130
246.595	13138
246.659	14161
246.722	14584
246.786	14609
246.850	22148
246.913	17215
246.977	9807
247.041	11593
247.104	10738
247.168	14237
247.232	44616
247.295	57764
247.359	20087
247.423	19407
247.486	24495
247.550	13674
247.614	15084
247.677	15950
247.741	9945
247.804	10241
247.868	13070
247.932	45424
247.995	44648
248.059	15662
248.122	10856
248.186	16134
248.249	43379
248.313	114208
248.376	82688
248.440	47052
248.503	19429
248.567	20443
248.630	33973
248.694	38181
248.757	67772
248.821	91776
248.884	46147
248.948	69038
249.011	84235
249.075	125138
249.138	69709
249.202	31446
249.265	28478
249.328	32516
249.392	21789
249.455	15035
249.519	14272
249.582	22449
249.645	31909
249.709	18759
249.772	17544
249.835	17592
249.899	17947
249.962	12870
250.025	15775
250.089	52487
250.152	38293
250.215	21478
250.279	18884
250.342	18679
250.405	15385
250.468	16132
250.532	23477
250.595	43632
250.658	175134
250.721	125870
250.785	53791
250.848	28800
250.911	19962
250.974	17937
251.038	44590
251.101	47908
251.164	31189
251.227	31626
251.290	26670
251.354	63147
251.417	193183
251.480	106581
251.543	154507
251.606	289996
251.669	138753
251.732	75141
251.795	86647
251.859	108505
251.922	175326
251.985	65526
252.048	34768
252.111	28990
252.174	32219
252.237	83419
252.300	109036
252.363	178367
252.426	188326
252.489	78049
252.552	49588
252.615	36313
252.678	49788
252.741	93003
252.804	163961
252.867	207554
252.930	118772
252.993	65818
253.056	45160
253.119	32169
253.182	32827
253.245	46541
253.308	33803
253.371	39874
253.434	32415
253.497	38701
253.559	58891
253.622	39608
253.685	66610
253.748	41337
253.811	26679
253.874	42020
253.937	29215
254.000	24344
254.062	59479
254.125	50274
254.188	65618
254.251	33349
254.314	28809
254.376	55778
254.439	43980
254.502	36842
254.565	62129
254.628	63028
254.690	38466
254.753	22680
254.816	22810
254.878	26823
254.941	58217
255.004	31594
255.067	24173
255.129	18741
255.192	11665
255.255	13965
255.317	14378
255.380	9678
255.443	8273
255.505	9716
255.568	10844
255.631	10711
255.693	10397
255.756	8563
255.819	9323
255.881	7662
255.944	7957
256.006	9267
256.069	8378
256.132	8446
256.194	23584
256.257	39950
256.319	33191
256.382	20563
256.444	12780
256.507	8811
256.569	8845
256.632	13325
256.694	22941
256.757	77688
256.819	98344
256.882	33711
256.944	19130
257.007	19117
257.069	19355
257.132	11620
257.194	10374
257.257	11878
257.319	10164
257.381	15059
257.444	55858
257.506	174090
257.569	122697
257.631	72629
257.693	35055
257.756	24838
257.818	19060
257.880	11183
257.943	10974
258.005	9370
258.067	9628
258.130	9916
258.192	20611
258.254	32547
258.317	12326
258.379	15110
258.441	42850
258.503	22955
258.566	69559
258.628	33244
258.690	12406
258.753	19280
258.815	25688
258.877	12249
258.939	8806
259.001	8222
259.064	9577
259.126	20818
259.188	16323
259.250	13943
259.312	25806
259.375	52067
259.437	18683
259.499	11579
259.561	11215
259.623	11920
259.685	9340
259.747	13452
259.809	69789
259.872	69044
259.934	138599
259.996	60487
260.058	20469
260.120	12432
260.182	9090
260.244	8506
260.306	7240
260.368	8697
260.430	10554
260.492	28693
260.554	48863
260.616	30793
260.678	91694
260.740	50427
260.802	18066
260.864	15246
260.926	12430
260.988	11248
261.050	14929
261.112	46466
261.174	95319
261.236	35809
261.298	19101
261.359	58399
261.421	32283
261.483	12752
261.545	10793
261.607	8150
261.669	10174
261.731	44416
261.793	48874
261.854	18544
261.916	13988
261.978	15156
262.040	13471
262.102	13207
262.164	28353
262.225	12323
262.287	14195
262.349	35107
262.411	15361
262.472	10429
262.534	48541
262.596	38945
262.658	13577
262.719	10757
262.781	31770
262.843	47836
262.904	16414
262.966	15456
263.028	25010
263.090	174708
263.151	157584
263.213	53063
263.275	28372
263.336	13529
263.398	10715
263.459	8532
263.521	14311
263.583	28815
263.644	12512
263.706	7185
263.767	6732
263.829	5475
263.891	5346
263.952	5623
264.014	6494
264.075	22429
264.137	25069
264.198	10792
264.260	5763
264.321	7669
264.383	40418
264.444	35629
264.506	11286
264.567	9356
264.629	32462
264.690	28494
264.752	13888
264.813	8695
264.875	7876
264.936	8221
264.998	6476
265.059	5877
265.120	7819
265.182	21166
265.243	80019
265.305	32840
265.366	12085
265.427	8798
265.489	6850
265.550	6457
265.611	10736
265.673	8243
265.734	6002
265.795	5111
265.857	6435
265.918	7407
265.979	34897
266.040	120015
266.102	43602
266.163	22070
266.224	17170
266.286	10634
266.347	7635
266.408	9202
266.469	10348
266.530	6785
266.592	8220
266.653	28752
266.714	21941
266.775	8390
266.836	6156
266.898	8695
266.959	12450
267.020	6532
267.081	5639
267.142	5014
267.203	6092
267.264	5290
267.326	7756
267.387	6571
267.448	5703
267.509	6460
267.570	5833
267.631	5053
267.692	4829
267.753	5813
267.814	5612
267.875	30541
267.936	28084
267.997	18433
268.058	13086
268.119	8845
268.180	8946
268.241	6243
268.302	6172
268.363	6361
268.424	8180
268.485	7773
268.546	5232
268.607	3994
268.668	4706
268.729	5020
268.790	6865
268.851	9051
268.912	32626
268.972	22237
269.033	10859
269.094	5489
269.155	5889
269.216	5831
269.277	8289
269.338	5098
269.398	7181
269.459	10058
269.520	13411
269.581	19002
269.642	17481
269.702	11884
269.763	8427
269.824	7760
269.885	16405
269.945	12789
270.006	6555
270.067	6061
270.128	5481
270.188	5596
270.249	5534
270.310	4149
270.370	7664
270.431	6874
270.492	4792
270.553	8845
270.613	27638
270.674	31020
270.734	11172
270.795	9320
270.856	16215
270.916	8354
270.977	7907
271.038	10804
271.098	9465
271.159	22852
271.219	11577
271.280	6643
271.340	6803
271.401	20027
271.462	28128
271.522	12748
271.583	9769
271.643	9101
271.704	7982
271.764	12177
271.825	40119
271.885	120824
271.946	73152
272.006	30487
272.066	80835
272.127	57853
272.187	18179
272.248	14109
272.308	29601
272.369	59602
272.429	21661
272.489	33808
272.550	21779
272.610	29859
272.671	15643
272.731	36495
272.791	32679
272.852	17770
272.912	13886
272.972	8516
273.033	14290
273.093	20835
273.153	13346
273.214	9785
273.274	15733
273.334	79557
273.394	66411
273.455	29170
273.515	57942
273.575	62889
273.635	26910
273.696	73524
273.756	66938
273.816	23814
273.876	20353
273.936	86145
273.997	54899
274.057	17501
274.117	16572
274.177	44224
274.237	128097
274.297	78400
274.358	67538
274.418	73590
274.478	37404
274.538	17718
274.598	33496
274.658	100986
274.718	74038
274.778	23016
274.838	17911
274.898	92603
274.958	117652
275.018	92189
275.078	39003
275.138	20495
275.198	12985
275.258	11304
275.318	21789
275.378	32505
275.438	22975
275.498	20656
275.558	95182
275.618	98131
275.678	42872
275.738	39610
275.798	23922
275.858	11807
275.918	9310
275.978	13571
276.038	9420
276.098	9703
276.157	43585
276.217	51632
276.277	23184
276.337	17135
276.397	12994
276.457	13358
276.517	8704
276.576	7566
276.636	9914
276.696	21545
276.756	45957
276.815	17832
276.875	14919
276.935	17707
276.995	10094
277.055	8143
277.114	8073
277.174	30216
277.234	42120
277.293	15398
277.353	11349
277.413	8802
277.472	12006
277.532	9159
277.592	14783
277.651	79209
277.711	47956
277.771	40855
277.830	113775
277.890	44021
277.950	103836
278.009	116422
278.069	36829
278.128	82291
278.188	52032
278.248	46561
278.307	93470
278.367	31669
278.426	17196
278.486	11691
278.545	9823
278.605	9228
278.664	8645
278.724	11769
278.783	66172
278.843	59749
278.902	18811
278.962	18326
279.021	19147
279.081	32683
279.140	22564
279.199	18746
279.259	17797
279.318	17930
279.378	25112
279.437	68420
279.496	239526
279.556	468949
279.615	197969
279.675	75510
279.734	58711
279.793	117622
279.853	88592
279.912	31311
279.971	22988
280.031	22805
280.090	68262
280.149	57243
280.208	113618
280.268	374221
280.327	165532
280.386	60295
280.445	61668
280.505	34160
280.564	21718
280.623	17489
280.682	42712
280.742	28266
280.801	12942
280.860	11134
280.919	10869
280.978	10241
281.037	11160
281.097	9086
281.156	9046
281.215	8809
281.274	22258
281.333	68802
281.392	22177
281.451	9338
281.510	8869
281.569	8768
281.628	6993
281.688	8174
281.747	11185
281.806	9059
281.865	7169
281.924	8360
281.983	7064
282.042	5785
282.101	5955
282.160	6345
282.219	5643
282.278	14374
282.337	35650
282.396	12178
282.454	9009
282.513	23620
282.572	48312
282.631	14691
282.690	9270
282.749	9745
282.808	10993
282.867	12264
282.926	7939
282.985	5776
283.043	5813
283.102	6437
283.161	11481
283.220	46342
283.279	36879
283.338	11281
283.396	10375
283.455	9612
283.514	12872
283.573	16010
283.631	10387
283.690	8758
283.749	9665
283.808	28807
283.866	15280
283.925	8541
283.984	9242
284.043	15280
284.101	11322
284.160	11471
284.219	13422
284.277	11018
284.336	33115
284.395	73865
284.453	29139
284.512	20400
284.570	25938
284.629	16979
284.688	18883
284.746	20016
284.805	24009
284.863	32362
284.922	35935
284.981	42427
285.039	62797
285.098	132099
285.156	348010
285.215	476379
285.273	381361
285.332	195893
285.390	111797
285.449	69692
285.507	47570
285.566	34809
285.624	26420
285.683	21014
285.741	17867
285.799	17334
285.858	15351
285.916	13573
285.975	11039
286.033	9507
286.091	9906
286.150	8282
286.208	10315
286.267	11401
286.325	14451
286.383	19405
286.442	11079
286.500	7903
286.558	7408
286.616	8020
286.675	12136
286.733	9344
286.791	9209
286.850	11861
286.908	22350
286.966	18841
287.024	8880
287.083	7977
287.141	6705
287.199	9987
287.257	13079
287.315	8413
287.374	15821
287.432	26568
287.490	12464
287.548	10928
287.606	8213
287.664	9013
287.723	18642
287.781	13191
287.839	10439
287.897	12060
287.955	13499
288.013	20737
288.071	71115
288.129	370310
288.187	425354
288.245	136457
288.303	61385
288.361	39968
288.419	30284
288.477	18322
288.535	13272
288.593	10015
288.651	8480
288.709	6420
288.767	8127
288.825	6772
288.883	7445
288.941	6748
288.999	7088
289.057	5495
289.115	6386
289.173	7381
289.231	6714
289.289	7571
289.346	6435
289.404	10390
289.462	18345
289.520	12415
289.578	5931
289.636	4807
289.694	4289
289.751	4422
289.809	5598
289.867	5186
289.925	9976
289.983	6879
290.040	4758
290.098	5647
290.156	8749
290.214	8494
290.271	5480
290.329	3977
290.387	4578
290.444	3998
290.502	3135
290.560	3956
290.617	5392
290.675	4957
290.733	6218
290.790	5455
290.848	4875
290.906	6619
290.963	6296
291.021	5842
291.078	4405
291.136	7944
291.194	46410
291.251	35086
291.309	10076
291.366	6390
291.424	6626
291.481	6331
291.539	6941
291.596	5095
291.654	3596
291.711	4223
291.769	12066
291.826	16089
291.884	6824
291.941	5507
291.999	6106
292.056	8852
292.114	6618
292.171	5080
292.228	6439
292.286	11206
292.343	21500
292.401	18995
292.458	9758
292.515	9526
292.573	10518
292.630	11075
292.687	9966
292.745	7404
292.802	15715
292.859	42170
292.917	52343
292.974	18065
293.031	9191
293.089	7018
293.146	6073
293.203	4678
293.260	6787
293.318	12799
293.375	10753
293.432	5591
293.489	5259
293.546	4981
293.604	14482
293.661	66443
293.718	72492
293.775	28557
293.832	18573
293.889	19124
293.947	18474
294.004	10117
294.061	12810
294.118	37181
294.175	56923
294.232	41661
294.289	15347
294.346	11528
294.403	11636
294.460	11562
294.517	8441
294.574	6233
294.631	5427
294.688	8759
294.745	51822
294.802	113331
294.859	63023
294.916	34515
294.973	21995
295.030	19168
295.087	12354
295.144	9189
295.201	7339
295.258	6549
295.315	14934
295.372	65014
295.429	50120
295.486	18940
295.542	17858
295.599	59494
295.656	48035
295.713	60534
295.770	46443
295.827	16478
295.883	11671
295.940	15387
295.997	25031
296.054	13975
296.111	8282
296.167	7160
296.224	5630
296.281	5318
296.338	4821
296.394	5131
296.451	12389
296.508	48480
296.564	41113
296.621	38428
296.678	109379
296.734	68047
296.791	24232
296.848	16977
296.904	28301
296.961	59639
297.018	78233
297.074	32402
297.131	14797
297.187	12869
297.244	30629
297.301	125383
297.357	88557
297.414	27872
297.470	15723
297.527	11325
297.583	11567
297.640	9856
297.696	7193
297.753	6736
297.809	5168
297.866	4768
297.922	5429
297.979	4695
298.035	8416
298.092	22945
298.148	51598
298.204	24222
298.261	17092
298.317	62448
298.374	81278
298.430	33193
298.486	25479
298.543	18105
298.599	13754
298.656	14856
298.712	47552
298.768	72781
298.824	28293
298.881	13476
298.937	10186
298.993	11102
299.050	13796
299.106	9436
299.162	9571
299.218	7678
299.275	5828
299.331	8507
299.387	38223
299.443	97949
299.500	50021
299.556	21163
299.612	15004
299.668	14034
299.724	17293
299.780	11914
299.837	9651
299.893	31858
299.949	85439
300.005	55506
300.061	91453
300.117	87333
300.173	32919
300.229	24482
300.285	35218
300.341	24145
300.397	13277
300.453	8311
300.510	8316
300.566	8337
300.622	14667
300.678	49532
300.734	61950
300.790	74931
300.845	60531
300.901	53298
300.957	72116
301.013	32055
301.069	16457
301.125	17732
301.181	15033
301.237	10194
301.293	7447
301.349	5509
301.405	6301
301.461	6672
301.516	7097
301.572	14351
301.628	19723
301.684	18532
301.740	40969
301.796	33233
301.851	34068
301.907	48551
301.963	41285
302.019	140773
302.074	241169
302.130	145419
302.186	56477
302.242	29909
302.297	22453
302.353	32479
302.409	45820
302.464	25022
302.520	46141
302.576	100073
302.631	71955
302.687	33796
302.743	17020
302.798	11767
302.854	9299
302.910	10504
302.965	19682
303.021	26347
303.076	25710
303.132	39951
303.187	29148
303.243	14058
303.299	10524
303.354	7547
303.410	8498
303.465	7037
303.521	6436
303.576	6711
303.632	10585
303.687	42942
303.743	76526
303.798	37450
303.853	16137
303.909	11460
303.964	12723
304.020	24889
304.075	23595
304.130	32099
304.186	49071
304.241	42411
304.297	27976
304.352	15444
304.358	15080
304.407	12081
304.449	12378
304.463	12495
304.518	11667
304.539	10912
304.573	9643
304.629	11349
304.630	11710
304.684	28372
304.720	61176
304.739	78257
304.794	62321
304.811	53651
304.850	29763
304.902	15846
304.905	15102
304.960	13892
304.992	13802
305.015	13864
305.071	11121
305.083	10654
305.126	8549
305.173	6992
305.181	6793
305.236	6971
305.264	8254
305.292	9830
305.347	11620
305.354	11632
305.402	11447
305.445	14057
305.457	14933
305.512	18095
305.535	17667
305.567	16222
305.622	17073
305.626	18589
305.678	49918
305.716	86287
305.733	100979
305.788	78988
305.807	77885
305.843	69129
305.897	89196
305.898	89558
305.953	62127
305.988	47613
306.008	37310
306.063	22565
306.078	19297
306.118	14942
306.168	11110
306.173	10845
306.228	9689
306.259	9062
306.283	8801
306.338	8856
306.349	9372
306.393	12465
306.440	13652
306.448	13615
306.503	12109
306.530	16048
306.558	26320
306.613	59380
306.620	62978
306.668	85203
306.711	101954
306.723	102012
306.778	67516
306.801	56477
306.833	39697
306.888	18928
306.892	17687
306.943	14330
306.982	12717
306.997	12558
307.052	11616
307.072	12136
307.107	15004
307.162	22920
307.163	23016
307.217	39846
307.253	51037
307.272	54378
307.327	52715
307.343	51101
307.381	38416
307.434	29898
307.436	31147
307.491	76587
307.524	102235
307.546	110902
307.600	98376
307.614	94417
307.655	57439
307.704	24832
307.710	24858
307.765	31205
307.795	43408
307.819	64503
307.874	99538
307.885	102337
307.929	69624
307.975	42852
307.984	43116
308.038	51413
308.065	61087
308.093	98705
308.148	224282
308.156	246165
308.202	444087
308.246	533607
308.257	497304
308.312	284921
308.336	204829
308.366	168778
308.421	104526
308.426	98531
308.475	63103
308.517	37712
308.530	35824
308.585	30677
308.607	29154
308.639	30263
308.694	35151
308.697	36092
308.748	82897
308.787	116097
308.803	118066
308.857	99629
308.877	95330
308.912	77283
308.967	53826
308.967	53365
309.021	67526
309.058	80832
309.076	101486
309.130	174979
309.148	206192
309.185	346126
309.238	588384
309.239	593328
309.293	716813
309.328	748312
309.348	637633
309.402	337397
309.418	256622
309.457	185517
309.508	100613
309.511	99754
309.566	87826
309.598	84542
309.620	99948
309.674	145020
309.688	154396
309.729	160987
309.778	159954
309.783	156100
309.837	108111
309.868	83149
309.892	89169
309.946	114848
309.959	121307
310.001	188487
310.049	250093
310.055	240910
310.109	146916
310.139	97914
310.163	79004
310.218	41367
310.229	34035
310.272	29415
310.319	24935
310.326	25013
310.381	25725
310.409	26025
310.435	24454
310.489	21439
310.499	20885
310.543	22555
310.589	24408
310.598	25037
310.652	28164
310.679	29430
310.706	25304
310.760	17003
310.769	15687
310.814	13839
310.859	12207
310.868	12315
310.923	12726
310.948	12997
310.977	15459
311.031	20318
311.038	20904
311.085	21811
311.128	22289
311.139	21738
311.193	18884
311.218	17452
311.247	16451
311.301	14509
311.308	14246
311.356	14702
311.398	15087
311.410	15084
311.464	14655
311.488	14466
311.518	14152
311.572	13704
311.578	13636
311.626	20989
311.668	27192
311.680	27509
311.734	28546
311.758	28956
311.788	29660
311.842	30611
311.847	30632
311.896	32768
311.937	34545
311.950	36612
312.004	45029
312.027	48547
312.058	40213
312.112	25080
312.117	23484
312.165	19794
312.207	16516
312.297	25308
312.386	26874
312.476	19909
312.566	46645
312.656	33142
312.745	14365
312.835	16516
312.925	20923
313.015	20114
313.104	27638
313.194	14698
313.284	16189
313.374	20475
313.463	25347
313.553	16113
313.643	15178
313.732	13151
313.822	12521
313.912	15758
314.001	20129
314.091	22576
314.180	33565
314.270	30032
314.360	33090
314.449	34313
314.539	19150
314.628	15294
314.718	18609
314.808	31391
314.897	19002
314.987	14947
315.076	21295
315.166	35133
315.255	34718
315.345	30937
315.434	34748
315.524	27754
315.613	37038
315.703	41150
315.792	59845
315.881	158106
315.971	114279
316.060	59225
316.150	101948
316.239	117099
316.328	60671
316.418	17030
316.507	19307
316.597	26728
316.686	30161
316.775	36633
316.865	119149
316.954	39188
317.043	14433
317.133	18051
317.222	18100
317.311	15754
317.400	18822
317.490	21418
317.579	37506
317.668	23904
317.757	35068
317.847	85932
317.936	291486
318.025	197882
318.114	77765
318.203	56480
318.293	41629
318.382	81046
318.471	74239
318.560	94127
318.649	167338
318.738	73606
318.828	27242
318.917	36907
319.006	35887
319.095	117038
319.184	204699
319.273	178543
319.362	101422
319.451	30924
319.540	26023
319.629	54642
319.718	123211
319.807	42980
319.896	65129
319.985	247626
320.074	176108
320.163	38024
320.252	66980
320.341	52797
320.430	47798
320.519	51988
320.608	45625
320.697	24797
320.786	26268
320.875	33711
320.964	45990
321.053	73724
321.142	104733
321.230	139474
321.319	77591
321.408	188763
321.497	118285
321.586	73616
321.675	98552
321.764	122971
321.852	66410
321.941	100427
322.030	99791
322.119	65507
322.207	201235
322.296	188731
322.385	85027
322.474	78684
322.562	211675
322.651	186247
322.740	78393
322.829	147800
322.917	159310
323.006	111212
323.095	68583
323.183	52938
323.272	69774
323.361	108990
323.449	361044
323.538	196817
323.626	227958
323.715	262884
323.804	58791
323.892	227027
323.981	230099
324.069	46053
324.158	107855
324.246	196794
324.335	43749
324.424	78819
324.512	35393
324.601	31588
324.689	68762
324.778	197975
324.866	143242
324.954	50823
325.043	24820
325.131	52246
325.220	120911
325.308	152047
325.397	95801
325.485	89281
325.574	19455
325.662	19036
325.750	23777
325.839	19653
325.927	14994
326.015	25038
326.104	41625
326.192	99795
326.280	25109
326.369	18864
326.457	27438
326.545	55561
326.634	39350
326.722	13396
326.810	17647
326.898	14473
326.987	16668
327.075	44986
327.163	75847
327.251	43157
327.340	42722
327.428	112192
327.516	25855
327.604	18361
327.692	23593
327.781	24272
327.869	58153
327.957	43653
328.045	33903
328.133	15865
328.221	25760
328.309	27079
328.397	16212
328.485	21954
328.574	28023
328.662	106300
328.750	112583
328.838	44147
328.926	20339
329.014	14449
329.102	22949
329.190	59275
329.278	68333
329.366	16341
329.454	11743
329.542	15073
329.630	12568
329.718	13435
329.806	20773
329.893	20288
329.981	21402
330.069	20198
330.157	66522
330.245	267244
330.333	213738
330.421	41506
330.509	29153
330.597	126932
330.684	148104
330.772	38716
330.860	45000
330.948	62554
331.036	38553
331.123	14120
331.211	12543
331.299	19314
331.387	32119
331.475	104058
331.562	44900
331.650	15122
331.738	19567
331.825	36246
331.913	18536
332.001	13221
332.089	18449
332.176	50288
332.264	115217
332.352	164366
332.439	38670
332.527	23228
332.614	19217
332.702	32693
332.790	19151
332.877	43826
332.965	154034
333.052	55886
333.140	27242
333.228	90537
333.315	40722
333.403	20015
333.490	64347
333.578	97161
333.665	79574
333.753	67884
333.840	22401
333.928	21484
334.015	67236
334.103	101234
334.190	289655
334.278	151761
334.365	38551
334.452	32713
334.540	21306
334.627	23907
334.715	44116
334.802	53037
334.889	331304
334.977	608251
335.064	82135
335.151	28037
335.239	25405
335.326	27945
335.413	80083
335.501	228675
335.588	44592
335.675	22959
335.762	23657
335.850	51724
335.937	33583
336.024	62817
336.111	374090
336.199	298045
336.286	44984
336.373	20908
336.460	16948
336.547	15430
336.635	22366
336.722	25703
336.809	17864
336.896	22775
336.983	67109
337.070	191709
337.157	287381
337.245	251312
337.332	321365
337.419	37608
337.506	18732
337.593	18794
337.680	39413
337.767	205094
337.854	88093
337.941	76228
338.028	117149
338.115	64496
338.202	30336
338.289	57638
338.376	282138
338.463	165538
338.550	82945
338.637	171389
338.724	46715
338.811	124093
338.898	34709
338.984	15101
339.071	20371
339.158	22291
339.245	66543
339.332	63219
339.419	50649
339.506	96335
339.593	17012
339.679	13376
339.766	15052
339.853	17465
339.940	55192
340.027	28839
340.113	15199
340.200	29217
340.287	26271
340.374	20986
340.460	53162
340.547	25391
340.634	25186
340.720	111350
340.807	135637
340.894	16764
340.980	16629
341.067	18660
341.154	17803
341.240	21388
341.327	76095
341.414	31382
341.500	24220
341.587	18759
341.674	12982
341.760	34883
341.847	69017
341.933	28379
342.020	10379
342.106	9441
342.193	13037
342.279	40433
342.366	25274
342.452	51202
342.539	32265
342.625	40788
342.712	152085
342.798	94932
342.885	38030
342.971	13053
343.058	10506
343.144	11465
343.230	14318
343.317	12451
343.403	14693
343.490	9112
343.576	10029
343.662	12575
343.749	17491
343.835	22755
343.921	26451
344.008	113354
344.094	483413
344.180	192638
344.267	45906
344.353	94471
344.439	211189
344.525	91342
344.612	38348
344.698	23647
344.784	24567
344.870	11790
344.957	13583
345.043	26919
345.129	19868
345.215	43221
345.301	33391
345.387	18950
345.474	10665
345.560	11924
345.646	20742
345.732	17474
345.818	17191
345.904	19083
345.990	21319
346.076	21639
346.162	50171
346.249	27882
346.335	13520
346.421	13246
346.507	29540
346.593	177928
346.679	92686
346.765	17924
346.851	14835
346.937	19980
347.023	13951
347.108	15792
347.194	20041
347.280	13520
347.366	16463
347.452	34403
347.538	185571
347.624	194465
347.710	188946
347.796	51247
347.882	16962
347.967	14856
348.053	21441
348.139	19885
348.225	14404
348.311	15393
348.397	13827
348.482	14432
348.568	26599
348.654	13692
348.740	12848
348.825	18448
348.911	21708
348.997	61771
349.083	229892
349.168	78435
349.254	16830
349.340	18216
349.425	13328
349.511	17846
349.597	27488
349.682	34398
349.768	121784
349.854	113222
349.939	19181
350.025	12161
350.110	13317
350.196	9916
350.282	11201
350.367	8760
350.453	23429
350.538	50151
350.624	22243
350.709	26569
350.795	13949
350.880	17189
350.966	15053
351.051	27843
351.137	38108
351.222	14638
351.308	27310
351.393	132656
351.479	62993
351.564	17048
351.649	14477
351.735	13426
351.820	9752
351.906	13189
351.991	18794
352.076	53721
352.162	158693
352.247	44351
352.332	19166
352.418	33422
352.503	42192
352.588	129014
352.673	238919
352.759	53628
352.844	27573
352.929	18508
353.014	37892
353.100	22217
353.185	30596
353.270	52450
353.355	76350
353.441	23430
353.526	21412
353.611	41009
353.696	78569
353.781	38348
353.866	24503
353.952	14107
354.037	34875
354.122	110991
354.207	120602
354.292	65229
354.377	18490
354.462	14892
354.547	21964
354.632	24020
354.717	25286
354.802	47867
354.887	27537
354.972	12554
355.057	11459
355.142	10992
355.227	15550
355.312	27212
355.397	61643
355.482	162967
355.567	147740
355.652	52568
355.737	72265
355.822	112826
355.907	206980
355.991	34658
356.076	17580
356.161	14698
356.246	13604
356.331	13650
356.416	23478
356.501	144260
356.585	359763
356.670	72433
356.755	27994
356.840	29438
356.924	103015
357.009	548907
357.094	441717
357.179	70529
357.263	53754
357.348	35761
357.433	51149
357.517	36815
357.602	37213
357.687	23964
357.771	25841
357.856	36629
357.941	33183
358.025	64808
358.110	444249
358.195	455302
358.279	72457
358.364	33438
358.448	78650
358.533	293913
358.617	310497
358.702	235189
358.787	147553
358.871	51849
358.956	58868
359.040	21716
359.125	13284
359.209	12990
359.294	16329
359.378	26691
359.462	39065
359.547	34643
359.631	24463
359.716	16686
359.800	15308
359.885	24295
359.969	25373
360.053	16577
360.138	16674
360.222	23421
360.306	50863
360.391	51646
360.475	33008
360.559	104453
360.644	121237
360.728	144044
360.812	75730
360.896	351693
360.981	234952
361.065	145182
361.149	38106
361.233	29867
361.318	25586
361.402	26492
361.486	26947
361.570	19829
361.654	22762
361.739	45820
361.823	160796
361.907	430549
361.991	138028
362.075	37280
362.159	101805
362.243	100598
362.327	56594
362.411	69784
362.495	50018
362.580	33344
362.664	17870
362.748	18242
362.832	19655
362.916	27092
363.000	63186
363.084	196075
363.168	476075
363.252	204848
363.336	51341
363.420	48841
363.503	116831
363.587	267417
363.671	72074
363.755	34121
363.839	53803
363.923	33116
364.007	40161
364.091	79526
364.175	57113
364.258	205647
364.342	252745
364.426	170212
364.510	137925
364.594	65930
364.677	56920
364.761	216922
364.845	343643
364.929	90990
365.013	99438
365.096	56676
365.180	92853
365.264	50718
365.347	217764
365.431	200204
365.515	50694
365.598	28708
365.682	19249
365.766	25354
365.849	55283
365.933	28593
366.017	34574
366.100	33340
366.184	16476
366.267	17175
366.351	16033
366.435	14459
366.518	14383
366.602	11023
366.685	13986
366.769	19612
366.852	25473
366.936	61249
367.019	53500
367.103	24678
367.186	50275
367.270	27425
367.353	12299
367.436	14084
367.520	14918
367.603	16590
367.687	29890
367.770	66966
367.853	45735
367.937	52087
368.020	180412
368.104	74969
368.187	38954
368.270	68869
368.353	61693
368.437	68876
368.520	192450
368.603	184161
368.687	85713
368.770	243823
368.853	106691
368.936	50907
369.020	71121
369.103	34677
369.186	16748
369.269	19201
369.352	29302
369.436	70105
369.519	48577
369.602	26422
369.685	17294
369.768	26921
369.851	22865
369.934	16304
370.018	17282
370.101	49511
370.184	53171
370.267	28922
370.350	37352
370.433	67918
370.516	115444
370.599	261523
370.682	119977
370.765	108198
370.848	152511
370.931	245264
371.014	186484
371.097	35188
371.180	23758
371.263	13163
371.346	10389
371.429	12612
371.511	14102
371.594	26778
371.677	50602
371.760	57944
371.843	42526
371.926	94204
372.009	427686
372.091	253258
372.174	84328
372.257	202407
372.340	159361
372.423	61967
372.505	106170
372.588	54612
372.671	48893
372.754	219281
372.836	225687
372.919	60587
373.002	179443
373.085	103849
373.167	42224
373.250	87556
373.332	209634
373.415	239709
373.498	580097
373.580	403096
373.663	196357
373.746	494544
373.828	180987
373.911	60160
373.993	44645
374.076	109571
374.159	221724
374.241	82491
374.324	174478
374.406	231367
374.489	100707
374.571	416483
374.654	353104
374.736	88180
374.819	222131
374.901	375360
374.983	546762
375.066	175817
375.148	35606
375.231	69173
375.313	257722
375.395	165734
375.478	42751
375.560	21117
375.643	24794
375.725	55815
375.807	277578
375.890	435166
375.972	267085
376.054	110774
376.136	166178
376.219	129681
376.301	57813
376.383	291841
376.465	237402
376.548	92543
376.630	106407
376.712	227656
376.794	244349
376.877	34834
376.959	14597
377.041	19961
377.123	27588
377.205	59690
377.287	21449
377.369	11247
377.452	15761
377.534	16548
377.616	14986
377.698	17224
377.780	13681
377.862	15360
377.944	17463
378.026	12878
378.108	10338
378.190	12305
378.272	12178
378.354	10140
378.436	9823
378.518	15646
378.600	70673
378.682	89463
378.764	111286
378.846	187050
378.928	48117
379.010	54581
379.091	44399
379.173	17129
379.255	15136
379.337	19423
379.419	43170
379.501	189591
379.583	167066
379.664	30404
379.746	47672
379.828	122987
379.910	206453
379.991	235752
380.073	71491
380.155	24014
380.237	25509
380.318	15046
380.400	16766
380.482	26794
380.564	74615
380.645	62859
380.727	74293
380.809	42327
380.890	27778
380.972	23298
381.053	19720
381.135	21680
381.217	32938
381.298	141879
381.380	139760
381.461	55418
381.543	163786
381.624	454579
381.706	151228
381.787	42136
381.869	43091
381.951	62107
382.032	337020
382.113	452041
382.195	125211
382.276	52733
382.358	67842
382.439	215587
382.521	265824
382.602	417300
382.684	292324
382.765	286987
382.846	481174
382.928	573226
383.009	536577
383.090	224491
383.172	540047
383.253	1393534
383.334	731138
383.416	401073
383.497	354659
383.578	133066
383.659	183895
383.741	457765
383.822	1552083
383.903	1483220
383.984	412143
384.066	461391
384.147	492122
384.228	137736
384.309	63288
384.390	64122
384.471	38648
384.553	39283
384.634	47741
384.715	69008
384.796	38917
384.877	31213
384.958	83344
385.039	213891
385.120	108514
385.201	36700
385.282	39848
385.363	46176
385.444	41727
385.525	41084
385.606	127236
385.687	232703
385.768	69247
385.849	48430
385.930	117595
386.011	367831
386.092	198554
386.173	40242
386.254	24857
386.335	26601
386.416	27138
386.496	52658
386.577	168725
386.658	101988
386.739	46759
386.820	39702
386.901	33974
386.981	31052
387.062	22038
387.143	24996
387.224	99564
387.304	193074
387.385	74919
387.466	42174
387.547	42688
387.627	36042
387.708	33515
387.789	153776
387.869	359341
387.950	170139
388.031	27349
388.111	20149
388.192	40161
388.273	79359
388.353	69327
388.434	32222
388.514	33904
388.595	126557
388.676	317443
388.756	218703
388.837	132201
388.917	156896
388.998	38305
389.078	22582
389.159	20896
389.239	21520
389.320	26225
389.400	36459
389.480	34526
389.561	125436
389.641	133054
389.722	30346
389.802	51372
389.883	53734
389.963	132753
390.043	181728
390.124	72927
390.204	38735
390.284	138268
390.365	185762
390.445	93844
390.525	284371
390.605	458011
390.686	175899
390.766	49407
390.846	25177
390.927	16309
391.007	19925
391.087	20790
391.167	22173
391.247	19729
391.328	30039
391.408	54286
391.488	48234
391.568	20861
391.648	21970
391.728	39222
391.808	35554
391.888	43506
391.969	51388
392.049	146519
392.129	96059
392.209	50270
392.289	139347
392.369	148330
392.449	78363
392.529	77001
392.609	50102
392.689	47979
392.769	111318
392.849	203260
392.929	92062
393.009	187295
393.089	260213
393.169	150682
393.248	283647
393.328	1080039
393.408	2038034
393.488	975213
393.568	250365
393.648	114193
393.728	69818
393.807	52846
393.887	43657
393.967	36341
394.047	39466
394.127	48794
394.206	59197
394.286	117895
394.366	525448
394.446	1178931
394.525	501803
394.605	106597
394.685	56189
394.764	86368
394.844	167225
394.924	194811
395.003	72702
395.083	40769
395.163	37744
395.242	31275
395.322	34272
395.402	27706
395.481	27941
395.561	45680
395.640	171796
395.720	210778
395.799	169170
395.879	240902
395.958	106698
396.038	168866
396.117	715896
396.197	1505315
396.276	747998
396.356	219636
396.435	125542
396.515	96182
396.594	83596
396.673	128707
396.753	269604
396.832	1079245
396.912	1579029
396.991	607266
397.070	143643
397.150	69033
397.229	46920
397.308	37963
397.388	63666
397.467	55322
397.546	26998
397.625	22289
397.705	26810
397.784	34017
397.863	27438
397.942	15738
398.022	15058
398.101	26959
398.180	144197
398.259	161345
398.338	45090
398.417	25094
398.497	21150
398.576	19148
398.655	17394
398.734	13727
398.813	11832
398.892	22937
398.971	138964
399.050	174557
399.129	31089
399.208	10865
399.287	10991
399.366	10162
399.445	10920
399.524	12422
399.603	12343
399.682	18011
399.761	48311
399.840	133772
399.919	230139
399.998	57522
400.077	13335
400.156	9676
400.235	13009
400.313	12555
400.392	14722
400.471	39516
400.550	150176
400.629	86996
400.708	22109
400.786	17742
400.865	30264
400.944	64102
401.023	39854
401.102	12136
401.180	7259
401.259	10284
401.338	12801
401.416	17924
401.495	22533
401.574	16474
401.652	12810
401.731	17034
401.810	22357
401.888	15950
401.967	7397
402.046	8027
402.124	11048
402.203	27430
402.281	20739
402.360	11547
402.438	36749
402.517	66377
402.596	22854
402.674	17192
402.753	13914
402.831	9813
402.910	10565
402.988	22919
403.066	126451
403.145	169662
403.223	46101
403.302	103748
403.380	134938
403.459	101888
403.537	77475
403.615	26943
403.694	12013
403.772	7557
403.850	6896
403.929	7354
404.007	8378
404.085	15572
404.164	32811
404.242	20829
404.320	10655
404.398	22318
404.477	44175
404.555	188788
404.633	438211
404.711	127358
404.789	23260
404.868	15442
404.946	14100
405.024	8512
405.102	6778
405.180	7066
405.258	8169
405.336	8950
405.415	8803
405.493	17845
405.571	30333
405.649	14580
405.727	7847
405.805	14229
405.883	16691
405.961	15752
406.039	21465
406.117	17360
406.195	14108
406.273	35828
406.351	207819
406.429	322160
406.507	70102
406.585	22348
406.663	12480
406.740	20455
406.818	23586
406.896	16939
406.974	10835
407.052	15467
407.130	80191
407.208	303897
407.285	139509
407.363	18006
407.441	13562
407.519	13305
407.596	11777
407.674	23036
407.752	67296
407.830	129322
407.907	68896
407.985	25824
408.063	13621
408.141	7229
408.218	10966
408.296	22636
408.373	18118
408.451	15368
408.529	17628
408.606	12304
408.684	6060
408.762	6012
408.839	3688
408.917	4501
408.994	4914
409.072	5958
409.149	6809
409.227	7653
409.304	13869
409.382	12443
409.459	10881
409.537	14152
409.614	19150
409.692	14521
409.769	11013
409.846	15670
409.924	20338
410.001	23486
410.079	18127
410.156	12015
410.233	10824
410.311	11197
410.388	9192
410.465	8563
410.543	12312
410.620	9480
410.697	7672
410.775	15789
410.852	11370
410.929	8438
411.006	17217
411.083	12475
411.161	14574
411.238	28880
411.315	21039
411.392	11123
411.469	9669
411.547	16337
411.624	10319
411.701	9306
411.778	8019
411.855	25198
411.932	32890
412.009	10977
412.086	8691
412.163	8180
412.240	14415
412.317	14843
412.394	18391
412.471	10216
412.548	5176
412.625	8013
412.702	8660
412.779	20750
412.856	22492
412.933	9992
413.010	6268
413.087	8336
413.164	32685
413.241	128831
413.318	70314
413.395	16718
413.471	24398
413.548	24134
413.625	7734
413.702	11617
413.779	15653
413.855	6249
413.932	3906
414.009	5343
414.086	5315
414.162	5952
414.239	8581
414.316	31419
414.393	148972
414.469	142603
414.546	19923
414.623	6471
414.699	5178
414.776	9865
414.853	10349
414.929	8732
415.006	9464
415.082	9838
415.159	12053
415.236	8259
415.312	7584
415.389	12658
415.465	31899
415.542	28012
415.618	9173
415.695	16819
415.771	17810
415.848	14137
415.924	10930
416.000	10875
416.077	6958
416.153	4399
416.230	3086
416.306	2570
416.383	6471
416.459	6715
416.535	3590
416.612	4249
416.688	5381
416.764	4306
416.841	6001
416.917	6992
416.993	7170
417.069	7670
417.146	13112
417.222	18225
417.298	17463
417.374	9913
417.451	7792
417.527	9775
417.603	18163
417.679	14496
417.755	9509
417.831	6980
417.908	4439
417.984	4465
418.060	4638
418.136	11616
418.212	39472
418.288	24807
418.364	7856
418.440	6493
418.516	13376
418.592	16920
418.668	29732
418.744	55224
418.820	63180
418.896	25570
418.972	7083
419.048	5768
419.124	13719
419.200	33235
419.276	12504
419.352	4491
419.428	3734
419.504	5642
419.579	13235
419.655	13231
419.731	8656
419.807	19236
419.883	61475
419.959	78830
420.034	26656
420.110	13826
420.186	55543
420.262	129469
420.337	36889
420.413	15027
420.489	11496
420.565	6107
420.640	5781
420.716	7599
420.792	7591
420.867	6787
420.943	7688
421.019	11985
421.094	21237
421.170	9905
421.245	5740
421.321	7188
421.397	8468
421.472	10766
421.548	33210
421.623	58041
421.699	21386
421.774	13870
421.850	13159
421.925	17378
422.001	29203
422.076	16757
422.152	14425
422.227	25027
422.302	33154
422.378	31812
422.453	54488
422.529	100529
422.604	265575
422.679	647833
422.755	696824
422.830	358210
422.905	115483
422.981	55460
423.056	35407
423.131	25015
423.207	19144
423.282	17232
423.357	30146
423.432	42325
423.508	20352
423.583	40431
423.658	72753
423.733	25273
423.808	16903
423.883	20549
423.959	22217
424.034	16992
424.109	11887
424.184	8826
424.259	6007
424.334	6622
424.409	5877
424.484	5206
424.559	8638
424.634	8555
424.709	9097
424.784	18827
424.859	13646
424.934	10334
425.009	37391
425.084	117486
425.159	103360
425.234	19526
425.309	5470
425.384	4592
425.459	7710
425.534	7119
425.609	6738
425.683	9206
425.758	5272
425.833	6686
425.908	9659
425.983	16382
426.058	97783
426.132	132372
426.207	26034
426.282	12275
426.357	21633
426.431	12342
426.506	6817
426.581	7204
426.655	8306
426.730	7529
426.805	7348
426.879	8066
426.954	7458
427.029	11739
427.103	43050
427.178	202968
427.253	245866
427.327	45321
427.402	11435
427.476	23241
427.551	23623
427.625	10101
427.700	11803
427.774	8088
427.849	9320
427.923	9501
427.998	6405
428.072	7493
428.147	13382
428.221	31522
428.296	133520
428.370	185815
428.444	40548
428.519	17869
428.593	32759
428.667	51792
428.742	37718
428.816	49399
428.890	54393
428.965	187840
429.039	128145
429.113	55228
429.188	44626
429.262	12367
429.336	9530
429.410	36930
429.485	65297
429.559	30009
429.633	44727
429.707	18334
429.781	13625
429.855	61926
429.930	225525
430.004	185916
430.078	156952
430.152	212536
430.226	155748
430.300	300309
430.374	128657
430.448	22475
430.522	23675
430.596	120031
430.670	183532
430.744	102396
430.818	361022
430.892	236031
430.966	30426
431.040	13137
431.114	7008
431.188	6284
431.262	7421
431.336	8474
431.410	10156
431.484	37164
431.557	70487
431.631	20570
431.705	7328
431.779	12110
431.853	73762
431.927	177458
432.000	52093
432.074	9074
432.148	7862
432.222	13031
432.295	8797
432.369	5478
432.443	8009
432.516	29260
432.590	186574
432.664	229200
432.737	38591
432.811	8391
432.885	4558
432.958	3591
433.032	3806
433.106	3512
433.179	2863
433.253	2511
433.326	3232
433.400	3320
433.473	1956
433.547	2279
433.620	2223
433.694	7279
433.767	18898
433.841	11461
433.914	4485
433.988	3121
434.061	3176
434.134	3876
434.208	3326
434.281	1814
434.355	2439
434.428	3360
434.501	3454
434.575	2607
434.648	4177
434.721	4099
434.795	3068
434.868	2768
434.941	2026
435.014	2604
435.088	2967
435.161	4210
435.234	7951
435.307	17328
435.381	14069
435.454	7583
435.527	7082
435.600	8234
435.673	8035
435.746	5392
435.819	5649
435.892	4919
435.966	4283
436.039	3353
436.112	4800
436.185	3127
436.258	2475
436.331	1554
436.404	1789
436.477	1390
436.550	1483
436.623	2083
436.696	2379
436.769	4007
436.842	6021
436.915	3594
436.987	8545
437.060	9427
437.133	3070
437.206	2014
437.279	3418
437.352	3285
437.425	2505
437.498	3071
437.570	7645
437.643	17739
437.716	8353
437.789	3131
437.861	4354
437.934	18781
438.007	29176
438.080	7124
438.152	5247
438.225	8175
438.298	30621
438.370	227411
438.443	305434
438.516	67604
438.588	19044
438.661	5069
438.734	4774
438.806	5188
438.879	9483
438.951	7148
439.024	13853
439.096	14462
439.169	5296
439.241	3513
439.314	2958
439.386	6455
439.459	12585
439.531	21863
439.604	22681
439.676	6133
439.749	3300
439.821	2146
439.893	2449
439.966	3475
440.038	6199
440.110	9076
440.183	7699
440.255	4438
440.327	5496
440.400	14529
440.472	108272
440.544	255187
440.617	69301
440.689	12610
440.761	12132
440.833	22067
440.905	28140
440.978	10464
441.050	3082
441.122	3480
441.194	3254
441.266	4075
441.338	4293
441.411	5230
441.483	23064
441.555	118022
441.627	76255
441.699	14488
441.771	16286
441.843	12420
441.915	4906
441.987	3361
442.059	3576
442.131	4442
442.203	8968
442.275	13441
442.347	16069
442.419	10813
442.491	22170
442.563	116529
442.635	159337
442.706	55261
442.778	67066
442.850	24684
442.922	6895
442.994	6191
443.066	11343
443.137	14576
443.209	9555
443.281	9313
443.353	15674
443.425	39180
443.496	159630
443.568	370180
443.640	231048
443.711	62651
443.783	15795
443.855	10034
443.926	7771
443.998	6670
444.070	9733
444.141	10335
444.213	10418
444.285	18792
444.356	17737
444.428	19994
444.499	12246
444.571	5466
444.642	3727
444.714	4408
444.785	10244
444.857	15773
444.928	24706
445.000	40702
445.071	18933
445.143	35761
445.214	27738
445.285	18388
445.357	45361
445.428	107043
445.500	341796
445.571	472456
445.642	248659
445.714	106853
445.785	73738
445.856	51338
445.928	19044
445.999	21261
446.070	14096
446.141	10834
446.213	17121
446.284	15229
446.355	10260
446.426	9881
446.497	7304
446.569	8721
446.640	19324
446.711	25888
446.782	11470
446.853	7196
446.924	16268
446.995	11984
447.066	7578
447.138	10804
447.209	16296
447.280	4992
447.351	3256
447.422	2170
447.493	4321
447.564	8158
447.635	13828
447.706	14875
447.777	4410
447.847	2556
447.918	2366
447.989	5189
448.060	8951
448.131	16310
448.202	31291
448.273	20601
448.344	14071
448.414	5683
448.485	5194
448.556	4049
448.627	2896
448.698	2277
448.768	1782
448.839	3243
448.910	6832
448.981	16889
449.051	9979
449.122	4495
449.193	2676
449.263	2515
449.334	3332
449.405	4235
449.475	12225
449.546	21474
449.616	11583
449.687	18457
449.758	8248
449.828	3843
449.899	3451
449.969	3179
450.040	3021
450.110	4281
450.181	10701
450.251	7278
450.322	3931
450.392	3416
450.463	4201
450.533	3406
450.604	3014
450.674	3120
450.744	4691
450.815	3517
450.885	3269
450.955	2710
451.026	2616
451.096	3279
451.166	5394
451.237	6487
451.307	27150
451.377	35955
451.447	9176
451.518	3692
451.588	2692
451.658	3955
451.728	4162
451.799	15752
451.869	56942
451.939	31034
452.009	5901
452.079	2864
452.149	3356
452.219	5616
452.289	20625
452.360	56532
452.430	21841
452.500	5842
452.570	8881
452.640	9519
452.710	15756
452.780	48062
452.850	46803
452.920	44072
452.990	27861
453.060	9093
453.129	8343
453.199	14398
453.269	16096
453.339	128299
453.409	240553
453.479	129039
453.549	206261
453.619	252817
453.688	223386
453.758	49814
453.828	8605
453.898	6339
453.968	5721
454.037	5182
454.087	4535
454.107	4258
454.168	4315
454.177	4309
454.247	3682
454.249	3694
454.316	3529
454.330	3622
454.386	3786
454.411	5828
454.456	8761
454.492	22230
454.525	34191
454.574	29228
454.595	27224
454.655	8970
454.665	6019
454.734	4776
454.736	4938
454.804	8709
454.817	10941
454.873	18574
454.898	31328
454.943	54226
454.979	46892
455.013	40739
455.060	24330
455.082	17169
455.141	8995
455.152	7390
455.221	12007
455.222	12506
455.291	41649
455.303	42525
455.360	47379
455.384	42161
455.430	31338
455.465	37260
455.499	43242
455.546	32908
455.569	27054
455.627	37402
455.638	39819
455.707	15101
455.708	15053
455.777	5158
455.789	5153
455.846	4900
455.869	4709
455.916	4334
455.950	3942
455.985	3589
456.031	4293
456.054	4498
456.112	4655
456.124	4775
456.193	4181
456.193	4161
456.262	4513
456.274	4770
456.332	5728
456.355	6673
456.401	7888
456.436	8747
456.470	9683
456.516	6263
456.540	4659
456.597	3265
456.609	2998
456.678	3282
456.678	3267
456.747	3251
456.759	3150
456.817	2553
456.840	2788
456.886	3248
456.920	3349
456.955	3631
457.001	3859
457.024	4087
457.082	4854
457.093	4978
457.162	7471
457.163	7517
457.232	11465
457.243	11927
457.301	13116
457.324	10087
457.370	5563
457.405	4745
457.439	3833
457.485	4127
457.508	4298
457.566	4405
457.577	4492
457.646	5369
457.647	5406
457.715	8178
457.727	8839
457.784	12992
457.808	14854
457.853	16515
457.889	22533
457.922	25545
457.969	23669
457.991	25653
458.050	23065
458.060	22667
458.129	28525
458.130	28980
458.198	34221
458.211	33948
458.267	34105
458.292	26339
458.336	16911
458.372	13269
458.405	12078
458.453	15494
458.474	18721
458.533	29651
458.543	30276
458.611	44730
458.614	45756
458.680	50723
458.694	44656
458.749	32593
458.775	24002
458.818	12041
458.855	9319
458.887	7288
458.936	6410
458.955	5996
459.016	6354
459.024	6376
459.093	6677
459.097	6637
459.162	6214
459.177	6355
459.230	6991
459.257	7606
459.299	7932
459.338	8349
459.368	8964
459.418	8730
459.437	8118
459.499	7411
459.505	7487
459.574	6797
459.579	6771
459.643	5861
459.659	5747
459.711	5844
459.740	5984
459.780	6160
459.820	6687
459.849	7118
459.900	7624
459.917	7561
459.981	7854
459.986	7888
460.054	7565
460.061	7541
460.123	7798
460.141	7906
460.191	9418
460.222	10420
460.260	11082
460.302	13000
460.328	12563
460.382	11766
460.397	12171
460.462	10029
460.465	10055
460.534	12394
460.543	12787
460.602	24507
460.623	28834
460.671	44534
460.703	56721
460.739	48195
460.783	47935
460.808	47480
460.864	23036
460.876	21395
460.944	8406
460.945	8253
461.013	6791
461.024	6888
461.081	7874
461.104	8279
461.150	7762
461.184	7584
461.218	7916
461.264	7066
461.286	6743
461.345	6380
461.355	6343
461.423	6852
461.425	6870
461.491	7778
461.505	7925
461.559	12910
461.585	15090
461.628	23347
461.665	31281
461.696	34574
461.745	45037
461.764	40193
461.825	26472
461.832	27526
461.901	12945
461.905	12667
461.969	8038
461.985	7743
462.037	7853
462.065	7779
462.105	8607
462.145	9482
462.173	12373
462.225	18211
462.241	20139
462.305	28259
462.310	27420
462.378	20212
462.385	18601
462.446	15136
462.465	12487
462.514	8321
462.545	8236
462.582	8049
462.625	7887
462.650	7845
462.705	7773
462.718	7843
462.785	8240
462.786	8299
462.854	11695
462.865	12290
462.922	15230
462.945	17059
462.990	14128
463.025	11040
463.058	10780
463.104	8299
463.126	7577
463.184	7015
463.194	7059
463.262	7919
463.264	7960
463.330	7805
463.344	7782
463.398	8476
463.424	8504
463.466	8509
463.504	8968
463.533	9334
463.583	9499
463.601	9687
463.663	10627
463.669	10981
463.737	14633
463.743	14992
463.805	21674
463.823	23926
463.873	35734
463.903	42231
463.940	43071
463.982	46514
464.008	38718
464.062	22304
464.076	22202
464.142	11508
464.144	11331
464.211	8547
464.221	8516
464.279	8824
464.301	9061
464.347	9646
464.381	10169
464.414	11539
464.461	13123
464.482	13357
464.540	14340
464.550	13965
464.617	11630
464.620	11494
464.685	12877
464.699	13272
464.753	15117
464.779	16232
464.820	17473
464.859	18469
464.888	18115
464.938	17249
464.956	17212
465.018	17113
465.023	16852
465.091	13703
465.098	13272
465.158	12403
465.177	12149
465.226	12747
465.257	13197
465.293	14041
465.336	15039
465.361	16106
465.416	18664
465.428	19845
465.495	25975
465.496	26106
465.563	41074
465.575	43501
465.631	52338
465.654	56750
465.698	36952
465.734	20478
465.765	19489
465.813	14601
465.833	13759
465.893	13268
465.900	13259
465.968	13721
465.972	13740
466.035	13679
466.052	13644
466.102	14126
466.131	14350
466.170	14936
466.210	15499
466.237	15352
466.290	15017
466.304	15268
466.369	16257
466.372	16326
466.439	17680
466.449	17842
466.506	20640
466.528	21658
466.573	27838
466.607	32431
466.641	45441
466.687	63451
466.708	70071
466.766	88108
466.775	81877
466.842	35170
466.845	32878
466.909	25830
466.925	24043
466.977	21873
467.004	21073
467.044	21297
467.083	21531
467.111	22813
467.163	25155
467.178	25911
467.242	28828
467.245	28754
467.312	26159
467.321	25770
467.379	25122
467.400	24817
467.446	25518
467.480	25946
467.559	23375
467.638	19616
467.717	20256
467.796	22386
467.875	26307
467.955	23994
468.034	33566
468.113	69429
468.192	103951
468.271	29890
468.350	20968
468.429	21937
468.508	23315
468.588	19411
468.667	19373
468.746	20703
468.825	19515
468.904	16880
468.983	20844
469.062	30099
469.141	35720
469.220	17299
469.299	16150
469.378	18732
469.456	21217
469.535	20789
469.614	19332
469.693	20824
469.772	25211
469.851	34040
469.930	25174
470.009	18522
470.088	19368
470.166	22886
470.245	31944
470.324	38591
470.403	27581
470.482	20802
470.560	18635
470.639	19341
470.718	22738
470.797	19806
470.875	20849
470.954	29373
471.033	33008
471.111	15790
471.190	15323
471.269	14655
471.347	14969
471.426	16203
471.505	19175
471.583	19604
471.662	18929
471.740	16463
471.819	16877
471.898	15742
471.976	15435
472.055	16399
472.133	18548
472.212	22536
472.290	24267
472.369	17424
472.447	14591
472.526	13921
472.604	15347
472.683	17061
472.761	19025
472.839	16925
472.918	16395
472.996	16117
473.075	17810
473.153	17832
473.231	15677
473.310	19217
473.388	18049
473.466	16696
473.545	19964
473.623	25747
473.701	26273
473.780	16362
473.858	15663
473.936	16601
474.014	14813
474.093	18340
474.171	25232
474.249	34776
474.327	24464
474.405	14396
474.484	14967
474.562	15574
474.640	15611
474.718	17242
474.796	18344
474.874	15595
474.952	14647
475.030	14887
475.108	16222
475.187	20017
475.265	19340
475.343	26992
475.421	29694
475.499	14956
475.577	15643
475.655	20398
475.733	40156
475.811	71079
475.889	64872
475.966	44613
476.044	16293
476.122	21434
476.200	28114
476.278	23298
476.356	15914
476.434	16033
476.512	19855
476.590	26044
476.667	23418
476.745	13909
476.823	15474
476.901	14402
476.979	15766
477.056	14964
477.134	15830
477.212	16486
477.290	15670
477.367	13676
477.445	13533
477.523	13102
477.601	13761
477.678	13737
477.756	17013
477.834	19678
477.911	13938
477.989	14715
478.066	13789
478.144	16353
478.222	20826
478.299	31736
478.377	30376
478.454	13326
478.532	13327
478.609	14584
478.687	16060
478.764	12872
478.842	14647
478.919	16272
478.997	15265
479.074	13204
479.152	15730
479.229	20156
479.307	15362
479.384	11498
479.461	11934
479.539	13723
479.616	16542
479.694	13774
479.771	15350
479.848	16091
479.926	21486
480.003	24789
480.080	13454
480.157	11972
480.235	12418
480.312	12934
480.389	14823
480.467	24371
480.544	31702
480.621	17268
480.698	15418
480.775	17717
480.853	18223
480.930	15193
481.007	14481
481.084	16804
481.161	18429
481.238	17967
481.315	14011
481.392	13444
481.470	12982
481.547	13761
481.624	13745
481.701	11801
481.778	13894
481.855	15328
481.932	23102
482.009	38282
482.086	29514
482.163	14629
482.240	23161
482.317	39909
482.393	32064
482.470	14099
482.547	14614
482.624	14113
482.701	14977
482.778	14093
482.855	12115
482.932	11262
483.009	12212
483.085	15335
483.162	17510
483.239	16834
483.316	13706
483.393	12657
483.469	12382
483.546	15679
483.623	16560
483.699	12432
483.776	12939
483.853	15915
483.930	23526
484.006	55881
484.083	103268
484.160	52134
484.236	66370
484.313	53371
484.389	40749
484.466	34155
484.543	34031
484.619	34835
484.696	36126
484.772	37106
484.849	39603
484.925	33720
485.002	31494
485.078	33391
485.155	35729
485.231	30221
485.308	30350
485.384	32298
485.461	38835
485.537	63105
485.614	79347
485.690	34164
485.766	29648
485.843	33156
485.919	46362
485.995	50327
486.072	28338
486.148	27231
486.224	26731
486.301	28700
486.377	33354
486.453	34487
486.530	31805
486.606	40318
486.682	45239
486.758	53186
486.835	67212
486.911	50457
486.987	81580
487.063	94007
487.139	119651
487.215	83293
487.292	38668
487.368	31143
487.444	34258
487.520	40309
487.596	41175
487.672	55809
487.748	128095
487.824	200583
487.900	74481
487.976	37518
488.052	36168
488.128	42638
488.204	36784
488.280	28948
488.356	37655
488.432	70051
488.508	116657
488.584	44914
488.660	27645
488.736	26977
488.812	30247
488.888	37957
488.964	51806
489.039	110180
489.115	176066
489.191	111939
489.267	30789
489.343	26977
489.418	24149
489.494	23556
489.570	22853
489.646	23483
489.722	23490
489.797	25749
489.873	38517
489.949	81054
490.024	79088
490.100	24303
490.176	24140
490.251	29713
490.327	40393
490.403	25586
490.478	21914
490.554	19616
490.629	20670
490.705	18881
490.781	22536
490.856	22341
490.932	25994
491.007	25091
491.083	25381
491.158	22239
491.234	30089
491.309	58872
491.385	70613
491.460	23636
491.536	23913
491.611	22146
491.686	22980
491.762	33526
491.837	68575
491.913	127931
491.988	160183
492.063	231430
492.139	61778
492.214	35369
492.289	19995
492.365	18743
492.440	23551
492.515	22631
492.590	22348
492.666	18585
492.741	24771
492.816	38517
492.891	24407
492.967	17483
493.042	15637
493.117	16979
493.192	17468
493.267	24409
493.342	52309
493.418	76193
493.493	24416
493.568	14943
493.643	16518
493.718	21055
493.793	33586
493.868	39896
493.943	25448
494.018	18749
494.093	16579
494.168	17014
494.243	15976
494.318	14678
494.393	15143
494.468	14477
494.543	14383
494.618	19108
494.693	17121
494.768	15122
494.842	17118
494.917	13796
494.992	15505
495.067	15073
495.142	13760
495.217	15526
495.292	15096
495.366	16929
495.441	23418
495.516	28470
495.591	46884
495.665	145505
495.740	371834
495.815	177604
495.890	26878
495.964	21081
496.039	20474
496.114	21449
496.188	22232
496.263	22823
496.338	19567
496.412	22817
496.487	27083
496.561	28047
496.636	31264
496.710	23253
496.785	26185
496.860	30635
496.934	24188
497.009	23375
497.083	24617
497.158	25036
497.232	28272
497.307	36375
497.381	30111
497.455	34044
497.530	46074
497.604	32615
497.679	33545
497.753	51529
497.827	71202
497.902	66019
497.976	75861
498.050	153981
498.125	516089
498.199	643166
498.273	120574
498.348	86914
498.422	69115
498.496	59005
498.570	52984
498.645	37122
498.719	35837
498.793	38206
498.867	56390
498.941	86868
499.016	207178
499.090	592196
499.164	261546
499.238	27656
499.312	24718
499.386	30039
499.460	27538
499.534	23496
499.609	29181
499.683	41829
499.757	46809
499.831	95983
499.905	356584
499.979	419297
500.053	60616
500.127	58517
500.201	45587
500.275	26067
500.349	23133
500.422	27280
500.496	43375
500.570	97785
500.644	211717
500.718	420716
500.792	113819
500.866	22696
500.940	29433
501.013	25139
501.087	23985
501.161	43110
501.235	64933
501.309	119423
501.382	330350
501.456	354854
501.530	71450
501.603	110830
501.677	53308
501.751	19805
501.825	25297
501.898	46059
501.972	131451
502.046	102933
502.119	27295
502.193	58514
502.266	147112
502.340	89609
502.413	60557
502.487	132693
502.561	83466
502.634	28480
502.708	21930
502.781	20649
502.855	15919
502.928	14038
503.002	13739
503.075	13459
503.149	14532
503.222	13704
503.295	15789
503.369	19141
503.442	31994
503.516	93527
503.589	259423
503.662	192340
503.736	53089
503.809	110589
503.882	112540
503.956	127096
504.029	148074
504.102	87223
504.175	114056
504.249	43607
504.322	24860
504.395	23637
504.468	15948
504.542	16804
504.615	14239
504.688	12844
504.761	13033
504.834	17611
504.907	21201
504.980	36555
505.053	20665
505.127	23086
505.200	25521
505.273	23724
505.346	17413
505.419	14110
505.492	11207
505.565	10135
505.638	10624
505.711	11465
505.784	11209
505.857	10471
505.930	11016
506.003	11987
506.076	12620
506.149	16334
506.221	23323
506.294	20252
506.367	51588
506.440	175858
506.513	125002
506.586	23952
506.659	15749
506.731	13791
506.804	16817
506.877	25697
506.950	18294
507.022	11599
507.095	16728
507.168	20974
507.241	13461
507.313	11478
507.386	13583
507.459	19971
507.531	14810
507.604	11154
507.677	11612
507.749	9838
507.822	14999
507.894	29220
507.967	35593
508.040	19369
508.112	16633
508.185	15440
508.257	16148
508.330	23121
508.402	16528
508.475	15008
508.547	16412
508.620	16738
508.692	24800
508.765	18796
508.837	13265
508.909	12456
508.982	13728
509.054	15080
509.127	14663
509.199	12063
509.271	11708
509.344	11108
509.416	11522
509.488	12214
509.560	12546
509.633	14004
509.705	17770
509.777	15869
509.849	23430
509.922	17748
509.994	11795
510.066	11854
510.138	14756
510.210	25134
510.283	25003
510.355	20560
510.427	18164
510.499	17480
510.571	17427
510.643	18127
510.715	27128
510.787	28139
510.859	17853
510.931	20671
511.003	28618
511.076	25658
511.148	16041
511.219	16692
511.291	24295
511.363	31449
511.435	15475
511.507	13882
511.579	13857
511.651	13460
511.723	14339
511.795	13897
511.867	13968
511.939	17904
512.010	34629
512.082	33497
512.154	15998
512.226	16463
512.298	22575
512.369	34316
512.441	27275
512.513	26561
512.585	23038
512.656	19861
512.728	23217
512.800	17380
512.871	16792
512.943	17334
513.015	15560
513.086	16439
513.158	19349
513.230	19677
513.301	29824
513.373	37082
513.444	21091
513.516	14853
513.588	15291
513.659	18559
513.731	23849
513.802	23228
513.874	39621
513.945	78984
514.016	32037
514.088	15200
514.159	19195
514.231	24504
514.302	31991
514.374	23010
514.445	23026
514.516	39955
514.588	37669
514.659	22843
514.730	38574
514.802	34853
514.873	28852
514.944	24927
515.016	22111
515.087	25815
515.158	29618
515.229	42932
515.301	31127
515.372	37085
515.443	25043
515.514	18873
515.585	17168
515.656	16623
515.728	15742
515.799	15815
515.870	17462
515.941	17841
516.012	18503
516.083	22338
516.154	27196
516.225	32955
516.296	30560
516.367	24752
516.438	26776
516.509	37179
516.580	63173
516.651	173451
516.722	600378
516.793	356353
516.864	50535
516.935	45699
517.006	51130
517.077	82192
517.148	204022
517.219	622208
517.289	1174464
517.360	325125
517.431	107676
517.502	29131
517.573	25841
517.643	25468
517.714	27784
517.785	27554
517.856	26903
517.926	29382
517.997	33576
518.068	45425
518.138	69234
518.209	136075
518.280	440408
518.350	1555016
518.421	814017
518.492	74125
518.562	38694
518.633	37769
518.703	37130
518.774	55030
518.845	118015
518.915	132235
518.986	48969
519.056	38467
519.127	66701
519.197	103810
519.268	204380
519.338	161035
519.408	37716
519.479	41414
519.549	36435
519.620	22062
519.690	17701
519.760	18829
519.831	19910
519.901	20270
519.971	15673
520.042	18289
520.112	21555
520.182	22688
520.253	28252
520.323	17864
520.393	18981
520.463	23463
520.534	19500
520.604	28926
520.674	21839
520.744	21889
520.814	35094
520.885	43534
520.955	66049
521.025	224518
521.095	128449
521.165	19386
521.235	19556
521.305	16424
521.375	15683
521.445	17039
521.515	24989
521.585	26917
521.655	30182
521.725	21731
521.795	21236
521.865	16797
521.935	21678
522.005	22509
522.075	14009
522.145	15579
522.215	18285
522.285	27051
522.355	35117
522.424	63785
522.494	64659
522.564	34850
522.634	59930
522.704	168903
522.774	87561
522.843	17999
522.913	16318
522.983	23235
523.053	19400
523.122	19038
523.192	28858
523.262	86680
523.331	111132
523.401	21707
523.471	13244
523.540	14977
523.610	12623
523.680	11203
523.749	12371
523.819	15616
523.888	18723
523.958	13292
524.027	12915
524.097	15061
524.166	14718
524.236	16306
524.305	16016
524.375	14313
524.444	12336
524.514	13544
524.583	14874
524.653	18484
524.722	20588
524.791	15694
524.861	13169
524.930	13449
524.999	14363
525.069	20725
525.138	17757
525.207	20009
525.277	16555
525.346	15475
525.415	13945
525.484	14077
525.554	17698
525.623	17378
525.692	14903
525.761	14919
525.830	14700
525.900	17229
525.969	27395
526.038	45122
526.107	79882
526.176	221708
526.245	215539
526.314	73728
526.383	119100
526.452	187947
526.522	253004
526.591	328318
526.660	107823
526.729	53744
526.797	57027
526.867	132942
526.935	474805
527.004	747798
527.073	468438
527.142	43789
527.211	19507
527.280	19519
527.349	22503
527.418	13832
527.487	12499
527.555	11910
527.624	11708
527.693	10527
527.762	11356
527.831	10710
527.899	11457
527.968	11742
528.037	12833
528.106	15812
528.174	29919
528.243	27452
528.312	31110
528.380	51371
528.449	18120
528.518	10665
528.586	9325
528.655	9996
528.723	9166
528.792	9543
528.861	11549
528.929	11041
528.998	9929
529.066	8493
529.135	9635
529.203	9004
529.272	9277
529.340	10128
529.409	10173
529.477	11218
529.545	14320
529.614	16359
529.682	16008
529.751	19843
529.819	17385
529.887	15704
529.956	11001
530.024	11491
530.092	10973
530.161	13204
530.229	22450
530.297	15734
530.365	10396
530.434	9023
530.502	10383
530.570	10042
530.638	9317
530.707	10947
530.775	13207
530.843	10451
530.911	10390
530.979	8979
531.047	10429
531.115	10742
531.183	10753
531.252	9619
531.320	10939
531.388	11292
531.456	9443
531.524	10006
531.592	10176
531.660	11629
531.728	10688
531.796	10745
531.864	10687
531.932	10223
532.000	10680
532.067	11474
532.135	13289
532.203	14154
532.271	16778
532.339	25300
532.407	71534
532.475	54042
532.542	19523
532.610	22584
532.678	40137
532.746	114532
532.814	339008
532.881	110999
532.949	16893
533.017	13051
533.084	11227
533.152	12220
533.220	11855
533.287	13979
533.355	11901
533.423	11191
533.490	11036
533.558	11125
533.625	12167
533.693	14350
533.761	12845
533.828	13071
533.896	14639
533.963	24772
534.031	35512
534.098	43752
534.166	27042
534.233	11955
534.300	13123
534.368	13548
534.435	12826
534.503	11733
534.570	12421
534.637	13133
534.705	14841
534.772	19450
534.840	32890
534.907	94394
534.974	161988
535.041	29126
535.109	18369
535.176	13818
535.243	11411
535.310	12808
535.378	13728
535.445	10239
535.512	11308
535.579	10481
535.646	10955
535.714	12559
535.781	14714
535.848	14216
535.915	13702
535.982	14544
536.049	13396
536.116	14473
536.183	13619
536.250	13313
536.317	14808
536.384	17547
536.451	25017
536.518	28274
536.585	19908
536.652	21478
536.719	32624
536.786	30963
536.853	21217
536.920	29088
536.987	52261
537.053	57637
537.120	145215
537.187	175429
537.254	21968
537.321	14329
537.388	15262
537.454	13288
537.521	12435
537.588	12903
537.654	13784
537.721	16593
537.788	16808
537.855	13374
537.921	14311
537.988	14872
538.055	13106
538.121	14349
538.188	17199
538.254	25015
538.321	50166
538.388	39302
538.454	16825
538.521	14166
538.587	13482
538.654	13916
538.720	13146
538.787	13106
538.853	15072
538.920	17658
538.986	20323
539.053	16053
539.119	15891
539.185	16280
539.252	18348
539.318	29092
539.385	23605
539.451	20316
539.517	20975
539.583	25586
539.650	46406
539.716	127223
539.782	52530
539.849	17287
539.915	16403
539.981	16418
540.047	20799
540.114	18685
540.180	17313
540.246	18546
540.312	26227
540.378	48036
540.444	62074
540.510	51755
540.576	135598
540.643	64315
540.709	16174
540.775	14843
540.841	15554
540.907	20174
540.973	30022
541.039	28573
541.105	34405
541.171	20694
541.237	16801
541.303	17265
541.369	20319
541.435	25854
541.500	44653
541.566	36188
541.632	17220
541.698	13945
541.764	14417
541.830	13577
541.896	14603
541.961	14960
542.027	14885
542.093	15741
542.159	17532
542.224	20557
542.290	26306
542.356	41722
542.421	58308
542.487	25769
542.553	16976
542.618	17732
542.684	17267
542.750	17446
542.815	23178
542.881	38667
542.947	107231
543.012	112475
543.078	18531
543.143	14440
543.209	16550
543.274	18493
543.340	22505
543.405	40191
543.471	83335
543.536	25894
543.602	15321
543.667	14840
543.732	14872
543.798	14258
543.863	15072
543.928	13487
543.994	13607
544.059	13568
544.124	14203
544.190	14240
544.255	14977
544.320	14532
544.386	17056
544.451	23031
544.516	31125
544.581	33627
544.646	64898
544.712	132296
544.777	35238
544.842	19017
544.907	20735
544.972	18769
545.037	17857
545.102	18653
545.168	19429
545.233	19499
545.298	21789
545.363	26605
545.428	32298
545.493	46012
545.558	100285
545.623	56267
545.688	21846
545.753	19917
545.818	19943
545.883	19900
545.947	20322
546.012	20889
546.077	23336
546.142	22075
546.207	22754
546.272	27825
546.337	33028
546.401	24481
546.466	22775
546.531	21680
546.596	24191
546.661	25102
546.725	23799
546.790	21700
546.855	22830
546.919	23729
546.984	26605
547.049	27905
547.113	33699
547.178	32786
547.243	34849
547.307	40218
547.372	44996
547.436	49922
547.501	43157
547.565	45213
547.630	48262
547.695	48249
547.759	47994
547.823	47305
547.888	40681
547.952	40938
548.017	44209
548.081	48769
548.146	55808
548.210	51969
548.274	46951
548.339	45184
548.403	41922
548.468	39179
548.532	39447
548.596	39439
548.660	40973
548.725	44581
548.789	52245
548.853	53983
548.917	45942
548.982	50001
549.046	53631
549.110	38060
549.174	37154
549.238	40401
549.303	43803
549.367	44456
549.431	44195
549.495	40794
549.559	42485
549.623	47546
549.687	54347
549.751	61968
549.815	62646
549.879	59738
549.943	56090
550.007	58941
550.071	61175
550.135	60910
550.199	56307
550.263	52274
550.327	52304
550.391	59700
550.455	58445
550.519	56330
550.582	60680
550.646	71684
550.710	79928
550.774	66324
550.838	64847
550.901	66187
550.965	70760
551.029	74331
551.093	82580
551.156	93733
551.220	125147
551.284	162571
551.347	108881
551.411	115509
551.475	147212
551.538	79090
551.602	66485
551.666	62881
551.729	58571
551.793	56845
551.856	57210
551.920	55658
551.983	56235
552.047	56545
552.110	55681
552.174	56260
552.237	58320
552.301	53945
552.364	52381
552.428	51892
552.491	52442
552.554	54073
552.618	55661
552.681	58041
552.745	61391
552.808	74442
552.871	99132
552.934	75149
552.998	59001
553.061	56661
553.124	54028
553.187	52162
553.251	54554
553.314	54739
553.377	55541
553.440	61475
553.503	72710
553.567	98677
553.630	64418
553.693	55450
553.756	55500
553.819	54264
553.882	54572
553.945	53524
554.008	53650
554.071	53521
554.134	53701
554.197	52537
554.260	50084
554.323	53492
554.386	54402
554.449	53957
554.512	54988
554.575	52179
554.638	52918
554.701	52073
554.764	51648
554.827	48207
554.889	48856
554.952	45076
555.015	43366
555.078	44246
555.141	46182
555.203	44616
555.266	44699
555.329	46676
555.391	44195
555.454	44815
555.517	44506
555.580	41285
555.642	39542
555.705	39355
555.768	39364
555.830	39045
555.893	35997
555.955	36133
556.018	35942
556.080	36031
556.143	37784
556.206	36567
556.268	37302
556.330	37556
556.393	38460
556.455	36516
556.518	42293
556.580	49492
556.643	35054
556.705	31758
556.767	31910
556.830	34066
556.892	35001
556.955	45808
557.017	43470
557.079	30731
557.142	32022
557.204	36185
557.266	53655
557.328	58341
557.391	29824
557.453	27570
557.515	27204
557.577	31011
557.639	35822
557.701	27472
557.764	25846
557.826	26192
557.888	29002
557.950	30272
558.012	34305
558.074	44323
558.136	68677
558.198	173872
558.260	99448
558.322	31596
558.384	30049
558.446	33344
558.508	38417
558.570	51717
558.632	80033
558.694	144505
558.756	167978
558.818	301025
558.880	881908
558.942	423405
559.003	176337
559.065	125270
559.127	39972
559.189	42306
559.251	58107
559.312	89526
559.374	158028
559.436	483827
559.498	391960
559.559	54289
559.621	44610
559.683	59447
559.744	96890
559.806	207042
559.868	429088
559.929	122994
559.991	53604
560.052	69072
560.114	161314
560.176	161818
560.237	90574
560.299	182691
560.360	67645
560.422	24462
560.483	22586
560.545	22095
560.606	21260
560.667	20784
560.729	19711
560.790	19604
560.852	19995
560.913	20137
560.974	18974
561.036	18917
561.097	19584
561.158	19368
561.220	20344
561.281	20060
561.342	22415
561.403	26954
561.465	34615
561.526	58676
561.587	102653
561.648	38623
561.709	20102
561.771	20428
561.832	20060
561.893	19646
561.954	18259
562.015	17916
562.076	18883
562.137	18072
562.198	18802
562.259	18994
562.320	20383
562.381	21634
562.442	29348
562.503	27084
562.564	18856
562.625	17496
562.686	18316
562.747	19414
562.808	20300
562.869	19001
562.930	22944
562.991	21778
563.051	20749
563.112	18519
563.173	18872
563.234	18034
563.294	18414
563.355	18408
563.416	19686
563.477	18237
563.537	20409
563.598	20721
563.659	19246
563.720	20122
563.780	20003
563.841	21221
563.901	19067
563.962	18452
564.023	19127
564.083	19122
564.144	20871
564.204	20431
564.265	21359
564.325	24322
564.386	36383
564.446	44375
564.507	20435
564.567	17897
564.628	18336
564.688	18464
564.749	19267
564.809	20833
564.869	24576
564.930	21779
564.990	18528
565.050	17671
565.111	18987
565.171	17367
565.231	18180
565.292	17935
565.352	18615
565.412	19007
565.472	19568
565.532	21284
565.593	20880
565.653	19577
565.713	19997
565.773	20626
565.833	23836
565.893	30996
565.953	22306
566.013	20065
566.074	22465
566.134	26419
566.194	37063
566.254	45042
566.314	30748
566.374	22463
566.434	20725
566.494	21211
566.554	21288
566.614	22388
566.673	22719
566.733	23345
566.793	25710
566.853	25515
566.913	25238
566.973	26113
567.033	25464
567.092	26940
567.152	26386
567.212	25855
567.272	27957
567.331	29255
567.391	30170
567.451	31115
567.511	36857
567.570	40451
567.630	28666
567.690	25960
567.749	26268
567.809	27037
567.868	30390
567.928	33739
567.988	40535
568.047	48385
568.107	59943
568.166	80870
568.226	118794
568.285	174697
568.345	156756
568.404	112756
568.464	91382
568.523	83615
568.582	86834
568.642	102167
568.701	130544
568.761	181848
568.820	288857
568.879	311973
568.939	220318
568.998	150335
569.057	108418
569.116	82829
569.176	66451
569.235	54499
569.294	47981
569.353	42103
569.413	38999
569.472	35841
569.531	33296
569.590	29684
569.649	29033
569.708	26706
569.767	26466
569.827	27695
569.886	27055
569.945	23209
570.004	22960
570.063	22858
570.122	24453
570.181	25361
570.240	25999
570.299	26196
570.358	25548
570.417	21849
570.475	20937
570.534	20707
570.593	22117
570.652	21494
570.711	22699
570.770	20362
570.829	23588
570.887	23307
570.946	24635
571.005	20110
571.064	19881
571.122	20768
571.181	23408
571.240	21747
571.299	18804
571.357	18839
571.416	20761
571.475	21869
571.533	25980
571.592	19791
571.650	20444
571.709	18900
571.768	18802
571.826	18279
571.885	18483
571.943	16565
572.002	15875
572.060	18501
572.119	16103
572.177	16134
572.236	16384
572.294	15320
572.352	15209
572.411	15965
572.469	16317
572.528	15692
572.586	17687
572.644	16357
572.703	23071
572.761	18639
572.819	16436
572.877	15632
572.936	15178
572.994	14996
573.052	14962
573.110	16389
573.169	16318
573.227	15221
573.285	15297
573.343	14452
573.401	15243
573.459	14727
573.517	13836
573.576	15215
573.634	14552
573.692	16215
573.750	16536
573.808	15855
573.866	15887
573.924	19870
573.982	21068
574.040	16268
574.098	14804
574.155	15023
574.213	14544
574.271	13478
574.329	14785
574.387	13933
574.445	13955
574.503	13429
574.560	12861
574.618	13100
574.676	13121
574.734	12830
574.792	13217
574.849	13140
574.907	12464
574.965	12247
575.022	13040
575.080	13529
575.138	13349
575.195	15016
575.253	14584
575.311	16059
575.368	13993
575.426	13139
575.483	12993
575.541	12324
575.598	13597
575.656	13649
575.713	14414
575.771	13300
575.828	12821
575.886	12977
575.943	14615
576.001	14667
576.058	14776
576.115	15781
576.173	18275
576.230	21380
576.287	22891
576.345	20009
576.402	16569
576.459	16388
576.517	16754
576.574	16934
576.631	18126
576.688	15859
576.746	14297
576.803	14545
576.860	14449
576.917	14712
576.974	13823
577.031	14497
577.089	15127
577.146	14451
577.203	15226
577.260	15358
577.317	16784
577.374	18732
577.431	19235
577.488	16350
577.545	14965
577.602	13664
577.659	14782
577.716	14197
577.773	14512
577.830	13535
577.886	14169
577.943	13471
578.000	14450
578.057	14771
578.114	14979
578.171	14071
578.227	15251
578.284	13918
578.341	14778
578.398	14842
578.454	16520
578.511	16953
578.568	19566
578.625	18496
578.681	15428
578.738	13888
578.794	13718
578.851	14597
578.908	13039
578.964	15156
579.021	16141
579.077	14407
579.134	15471
579.190	13871
579.247	14748
579.303	14554
579.360	13951
579.416	14323
579.473	14333
579.529	14123
579.586	14054
579.642	14475
579.698	14685
579.755	14553
579.811	14619
579.867	13854
579.924	13816
579.980	13484
580.036	15383
580.093	15663
580.149	15384
580.205	15964
580.261	16321
580.317	15498
580.374	17418
580.430	19526
580.486	19098
580.542	15995
580.598	16637
580.619	16400
580.654	15984
580.692	16429
580.710	16641
580.765	15050
580.767	14991
580.823	15295
580.838	15647
580.879	16535
580.911	16236
580.935	16013
580.984	15889
580.991	15869
581.047	16233
581.057	16254
581.103	16267
581.130	15996
581.159	15730
581.203	16389
581.215	16537
581.270	17435
581.276	17398
581.326	16912
581.349	16965
581.382	17054
581.422	17426
581.438	17565
581.494	18028
581.494	18037
581.550	17754
581.567	18008
581.606	18527
581.640	18876
581.661	19026
581.713	18014
581.717	17916
581.773	17029
581.786	17145
581.829	17674
581.859	18249
581.885	18659
581.932	18352
581.940	18289
581.996	17877
582.004	18022
582.052	18706
582.077	18782
582.107	18853
582.150	18745
582.163	18688
582.219	19802
582.223	19779
582.274	19441
582.296	19816
582.330	20538
582.368	21528
582.386	21846
582.441	20257
582.441	20242
582.497	19710
582.514	19665
582.552	19714
582.587	20613
582.608	21118
582.659	20511
582.663	20461
582.719	21354
582.732	21400
582.774	21624
582.805	22090
582.830	22398
582.877	22971
582.885	23041
582.941	22597
582.950	22601
582.996	22704
583.023	23505
583.052	24485
583.095	24501
583.107	24471
583.162	24927
583.168	24997
583.218	25548
583.240	25397
583.273	25134
583.313	25761
583.328	25919
583.384	25569
583.385	25556
583.439	25628
583.458	25918
583.494	26255
583.531	25841
583.549	25684
583.603	26174
583.605	26196
583.660	26157
583.676	26348
583.715	27023
583.748	27369
583.770	27624
583.820	29835
583.825	30040
583.881	29632
583.893	29699
583.936	29903
583.965	29667
583.991	29511
584.038	29801
584.046	29863
584.101	30149
584.110	30268
584.156	31298
584.183	31492
584.211	31525
584.255	32035
584.266	32174
584.321	31523
584.328	31550
584.376	32226
584.400	32751
584.431	33605
584.472	33595
584.486	33600
584.541	33666
584.545	33714
584.596	34816
584.617	34935
584.651	35822
584.689	37077
584.706	37655
584.761	38655
584.762	38626
584.816	39201
584.834	38783
584.871	38672
584.906	40277
584.926	41085
584.978	41491
584.980	41575
585.035	43032
585.051	43549
585.090	45758
585.123	47099
585.145	47854
585.195	49683
585.200	50020
585.254	53989
585.267	54663
585.309	57603
585.340	61032
585.364	64715
585.412	72356
585.419	73246
585.473	81671
585.484	83920
585.528	96696
585.556	107578
585.583	124961
585.628	154827
585.637	172555
585.692	304619
585.700	334672
585.747	610232
585.772	685318
585.801	581547
585.845	390655
585.856	333922
585.910	134005
585.917	111278
585.965	91068
585.989	81359
586.019	77928
586.061	73373
586.074	73018
586.128	71541
586.133	71354
586.183	74291
586.205	75231
586.237	77107
586.277	78867
586.292	78991
586.346	78133
586.349	77987
586.401	78637
586.421	78785
586.455	80914
586.493	83152
586.509	86302
586.564	96901
586.565	97090
586.618	135806
586.637	147808
586.672	160412
586.709	159601
586.727	142127
586.781	101583
586.781	101822
586.835	100690
586.853	100016
586.889	97992
586.925	96343
586.944	97233
586.996	99216
586.998	99574
587.052	103555
587.068	104255
587.106	106384
587.140	108499
587.161	110625
587.212	114211
587.215	114703
587.269	119583
587.284	120320
587.323	124933
587.356	128894
587.377	131539
587.427	136094
587.431	136941
587.485	143910
587.499	145490
587.539	152035
587.571	156346
587.593	160442
587.643	168130
587.648	169539
587.702	180649
587.715	182797
587.755	194090
587.786	202064
587.810	208622
587.858	220139
587.864	222560
587.917	240844
587.930	244677
587.971	263815
588.001	276051
588.025	290074
588.073	316128
588.079	320397
588.133	350957
588.145	357101
588.187	390743
588.217	412670
588.241	438053
588.288	486489
588.295	496610
588.348	571147
588.360	586201
588.402	661595
588.431	712640
588.456	769199
588.503	877548
588.510	900997
588.564	1080860
588.575	1117473
588.617	1322350
588.646	1465282
588.671	1646717
588.718	1995780
588.725	2075884
588.778	2683168
588.789	2806132
588.832	3439973
588.861	3878614
588.886	4142606
588.932	4548994
588.939	4495979
588.993	3766181
589.004	3648711
589.047	3955960
589.075	4103998
589.100	4196820
589.147	4217422
589.154	4127878
589.207	3381072
589.218	3227427
589.261	2846685
589.290	2589316
589.314	2554757
589.361	2489146
589.368	2533496
589.421	2865408
589.433	2936025
589.475	3518502
589.504	3925370
589.528	4126480
589.576	4362561
589.582	4336936
589.635	3991250
589.647	3892143
589.689	3975734
589.718	3978144
589.742	3509274
589.790	2581082
589.795	2513278
589.849	1815608
589.861	1650332
589.902	1398752
589.932	1206035
589.955	1115653
590.004	911725
590.009	900428
590.062	743953
590.075	703322
590.115	637916
590.146	582936
590.168	559220
590.218	500492
590.222	498921
590.275	453401
590.289	440030
590.328	417470
590.360	396100
590.381	385630
590.431	355830
590.435	355640
590.488	329475
590.503	320910
590.541	310826
590.574	299769
590.594	295392
590.645	280101
590.647	280640
590.700	265468
590.716	259951
590.753	252859
590.787	244378
590.806	242107
590.859	231988
590.859	232778
590.912	223929
590.930	220212
590.965	216687
591.001	211450
591.018	210637
591.071	205418
591.072	204537
591.124	200406
591.143	197695
591.177	195558
591.214	191740
591.230	192031
591.283	190633
591.285	189790
591.336	190312
591.356	189603
591.389	191066
591.427	190822
591.442	189340
591.495	180778
591.498	179411
591.547	173359
591.569	169610
591.600	168248
591.640	164712
591.653	164946
591.706	163136
591.711	162267
591.759	163343
591.782	162888
591.811	168428
591.853	175010
591.864	175518
591.917	173989
591.924	173017
591.969	162914
591.995	156122
592.022	156120
592.066	154370
592.075	155719
592.127	160037
592.137	160182
592.180	174831
592.208	183220
592.233	183014
592.279	180056
592.285	178288
592.338	156877
592.350	151334
592.390	150161
592.421	148146
592.443	148415
592.491	146996
592.495	147623
592.548	147507
592.562	146838
592.600	147283
592.633	146486
592.653	146707
592.704	144803
592.705	145648
592.775	145857
592.846	145036
592.916	146244
592.987	153008
593.058	155053
593.128	143630
593.199	137402
593.270	135344
593.341	134267
593.411	135588
593.482	139458
593.553	136695
593.623	133192
593.694	133215
593.764	139434
593.835	142233
593.906	132781
593.976	130725
594.047	136233
594.117	142961
594.188	163484
594.258	147235
594.329	130077
594.399	129357
594.470	131100
594.540	128881
594.611	133299
594.681	132450
594.751	133218
594.822	136195
594.892	140761
594.963	147504
595.033	144630
595.103	144534
595.174	147450
595.244	167803
595.314	229691
595.384	211405
595.455	147440
595.525	147577
595.595	151120
595.665	153966
595.736	152513
595.806	148842
595.876	150642
595.946	150815
596.016	149473
596.087	151510
596.157	155916
596.227	151784
596.297	155747
596.367	163366
596.437	172527
596.507	190188
596.577	234489
596.647	229521
596.717	177672
596.787	177489
596.857	176985
596.927	177607
596.997	177873
597.067	178072
597.137	179377
597.207	184398
597.277	182902
597.347	180986
597.417	176390
597.487	174170
597.557	179639
597.626	182324
597.696	186751
597.766	197213
597.836	228421
597.906	235380
597.975	172069
598.045	164413
598.115	164591
598.185	168838
598.254	182270
598.324	199352
598.394	210104
598.464	212175
598.533	203946
598.603	192893
598.672	186690
598.742	187511
598.812	185506
598.881	187577
598.951	186406
599.020	184840
599.090	186849
599.159	190130
599.229	189445
599.299	181150
599.368	183057
599.437	187385
599.507	179612
599.576	174652
599.646	175101
599.715	171371
599.785	169477
599.854	169625
599.924	176018
599.993	183905
600.062	167780
600.132	166623
600.201	169759
600.270	184959
600.340	208773
600.409	199899
600.478	193375
600.547	194552
600.617	200698
600.686	178092
600.755	160473
600.824	155151
600.894	154079
600.963	143968
601.032	139398
601.101	138651
601.170	136798
601.239	134125
601.308	137349
601.378	143308
601.447	135773
601.516	132190
601.585	132799
601.654	143401
601.723	150896
601.792	137377
601.861	142718
601.930	146632
601.999	158046
602.068	158241
602.137	151719
602.206	170325
602.275	155589
602.343	159569
602.412	178607
602.481	163503
602.550	150081
602.619	149458
602.688	154436
602.756	155705
602.825	152958
602.894	150476
602.963	156380
603.032	156703
603.100	158779
603.169	154596
603.238	158956
603.307	160678
603.375	156671
603.444	157172
603.513	162587
603.581	161325
603.650	165187
603.719	163635
603.787	160832
603.856	166750
603.924	169890
603.993	178532
604.061	175448
604.130	181721
604.198	189837
604.267	190320
604.335	192644
604.404	191858
604.472	194481
604.541	194123
604.609	198019
604.678	198684
604.746	199079
604.815	204057
604.883	208675
604.951	209736
605.020	206577
605.088	212064
605.156	213335
605.225	218984
605.293	218637
605.361	218499
605.429	220573
605.498	222096
605.566	230676
605.634	238629
605.702	242595
605.771	249116
605.839	253915
605.907	251929
605.975	244091
606.043	237643
606.111	234319
606.180	233633
606.248	236442
606.316	236646
606.384	235247
606.452	244605
606.520	264180
606.588	278663
606.656	244607
606.724	240017
606.792	232219
606.860	216382
606.928	197423
606.996	183417
607.064	178301
607.132	177746
607.200	184405
607.267	195058
607.335	197628
607.403	203112
607.471	203923
607.539	195388
607.607	196292
607.674	188350
607.742	175575
607.810	181325
607.878	185126
607.946	178141
608.013	179668
608.081	186548
608.149	193804
608.216	190171
608.284	198208
608.352	196879
608.419	202452
608.487	211198
608.555	229435
608.622	195329
608.690	193510
608.757	211483
608.825	227440
608.893	229169
608.960	230159
609.028	237424
609.095	241978
609.163	245681
609.230	203327
609.298	187063
609.365	177186
609.432	185454
609.500	197773
609.567	215930
609.635	245027
609.702	273617
609.769	278098
609.837	265209
609.904	220579
609.971	204172
610.039	220400
610.106	268513
610.173	414634
610.241	911414
610.308	1811289
610.375	1031083
610.442	451432
610.509	249032
610.577	211511
610.644	202276
610.711	201301
610.778	204403
610.845	207399
610.912	215029
610.980	226472
611.047	233842
611.114	238583
611.181	230310
611.248	216218
611.315	218238
611.382	228182
611.449	230356
611.516	238735
611.583	241838
611.650	241248
611.717	244046
611.784	249652
611.851	260961
611.918	283564
611.984	324909
612.051	408210
612.118	670854
612.185	1546477
612.252	3264332
612.319	1190123
612.386	402224
612.452	330951
612.519	300819
612.586	297596
612.653	318740
612.719	281758
612.786	281351
612.853	265086
612.919	244770
612.986	247007
613.053	244328
613.120	231164
613.186	214583
613.253	216540
613.319	215505
613.386	213068
613.453	219185
613.519	230851
613.586	238952
613.652	278858
613.719	297946
613.785	280621
613.852	244047
613.918	225797
613.985	222118
614.051	229034
614.118	253457
614.184	297373
614.250	247179
614.317	222158
614.383	221942
614.449	222122
614.516	223406
614.582	225730
614.648	228898
614.715	219870
614.781	219431
614.847	215173
614.914	222207
614.980	221908
615.046	216186
615.112	212969
615.179	222281
615.245	228765
615.311	244537
615.377	281819
615.443	385161
615.509	363355
615.575	279608
615.642	257095
615.708	251387
615.774	266429
615.840	286811
615.906	326229
615.972	400842
616.038	607514
616.104	1132858
616.170	2044674
616.236	4160210
616.302	2157043
616.368	614225
616.434	460377
616.500	339147
616.565	318952
616.631	364187
616.697	420013
616.763	346512
616.829	386186
616.895	632322
616.961	1033764
617.026	805919
617.092	357652
617.158	266046
617.224	244995
617.289	234254
617.355	219960
617.421	212039
617.487	212871
617.552	207121
617.618	194186
617.684	194969
617.749	194879
617.815	193375
617.880	181830
617.946	182416
618.012	184317
618.077	188838
618.143	187612
618.208	178398
618.274	186271
618.339	200483
618.405	192938
618.470	167115
618.536	171344
618.601	175026
618.667	178970
618.732	162144
618.798	157718
618.863	154338
618.928	152837
618.994	154301
619.059	160693
619.124	182872
619.190	213918
619.255	161077
619.320	153625
619.386	153421
619.451	149802
619.516	148038
619.581	144522
619.647	149473
619.712	153367
619.777	149547
619.842	145206
619.907	150214
619.972	152189
620.038	156226
620.103	151075
620.168	146808
620.233	143820
620.298	144924
620.363	147853
620.428	147735
620.493	151839
620.558	155073
620.623	153413
620.688	155364
620.753	152527
620.818	151557
620.883	156723
620.948	156977
621.013	157011
621.078	155761
621.143	156375
621.207	162099
621.272	161023
621.337	166025
621.402	166842
621.467	171436
621.532	198081
621.596	188957
621.661	171496
621.726	156179
621.791	155483
621.855	159327
621.920	166273
621.985	169998
622.049	178894
622.114	183257
622.179	181410
622.243	167442
622.308	176859
622.373	174022
622.437	178488
622.502	172722
622.566	164730
622.631	165850
622.695	169584
622.760	168658
622.824	167759
622.889	167511
622.953	174426
623.018	191407
623.082	261310
623.147	210840
623.211	176544
623.276	175771
623.340	173852
623.404	159603
623.469	156403
623.533	157460
623.597	159004
623.662	154108
623.726	155418
623.790	145102
623.854	139304
623.919	140415
623.983	140922
624.047	145614
624.111	144492
624.176	145190
624.240	149571
624.304	163021
624.368	160256
624.432	146578
624.496	146375
624.560	156238
624.625	172653
624.689	175505
624.753	153550
624.817	156855
624.881	150182
624.945	147024
625.009	137709
625.073	137113
625.137	141844
625.201	160174
625.265	187442
625.329	163753
625.393	145502
625.456	153712
625.520	148137
625.584	155642
625.648	173727
625.712	196865
625.776	292432
625.839	518369
625.903	477098
625.967	181510
626.031	162459
626.095	251924
626.158	297410
626.222	143182
626.286	114805
626.349	109098
626.413	107498
626.477	106977
626.540	112044
626.604	105111
626.668	103751
626.731	99419
626.795	101004
626.858	107588
626.922	105164
626.986	103140
627.049	100583
627.113	100206
627.176	101116
627.240	97806
627.303	96199
627.366	98342
627.430	98788
627.493	100190
627.557	100134
627.620	101585
627.684	99009
627.747	102910
627.810	100704
627.874	96016
627.937	89816
628.000	90007
628.064	94424
628.127	90015
628.190	84123
628.253	83297
628.317	83299
628.380	79510
628.443	78331
628.506	79794
628.569	80768
628.632	74001
628.696	71199
628.759	71826
628.822	71356
628.885	70431
628.948	69806
629.011	69587
629.074	72437
629.137	70784
629.200	66927
629.263	70651
629.326	71636
629.389	66131
629.452	67046
629.515	67825
629.578	69428
629.641	68615
629.704	72828
629.767	71657
629.830	70350
629.892	63479
629.955	63944
630.018	65588
630.081	70819
630.144	83556
630.207	89451
630.269	76000
630.332	71618
630.395	77435
630.458	64006
630.520	61542
630.583	61518
630.646	57740
630.708	59634
630.771	60370
630.834	60925
630.896	60293
630.959	61133
631.021	60093
631.084	61771
631.146	63893
631.209	71155
631.272	73199
631.334	61667
631.397	60278
631.459	62590
631.522	63724
631.584	67115
631.646	66867
631.709	69260
631.771	77840
631.834	93382
631.896	70120
631.958	62955
632.021	60062
632.083	59694
632.145	59640
632.208	60249
632.270	61625
632.332	59145
632.395	56202
632.457	57270
632.519	58102
632.581	57034
632.643	53768
632.706	55960
632.768	54077
632.830	54545
632.892	54035
632.954	53609
633.016	57257
633.078	56550
633.141	55407
633.203	54173
633.265	55726
633.327	55159
633.389	54690
633.451	56740
633.513	66649
633.575	75847
633.637	72383
633.698	74881
633.760	65911
633.822	58453
633.884	58103
633.946	60514
634.008	60038
634.070	61310
634.132	62291
634.193	68931
634.255	69983
634.317	72804
634.379	75076
634.441	72497
634.502	68090
634.564	63410
634.626	57672
634.687	56366
634.749	56207
634.811	53930
634.873	51220
634.934	51235
634.996	51087
635.057	52372
635.119	51414
635.181	52410
635.242	53502
635.304	52757
635.365	52521
635.427	53207
635.488	54527
635.550	55903
635.611	53471
635.673	52311
635.734	55853
635.796	58428
635.857	62088
635.918	66044
635.980	65181
636.041	70146
636.102	74845
636.164	77396
636.225	75792
636.286	72330
636.348	66533
636.409	61208
636.470	56537
636.531	53897
636.593	55108
636.654	60921
636.715	52555
636.776	45715
636.838	45148
636.899	45370
636.960	46014
637.021	45100
637.082	44262
637.143	45999
637.204	43717
637.265	41983
637.326	42913
637.387	41690
637.448	42731
637.509	41999
637.570	43210
637.631	42487
637.692	41023
637.753	40446
637.814	39427
637.875	40600
637.936	40482
637.997	42400
638.058	42138
638.119	43389
638.179	42807
638.240	40953
638.301	40627
638.362	40652
638.423	39872
638.483	41211
638.544	39417
638.605	38903
638.666	38334
638.726	38259
638.787	38722
638.848	37372
638.908	38184
638.969	37494
639.030	37594
639.090	36956
639.151	37334
639.211	39925
639.272	44468
639.332	59045
639.393	85742
639.453	46997
639.514	42127
639.574	40991
639.635	36954
639.695	35817
639.756	37281
639.816	38744
639.877	41463
639.937	53421
639.997	86703
640.058	91382
640.118	41641
640.178	35852
640.239	35049
640.299	33820
640.359	34294
640.420	35076
640.480	36248
640.540	39651
640.600	42688
640.661	43967
640.721	41257
640.781	47235
640.841	53564
640.901	42949
640.961	36691
641.021	38700
641.082	43112
641.142	52452
641.202	65470
641.262	40366
641.322	33759
641.382	34187
641.442	33298
641.502	33041
641.562	33361
641.622	32517
641.682	33616
641.742	37339
641.802	40248
641.861	38403
641.921	37130
641.981	39291
642.041	41818
642.101	43415
642.161	53125
642.221	35776
642.280	31196
642.340	31930
642.400	30825
642.460	32575
642.519	32474
642.579	33292
642.639	31813
642.698	32227
642.758	32788
642.818	32204
642.877	33020
642.937	34757
642.997	37685
643.056	44122
643.116	59893
643.175	37451
643.235	33517
643.294	33557
643.354	36195
643.414	38015
643.473	40934
643.532	49332
643.592	61723
643.651	86559
643.711	136083
643.770	243569
643.830	476446
643.889	1204365
643.948	1979200
644.008	347093
644.067	88234
644.126	61303
644.186	49631
644.245	42753
644.304	37189
644.363	36012
644.423	34020
644.482	34026
644.541	32649
644.600	35156
644.659	38448
644.719	44036
644.778	57663
644.837	82679
644.896	136616
644.955	282553
645.014	554419
645.073	135828
645.132	48035
645.191	41256
645.250	37121
645.309	35449
645.368	36791
645.427	41157
645.486	50074
645.545	82927
645.604	109402
645.663	40473
645.722	33991
645.781	35589
645.840	37315
645.898	43190
645.957	54366
646.016	78791
646.075	126035
646.134	225849
646.192	430184
646.251	1211208
646.310	1311038
646.369	169242
646.427	65594
646.486	55845
646.545	41983
646.603	37134
646.662	32571
646.721	30900
646.779	30737
646.838	31740
646.896	35071
646.955	41439
647.014	53318
647.072	81161
647.131	151808
647.189	380061
647.248	132163
647.306	34938
647.365	30547
647.423	26503
647.481	25995
647.540	25845
647.598	26113
647.657	25694
647.715	23490
647.773	25019
647.832	24541
647.890	23768
647.948	24060
648.007	24025
648.065	23343
648.123	23703
648.181	24505
648.240	25472
648.298	24254
648.356	24080
648.414	23003
648.472	25071
648.531	23804
648.589	23612
648.647	23028
648.705	23518
648.763	24467
648.821	25154
648.879	24610
648.937	26819
648.995	28521
649.053	34616
649.111	43863
649.169	64652
649.227	104697
649.285	181624
649.343	379179
649.401	1005727
649.459	361710
649.516	136929
649.574	72871
649.632	47753
649.690	60925
649.748	61827
649.806	50748
649.863	67827
649.921	108393
649.979	269394
650.037	135659
650.094	30920
650.152	26368
650.210	24264
650.268	23057
650.325	23166
650.383	23514
650.440	25347
650.498	21299
650.556	21449
650.613	20653
650.671	19624
650.728	20072
650.786	21508
650.843	24896
650.901	25413
650.958	20984
651.016	19732
651.073	17741
651.131	19666
651.188	18074
651.246	19452
651.303	19450
651.360	19667
651.418	18090
651.475	19241
651.532	17957
651.590	18396
651.647	18066
651.704	18168
651.762	18809
651.819	19343
651.876	19718
651.933	18839
651.990	17243
652.048	17411
652.105	17594
652.162	18165
652.219	17812
652.276	17026
652.333	17648
652.390	16954
652.448	16668
652.505	17509
652.562	17944
652.619	17053
652.676	17688
652.733	20905
652.790	19102
652.847	16912
652.904	16225
652.961	15847
653.017	16963
653.074	16921
653.131	16810
653.188	17550
653.245	15600
653.302	16185
653.359	16657
653.415	16642
653.472	17089
653.529	17426
653.586	16147
653.642	15610
653.699	16126
653.756	15873
653.813	16076
653.869	16025
653.926	15307
653.983	16121
654.039	16671
654.096	15388
654.152	16732
654.209	16155
654.266	16633
654.322	17580
654.379	18695
654.435	19527
654.492	21135
654.548	23813
654.605	32355
654.661	49914
654.717	21568
654.774	17521
654.830	18435
654.887	19399
654.943	17422
655.000	18192
655.056	18798
655.112	17507
655.168	17658
655.225	17975
655.281	19870
655.337	21461
655.394	27455
655.450	44580
655.506	30591
655.562	27980
655.618	46546
655.675	30654
655.731	17373
655.787	17186
655.843	17654
655.899	15887
655.955	16861
656.011	16890
656.067	16357
656.123	17223
656.179	17527
656.235	18407
656.291	17669
656.347	17931
656.403	18270
656.459	18971
656.515	18433
656.571	20867
656.627	21084
656.683	18730
656.739	18380
656.795	17767
656.850	16944
656.906	20413
656.962	21011
657.018	18704
657.074	16950
657.129	18652
657.185	21103
657.241	23896
657.297	38744
657.352	24906
657.408	16077
657.464	17492
657.519	18930
657.575	17526
657.630	14607
657.686	15652
657.742	14938
657.797	16277
657.853	14781
657.908	16835
657.964	15627
658.019	15405
658.075	15506
658.130	16241
658.186	16132
658.241	14884
658.297	14647
658.352	14839
658.407	15693
658.463	14086
658.518	15012
658.573	14873
658.629	14615
658.684	14804
658.739	14056
658.795	14179
658.850	13973
658.905	14546
658.960	15500
659.016	14108
659.071	15281
659.126	15867
659.181	17548
659.236	19594
659.291	29945
659.346	30434
659.401	21341
659.457	19234
659.512	15764
659.567	17045
659.622	16251
659.677	15941
659.732	15685
659.787	17168
659.842	17101
659.897	19552
659.952	23091
660.007	15322
660.061	14765
660.116	14496
660.171	15091
660.226	14531
660.281	15339
660.336	14431
660.391	13572
660.445	14335
660.500	14888
660.555	14754
660.610	15281
660.664	15715
660.719	13902
660.774	14664
660.828	15035
660.883	14757
660.938	15208
660.992	14755
661.047	14228
661.101	14035
661.156	13675
661.211	14579
661.265	14357
661.320	13849
661.374	14301
661.429	14340
661.483	13885
661.538	14182
661.592	14257
661.647	15326
661.701	15065
661.755	16820
661.810	13746
661.864	14879
661.919	14952
661.973	14913
662.027	15062
662.081	14585
662.136	13670
662.190	15022
662.244	15683
662.299	15671
662.353	15284
662.407	14887
662.461	14076
662.515	15410
662.569	15660
662.624	15381
662.678	14832
662.732	16075
662.786	14011
662.840	15985
662.894	15387
662.948	15175
663.002	14630
663.056	14040
663.110	13388
663.164	13923
663.218	14721
663.272	15035
663.326	14749
663.380	16268
663.434	17014
663.488	16221
663.542	15472
663.595	16000
663.649	15185
663.703	15674
663.757	14167
663.811	14063
663.864	14238
663.918	15195
663.972	13950
664.026	15997
664.079	14252
664.133	14838
664.187	14947
664.240	14415
664.294	14039
664.348	14311
664.401	14833
664.455	15073
664.508	13598
664.562	14251
664.615	14515
664.669	14298
664.722	13962
664.776	14000
664.829	13488
664.883	15230
664.936	13803
664.990	14932
665.043	15092
665.097	14856
665.150	17599
665.203	16841
665.257	17091
665.310	16796
665.363	14840
665.417	16403
665.470	16531
665.523	15786
665.576	16226
665.630	16912
665.683	15465
665.736	15792
665.789	16616
665.842	16270
665.895	15095
665.949	15655
666.002	15202
666.055	15768
666.108	15519
666.161	16834
666.214	16538
666.267	16903
666.320	16575
666.373	19931
666.426	17241
666.479	15899
666.532	17873
666.585	18718
666.638	21075
666.691	22732
666.744	20993
666.796	21021
666.849	20965
666.902	19854
666.955	17216
667.008	16469
667.060	14239
667.113	14985
667.166	14776
667.219	14799
667.271	14678
667.324	15406
667.377	14782
667.430	15526
667.482	14953
667.535	16899
667.587	17046
667.640	17088
667.693	18670
667.745	24011
667.798	33612
667.850	33675
667.903	18603
667.955	16754
668.008	16407
668.060	16585
668.113	18417
668.165	18078
668.218	19031
668.270	17619
668.322	16555
668.375	17370
668.427	16815
668.479	16632
668.532	15763
668.584	16934
668.636	17525
668.689	16839
668.741	16096
668.793	17695
668.845	16449
668.898	16947
668.950	16814
669.002	16769
669.054	17110
669.106	16696
669.158	17972
669.211	17458
669.263	16449
669.315	17491
669.367	18466
669.419	18528
669.471	20193
669.523	21553
669.575	22770
669.627	26795
669.679	24135
669.731	21511
669.783	19311
669.835	21006
669.886	22386
669.938	21340
669.990	19864
670.042	19967
670.094	19475
670.146	20514
670.197	22379
670.249	24926
670.301	27679
670.353	32814
670.404	42191
670.456	55267
670.508	81818
670.560	122413
670.611	196340
670.663	322839
670.715	545784
670.766	1165138
670.818	1764478
670.869	702615
670.921	146186
670.972	74713
671.024	54593
671.075	41219
671.127	33630
671.178	29103
671.230	26287
671.281	26396
671.333	24678
671.384	24663
671.436	26027
671.487	27397
671.538	29561
671.590	34218
671.641	41736
671.692	56922
671.744	85469
671.795	150323
671.846	114281
671.897	51208
671.949	32957
672.000	27159
672.051	23052
672.102	20939
672.153	19384
672.204	18891
672.256	18833
672.307	18152
672.358	17502
672.409	18566
672.460	17363
672.511	17502
672.562	16447
672.613	17737
672.664	16986
672.715	17461
672.766	16217
672.817	15851
672.868	15585
672.919	15965
672.970	16529
673.021	16093
673.071	15358
673.122	15522
673.173	15364
673.224	16028
673.275	14869
673.326	15053
673.376	15060
673.427	13882
673.478	14171
673.528	15481
673.579	14311
673.630	14964
673.680	14367
673.731	14308
673.782	15046
673.832	14634
673.883	14646
673.934	14913
673.984	15110
674.035	14584
674.085	15136
674.136	15252
674.186	15917
674.237	16855
674.287	20269
674.338	28476
674.388	19017
674.438	15405
674.489	15342
674.539	15655
674.589	16746
674.640	16791
674.690	15541
674.740	15773
674.791	16752
674.841	16269
674.891	15914
674.942	15287
674.992	13750
675.042	15117
675.092	13610
675.142	13222
675.193	14127
675.243	13716
675.293	13685
675.343	15007
675.393	15517
675.443	15341
675.493	14844
675.543	12780
675.593	13458
675.643	15264
675.693	13545
675.743	13255
675.793	14388
675.843	13459
675.893	13375
675.943	13642
675.993	12771
676.043	12269
676.093	13431
676.142	12899
676.192	13079
676.242	13316
676.292	13228
676.341	13248
676.391	14131
676.441	14642
676.491	12801
676.540	12166
676.590	11917
676.640	12081
676.689	12385
676.739	12856
676.789	11539
676.838	11925
676.888	12054
676.937	11678
676.987	12082
677.037	11984
677.086	11814
677.136	11536
677.185	11427
677.235	11818
677.284	10370
677.333	11539
677.383	11903
677.432	11371
677.482	11133
677.531	11378
677.580	10949
677.630	12571
677.679	11521
677.728	11348
677.778	11875
677.827	10697
677.876	10818
677.925	11246
677.975	11002
678.024	11953
678.073	11045
678.122	12076
678.171	12680
678.220	13232
678.269	12191
678.319	15038
678.368	13990
678.417	14314
678.466	13187
678.515	13159
678.564	12510
678.613	13547
678.662	12764
678.711	13068
678.760	12865
678.809	12637
678.857	11860
678.906	12362
678.955	11484
679.004	13127
679.053	11981
679.102	11669
679.151	12431
679.199	12898
679.248	11719
679.297	11593
679.346	12429
679.394	11920
679.443	12588
679.492	12375
679.540	11361
679.589	11443
679.638	12046
679.686	12118
679.735	10263
679.784	10694
679.832	12234
679.881	12153
679.929	11276
679.978	10933
680.026	9369
680.075	10741
680.123	11301
680.172	11157
680.220	10498
680.268	9521
680.317	10624
680.365	10602
680.414	10213
680.462	10953
680.510	10629
680.559	11204
680.607	10477
680.655	10101
680.703	10337
680.752	11461
680.800	10456
680.848	9820
680.896	9608
680.945	10336
680.993	9838
681.041	10943
681.089	10362
681.137	10477
681.185	9636
681.233	9898
681.258	10116
681.281	10274
681.329	10322
681.377	9292
681.380	9392
681.425	10320
681.473	10489
681.502	11539
681.521	12185
681.569	11846
681.617	11754
681.624	11791
681.665	11659
681.713	11885
681.745	11894
681.761	11817
681.809	11354
681.857	11000
681.867	11103
681.904	11265
681.952	11372
681.989	11582
682.000	11579
682.048	12578
682.096	11989
682.111	12070
682.143	12103
682.191	12501
682.233	11756
682.239	11580
682.286	12417
682.334	11683
682.354	11456
682.382	11084
682.430	11264
682.476	12877
682.477	12868
682.525	12646
682.572	11452
682.598	11757
682.620	11929
682.667	12867
682.715	12617
682.720	12684
682.763	12826
682.810	13219
682.841	12774
682.857	12534
682.905	13195
682.952	13521
682.963	13569
683.000	13307
683.047	13322
683.085	13780
683.095	13890
683.142	13328
683.190	13147
683.206	13160
683.237	13015
683.284	12906
683.328	13223
683.332	13215
683.379	12856
683.426	13673
683.449	13557
683.473	13396
683.521	13891
683.568	13419
683.571	13455
683.615	13345
683.662	14404
683.693	14348
683.709	14245
683.757	13640
683.804	13805
683.814	13825
683.851	13889
683.898	14821
683.936	15031
683.945	15024
683.992	14997
684.039	15031
684.057	15170
684.086	15357
684.133	16704
684.179	16239
684.180	16190
684.227	16441
684.274	16970
684.300	17124
684.321	16991
684.368	16310
684.415	15572
684.422	15682
684.462	16483
684.509	16075
684.543	15948
684.556	15736
684.603	15884
684.649	15404
684.665	15401
684.696	15594
684.743	16217
684.786	16060
684.790	16028
684.837	16331
684.883	16211
684.908	17014
684.930	17781
684.977	17779
685.023	19190
685.029	19133
685.070	18315
685.117	18026
685.150	17818
685.164	17599
685.210	18702
685.257	18992
685.272	18961
685.303	19263
685.350	19215
685.393	19370
685.396	19335
685.443	19150
685.490	20161
685.514	20400
685.536	20866
685.583	21906
685.629	21000
685.636	21158
685.675	20918
685.722	21051
685.757	19948
685.768	19708
685.815	20324
685.861	20660
685.878	20549
685.908	20327
685.954	20109
686.000	20501
686.000	20496
686.047	21358
686.093	21948
686.121	23448
686.139	24955
686.185	25602
686.232	25990
686.242	26152
686.278	24422
686.324	23633
686.363	22143
686.370	21905
686.416	20392
686.463	19710
686.484	19457
686.509	19841
686.555	19346
686.601	19983
686.606	20040
686.647	20078
686.693	19931
686.727	19869
686.739	19883
686.785	20140
686.831	19848
686.848	19980
686.877	20127
686.923	19674
686.969	19456
686.969	19454
687.015	19184
687.061	19899
687.090	19743
687.107	19738
687.153	20910
687.199	20867
687.211	20892
687.245	20685
687.291	19757
687.332	20429
687.336	20537
687.382	21917
687.428	22504
687.453	22184
687.474	21889
687.520	22066
687.565	22215
687.574	22398
687.611	22255
687.657	21237
687.695	20658
687.702	20706
687.748	20938
687.794	21920
687.816	21681
687.839	21796
687.885	23074
687.931	22624
687.937	22758
687.976	22144
688.022	21616
688.058	21665
688.067	21882
688.113	21321
688.158	21950
688.179	21960
688.204	21927
688.249	21423
688.295	21906
688.300	21957
688.340	22258
688.386	22001
688.421	22063
688.431	22238
688.477	21652
688.522	23374
688.542	23558
688.567	23489
688.613	23703
688.658	23470
688.663	23458
688.703	23500
688.749	23148
688.784	23469
688.794	23536
688.839	23629
688.884	23258
688.905	23097
688.930	22984
688.975	22642
689.020	22272
689.026	22334
689.065	23008
689.110	22960
689.146	22783
689.155	22819
689.201	23353
689.246	23752
689.267	23568
689.291	23029
689.336	23470
689.381	22499
689.388	22421
689.426	22736
689.471	23308
689.509	23495
689.516	23509
689.561	23046
689.606	23463
689.630	23320
689.651	23128
689.696	23192
689.741	23324
689.750	23217
689.785	23130
689.830	23418
689.871	23323
689.875	23327
689.920	22677
689.965	22926
689.992	22877
690.010	22853
690.054	22912
690.099	22514
690.112	22562
690.144	22977
690.189	22761
690.233	23195
690.233	23221
690.278	23109
690.323	23017
690.354	22959
690.367	22955
690.412	23228
690.457	23110
690.474	23239
690.501	23591
690.546	23449
690.590	23534
690.595	23487
690.635	23127
690.680	23465
690.716	22960
690.724	22895
690.769	23588
690.813	23325
690.836	23368
690.857	23731
690.902	24196
690.946	24797
690.957	24911
690.991	25515
691.035	26489
691.077	27394
691.080	27557
691.124	30508
691.168	32562
691.198	33445
691.213	33450
691.257	34121
691.301	35012
691.318	35081
691.346	34360
691.390	33600
691.434	32332
691.439	32152
691.478	29912
691.522	27798
691.559	26297
691.567	26461
691.611	26695
691.655	26938
691.680	26935
691.699	27004
691.743	27271
691.787	27486
691.800	27500
691.831	27368
691.875	27125
691.919	27323
691.921	27270
691.964	27073
692.008	27379
692.041	27100
692.052	27199
692.096	28033
692.139	28332
692.162	28510
692.183	28221
692.227	27842
692.271	27180
692.282	26993
692.315	27159
692.359	27255
692.402	27469
692.403	27513
692.447	27599
692.490	26967
692.523	27045
692.534	27226
692.578	27335
692.622	27771
692.643	27732
692.666	27744
692.709	28065
692.753	27828
692.763	27849
692.797	27926
692.840	27754
692.884	27684
692.884	27728
692.928	26896
692.971	27091
693.004	26285
693.015	26261
693.059	26943
693.102	27432
693.124	27553
693.146	27543
693.189	27355
693.233	27379
693.245	27323
693.276	27855
693.320	28558
693.363	29133
693.365	29094
693.407	29358
693.450	29946
693.485	30461
693.493	30640
693.537	30874
693.580	31495
693.605	31593
693.624	31799
693.667	32445
693.710	32964
693.725	33107
693.753	33725
693.797	34842
693.840	36395
693.845	36478
693.883	41220
693.926	46103
693.966	49962
693.970	49990
694.013	49690
694.056	49247
694.086	49191
694.099	47760
694.142	42823
694.185	37903
694.206	35479
694.229	35175
694.272	34450
694.315	33468
694.326	33251
694.358	33259
694.401	32910
694.444	32569
694.446	32499
694.487	33345
694.530	34200
694.566	34443
694.573	34346
694.616	33626
694.659	32590
694.686	32113
694.702	31756
694.745	30326
694.787	28959
694.806	28365
694.830	28093
694.873	27417
694.916	26776
694.926	26550
694.959	26858
695.002	27189
695.044	27570
695.046	27529
695.087	27872
695.130	28304
695.166	28237
695.172	28340
695.215	28972
695.258	29601
695.286	30005
695.301	29940
695.343	29168
695.386	28823
695.406	28452
695.428	28605
695.471	28933
695.514	29193
695.526	29258
695.556	29145
695.599	28734
695.641	28357
695.646	28255
695.684	28709
695.726	29212
695.766	29469
695.769	29492
695.811	28992
695.854	28484
695.886	28035
695.896	28178
695.938	28471
695.981	28558
696.005	28740
696.023	28759
696.065	28585
696.108	28408
696.125	28279
696.150	28505
696.192	28913
696.235	28972
696.245	28989
696.277	29697
696.319	30428
696.361	31069
696.365	31068
696.404	30667
696.446	30009
696.485	29467
696.488	29536
696.530	29420
696.572	29534
696.604	29451
696.614	29498
696.656	29474
696.698	29295
696.724	29067
696.740	29051
696.783	29141
696.825	29075
696.844	28973
696.867	29000
696.909	28985
696.951	28830
696.964	28774
696.992	29112
697.034	29412
697.076	29696
697.083	29670
697.118	29477
697.160	29212
697.202	29027
697.203	28953
697.244	29222
697.286	29366
697.323	29473
697.327	29578
697.369	29889
697.411	30191
697.442	30321
697.453	30327
697.494	30186
697.536	29975
697.562	29758
697.578	30147
697.620	30907
697.661	31720
697.682	32088
697.703	32199
697.744	32231
697.786	32274
697.801	32206
697.828	33016
697.869	34187
697.911	35330
697.921	35508
697.952	35529
697.994	35517
698.035	35531
698.040	35446
698.077	34070
698.118	32364
698.160	30634
698.160	30549
698.201	30621
698.243	30663
698.279	30514
698.284	30593
698.325	30766
698.367	30830
698.399	30816
698.408	30910
698.449	31022
698.491	31112
698.518	31077
698.532	31061
698.573	30815
698.614	30575
698.638	30352
698.656	30398
698.697	30320
698.738	30254
698.757	30146
698.779	30597
698.820	31329
698.862	32040
698.877	32230
698.903	32797
698.944	33567
698.985	34350
698.996	34480
699.026	34455
699.067	34307
699.116	34046
699.235	32358
699.354	31248
699.474	30574
699.593	33345
699.713	36362
699.832	35139
699.951	31974
700.070	35312
700.190	31565
700.309	32209
700.428	30717
700.547	35529
700.667	31887
700.786	31754
700.905	35375
701.024	31325
701.143	32299
701.262	32647
701.381	27507
701.500	29196
701.619	31037
701.738	34533
701.857	29378
701.976	27177
702.095	27964
702.214	28382
702.333	31140
702.452	32932
702.571	29707
702.690	28491
702.809	27868
702.928	28218
703.047	26601
703.165	27963
703.284	27116
703.403	26538
703.522	27274
703.640	32355
703.759	32289
703.878	36399
703.997	50512
704.115	30710
704.234	27602
704.353	27317
704.471	26948
704.590	26091
704.708	24563
704.827	24975
704.946	23703
705.064	25961
705.183	29603
705.301	25626
705.420	30146
705.538	41008
705.656	37122
705.775	32134
705.893	30476
706.012	37574
706.130	43847
706.249	34314
706.367	31847
706.485	34632
706.604	35537
706.722	34762
706.840	35225
706.958	43310
707.077	42804
707.195	34946
707.313	31198
707.431	30464
707.549	29106
707.668	31075
707.786	30314
707.904	31288
708.022	28797
708.140	28662
708.258	28284
708.376	28437
708.494	29418
708.612	28891
708.730	32325
708.848	43653
708.966	41565
709.084	38766
709.202	37967
709.320	35448
709.438	35339
709.556	36282
709.674	36870
709.791	34682
709.909	34664
710.027	35931
710.145	33572
710.263	33102
710.380	34436
710.498	34123
710.616	33522
710.733	33407
710.851	34190
710.969	36915
711.086	36584
711.204	34458
711.322	33356
711.439	34864
711.557	35446
711.674	36770
711.792	34066
711.909	35480
712.027	32459
712.144	32830
712.262	30912
712.379	31942
712.497	37044
712.614	47574
712.732	48320
712.849	42157
712.966	38655
713.084	44220
713.201	53272
713.318	44428
713.436	41087
713.553	39412
713.670	41569
713.787	42233
713.905	46527
714.022	49755
714.139	39364
714.256	41309
714.373	46596
714.490	58611
714.608	88869
714.725	197123
714.842	846800
714.959	1024230
715.076	97050
715.193	49849
715.310	41864
715.427	39762
715.544	35817
715.661	36119
715.778	35539
715.895	34574
716.011	38385
716.128	38409
716.245	35781
716.362	35101
716.479	39945
716.596	44741
716.713	33705
716.829	33889
716.946	32569
717.063	33424
717.180	30546
717.296	31470
717.413	29895
717.530	30952
717.646	29805
717.763	31316
717.880	30324
717.996	28393
718.113	29238
718.229	32174
718.346	28825
718.462	28278
718.579	29840
718.695	37645
718.812	64089
718.928	53613
719.045	46630
719.161	34557
719.277	27560
719.394	27731
719.510	26802
719.626	29542
719.743	30185
719.859	37400
719.975	43017
720.092	70367
720.208	238757
720.324	624852
720.440	98498
720.557	36345
720.673	37842
720.789	52719
720.905	73406
721.021	151883
721.137	59964
721.253	28487
721.369	27615
721.486	29012
721.602	33065
721.718	47719
721.834	27569
721.950	24844
722.066	25787
722.181	25071
722.297	23534
722.413	26555
722.529	24443
722.645	24441
722.761	23135
722.877	23756
722.993	23189
723.108	23439
723.224	25776
723.340	25188
723.456	25349
723.571	21896
723.687	22705
723.803	22442
723.918	22370
724.034	22919
724.150	22926
724.265	23097
724.381	25545
724.497	54120
724.612	77678
724.728	23945
724.843	20706
724.959	21813
725.074	25428
725.190	51616
725.305	67764
725.421	25410
725.536	22924
725.651	19689
725.767	18282
725.882	19666
725.997	17948
726.113	19009
726.228	19639
726.343	18784
726.459	19316
726.574	18305
726.689	19612
726.804	19048
726.920	17904
727.035	20377
727.150	18645
727.265	20237
727.380	19382
727.495	20668
727.610	17345
727.725	16955
727.841	18059
727.956	18721
728.071	22560
728.186	24864
728.301	17824
728.416	17083
728.531	18951
728.645	17016
728.760	16145
728.875	18897
728.990	20557
729.105	19631
729.220	18882
729.335	19779
729.449	19117
729.564	16920
729.679	15129
729.794	15308
729.908	16555
730.023	18950
730.138	17046
730.253	14560
730.367	15825
730.482	15707
730.596	14369
730.711	15718
730.826	17705
730.940	17116
731.055	17675
731.169	17437
731.284	16130
731.398	15153
731.513	15421
731.627	19543
731.742	18605
731.856	21649
731.970	25898
732.085	19623
732.199	23272
732.313	29446
732.428	45501
732.542	106296
732.656	308248
732.771	210266
732.885	41737
732.999	25560
733.113	22173
733.227	22158
733.342	20458
733.456	16630
733.570	17019
733.684	16235
733.798	16028
733.912	16617
734.026	16276
734.140	15400
734.254	16236
734.368	18357
734.482	31839
734.596	42177
734.710	16371
734.824	14355
734.938	14772
735.052	15073
735.166	16706
735.280	19142
735.393	15079
735.507	15557
735.621	14395
735.735	21060
735.849	39926
735.962	21084
736.076	14739
736.190	15932
736.303	16436
736.417	22697
736.531	31555
736.644	15141
736.758	15729
736.872	12646
736.985	14321
737.099	13780
737.212	12750
737.326	13621
737.439	12561
737.553	12729
737.666	13751
737.780	13493
737.893	12332
738.007	12496
738.120	12615
738.233	12780
738.347	12787
738.460	12540
738.573	12501
738.687	13775
738.800	13990
738.913	14541
739.026	18217
739.140	15340
739.253	12524
739.366	12332
739.479	11546
739.592	12664
739.705	11464
739.818	11347
739.932	11647
740.045	11516
740.158	11414
740.271	12739
740.384	11965
740.497	11988
740.610	12396
740.723	13385
740.836	13351
740.949	13912
741.062	14575
741.174	19179
741.287	17260
741.400	12919
741.513	11054
741.626	12203
741.739	13571
741.851	13396
741.964	13512
742.077	12067
742.189	12364
742.302	12404
742.415	13199
742.527	14231
742.640	12471
742.753	11601
742.865	11003
742.978	10409
743.090	10613
743.203	11037
743.316	11315
743.428	10497
743.541	9490
743.653	9841
743.766	10396
743.878	10501
743.990	10493
744.103	15530
744.215	15638
744.327	11469
744.440	11585
744.552	14009
744.664	22882
744.777	14689
744.889	11088
745.001	10234
745.113	8941
745.226	9845
745.338	9166
745.450	8911
745.562	10246
745.674	9101
745.786	8650
745.898	9565
746.010	8461
746.122	10301
746.234	9621
746.347	9658
746.459	9806
746.570	8835
746.682	8899
746.794	9597
746.906	10157
747.018	9494
747.130	9379
747.242	9391
747.354	9371
747.466	9051
747.577	10178
747.689	8916
747.801	8980
747.913	8501
748.024	8771
748.136	8464
748.248	8359
748.359	8486
748.471	8320
748.583	8586
748.694	8372
748.806	9584
748.918	9735
749.029	13533
749.141	11689
749.252	11168
749.364	9976
749.475	12820
749.587	25860
749.698	20745
749.809	10303
749.921	8309
750.032	8181
750.144	8514
750.255	7711
750.366	7534
750.478	7333
750.589	8681
750.700	7594
750.811	10158
750.923	9238
751.034	12574
751.145	28324
751.256	32421
751.367	11011
751.479	8844
751.590	7693
751.701	8334
751.812	8051
751.923	8418
752.034	7454
752.145	8344
752.256	7899
752.367	8526
752.478	7648
752.589	6608
752.700	7340
752.811	7716
752.922	7467
753.032	8021
753.143	9340
753.254	10962
753.365	8363
753.476	8605
753.586	8140
753.697	7244
753.808	7391
753.919	8181
754.029	6832
754.140	6918
754.251	6673
754.361	7268
754.472	7080
754.582	7310
754.693	7397
754.804	7103
754.914	7398
755.025	7520
755.135	6318
755.246	7693
755.356	7033
755.466	7150
755.577	7108
755.687	6256
755.798	6702
755.908	7600
756.018	7012
756.129	7096
756.239	6870
756.349	7472
756.460	7630
756.570	8408
756.680	8036
756.790	7403
756.900	8546
757.011	9422
757.121	6869
757.231	6706
757.341	7248
757.451	7322
757.561	6609
757.671	6928
757.781	5825
757.891	7089
758.001	6767
758.111	7470
758.221	7482
758.331	7909
758.441	10246
758.551	9397
758.661	13462
758.771	14511
758.880	8494
758.990	9501
759.100	8298
759.210	8438
759.320	8262
759.429	8667
759.539	7900
759.649	8769
759.758	8322
759.868	10062
759.978	9369
760.087	9965
760.197	10317
760.307	10153
760.416	9653
760.526	10086
760.635	9135
760.745	9241
760.854	9154
760.964	9656
761.073	11225
761.182	10966
761.292	10881
761.401	10394
761.511	11131
761.620	9635
761.729	9131
761.839	8468
761.948	9328
762.057	9088
762.166	9891
762.276	9017
762.385	8056
762.494	8594
762.603	7973
762.712	8203
762.822	8840
762.931	9552
763.040	7648
763.149	8109
763.258	7624
763.367	8362
763.476	8240
763.585	9259
763.694	8821
763.803	9154
763.912	9221
764.021	9623
764.130	8739
764.238	9558
764.347	8843
764.456	8960
764.565	11113
764.674	11404
764.783	10176
764.891	10944
765.000	10842
765.109	11796
765.217	12408
765.326	14428
765.435	16365
765.543	21410
765.652	19084
765.761	21425
765.869	27113
765.978	37614
766.086	54527
766.195	94535
766.303	182046
766.412	429021
766.520	1004223
766.629	948828
766.737	381360
766.846	139896
766.954	76903
767.062	52502
767.171	38886
767.279	32232
767.387	24440
767.496	20713
767.604	16962
767.712	16405
767.820	15323
767.928	14321
768.037	13942
768.145	12973
768.253	13069
768.361	12665
768.469	12558
768.577	12675
768.685	11992
768.793	13279
768.901	12702
769.009	14493
769.117	14685
769.225	17108
769.333	20097
769.441	27065
769.549	39562
769.657	71556
769.765	156412
769.873	444696
769.981	875358
770.088	441262
770.196	113738
770.304	53134
770.412	35895
770.519	27693
770.627	21574
770.735	18308
770.842	16079
770.950	14933
771.058	12547
771.165	14074
771.273	12187
771.380	12296
771.488	11338
771.595	10853
771.703	10934
771.810	11671
771.918	10138
772.025	11150
772.133	10585
772.240	11369
772.348	10346
772.455	11367
772.562	11008
772.670	10807
772.777	9219
772.884	10072
772.991	9478
773.099	9616
773.206	9516
773.313	9678
773.420	9591
773.528	9136
773.635	8920
773.742	8794
773.849	8240
773.956	8895
774.063	9010
774.170	9880
774.277	8831
774.384	9451
774.491	8748
774.598	9654
774.705	9384
774.812	9891
774.919	12473
775.026	10908
775.133	9616
775.239	9589
775.346	9115
775.453	8942
775.560	8004
775.667	8425
775.773	8405
775.880	8945
775.987	8152
776.093	8040
776.200	7974
776.307	8416
776.413	8256
776.520	8549
776.627	8778
776.733	8422
776.840	8102
776.946	8986
777.053	8343
777.159	8858
777.266	9571
777.372	9021
777.478	8831
777.585	10261
777.691	9555
777.798	8723
777.904	9043
778.010	9441
778.117	12659
778.223	13088
778.329	8903
778.435	8070
778.542	7751
778.648	7693
778.754	7426
778.860	7184
778.966	6760
779.072	8203
779.178	7911
779.284	7771
779.391	6549
779.497	7331
779.603	7913
779.708	7821
779.815	8847
779.920	9903
780.026	20458
780.132	41511
780.238	13038
780.344	8185
780.450	6822
780.556	8250
780.661	6932
780.767	7002
780.873	7763
780.979	6977
781.085	5944
781.190	7210
781.296	6981
781.402	6584
781.507	6123
781.613	6910
781.719	6592
781.824	6485
781.930	6562
782.035	6589
782.141	6898
782.246	7071
782.352	6939
782.457	7353
782.563	6335
782.668	6674
782.773	6239
782.879	7459
782.984	6657
783.090	8107
783.195	8495
783.300	13130
783.405	11146
783.511	8182
783.616	7144
783.721	7209
783.826	7915
783.932	6422
784.037	7238
784.142	7851
784.247	6628
784.352	7234
784.457	6535
784.562	7352
784.667	5986
784.772	7206
784.877	6742
784.982	6864
785.087	6082
785.192	6459
785.297	6253
785.402	6503
785.507	5812
785.611	6390
785.716	6579
785.821	6748
785.926	5746
786.031	6066
786.135	5193
786.240	5579
786.345	5739
786.450	5785
786.554	5744
786.659	5595
786.763	5274
786.868	6695
786.973	5654
787.077	5686
787.182	4750
787.286	5269
787.391	5432
787.495	5180
787.600	5285
787.704	4928
787.809	4959
787.913	5590
788.017	4842
788.122	4899
788.226	5028
788.330	5320
788.435	4883
788.539	5546
788.643	5779
788.747	5503
788.852	3765
788.956	5105
789.060	4305
789.164	4848
789.268	4973
789.372	4655
789.476	4799
789.580	5386
789.684	4874
789.788	4429
789.892	5390
789.996	5375
790.100	5919
790.204	5170
790.308	5228
790.412	6775
790.516	5660
790.620	5261
790.724	5414
790.828	5515
790.931	5113
791.035	4951
791.139	4003
791.242	5201
791.346	4242
791.450	5464
791.554	4546
791.657	4339
791.761	5231
791.864	5150
791.968	5095
792.072	4829
792.175	5448
792.279	4670
792.382	4790
792.486	4905
792.589	4771
792.693	5377
792.796	5626
792.899	4550
793.003	4977
793.106	5138
793.209	4534
793.313	4994
793.416	5144
793.519	5431
793.623	5149
793.726	8648
793.829	13767
793.932	7700
794.035	4571
794.138	5251
794.242	5726
794.345	5765
794.448	6730
794.551	8832
794.654	13089
794.757	16252
794.860	20753
794.963	11008
795.066	7429
795.169	4722
795.272	4208
795.375	4531
795.477	5040
795.580	4800
795.683	3928
795.786	4056
795.889	3165
795.991	4985
796.094	4276
796.197	4738
796.300	5845
796.402	4233
796.505	3784
796.608	4421
796.710	3665
796.813	3971
796.915	3378
797.018	4087
797.120	4379
797.223	3204
797.326	4239
797.428	4482
797.530	3388
797.633	3827
797.735	4644
797.838	5545
797.940	10711
798.042	9523
798.145	4065
798.247	2980
798.349	2848
798.452	3426
798.554	3572
798.656	3898
798.758	4078
798.860	4887
798.962	3928
799.065	4292
799.167	3515
799.269	4423
799.371	3386
799.473	5185
799.575	5296
799.677	7762
799.779	8666
799.881	6887
799.983	10340
800.085	8192
800.187	4582
800.289	4288
800.390	3538
800.492	4592
800.594	3321
800.696	2964
800.798	3574
800.899	3931
801.001	3498
801.103	3454
801.205	3310
801.306	3899
801.408	3776
801.509	4010
801.611	3248
801.713	3563
801.814	2979
801.916	3257
802.017	3115
802.119	3596
802.220	1826
802.322	2781
802.423	3899
802.525	6517
802.626	5928
802.727	3601
802.829	3207
802.930	3485
803.031	3916
803.133	3109
803.234	3400
803.335	3833
803.436	3155
803.538	2336
803.639	3168
803.740	2301
803.841	3259
803.942	3110
804.043	3177
804.144	3280
804.245	3558
804.346	3752
804.447	3311
804.548	3831
804.649	6385
804.750	8790
804.851	3835
804.952	2941
805.053	2654
805.154	3128
805.255	1765
805.355	2787
805.456	3287
805.557	2898
805.658	2614
805.758	3109
805.859	2879
805.960	3513
806.061	3199
806.161	2975
806.262	2244
806.362	3616
806.463	2672
806.564	3642
806.664	2689
806.765	3532
806.865	4687
806.966	6176
807.066	3392
807.166	3893
807.267	2882
807.367	3082
807.468	2734
807.568	2608
807.668	2823
807.769	2692
807.869	2719
807.969	2839
808.069	3181
808.170	3108
808.270	2014
808.370	3215
808.470	2959
808.570	5946
808.670	6105
808.770	3269
808.870	1997
808.970	3011
809.070	2763
809.170	2378
809.271	2964
809.370	3335
809.470	2776
809.570	2261
809.670	2553
809.770	3315
809.870	2447
809.970	2553
810.070	2917
810.169	2819
810.269	2139
810.369	2620
810.469	2261
810.568	2597
810.668	1497
810.768	3081
810.867	2700
810.967	2639
811.066	1957
811.166	2841
811.265	2570
811.365	3112
811.464	2397
811.564	2425
811.663	2424
811.763	2500
811.862	3150
811.962	2802
812.061	3482
812.160	3117
812.260	2600
812.359	3319
812.458	4128
812.557	7420
812.657	13772
812.756	26025
812.855	11847
812.954	4763
813.053	3877
813.153	3525
813.252	3704
813.351	3600
813.450	3369
813.549	2932
813.648	2682
813.747	3292
813.846	2738
813.945	2942
814.044	3467
814.143	4025
814.242	2882
814.341	3186
814.439	3642
814.538	3526
814.637	3583
814.736	3865
814.835	4067
814.933	4600
815.032	3879
815.131	4452
815.229	3486
815.328	5469
815.427	5523
815.525	5810
815.624	4958
815.722	4837
815.821	4802
815.919	6534
816.018	5246
816.116	7595
816.215	6807
816.313	7710
816.412	7272
816.510	7190
816.609	8001
816.707	9047
816.805	8597
816.904	9828
817.002	9043
817.100	11886
817.198	12106
817.296	12960
817.395	14600
817.493	17229
817.591	19193
817.689	22947
817.787	29367
817.885	39717
817.983	58520
818.081	101273
818.179	190355
818.277	399210
818.375	849765
818.473	906167
818.571	415197
818.669	178810
818.767	108575
818.865	85378
818.963	81775
819.061	90760
819.158	120910
819.256	189874
819.354	345256
819.452	673606
819.549	1201544
819.647	1036262
819.745	511897
819.842	244208
819.940	141592
820.038	95231
820.135	67879
820.233	52055
820.330	40078
820.428	32977
820.525	27196
820.623	23909
820.720	20703
820.818	19056
820.915	16964
821.012	15706
821.110	13523
821.207	12512
821.304	11256
821.402	10782
821.499	10702
821.596	9897
821.693	9868
821.791	10083
821.888	9213
821.985	10749
822.082	15830
822.179	18911
822.276	9015
822.373	7798
822.470	6079
822.567	5569
822.664	5733
822.761	6322
822.858	4646
822.955	5527
823.052	6639
823.149	5184
823.246	5289
823.343	6041
823.440	4752
823.536	4848
823.633	4010
823.730	4400
823.827	4402
823.923	4628
824.020	4502
824.117	4684
824.213	4233
824.310	4941
824.407	3966
824.503	3985
824.600	2874
824.696	4271
824.793	4007
824.889	3894
824.986	3753
825.082	3687
825.179	2767
825.275	3557
825.371	3120
825.468	4509
825.564	3240
825.660	3574
825.757	2979
825.853	4113
825.949	2948
826.045	3287
826.142	2816
826.238	3405
826.334	3173
826.430	2818
826.526	3356
826.622	2171
826.718	2137
826.814	3428
826.910	3464
827.006	3805
827.102	2294
827.198	3041
827.294	3045
827.390	3267
827.486	3337
827.582	2539
827.678	2527
827.774	3233
827.869	2226
827.965	2874
828.061	2358
828.157	2941
828.252	2869
828.348	2538
828.444	3158
828.539	2437
828.635	2165
828.731	2891
828.826	2539
828.922	2603
829.017	2837
829.113	3701
829.208	3098
829.304	3276
829.399	2656
829.495	3162
829.590	2674
829.685	2717
829.781	2018
829.876	2853
829.971	2137
830.066	2008
830.162	1765
830.257	2122
830.352	1863
830.447	3347
830.543	2665
830.638	3189
830.733	3213
830.828	3086
830.923	2742
831.018	1769
831.113	2380
831.208	2631
831.303	2497
831.398	2318
831.493	1797
831.588	2839
831.683	1754
831.778	2742
831.873	2676
831.967	2088
832.062	1742
832.157	1973
832.252	2936
832.346	2144
832.441	2097
832.536	3287
832.631	6027
832.725	11023
832.820	13278
832.914	3342
833.009	2261
833.104	2449
833.198	3536
833.293	4592
833.387	3362
833.482	3281
833.576	2228
833.670	2327
833.765	1980
833.859	2848
833.954	3193
834.048	3703
834.142	2390
834.237	2298
834.331	1930
834.425	1987
834.519	1246
834.613	2518
834.708	1619
834.802	1863
834.896	1079
834.990	2696
835.084	1646
835.178	1480
835.272	2052
835.366	2692
835.460	2849
835.554	2650
835.648	1340
835.742	1582
835.836	2051
835.930	2109
836.024	1848
836.117	3600
836.211	1280
836.305	2796
836.399	4399
836.493	5786
836.586	3986
836.680	1731
836.774	2084
836.867	2202
836.961	1143
837.055	1292
837.148	841
837.242	2196
837.335	1552
837.429	1925
837.522	1275
837.616	1921
837.709	2882
837.803	6032
837.896	6543
837.989	3260
838.083	2512
838.176	4600
838.269	7819
838.363	11421
838.456	3335
838.549	2383
838.642	4050
838.735	7331
838.829	13466
838.922	8277
839.015	2184
839.108	1981
839.201	1543
839.294	1200
839.387	1906
839.480	3167
839.573	1693
839.666	3300
839.759	5021
839.852	3466
839.945	1498
840.038	1921
840.131	1234
840.223	834
840.316	1717
840.409	1396
840.502	1461
840.594	2205
840.687	1405
840.780	2013
840.873	1775
840.965	1700
841.058	3117
841.150	4048
841.243	7416
841.336	8025
841.428	2025
841.521	1881
841.613	1341
841.706	2919
841.798	2220
841.890	1850
841.983	1232
842.075	2121
842.167	1410
842.260	1991
842.352	2296
842.444	3011
842.537	6493
842.629	8383
842.721	15269
842.813	5343
842.905	1282
842.997	2126
843.090	2500
843.182	3370
843.274	4596
843.366	11249
843.458	19559
843.550	41900
843.642	33418
843.734	8065
843.826	2611
843.918	3920
844.009	4859
844.101	2970
844.193	1994
844.285	2250
844.377	1735
844.469	2392
844.560	1180
844.652	2376
844.744	1516
844.835	1571
844.927	1891
845.019	2898
845.110	3403
845.202	3297
845.293	1244
845.385	1800
845.476	1629
845.568	1537
845.659	1939
845.751	1701
845.842	1753
845.934	1647
846.025	1724
846.116	1648
846.208	1614
846.299	926
846.390	1675
846.482	1765
846.573	1972
846.664	3050
846.755	3700
846.846	5564
846.937	5809
847.029	2587
847.120	1188
847.211	1811
847.302	1524
847.393	918
847.484	1548
847.575	1264
847.666	839
847.757	415
847.847	1534
847.938	1671
848.029	1189
848.120	1318
848.211	1715
848.302	1501
848.392	1065
848.483	1642
848.574	848
848.664	1506
848.755	1757
848.846	1799
848.936	1269
849.027	2012
849.118	1432
849.208	2289
849.299	2419
849.389	2945
849.480	5993
849.570	10857
849.661	21357
849.751	36608
849.841	70426
849.932	39273
850.022	6648
850.112	3165
850.203	2696
850.293	1543
850.383	1629
850.474	1908
850.564	1161
850.654	1398
850.744	1119
850.834	1926
850.924	1139
851.014	1456
851.104	1221
851.194	1889
851.284	1781
851.374	3428
851.464	4196
851.554	2959
851.644	2618
851.734	2572
851.824	3757
851.914	4037
852.004	1996
852.094	1612
852.183	1527
852.273	1660
852.363	1014
852.452	1759
852.542	776
852.632	1734
852.721	2371
852.811	1848
852.901	1359
852.990	1742
853.080	2123
853.169	1965
853.259	3223
853.348	2612
853.438	3181
853.527	4019
853.617	5644
853.706	8419
853.795	14396
853.885	27440
853.974	60776
854.063	117372
854.152	190800
854.242	344597
854.331	194556
854.420	40361
854.509	13246
854.598	9289
854.687	6936
854.777	6019
854.866	5151
854.955	4496
855.044	3105
855.133	2763
855.222	1993
855.311	2518
855.400	2506
855.488	2077
855.577	1750
855.666	1853
855.755	1981
855.844	1949
855.933	1545
856.021	2205
856.110	2378
856.199	1312
856.288	834
856.376	1052
856.465	991
856.554	1270
856.642	315
856.731	1710
856.819	1742
856.908	2101
856.996	1468
857.085	1947
857.173	1411
857.262	990
857.350	701
857.438	1253
857.527	816
857.615	1162
857.703	1006
857.792	1146
857.880	954
857.968	1087
858.056	1801
858.145	1336
858.233	845
858.321	1739
858.409	1161
858.497	1091
858.585	1379
858.673	1446
858.761	472
858.849	1925
858.937	910
859.025	1222
859.113	624
859.201	1053
859.289	656
859.377	839
859.465	586
859.552	810
859.640	677
859.728	1211
859.816	990
859.903	1454
859.991	809
860.079	1467
860.166	1264
860.254	971
860.342	1085
860.429	1381
860.517	678
860.604	1522
860.692	575
860.779	1141
860.867	982
860.954	709
861.042	1443
861.129	2098
861.216	2174
861.304	1316
861.391	1225
861.478	1285
861.565	908
861.653	1298
861.740	-26
861.827	1846
861.914	598
862.001	350
862.089	1228
862.176	995
862.263	1122
862.350	476
862.437	429
862.524	1284
862.611	548
862.698	624
862.785	714
862.871	1245
862.958	1022
863.045	835
863.132	1159
863.219	232
863.306	57
863.392	1238
863.479	830
863.566	836
863.652	923
863.739	601
863.826	748
863.912	1003
863.999	816
864.086	1306
864.172	1542
864.259	1967
864.345	1120
864.432	1197
864.518	1008
864.604	898
864.691	1200
864.777	1624
864.863	1932
864.950	1562
865.036	1344
865.122	2469
865.209	3142
865.295	3362
865.381	3458
865.467	4236
865.553	3587
865.639	6278
865.726	8506
865.812	15613
865.898	29059
865.984	58205
866.070	87627
866.156	145062
866.242	210344
866.328	83254
866.414	16851
866.499	8061
866.585	5745
866.671	4787
866.757	3526
866.843	4169
866.928	3580
867.014	3992
867.100	2988
867.186	3113
867.271	3339
867.357	3765
867.442	4319
867.528	6229
867.614	3014
867.699	2733
867.785	1991
867.870	1954
867.956	2718
868.041	3514
868.127	2175
868.212	2650
868.297	4043
868.383	2988
868.468	2423
868.553	3957
868.639	6665
868.724	8073
868.809	13669
868.894	19513
868.979	6875
869.065	2426
869.150	1811
869.235	2960
869.320	1936
869.405	1649
869.490	1155
869.575	1317
869.660	1936
869.745	1553
869.830	1369
869.915	1860
870.000	1897
870.085	1455
870.169	1419
870.254	1952
870.339	1577
870.424	1251
870.509	1683
870.593	1995
870.678	1370
870.763	2527
870.847	1160
870.932	1140
871.016	1738
871.101	2028
871.186	1188
871.270	1859
871.355	1851
871.439	2018
871.523	359
871.608	1799
871.692	562
871.777	1691
871.861	1520
871.945	1321
872.030	569
872.114	1236
872.198	724
872.282	1153
872.367	891
872.451	1633
872.535	999
872.619	1197
872.703	1585
872.787	1683
872.871	1073
872.955	1063
873.039	674
873.123	1582
873.207	1693
873.291	1431
873.375	602
873.459	1425
873.543	1304
873.627	1773
873.711	755
873.794	1754
873.878	262
873.962	1191
874.045	1397
874.129	1197
874.137	1216
874.213	1407
874.245	1604
874.296	1918
874.352	1319
874.380	1031
874.460	1042
874.464	1042
874.547	1229
874.568	1140
874.631	877
874.676	996
874.714	1093
874.784	1226
874.798	1254
874.881	1067
874.892	1145
874.965	1718
874.999	1472
875.048	1102
875.107	1597
875.131	1799
875.215	1316
875.215	1316
875.298	1497
875.323	1352
875.381	1057
875.430	1234
875.465	1346
875.538	1174
875.548	1144
875.631	1806
875.646	1892
875.714	2311
875.753	1884
875.798	1432
875.861	971
875.881	816
875.964	1601
875.968	1585
876.047	1282
876.076	1407
876.130	1646
876.183	1082
876.213	774
876.291	1639
876.296	1697
876.379	1295
876.398	1401
876.462	1695
876.506	1280
876.545	974
876.613	1389
876.628	1462
876.711	1213
876.721	1266
876.794	1773
876.828	1635
876.877	1350
876.935	1740
876.960	1938
877.043	1210
877.043	1212
877.125	1548
877.150	1617
877.208	1920
877.258	2336
877.291	2595
877.365	1728
877.374	1624
877.456	1919
877.472	1953
877.539	1978
877.579	1982
877.622	2062
877.687	1908
877.704	1868
877.787	2095
877.794	2045
877.869	1495
877.901	1574
877.952	1585
878.008	1352
878.034	1359
878.115	1595
878.117	1592
878.199	1472
878.222	1473
878.282	1688
878.329	1809
878.364	1867
878.437	1792
878.447	1782
878.529	1378
878.544	1271
878.611	876
878.651	1224
878.694	1526
878.758	1383
878.776	1356
878.858	1184
878.865	1190
878.941	1134
878.972	1298
879.023	1647
879.078	1480
879.105	1433
879.185	1092
879.187	1082
879.269	1545
879.292	1669
879.351	1928
879.399	1600
879.433	1470
879.506	1388
879.516	1341
879.598	726
879.613	767
879.680	1285
879.720	1540
879.762	1454
879.827	400
879.844	257
879.926	978
879.933	955
880.007	716
880.040	904
880.089	1105
880.147	1505
880.171	1727
880.253	3253
880.254	3264
880.335	4519
880.360	5461
880.417	8010
880.467	9218
880.499	10380
880.574	15852
880.580	16207
880.662	23360
880.680	21086
880.744	10648
880.787	5650
880.825	2464
880.893	1530
880.907	1356
880.989	976
881.000	1015
881.070	1625
881.106	1392
881.152	776
881.213	652
881.233	680
881.315	1035
881.319	1044
881.396	1063
881.426	906
881.478	828
881.532	899
881.559	831
881.639	863
881.641	870
881.722	1002
881.745	929
881.803	506
881.852	490
881.885	700
881.958	1115
881.966	1078
882.047	760
882.064	709
882.129	1338
882.171	1634
882.210	1677
882.277	2065
882.291	2273
882.372	4690
882.383	4669
882.454	3133
882.489	2103
882.535	1104
882.596	813
882.616	872
882.697	970
882.702	974
882.778	521
882.808	521
882.859	690
882.914	553
882.940	474
883.020	880
883.021	882
883.102	-53
883.127	-21
883.183	624
883.233	782
883.264	608
883.339	884
883.345	932
883.426	798
883.445	822
883.507	530
883.551	323
883.587	286
883.657	413
883.668	511
883.749	881
883.763	1008
883.830	994
883.869	725
883.910	534
883.975	577
883.991	600
884.072	689
884.081	667
884.152	420
884.187	401
884.233	674
884.292	1144
884.314	1167
884.394	692
884.398	674
884.475	399
884.504	399
884.555	378
884.610	366
884.636	382
884.716	304
884.716	305
884.797	509
884.821	571
884.877	691
884.927	1037
884.958	966
885.033	90
885.038	88
885.118	889
885.139	888
885.199	508
885.244	459
885.279	621
885.350	745
885.359	682
885.439	397
885.456	321
885.520	681
885.561	866
885.600	638
885.667	262
885.680	334
885.760	949
885.773	960
885.840	624
885.878	696
885.920	968
885.984	1117
886.000	989
886.080	383
886.089	322
886.160	281
886.195	322
886.240	561
886.300	812
886.320	753
886.400	488
886.406	481
886.480	1278
886.511	1509
886.560	1251
886.616	935
886.640	1119
886.720	2103
886.722	2117
886.800	1116
886.827	791
886.879	966
886.932	1030
886.959	925
887.038	874
887.039	880
887.119	1127
887.143	1223
887.198	914
887.248	511
887.278	553
887.354	870
887.358	872
887.437	813
887.459	805
887.517	908
887.564	879
887.596	913
887.669	1117
887.676	1079
887.755	542
887.774	403
887.835	191
887.880	57
887.914	170
887.985	356
887.994	374
888.073	606
888.090	637
888.153	1004
888.195	1307
888.232	1311
888.300	1284
888.311	1257
888.391	889
888.405	848
888.470	1173
888.510	1362
888.549	1052
888.615	541
888.628	579
888.708	737
888.720	769
888.787	1006
888.825	1099
888.866	1055
888.930	1096
888.945	1101
889.024	1026
889.035	1021
889.103	994
889.140	947
889.182	875
889.245	796
889.261	872
889.340	1258
889.349	1296
889.419	1029
889.454	899
889.498	841
889.559	754
889.577	673
889.656	322
889.664	291
889.735	1009
889.768	1346
889.814	1188
889.873	979
889.978	617
890.083	778
890.187	1444
890.292	867
890.397	1146
890.501	640
890.606	1155
890.710	556
890.815	1276
890.919	465
891.024	509
891.128	1274
891.233	1467
891.337	1156
891.442	960
891.546	-4
891.650	897
891.755	731
891.859	1460
891.963	893
892.068	1698
892.172	1398
892.276	418
892.380	-53
892.484	505
892.589	1614
892.693	1114
892.797	426
892.901	1280
893.005	992
893.109	1168
893.213	1330
893.317	1345
893.421	372
893.525	1834
893.629	-211
893.733	1080
893.837	1015
893.941	1425
894.045	723
894.148	424
894.252	1130
894.356	771
894.460	1648
894.564	1285
894.667	749
894.771	511
894.875	60
894.978	1167
895.082	9
895.186	1042
895.289	1084
895.393	1140
895.496	626
895.600	1819
895.703	1194
895.807	1110
895.910	1250
896.014	1398
896.117	1083
896.221	1096
896.324	727
896.427	41
896.531	953
896.634	332
896.737	680
896.840	481
896.944	694
897.047	863
897.150	287
897.253	452
897.356	1012
897.460	710
897.563	443
897.666	1115
897.769	1036
897.872	907
897.975	1374
898.078	906
898.181	305
898.284	1018
898.387	909
898.490	1528
898.593	777
898.695	980
898.798	937
898.901	561
899.004	885
899.107	1112
899.209	782
899.312	779
899.415	468
899.518	1226
899.620	635
899.723	303
899.826	1765
899.928	1709
900.031	1004
900.133	502
900.236	-141
900.338	360
900.441	378
900.543	284
900.646	215
900.748	337
900.851	623
900.953	679
901.055	243
901.158	494
901.260	1611
901.362	-25
901.465	457
901.567	714
901.669	642
901.771	1114
901.873	76
901.976	719
902.078	487
902.180	1768
902.282	135
902.384	1275
902.486	-500
902.588	788
902.690	1258
902.792	367
902.894	155
902.996	359
903.098	-369
903.200	876
903.302	566
903.404	815
903.505	10
903.607	190
903.709	399
903.811	687
903.913	1033
904.014	363
904.116	566
904.218	-437
904.319	425
904.421	1058
904.523	-8
904.624	960
904.726	412
904.827	637
904.929	331
905.030	661
905.132	-323
905.233	715
905.335	100
905.436	253
905.537	643
905.639	1450
905.740	348
905.841	1310
905.943	60
906.044	845
906.145	181
906.247	-120
906.348	671
906.449	782
906.550	-348
906.651	1242
906.752	309
906.854	183
906.955	892
907.056	89
907.157	195
907.258	723
907.359	64
907.460	344
907.561	-301
907.662	596
907.762	724
907.863	472
907.964	429
908.065	469
908.166	324
908.267	279
908.367	455
908.468	510
908.569	266
908.670	699
908.770	680
908.871	377
908.971	539
909.072	1157
909.173	1014
909.273	456
909.374	1480
909.474	685
909.575	1161
909.675	-221
909.776	560
909.876	-76
909.977	248
910.077	1381
910.177	-157
910.278	517
910.378	144
910.478	684
910.579	286
910.679	768
910.779	473
910.879	672
910.980	816
911.080	409
911.180	354
911.280	463
911.380	369
911.480	301
911.580	659
911.680	-77
911.780	929
911.880	749
911.980	679
912.080	-27
912.180	697
912.280	463
912.380	-297
912.480	851
912.580	335
912.679	-589
912.779	777
912.879	688
912.979	-51
913.078	962
913.178	-206
913.278	550
913.377	-52
913.477	329
913.577	568
913.676	999
913.776	-2
913.875	730
913.975	-46
914.074	496
914.174	218
914.273	138
914.373	-270
914.472	258
914.572	872
914.671	262
914.770	-144
914.870	118
914.969	86
915.068	345
915.167	184
915.267	563
915.366	814
915.465	123
915.564	472
915.663	519
915.763	290
915.862	-133
915.961	-833
916.060	624
916.159	347
916.258	782
916.357	-200
916.456	540
916.555	194
916.654	804
916.752	794
916.851	948
916.950	258
917.049	430
917.148	812
917.247	599
917.345	-312
917.444	135
917.543	-339
917.642	517
917.740	-33
917.839	399
917.937	747
918.036	197
918.135	-760
918.233	-18
918.332	136
918.430	527
918.529	492
918.627	-213
918.726	368
918.824	494
918.923	558
919.021	538
919.119	-892
919.218	582
919.316	142
919.414	621
919.512	596
919.611	897
919.709	-186
919.807	625
919.905	1390
920.003	722
920.102	-92
920.200	120
920.298	261
920.396	623
920.494	1019
920.592	375
920.690	-214
920.788	579
920.886	277
920.984	214
921.082	241
921.180	1274
921.277	106
921.375	-14
921.473	648
921.571	863
921.669	-378
921.766	425
921.864	177
921.962	937
922.060	371
922.157	670
922.255	539
922.352	416
922.450	891
922.548	243
922.645	149
922.743	330
922.840	641
922.938	1982
923.035	1996
923.133	1670
923.230	1092
923.327	1323
923.425	3008
923.522	1989
923.619	1840
923.717	2143
923.814	1990
923.911	1857
924.008	1510
924.106	1215
924.203	1228
924.300	1111
924.397	2280
924.494	1851
924.591	1821
924.688	1152
924.786	1603
924.883	1259
924.979	1916
925.077	1131
925.173	1292
925.270	1629
925.367	1226
925.464	1527
925.561	1716
925.658	2187
925.755	1917
925.852	1721
925.948	1863
926.045	1495
926.142	931
926.239	1477
926.335	1397
926.432	1173
926.529	1331
926.625	1953
926.722	1358
926.818	1192
926.915	424
927.011	1308
927.108	1828
927.204	1004
927.301	1429
927.397	1707
927.494	717
927.590	1823
927.687	1231
927.783	609
927.879	1702
927.976	1549
928.072	746
928.168	964
928.264	1222
928.361	924
928.457	878
928.553	1598
928.649	20
928.745	568
928.841	1115
928.937	1449
929.033	1345
929.129	1778
929.225	754
929.321	980
929.417	927
929.513	1257
929.609	963
929.705	1168
929.801	1754
929.897	1276
929.993	585
930.089	1132
930.184	689
930.280	368
930.376	1235
930.471	2066
930.567	888
930.663	1158
930.758	750
930.854	840
930.950	397
931.045	1023
931.141	369
931.236	1165
931.332	1667
931.427	1191
931.523	1609
931.618	1797
931.714	207
931.809	1095
931.905	1551
932.000	1505
932.095	315
932.191	774
932.286	33
932.381	633
932.476	537
932.572	497
932.667	838
932.762	1525
932.857	548
932.952	1056
933.047	1215
933.142	933
933.237	-13
933.332	206
933.427	530
933.522	612
933.617	158
933.712	1018
933.807	1086
933.902	958
933.997	1232
934.092	674
934.187	-52
934.282	761
934.376	794
934.471	680
934.566	751
934.661	968
934.755	307
934.850	44
934.945	873
935.039	900
935.134	732
935.228	473
935.323	725
935.417	1563
935.512	361
935.606	-127
935.701	920
935.795	942
935.890	768
935.984	270
936.079	336
936.173	424
936.267	416
936.362	619
936.456	-264
936.550	710
936.644	958
936.738	940
936.833	561
936.927	469
937.021	33
937.115	629
937.209	212
937.303	1108
937.397	1039
937.491	1087
937.585	40
937.679	696
937.773	291
937.867	55
937.961	323
938.055	524
938.149	1000
938.243	622
938.337	-408
938.430	647
938.524	584
938.618	1180
938.712	535
938.805	32
938.899	125
938.993	1027
939.086	265
939.180	1286
939.274	1045
939.367	279
939.461	402
939.554	879
939.648	426
939.741	435
939.835	464
939.928	649
940.022	-105
940.115	783
940.208	1189
940.302	1009
940.395	334
940.488	-141
940.582	200
940.675	0
940.768	0
940.861	238
940.954	551
941.048	508
941.141	-63
941.234	301
941.327	860
941.420	1318
941.513	1100
941.606	276
941.699	183
941.792	-397
941.885	157
941.978	351
942.071	122
942.164	-19
942.257	-366
942.349	540
942.442	481
942.535	268
942.628	419
942.721	494
942.813	135
942.906	616
942.999	-395
943.091	196
943.184	299
943.277	1070
943.369	-10
943.462	1057
943.554	303
943.647	54
943.739	607
943.832	133
943.924	841
944.017	330
944.109	117
944.201	534
944.294	793
944.386	344
944.478	382
944.571	606
944.663	59
944.755	449
944.847	-955
944.940	881
945.032	9
945.124	451
945.216	-287
945.308	109
945.400	232
945.492	340
945.584	301
945.676	318
945.768	118
945.860	-412
945.952	115
946.044	779
946.136	758
946.228	-409
946.320	-227
946.412	415
946.503	176
946.595	-347
946.687	-573
946.779	461
946.870	-861
946.962	-300
947.054	-312
947.145	572
947.237	-100
947.329	100
947.420	63
947.512	57
947.603	-136
947.695	-206
947.786	-16
947.878	11
947.969	53
948.061	-113
948.152	98
948.243	406
948.335	-692
948.426	-409
948.517	-679
948.609	136
948.700	526
948.791	327
948.882	-1338
948.973	-197
949.065	165
949.156	159
949.247	-682
949.338	-10
949.429	-379
949.520	-49
949.611	-1208
949.702	165
949.793	-285
949.884	-293
949.975	-847
950.066	-505
950.157	-1277
950.247	-647
950.338	-631
950.429	-211
950.520	-359
950.611	-240
950.701	-389
950.792	356
950.883	558
950.973	-197
951.064	-180
951.155	-109
951.245	-861
951.336	-23
951.427	344
951.517	55
951.608	-330
951.698	-134
951.788	-86
951.879	111
951.969	-950
952.060	42
952.150	-230
952.240	72
952.331	-252
952.421	118
952.511	-822
952.602	-549
952.692	-610
952.782	-687
952.872	-448
952.962	104
953.052	-670
953.143	105
953.233	-186
953.323	-433
953.413	-931
953.503	-38
953.593	-449
953.683	34
953.773	37
953.863	15
953.953	-166
954.042	-254
954.132	-923
954.222	200
954.312	-120
954.402	28
954.492	-358
954.581	1217
954.671	880
954.761	137
954.850	-189
954.940	568
955.030	-1147
955.119	-1011
955.209	276
955.298	-1173
955.388	-396
955.477	-202
955.567	-802
955.656	-435
955.746	-173
955.835	40
955.925	142
956.014	-261
956.103	-672
956.193	252
956.282	76
956.371	1
956.461	-74
956.550	-585
956.639	-378
956.728	-523
956.817	-202
956.906	-760
956.995	-858
957.085	-192
957.174	-412
957.263	-234
957.352	-409
957.441	-1092
957.530	-645
957.619	-393
957.708	-369
957.796	-132
957.885	-401
957.974	-548
958.063	-652
958.152	-726
958.241	-5
958.329	-813
958.418	-950
958.507	-35
958.596	-491
958.684	279
958.773	-735
958.861	-1446
958.950	-445
959.039	-124
959.127	-574
959.216	78
959.304	-429
959.393	-722
959.481	-735
959.570	-310
959.658	-243
959.746	-11
959.835	32
959.923	427
960.011	768
960.100	251
960.188	-141
960.276	-31
960.365	-786
960.453	-588
960.541	274
960.629	-891
960.717	-298
960.805	-761
960.893	-826
960.981	-883
961.069	204
961.158	-171
961.245	-249
961.333	274
961.421	-917
961.509	-259
961.597	-967
961.685	-246
961.773	-966
961.861	-444
961.949	-547
962.036	77
962.124	-108
962.212	193
962.299	-809
962.387	-37
962.475	-929
962.562	-687
962.650	-374
962.738	-215
962.825	-1057
962.913	107
963.000	-217
963.088	-305
963.175	-254
963.263	-156
963.350	198
963.438	-548
963.525	-119
963.612	-37
963.700	351
963.787	2621
963.874	6375
963.962	2479
964.049	-414
964.136	-630
964.223	-932
964.310	-397
964.398	-662
964.485	-1104
964.572	-1091
964.659	316
964.746	310
964.833	303
964.920	-590
965.007	-662
965.094	-797
965.181	-441
965.268	-283
965.355	-580
965.441	-265
965.528	-1095
965.615	-531
965.702	-374
965.789	-642
965.875	-386
965.962	-695
966.049	151
966.136	-251
966.222	-883
966.309	-1588
966.395	-1206
966.482	-594
966.569	-790
966.655	-962
966.742	-36
966.828	-1000
966.915	40
967.001	-666
967.087	-15
967.174	-409
967.260	-1129
967.347	950
967.433	626
967.519	2005
967.605	3985
967.692	681
967.778	-431
967.864	-263
967.950	-441
968.036	-671
968.123	-572
968.209	-431
968.295	259
968.381	-557
968.467	-784
968.553	-390
968.639	-996
968.725	-736
968.811	532
968.897	174
968.983	-523
969.069	-793
969.154	-581
969.240	-137
969.326	-181
969.412	-1054
969.497	-1139
969.583	-761
969.669	-266
969.755	-786
969.840	-436
969.926	-548
970.012	-399
970.097	312
970.183	492
970.268	69
970.354	-185
970.439	-893
970.525	453
970.610	1444
970.696	224
970.781	-1448
970.866	-381
970.952	-1397
971.037	-711
971.122	-888
971.208	-400
971.293	-1001
971.378	-514
971.463	-640
971.549	-1436
971.634	-1355
971.719	-353
971.804	-936
971.889	-37
971.974	-946
972.059	-862
972.144	-1254
972.229	-969
972.314	-843
972.399	-1256
972.484	-423
972.569	-745
972.654	-623
972.739	-251
972.824	205
972.908	1523
972.993	-491
973.078	-1533
973.163	-946
973.247	-592
973.332	-802
973.417	-131
973.501	-1475
973.586	-1085
973.671	-252
973.755	-590
973.840	-519
973.924	-328
974.009	-815
974.093	-511
974.178	-303
974.262	-230
974.346	-300
974.431	984
974.515	-369
974.600	-298
974.684	-454
974.768	-790
974.852	-1276
974.937	-620
975.021	-789
975.105	-1399
975.189	-1329
975.273	-683
975.358	-1189
975.442	-353
975.526	-673
975.610	-1305
975.694	-372
975.778	-52
975.862	-867
975.946	-1208
976.030	-1121
976.114	-1069
976.198	-15
976.281	-43
976.365	-1393
976.449	-678
976.533	-716
976.617	-703
976.700	-624
976.784	-556
976.868	-737
976.951	-215
977.035	217
977.119	-272
977.202	-1460
977.286	-516
977.369	-906
977.453	-452
977.536	-583
977.620	-671
977.703	-486
977.787	-946
977.870	-111
977.953	12
978.037	-907
978.120	-816
978.203	-164
978.287	747
978.370	975
978.453	-54
978.536	-1276
978.620	100
978.703	-550
978.786	703
978.869	-723
978.952	-1165
979.035	-621
979.118	-245
979.201	-952
979.284	-68
979.367	-1587
979.450	-933
979.533	-1422
979.616	-1587
979.699	-880
979.782	-254
979.865	-1433
979.948	-1187
980.030	-272
980.113	-618
980.196	-817
980.279	-550
980.361	-905
980.444	-281
980.526	-878
980.609	-761
980.692	-571
980.774	-771
980.857	-478
980.939	-12
981.022	-675
981.104	-835
981.187	-1196
981.269	-547
981.352	-800
981.434	-1456
981.516	-1377
981.599	-524
981.681	-620
981.763	-259
981.846	-1008
981.928	-1151
982.010	-804
982.092	-1156
982.174	-905
982.256	-1202
982.339	-734
982.421	-908
982.503	-792
982.585	-1045
982.667	-1379
982.749	-467
982.831	-540
982.913	-1173
982.995	-898
983.077	-1160
983.158	-1093
983.240	-510
983.322	-138
983.404	-738
983.486	-994
983.568	-424
983.649	-1026
983.731	-479
983.813	-479
983.894	-304
983.976	-1648
984.058	-254
984.139	-1248
984.221	-683
984.302	-794
984.384	-1185
984.465	-1091
984.547	-427
984.628	-1151
984.710	-412
984.791	-1143
984.872	-980
984.954	-1054
985.035	-954
985.116	-1218
985.198	-1117
985.279	-224
985.360	-1216
985.441	-1172
985.522	-157
985.604	-979
985.685	-806
985.766	-665
985.847	-767
985.928	-1004
986.009	-907
986.090	-1304
986.171	-1473
986.252	-880
986.333	-1077
986.414	-1066
986.495	-111
986.576	-838
986.656	-787
986.737	-702
986.818	-1065
986.899	-1150
986.980	-1085
987.060	-1008
987.141	-522
987.222	-1281
987.302	-1235
987.383	-985
987.464	-824
987.544	-474
987.625	308
987.705	-580
987.786	-262
987.866	-1547
987.947	85
988.027	-1733
988.108	-659
988.188	-761
988.268	-1085
988.349	-1691
988.429	-1485
988.509	-379
988.589	-447
988.670	-1379
988.750	-129
988.830	-647
988.910	-476
988.990	-1036
989.070	-1025
989.151	-531
989.231	-573
989.311	-1371
989.391	-985
989.471	-864
989.551	-1318
989.631	-1011
989.711	-455
989.791	-1461
989.870	-424
989.950	-932
990.030	-62
990.110	-1180
990.190	-866
990.269	-1186
990.349	-760
990.429	-1492
990.509	-500
990.588	-1266
990.668	-895
990.747	-1297
990.827	-582
990.907	-1425
990.986	-921
991.066	-1030
991.145	-906
991.225	-1287
991.304	-399
991.383	-1914
991.463	-911
991.542	-1485
991.622	-587
991.701	-1595
991.780	-1223
991.859	-1516
991.939	-1418
992.018	-1334
992.097	-880
992.176	-486
992.256	-550
992.335	-1694
992.414	-1323
992.493	-1605
992.572	-758
992.651	-1332
992.730	-2422
992.809	-1154
992.888	-1105
992.967	-970
993.046	-639
993.125	-1640
993.203	-982
993.282	-1278
993.361	-867
993.440	-2270
993.519	-1106
993.597	-1971
993.676	-1295
993.755	-1491
993.834	-876
993.912	-1728
993.991	-966
994.069	-1750
994.148	-909
994.226	-919
994.305	-1948
994.384	-673
994.462	-549
994.540	-774
994.619	-1371
994.697	-952
994.776	-1761
994.854	-1087
994.932	-696
995.011	-1607
995.089	-1667
995.167	-1282
995.245	-1186
995.324	-1702
995.402	-813
995.480	-1529
995.558	-1303
995.636	-2069
995.714	-1575
995.792	-894
995.870	-815
995.948	-1285
996.026	-1058
996.104	-1824
996.182	-1722
996.260	-774
996.338	-1610
996.416	-1675
996.494	-1793
996.572	-1362
996.649	-1246
996.727	-2076
996.805	-974
996.883	-524
996.960	-847
997.038	-2075
997.116	-1059
997.193	-2105
997.271	-1011
997.348	-1186
997.426	-446
997.504	-1519
997.581	-1264
997.658	-2152
997.736	-1388
997.813	-1999
997.891	-1015
997.968	-1572
998.046	-1520
998.123	-2011
998.200	-441
998.277	-1624
998.355	-627
998.432	-887
998.509	-1502
998.586	-1658
998.663	-1495
998.741	-1305
998.818	-2093
998.895	-1426
998.972	-1542
999.049	-1125
999.126	-1195
999.203	-906
999.280	-978
999.357	-1962
999.434	-233
999.511	-1513
999.587	-2099
999.664	-1578
999.741	-1091
999.818	-1578
999.895	-1409
999.971	-1890
1000.048	-1756
1000.125	-1824
1000.202	-1410
1000.278	-1429
1000.355	-972
1000.431	-2333
1000.508	-1709
1000.584	-2089
1000.661	-1665
1000.738	-2084
1000.814	-1797
1000.890	-2444
1000.967	-1183
1001.043	-1767
1001.120	-1861
1001.196	-1047
1001.272	-1687
1001.349	-1343
1001.425	-1460
1001.501	-2001
1001.577	-2085
1001.654	-1813
1001.730	-1800
1001.806	-1651
1001.882	-1954
1001.958	-1581
1002.034	-1298
1002.110	-1623
1002.186	-1468
1002.262	-2305
1002.338	-1984
1002.414	-2431
1002.490	-1130
1002.566	-1491
1002.642	-1585
1002.718	-1612
1002.794	-1795
1002.870	-1564
1002.945	-1834
1003.021	-1612
1003.097	-1539
1003.173	-1212
1003.248	-1234
1003.324	-1953
1003.400	-1429
1003.475	-1080
1003.551	-2547
1003.626	-1585
1003.702	-1751
1003.777	-1841
1003.853	-1467
1003.928	-2021
1004.004	-1417
1004.079	-1289
1004.155	-1373
1004.230	-1643
1004.305	-2278
1004.381	-2978
1004.456	-1710
1004.531	-2033
1004.607	-1618
1004.682	-1723
1004.757	-1325
1004.832	-1858
1004.907	-1004
1004.982	-1128
1005.057	-2199
1005.133	-1986
1005.208	-1618
1005.283	-1646
1005.358	-2117
1005.433	-2006
1005.508	-1836
1005.583	-2520
1005.657	-2312
1005.732	-1234
1005.807	-2186
1005.882	-1888
1005.957	-1569
1006.032	-1683
1006.106	-1617
1006.181	-997
1006.256	-1704
1006.331	-1455
1006.405	-1224
1006.480	-1640
1006.554	-1761
1006.629	-2069
1006.704	-1589
1006.778	-1846
1006.853	-2216
1006.927	-1395
1007.002	-1473
1007.076	-1006
1007.150	-1770
1007.225	-1799
1007.299	-532
1007.373	-2608
1007.448	-1342
1007.522	-2300
1007.596	-1503
1007.671	-1927
1007.745	-1119
1007.819	-1994
1007.893	-1641
1007.967	-2356
1008.041	-1401
1008.115	-1850
1008.190	-962
1008.264	-1433
1008.338	-1851
1008.412	-2203
1008.486	-1705
1008.560	-1774
1008.633	-2691
1008.707	-1916
1008.781	-1909
1008.855	-1708
1008.929	-2198
1009.003	-1684
1009.076	-1309
1009.150	-2474
1009.224	-1997
1009.298	-1835
1009.371	-1339
1009.445	-1999
1009.519	-1534
1009.592	-1617
1009.666	-1413
1009.739	-2263
1009.813	-2388
1009.886	-2168
1009.960	-1343
1010.033	-1687
1010.107	-1150
1010.180	-2039
1010.253	-2172
1010.327	-2133
1010.400	-2461
1010.473	-2809
1010.547	-1492
1010.620	-1355
1010.693	-939
1010.766	-1948
1010.840	-1575
1010.913	-2332
1010.986	-2135
1011.059	-2456
1011.132	-1681
1011.205	-2172
1011.278	-1278
1011.351	-1877
1011.424	-1501
1011.497	-2353
1011.570	-2366
1011.643	-1887
1011.716	-1882
1011.789	-2214
1011.862	-1219
1011.934	-1809
1012.007	-1794
1012.080	-2221
1012.153	-2107
1012.225	-1234
1012.298	-1822
1012.371	-1884
1012.443	-1830
1012.516	-2467
1012.588	-2001
1012.661	-2111
1012.733	-1315
1012.806	-1349
1012.879	-1746
1012.951	-2616
1013.023	-2157
1013.096	-1785
1013.168	-1533
1013.241	-2304
1013.313	-2089
1013.385	-2674
1013.458	-1796
1013.530	-1651
1013.602	-1910
1013.674	-2180
1013.746	-2294
1013.819	-2818
1013.891	-1687
1013.963	-2261
1014.035	-1446
1014.107	-1641
1014.179	-2067
1014.251	-2089
1014.323	-1826
1014.395	-1798
1014.467	-1703
1014.539	-1787
1014.611	-1006
1014.683	-2171
1014.754	-1753
1014.826	-2081
1014.898	-2364
1014.970	-2191
1015.042	-1694
1015.113	-2312
1015.185	-1768
1015.257	-2516
1015.328	-2207
1015.400	-2552
1015.471	-1987
1015.543	-1819
1015.615	-1390
1015.686	-2206
1015.757	-1870
1015.829	-2229
1015.901	-1751
1015.972	-2205
1016.043	-1990
1016.115	-2241
1016.186	-2622
1016.257	-3040
1016.328	-1858
1016.400	-2133
1016.471	-1951
1016.542	-2396
1016.613	-1979
1016.685	-1970
1016.756	-2161
1016.827	-1528
1016.898	-2195
1016.969	-2206
1017.040	-2419
1017.111	-1902
1017.182	-1696
1017.253	-1795
1017.324	-2551
1017.395	-2633
1017.466	-1725
1017.537	-2143
1017.608	-1969
1017.678	-2572
1017.749	-1803
1017.820	-2680
1017.891	-2501
1017.961	-2495
1018.032	-1979
1018.103	-2570
1018.173	-1874
1018.244	-2577
1018.315	-1735
1018.385	-1567
1018.456	-2071
1018.526	-2303
1018.597	-2737
1018.667	-1683
1018.738	-2206
1018.808	-2730
1018.878	-1745
1018.949	-2659
1019.019	-2176
1019.089	-1918
1019.160	-1824
1019.230	-2631
1019.300	-2036
1019.371	-3011
1019.441	-2161
1019.511	-2356
1019.581	-1097
1019.651	-2151
1019.721	-2741
1019.791	-2070
1019.861	-2117
1019.931	-1783
1020.001	-2386
1020.071	-2956
1020.141	-1812
1020.211	-1504
1020.281	-1967
1020.351	-2173
1020.421	-1388
1020.491	-1895
1020.560	-2504
1020.630	-2379
1020.700	-1845
1020.770	-2121
1020.839	-2486
1020.909	-2939
1020.979	-2052
1021.048	-2810
1021.118	-2610
1021.187	-1904
1021.257	-2529
1021.326	-1923
1021.396	-2724
1021.465	-1956
1021.535	-2362
1021.604	-2279
1021.674	-1919
1021.743	-2600
1021.812	-1453
1021.882	-2709
1021.951	-2228
1022.020	-2340
1022.089	-2531
1022.159	-2937
1022.228	-2038
1022.297	-1979
1022.366	-1861
1022.435	-2460
1022.504	-1741
1022.573	-2558
1022.642	-1899
1022.711	-2490
1022.781	-2057
1022.849	-1995
1022.918	-2306
1022.987	-3093
1023.056	-2251
1023.125	-2449
1023.194	-2297
1023.263	-2202
1023.331	-1570
1023.400	-2546
1023.469	-2228
1023.538	-2681
1023.606	-2516
1023.675	-2077
1023.744	-2714
1023.812	-2740
1023.881	-2596
1023.949	-2106
1024.018	-2016
1024.086	-1975
1024.155	-2041
1024.223	-2261
1024.292	-2547
1024.360	-2824
1024.429	-2000
1024.497	-2478
1024.565	-2230
1024.634	-2005
1024.702	-1590
1024.770	-1379
1024.838	-2271
1024.907	-2343
1024.975	-1962
1025.043	-2201
1025.111	-1942
1025.179	-2039
1025.247	-2655
1025.315	-1996
1025.383	-2003
1025.451	-2010
1025.519	-2004
1025.587	-1929
1025.655	-2249
1025.723	-2489
1025.791	-1870
1025.859	-1557
1025.927	-2137
1025.995	-2625
1026.062	-2126
1026.130	-1755
1026.198	-1846
1026.266	-1283
1026.333	-2002
1026.401	-1891
1026.469	-1925
1026.536	-2264
1026.604	-1907
1026.671	-1599
1026.739	-2680
1026.806	-2126
1026.874	-1954
1026.941	-2307
1027.009	-2288
1027.076	-2148
1027.144	-1287
1027.211	-2757
1027.278	-2013
1027.345	-2324
1027.413	-2660
1027.480	-3003
1027.547	-1713
1027.614	-2042
1027.682	-2605
1027.749	-2057
1027.816	-1661
1027.883	-2413
1027.950	-1580
1028.017	-2150
1028.084	-2370
1028.151	-2048
1028.218	-2016
1028.285	-1453
1028.352	-1377
1028.419	-2489
1028.486	-1822
1028.553	-1832
1028.619	-1898
1028.686	-1787
1028.753	-1661
1028.820	-2025
1028.886	-1963
1028.953	-1964
1029.020	-2105
1029.086	-2274
1029.153	-1944
1029.220	-2088
1029.286	-2293
1029.353	-2734
1029.419	-2719
1029.486	-1907
1029.552	-2173
1029.619	-1858
1029.685	-1690
1029.751	-1925
1029.818	-2071
1029.884	-2041
1029.951	-979
1030.017	-2711
1030.083	-2401
1030.149	-2165
1030.216	-1555
1030.282	-1653
1030.348	-1822
1030.414	-2339
1030.480	-2164
1030.546	-2653
1030.612	-1946
1030.678	-2373
1030.744	-2293
1030.810	-1798
1030.876	-1785
1030.942	-2070
1031.008	-2709
1031.074	-1811
1031.140	-1875
1031.206	-2222
1031.272	-1833
1031.337	-1389
1031.403	-1530
1031.469	-2264
1031.534	-2278
1031.600	-1272
1031.666	-1880
1031.731	-1668
1031.797	-1893
1031.863	-2664
1031.928	-1761
1031.994	-2303
1032.059	-1657
1032.125	-1719
1032.190	-2228
1032.256	-2128
1032.321	-2116
1032.386	-1703
1032.452	-2099
1032.517	-2010
1032.582	-1675
1032.647	-1597
1032.713	-1826
1032.778	-1908
1032.843	-1144
1032.908	-2999
1032.974	-2363
1033.039	-2390
1033.104	-1534
1033.169	-1860
1033.234	-1887
1033.299	-1972
1033.364	-1073
1033.429	-2544
1033.494	-1931
1033.559	-2172
1033.624	-1679
1033.688	-2317
1033.753	-2021
1033.818	-3033
1033.883	-2509
1033.948	-2166
1034.013	-1566
1034.077	-2272
1034.142	-1486
1034.207	-2023
1034.271	-985
1034.336	-1461
1034.400	-1231
1034.465	-1210
1034.530	-867
1034.594	-1137
1034.658	-897
1034.723	-1418
1034.787	-2625
1034.852	-2249
1034.916	-1577
1034.981	-2557
1035.045	-1845
1035.109	-2500
1035.173	-1421
1035.238	-2276
1035.302	-1208
1035.366	-1521
1035.430	-2095
1035.495	-2579
1035.559	-1898
1035.623	-1581
1035.687	-2175
1035.751	-2377
1035.815	-1964
1035.879	-2147
1035.943	-2186
1036.007	-1864
1036.071	-1513
1036.135	-1763
1036.198	-1578
1036.262	-2058
1036.326	-1727
1036.390	-1640
1036.454	-1896
1036.517	-2193
1036.581	-2034
1036.645	-1937
1036.709	-1148
1036.772	-1224
1036.836	-1237
1036.900	-1711
1036.963	-1969
1037.026	-1682
1037.090	-1292
1037.154	-2099
1037.217	-2515
1037.280	-2186
1037.344	-1639
1037.407	-1976
1037.471	-1264
1037.534	-2445
1037.597	-2134
1037.661	-2113
1037.724	-1748
1037.787	-2528
1037.850	-812
1037.913	-2732
1037.977	-1286
1038.040	-1683
1038.103	-2221
1038.166	-2234
1038.229	-2366
1038.292	-2777
1038.355	-2217
1038.418	-2347
1038.481	-1381
1038.544	-2138
1038.607	-2471
1038.670	-2182
1038.732	-2840
1038.795	-2127
1038.858	-1924
1038.921	-1760
1038.984	-1026
1039.046	-1813
1039.109	-1841
1039.172	-2088
1039.234	-2289
1039.297	-2348
1039.360	-1786
1039.422	-2209
1039.485	-2323
1039.547	-2616
1039.610	-2207
1039.672	-2040
1039.734	-1569
1039.797	-1483
1039.859	-1786
1039.922	-2343
1039.984	-1336
1040.046	-1855
1040.109	-1928
1040.171	-2560
1040.233	-1574
1040.295	-2458
1040.358	-1919
1040.420	-1957
1040.482	-2463
1040.544	-1990
1040.606	-1946
1040.668	-2037
1040.730	-2190
1040.792	-2024
1040.854	-1845
1040.916	-2420
1040.978	-1120
1041.040	-1981
1041.102	-2269
1041.164	-3066
1041.225	-2254
1041.287	-2914
1041.349	-2561
1041.411	-1813
1041.472	-1955
1041.534	-1742
1041.596	-2719
1041.657	-2056
1041.719	-2117
1041.781	-2517
1041.842	-1393
1041.904	-3005
1041.965	-1813
1042.027	-1462
1042.088	-2102
1042.150	-1436
1042.211	-1890
1042.272	-2022
1042.334	-2918
1042.395	-2758
1042.456	-1973
1042.518	-2502
1042.579	-1375
1042.640	-2373
1042.701	-2119
1042.763	-2261
1042.824	-2481
1042.885	-2135
1042.946	-2424
1043.007	-2253
1043.068	-1593
1043.129	-2422
1043.190	-1657
1043.251	-2296
1043.312	-1432
1043.373	-2401
1043.434	-2543
1043.495	-2259
1043.556	-1898
1043.616	-2454
1043.677	-1874
1043.738	-1878
1043.799	-2341
1043.859	-1562
1043.920	-1787
1043.981	-1736
1044.041	-2047
1044.102	-2492
1044.162	-1886
1044.223	-2254
1044.284	-1561
1044.344	-2576
1044.405	-2006
1044.465	-2656
1044.525	-1906
1044.586	-3185
1044.646	-1690
1044.707	-2690
1044.767	-2183
1044.827	-2409
1044.887	-1919
1044.948	-2689
1045.008	-2367
1045.068	-1830
1045.128	-1569
1045.188	-2486
1045.249	-1327
1045.309	-2737
1045.369	-1869
1045.429	-2021
1045.489	-1750
1045.549	-1873
1045.609	-1991
1045.669	-1984
1045.729	-1394
1045.789	-1889
1045.848	-2666
1045.908	-1525
1045.968	-2144
1046.028	-2344
1046.088	-2672
1046.147	-2469
1046.207	-1763
1046.267	-1816
1046.326	-2014
1046.386	-609
1046.446	-1778
1046.505	-2325
1046.565	-1105
1046.624	-1620
1046.684	-839
1046.743	-804
1046.803	-359
1046.862	-1000
1046.922	0
