'Start Wavelength	183.907
'End Wavelength	1046.922
'Gate Delay	5.000
'Gate Width (ms)	1.050
'Laser Output Level	0.000
'X Position	0.000
'Y Position	0.000
'Z Position	0.000
'Grid Point Number	1.000
'Shot Number	100.000
183.907	-170.000
183.977	525.000
184.047	-556
184.116	20
184.186	371
184.256	870
184.325	191
184.395	-348
184.465	-23
184.534	336
184.604	201
184.674	56
184.743	-580
184.813	844
184.883	-860
184.952	318
185.022	190
185.092	957
185.161	49
185.231	985
185.301	168
185.370	980
185.440	112
185.509	54
185.579	306
185.649	-152
185.718	-625
185.788	1160
185.857	144
185.927	1139
185.996	288
186.066	477
186.136	468
186.205	457
186.275	777
186.344	1709
186.414	-73
186.483	374
186.553	803
186.622	961
186.692	166
186.761	455
186.831	330
186.900	709
186.970	20
187.039	854
187.109	853
187.178	644
187.248	188
187.317	904
187.387	123
187.456	1280
187.526	497
187.595	1115
187.664	294
187.734	1337
187.803	1
187.873	1041
187.942	359
188.012	1457
188.081	151
188.150	128
188.220	929
188.289	1098
188.358	416
188.428	1079
188.497	-86
188.567	494
188.636	503
188.705	614
188.775	-269
188.844	871
188.913	1208
188.983	824
189.052	344
189.121	1012
189.191	967
189.260	886
189.329	713
189.399	451
189.468	137
189.537	770
189.606	651
189.676	931
189.745	-89
189.814	1171
189.883	-421
189.953	762
190.022	797
190.091	2982
190.161	1167
190.230	1154
190.299	564
190.368	1228
190.437	595
190.507	507
190.576	572
190.645	834
190.714	574
190.783	1928
190.853	662
190.922	698
190.991	606
191.060	879
191.129	611
191.198	570
191.268	-118
191.337	354
191.406	539
191.475	943
191.544	311
191.613	841
191.682	260
191.752	989
191.821	991
191.890	801
191.959	214
192.028	831
192.097	-5
192.166	845
192.235	256
192.304	1222
192.373	171
192.442	358
192.511	1031
192.580	207
192.650	134
192.719	1186
192.788	822
192.857	1261
192.926	570
192.995	1347
193.064	1152
193.133	1878
193.202	1238
193.271	1762
193.340	531
193.409	1613
193.478	1748
193.547	2344
193.615	2775
193.684	2037
193.753	882
193.822	1543
193.891	645
193.960	1216
194.029	702
194.098	1408
194.167	755
194.236	681
194.305	640
194.374	993
194.443	-77
194.512	1837
194.580	906
194.649	1490
194.718	1264
194.787	748
194.856	386
194.925	1215
194.994	461
195.062	1771
195.131	1077
195.200	1867
195.269	823
195.338	632
195.407	819
195.475	1426
195.544	878
195.613	1655
195.682	634
195.751	1701
195.819	1471
195.888	1620
195.957	1831
196.026	1497
196.094	1186
196.163	1699
196.232	1264
196.301	1988
196.369	1075
196.438	1361
196.507	1292
196.576	653
196.644	921
196.713	1510
196.782	985
196.850	1407
196.919	1157
196.988	1545
197.056	203
197.125	1146
197.194	237
197.262	737
197.331	433
197.400	992
197.468	77
197.537	1490
197.606	1203
197.674	2780
197.743	1484
197.812	1906
197.880	1997
197.949	2015
198.017	2811
198.086	2370
198.155	1213
198.223	2476
198.292	2511
198.360	1516
198.429	1318
198.497	1488
198.566	2493
198.635	2049
198.703	1365
198.772	2254
198.840	3510
198.909	2699
198.977	833
199.046	1473
199.114	750
199.183	1029
199.251	867
199.320	1605
199.388	1416
199.457	1351
199.525	1470
199.594	1771
199.662	315
199.731	1005
199.799	1208
199.867	1765
199.936	1251
200.004	1239
200.073	1110
200.141	1131
200.210	1076
200.278	985
200.346	926
200.415	2212
200.483	1604
200.552	1649
200.620	1642
200.688	1726
200.757	1417
200.825	1603
200.893	1082
200.962	1916
201.030	1218
201.098	825
201.167	995
201.235	1303
201.303	1288
201.372	1756
201.440	1713
201.508	2665
201.577	1404
201.645	1554
201.713	602
201.781	2009
201.850	1454
201.918	1690
201.986	1294
202.055	2097
202.123	647
202.191	1614
202.259	1295
202.327	1307
202.396	787
202.464	1851
202.532	2778
202.600	4253
202.669	1448
202.737	2127
202.805	1216
202.873	2237
202.941	1391
203.009	1427
203.078	737
203.146	1945
203.214	1254
203.282	1047
203.350	1359
203.418	1728
203.487	1314
203.555	1569
203.623	1746
203.691	1886
203.759	1129
203.827	1764
203.895	1706
203.963	1510
204.031	1216
204.099	1510
204.168	1184
204.236	1577
204.304	1774
204.372	2175
204.440	629
204.508	1931
204.576	1693
204.644	1782
204.712	2228
204.780	2320
204.848	1841
204.916	1626
204.984	1564
205.052	1110
205.120	791
205.188	1696
205.256	1177
205.324	2072
205.392	1447
205.460	1583
205.528	1501
205.596	1600
205.664	1927
205.732	2361
205.799	5109
205.867	4201
205.935	961
206.003	1847
206.071	1991
206.139	1845
206.207	1850
206.275	1425
206.343	1740
206.411	2148
206.478	1407
206.546	2037
206.614	1368
206.682	2336
206.750	1488
206.818	3009
206.885	1928
206.953	1490
207.021	1686
207.089	2011
207.157	953
207.225	2106
207.292	1076
207.360	2346
207.428	1933
207.496	2128
207.563	1281
207.631	2266
207.699	1624
207.767	1748
207.834	1632
207.902	2184
207.970	2183
208.038	2351
208.105	1637
208.173	2469
208.241	2432
208.309	3185
208.376	2879
208.444	3096
208.512	2108
208.579	2517
208.647	3078
208.715	2920
208.782	1894
208.850	2361
208.918	1566
208.985	2572
209.053	1880
209.120	2577
209.188	2021
209.256	1741
209.323	2827
209.391	2810
209.459	1942
209.526	2425
209.594	1590
209.661	1788
209.729	2262
209.796	2350
209.864	2573
209.932	2462
209.999	2152
210.067	3762
210.134	2019
210.202	3274
210.269	3676
210.337	3337
210.404	1613
210.472	2692
210.539	2050
210.607	3119
210.674	2706
210.742	2781
210.809	2873
210.877	3527
210.944	2738
211.012	3082
211.079	2389
211.146	3070
211.214	2756
211.281	3322
211.349	3312
211.416	2238
211.484	1959
211.551	2531
211.618	2270
211.686	2724
211.753	1995
211.821	1914
211.888	2206
211.955	3202
212.023	2588
212.090	3072
212.157	2195
212.225	3725
212.292	5443
212.359	10329
212.427	11410
212.494	5421
212.561	3687
212.629	2740
212.696	2713
212.763	3627
212.831	2353
212.898	2916
212.965	2210
213.032	3235
213.100	2739
213.167	3665
213.234	2621
213.301	3414
213.369	3079
213.436	2519
213.503	3047
213.570	2816
213.638	2090
213.705	2741
213.772	2416
213.839	3172
213.906	2426
213.973	3138
214.041	1837
214.108	3146
214.175	2707
214.242	3222
214.309	2680
214.376	3025
214.444	3186
214.511	3468
214.578	2770
214.645	3933
214.712	3173
214.779	3193
214.846	3511
214.913	3990
214.980	3730
215.048	4347
215.115	3718
215.182	3452
215.249	2445
215.316	2852
215.383	2352
215.450	2886
215.517	2198
215.584	2514
215.651	2968
215.718	2855
215.785	3169
215.852	4112
215.919	2445
215.986	3596
216.053	2174
216.120	3247
216.187	2792
216.254	3621
216.321	3167
216.388	3391
216.455	2878
216.522	3660
216.589	4507
216.656	6472
216.722	4265
216.789	3838
216.856	3699
216.923	4697
216.990	3653
217.057	4400
217.124	4827
217.191	4745
217.258	4934
217.324	5638
217.391	4887
217.458	4315
217.525	3683
217.592	3546
217.659	3279
217.725	3781
217.792	5253
217.859	4137
217.926	3584
217.993	2529
218.059	2191
218.126	3048
218.193	2160
218.260	3025
218.327	2270
218.393	3146
218.460	2666
218.527	2575
218.594	3609
218.660	5814
218.727	3477
218.794	3525
218.860	2089
218.927	2685
218.994	2524
219.061	3039
219.127	3955
219.194	4376
219.261	2546
219.327	3258
219.394	2162
219.461	2402
219.527	2451
219.594	3866
219.661	2628
219.727	2584
219.794	2821
219.860	3100
219.927	3104
219.994	5303
220.060	4958
220.127	4424
220.193	3675
220.260	4774
220.326	6170
220.393	8610
220.460	7106
220.526	5904
220.593	4157
220.659	5554
220.726	6866
220.792	9645
220.859	9393
220.925	13146
220.992	11394
221.058	13174
221.125	10049
221.191	7215
221.258	3976
221.324	4166
221.391	3373
221.457	3502
221.524	3841
221.590	6948
221.657	10033
221.723	6642
221.789	7379
221.856	5231
221.922	3943
221.989	3272
222.055	2728
222.121	2872
222.188	3977
222.254	3918
222.321	3100
222.387	2736
222.453	2756
222.520	3493
222.586	2584
222.652	3347
222.719	2377
222.785	3307
222.851	2173
222.918	2792
222.984	3240
223.050	3043
223.116	2000
223.183	2595
223.249	2148
223.315	2824
223.382	2330
223.448	2545
223.514	2064
223.580	2197
223.647	1920
223.713	2812
223.779	2485
223.845	2545
223.911	2805
223.978	2597
224.044	2461
224.110	2301
224.176	1959
224.242	2969
224.309	2037
224.375	2035
224.441	1792
224.507	2930
224.573	2269
224.639	2535
224.705	1934
224.772	2368
224.838	2252
224.904	2409
224.970	2007
225.036	2749
225.102	2210
225.168	3102
225.234	2631
225.300	2885
225.366	2048
225.432	2002
225.499	2679
225.565	3634
225.631	3381
225.697	4506
225.763	3569
225.829	4198
225.895	4744
225.961	5099
226.027	4645
226.093	4995
226.159	6193
226.225	10123
226.291	18802
226.357	17733
226.423	9344
226.489	6439
226.554	4908
226.620	6225
226.686	7441
226.752	10869
226.818	18997
226.884	26535
226.950	15005
227.016	9056
227.082	5828
227.148	5531
227.214	5054
227.279	4781
227.345	3225
227.411	4228
227.477	5840
227.543	9519
227.609	6865
227.674	5250
227.740	4030
227.806	4096
227.872	2822
227.938	4405
228.003	4780
228.069	3289
228.135	2781
228.201	3439
228.267	2963
228.332	4164
228.398	3757
228.464	3133
228.530	2348
228.595	2798
228.661	3913
228.727	4835
228.792	2967
228.858	2966
228.924	2786
228.990	3994
229.055	3430
229.121	3154
229.187	2272
229.252	3307
229.318	1885
229.384	3941
229.449	2691
229.515	1895
229.581	1559
229.646	3395
229.712	3099
229.777	7181
229.843	5215
229.909	6156
229.974	5991
230.040	4839
230.105	4521
230.171	4775
230.236	5562
230.302	7855
230.368	4730
230.433	4401
230.499	3543
230.564	3926
230.630	3535
230.695	4053
230.761	3452
230.826	3725
230.892	4513
230.957	4034
231.023	3895
231.088	3618
231.154	3891
231.219	3902
231.284	5153
231.350	3943
231.415	2875
231.481	3036
231.546	2858
231.612	2924
231.677	2634
231.742	3348
231.808	2100
231.873	2545
231.939	2783
232.004	5778
232.069	3553
232.135	4024
232.200	2621
232.265	3246
232.331	1963
232.396	2748
232.461	2267
232.527	2679
232.592	2584
232.657	3551
232.723	3784
232.788	2952
232.853	2684
232.918	2877
232.984	2564
233.049	2299
233.114	4405
233.179	3840
233.245	6279
233.310	3907
233.375	2766
233.440	2814
233.506	2071
233.571	2311
233.636	1866
233.701	2869
233.766	4000
233.832	3763
233.897	2972
233.962	3538
234.027	3437
234.092	4004
234.157	3240
234.222	3800
234.288	6440
234.353	9255
234.418	7489
234.483	5765
234.548	4601
234.613	4966
234.678	5159
234.743	6160
234.808	10115
234.873	5613
234.938	3751
235.004	4791
235.069	4737
235.134	4196
235.199	3268
235.264	4415
235.329	3190
235.394	3844
235.459	4221
235.524	3698
235.589	3145
235.654	3531
235.719	3393
235.784	3269
235.849	4634
235.913	5149
235.978	6877
236.043	5289
236.108	3541
236.173	4047
236.238	4050
236.303	3968
236.368	3492
236.433	6376
236.498	6683
236.563	7537
236.627	19874
236.692	35670
236.757	18177
236.822	10600
236.887	8907
236.952	6794
237.017	6694
237.081	7132
237.146	11592
237.211	21552
237.276	41028
237.341	38552
237.405	17273
237.470	10529
237.535	6365
237.600	5666
237.664	4602
237.729	4785
237.794	9462
237.859	10674
237.923	6276
237.988	5013
238.053	5637
238.118	8147
238.182	13509
238.247	7580
238.312	5562
238.376	4643
238.441	3321
238.506	3951
238.570	2635
238.635	3082
238.700	3695
238.764	4338
238.829	8094
238.893	5475
238.958	5858
239.023	4221
239.087	3308
239.152	4336
239.216	3303
239.281	3626
239.346	3208
239.410	3429
239.475	5762
239.539	13083
239.604	4827
239.668	3989
239.733	4692
239.797	10176
239.862	13412
239.926	9013
239.991	3613
240.055	3847
240.120	3767
240.184	3279
240.249	2993
240.313	3500
240.378	3627
240.442	10469
240.507	7034
240.571	4830
240.635	7131
240.700	5212
240.764	3915
240.829	2448
240.893	2417
240.957	4537
241.022	9485
241.086	8815
241.151	4048
241.215	3195
241.279	5440
241.344	5785
241.408	4720
241.472	4993
241.537	4751
241.601	5382
241.665	3845
241.730	4847
241.794	4625
241.858	4726
241.922	4303
241.987	4761
242.051	3781
242.115	4096
242.179	3376
242.244	3889
242.308	3722
242.372	5066
242.436	5362
242.501	4524
242.565	3836
242.629	4288
242.693	4292
242.757	4155
242.822	3074
242.886	3895
242.950	4139
243.014	4446
243.078	4655
243.142	4414
243.206	4262
243.271	4961
243.335	4525
243.399	9212
243.463	38540
243.527	31571
243.591	10266
243.655	6592
243.719	5507
243.783	6958
243.847	10248
243.911	10340
243.975	11965
244.040	5714
244.104	3901
244.168	5061
244.232	8687
244.296	9605
244.360	7095
244.424	4466
244.488	4249
244.552	4079
244.615	3203
244.679	4130
244.743	5990
244.807	3834
244.871	2530
244.935	3612
244.999	3339
245.063	4434
245.127	5185
245.191	8180
245.255	4607
245.319	6465
245.383	3456
245.446	4290
245.510	3468
245.574	4180
245.638	2928
245.702	7654
245.766	7855
245.829	5033
245.893	4111
245.957	4480
246.021	4168
246.085	4909
246.149	6910
246.212	16883
246.276	12015
246.340	7986
246.404	5224
246.467	9900
246.531	6826
246.595	6027
246.659	4800
246.722	6348
246.786	5649
246.850	9189
246.913	6254
246.977	4404
247.041	5387
247.104	4482
247.168	7094
247.232	17607
247.295	17842
247.359	7759
247.423	7750
247.486	8666
247.550	5129
247.614	5889
247.677	5525
247.741	4810
247.804	4120
247.868	5849
247.932	18053
247.995	14553
248.059	6351
248.122	5448
248.186	8003
248.249	20067
248.313	38679
248.376	29829
248.440	16075
248.503	8204
248.567	9091
248.630	13402
248.694	15257
248.757	27853
248.821	30918
248.884	18544
248.948	26181
249.011	33215
249.075	41724
249.138	23439
249.202	11850
249.265	10690
249.328	10056
249.392	9183
249.455	6767
249.519	7461
249.582	9841
249.645	12680
249.709	7762
249.772	6964
249.835	6817
249.899	7329
249.962	6611
250.025	8721
250.089	19804
250.152	14462
250.215	8989
250.279	7793
250.342	7261
250.405	7547
250.468	7697
250.532	11022
250.595	22456
250.658	67318
250.721	44050
250.785	20695
250.848	12960
250.911	9425
250.974	8389
251.038	19755
251.101	18260
251.164	12391
251.227	13428
251.290	13037
251.354	31936
251.417	72260
251.480	41592
251.543	68721
251.606	99139
251.669	52145
251.732	31150
251.795	33902
251.859	46571
251.922	60625
251.985	24576
252.048	15199
252.111	12441
252.174	14365
252.237	33283
252.300	40447
252.363	68789
252.426	61875
252.489	26628
252.552	15574
252.615	13126
252.678	21789
252.741	35422
252.804	67062
252.867	72256
252.930	39965
252.993	21726
253.056	16573
253.119	10844
253.182	13205
253.245	16647
253.308	11675
253.371	12265
253.434	9888
253.497	14007
253.559	18939
253.622	13497
253.685	21732
253.748	11465
253.811	10102
253.874	10818
253.937	9179
254.000	9270
254.062	22515
254.125	17433
254.188	22916
254.251	10224
254.314	10085
254.376	17859
254.439	14427
254.502	11550
254.565	24305
254.628	19905
254.690	12215
254.753	7353
254.816	7735
254.878	10031
254.941	19752
255.004	9566
255.067	8797
255.129	6377
255.192	4461
255.255	5559
255.317	5556
255.380	2945
255.443	3561
255.505	3791
255.568	4450
255.631	3622
255.693	4942
255.756	3226
255.819	4405
255.881	3150
255.944	3666
256.006	3677
256.069	4217
256.132	3579
256.194	7192
256.257	8391
256.319	8097
256.382	6126
256.444	6148
256.507	5140
256.569	4527
256.632	5039
256.694	10117
256.757	39835
256.819	41624
256.882	15316
256.944	8957
257.007	8358
257.069	7461
257.132	4929
257.194	4791
257.257	5693
257.319	5230
257.381	7689
257.444	30917
257.506	76066
257.569	45795
257.631	22997
257.693	13036
257.756	8943
257.818	6437
257.880	4292
257.943	5269
258.005	4302
258.067	5799
258.130	4649
258.192	9245
258.254	8804
258.317	5388
258.379	7423
258.441	15963
258.503	8927
258.566	17877
258.628	8645
258.690	5313
258.753	8199
258.815	11020
258.877	5261
258.939	5590
259.001	4771
259.064	4594
259.126	6011
259.188	6276
259.250	5495
259.312	9666
259.375	13756
259.437	5703
259.499	4509
259.561	5315
259.623	5198
259.685	4251
259.747	5901
259.809	18685
259.872	18300
259.934	36552
259.996	17065
260.058	6562
260.120	4371
260.182	4629
260.244	3541
260.306	4785
260.368	4196
260.430	5165
260.492	11948
260.554	13437
260.616	10086
260.678	25315
260.740	11221
260.802	6676
260.864	5786
260.926	5059
260.988	4184
261.050	7364
261.112	18343
261.174	23887
261.236	9436
261.298	7131
261.359	13053
261.421	8230
261.483	4938
261.545	5438
261.607	4050
261.669	4156
261.731	11532
261.793	13710
261.854	5804
261.916	5761
261.978	5854
262.040	4723
262.102	5235
262.164	7040
262.225	4558
262.287	7572
262.349	12317
262.411	5798
262.472	3523
262.534	11443
262.596	7793
262.658	4706
262.719	3739
262.781	8846
262.843	9452
262.904	6039
262.966	4811
263.028	9250
263.090	55537
263.151	41340
263.213	18375
263.275	9877
263.336	5383
263.398	4177
263.459	2727
263.521	6180
263.583	11070
263.644	5511
263.706	2956
263.767	3458
263.829	2552
263.891	3108
263.952	2174
264.014	3465
264.075	10581
264.137	10505
264.198	4467
264.260	2818
264.321	3448
264.383	18520
264.444	12181
264.506	5679
264.567	4646
264.629	16034
264.690	11194
264.752	6522
264.813	4687
264.875	3677
264.936	3596
264.998	3452
265.059	2495
265.120	4506
265.182	12614
265.243	39460
265.305	13383
265.366	6411
265.427	4234
265.489	3397
265.550	3841
265.611	4673
265.673	3460
265.734	3523
265.795	2906
265.857	3491
265.918	4041
265.979	21855
266.040	56110
266.102	19490
266.163	9660
266.224	8055
266.286	4869
266.347	3857
266.408	4017
266.469	3726
266.530	3193
266.592	4441
266.653	11826
266.714	7289
266.775	3499
266.836	3168
266.898	3747
266.959	7081
267.020	3118
267.081	3436
267.142	3214
267.203	3697
267.264	3573
267.326	5081
267.387	3614
267.448	3717
267.509	4020
267.570	3419
267.631	3122
267.692	3095
267.753	3527
267.814	3913
267.875	13421
267.936	11932
267.997	10315
268.058	8046
268.119	4717
268.180	4906
268.241	3025
268.302	3364
268.363	2979
268.424	4211
268.485	3554
268.546	3419
268.607	1728
268.668	2767
268.729	3404
268.790	3704
268.851	4602
268.912	12771
268.972	9152
269.033	4609
269.094	2867
269.155	3495
269.216	3023
269.277	3249
269.338	2639
269.398	3889
269.459	4358
269.520	7085
269.581	7658
269.642	7259
269.702	4896
269.763	5102
269.824	4241
269.885	7874
269.945	5164
270.006	3741
270.067	2868
270.128	3400
270.188	3828
270.249	3679
270.310	2085
270.370	3605
270.431	3033
270.492	3625
270.553	4433
270.613	12118
270.674	11845
270.734	5272
270.795	4418
270.856	7568
270.916	3156
270.977	3907
271.038	5260
271.098	5376
271.159	9103
271.219	5340
271.280	4297
271.340	3796
271.401	6643
271.462	6810
271.522	3950
271.583	4203
271.643	3636
271.704	3815
271.764	6641
271.825	20320
271.885	48543
271.946	25975
272.006	12987
272.066	34891
272.127	20087
272.187	8757
272.248	5731
272.308	14077
272.369	21621
272.429	8000
272.489	12503
272.550	9116
272.610	11954
272.671	6429
272.731	9392
272.791	9533
272.852	6957
272.912	5626
272.972	3605
273.033	5039
273.093	6817
273.153	6834
273.214	5065
273.274	7884
273.334	32542
273.394	22216
273.455	10873
273.515	25386
273.575	20753
273.635	10502
273.696	25949
273.756	21861
273.816	8705
273.876	8195
273.936	19581
273.997	12202
274.057	5839
274.117	6505
274.177	21157
274.237	45966
274.297	19115
274.358	21360
274.418	25990
274.478	13053
274.538	5699
274.598	9123
274.658	19845
274.718	14191
274.778	6568
274.838	5440
274.898	18174
274.958	24459
275.018	28912
275.078	13124
275.138	5676
275.198	4392
275.258	4161
275.318	7923
275.378	12149
275.438	7528
275.498	7572
275.558	22417
275.618	27981
275.678	14007
275.738	14911
275.798	8544
275.858	3774
275.918	4485
275.978	6471
276.038	4058
276.098	3864
276.157	19349
276.217	18002
276.277	9745
276.337	6887
276.397	5624
276.457	5208
276.517	4256
276.576	3162
276.636	5073
276.696	9856
276.756	17537
276.815	6586
276.875	5874
276.935	5770
276.995	4449
277.055	3483
277.114	3771
277.174	14200
277.234	15216
277.293	6336
277.353	4064
277.413	4016
277.472	5664
277.532	3425
277.592	7479
277.651	33083
277.711	16302
277.771	19806
277.830	43485
277.890	16589
277.950	44359
278.009	38589
278.069	15377
278.128	35246
278.188	19306
278.248	22762
278.307	35263
278.367	10902
278.426	6727
278.486	3982
278.545	4749
278.605	4088
278.664	4530
278.724	6117
278.783	27294
278.843	18938
278.902	7691
278.962	7444
279.021	7619
279.081	8866
279.140	9276
279.199	8022
279.259	6849
279.318	6957
279.378	10966
279.437	29236
279.496	85469
279.556	136206
279.615	46001
279.675	21271
279.734	19343
279.793	36786
279.853	27711
279.912	10766
279.971	8770
280.031	8925
280.090	27874
280.149	18337
280.208	41574
280.268	112947
280.327	39311
280.386	17214
280.445	22438
280.505	10798
280.564	8119
280.623	6644
280.682	19142
280.742	11092
280.801	5992
280.860	4161
280.919	5077
280.978	3871
281.037	4483
281.097	3910
281.156	4354
281.215	3616
281.274	11508
281.333	24995
281.392	7694
281.451	4138
281.510	4401
281.569	2880
281.628	2796
281.688	3283
281.747	5157
281.806	3336
281.865	3155
281.924	3247
281.983	3446
282.042	2218
282.101	3632
282.160	3262
282.219	3391
282.278	7528
282.337	13258
282.396	4644
282.454	4111
282.513	12606
282.572	19722
282.631	5260
282.690	4394
282.749	4239
282.808	5344
282.867	5161
282.926	4402
282.985	2825
283.043	3181
283.102	3775
283.161	5102
283.220	19475
283.279	13722
283.338	4950
283.396	4547
283.455	4501
283.514	6433
283.573	6767
283.631	4442
283.690	3916
283.749	6505
283.808	12663
283.866	6808
283.925	4074
283.984	5798
284.043	7556
284.101	5712
284.160	4890
284.219	5579
284.277	6012
284.336	16894
284.395	30154
284.453	12153
284.512	10439
284.570	13283
284.629	9859
284.688	11272
284.746	10732
284.805	14975
284.863	18469
284.922	21963
284.981	28408
285.039	45792
285.098	90130
285.156	156354
285.215	141126
285.273	155897
285.332	102001
285.390	62460
285.449	40681
285.507	28755
285.566	20867
285.624	16096
285.683	12896
285.741	11639
285.799	9384
285.858	9101
285.916	7309
285.975	6873
286.033	5422
286.091	6354
286.150	4570
286.208	5343
286.267	5742
286.325	8093
286.383	8872
286.442	6548
286.500	4665
286.558	4595
286.616	4330
286.675	6712
286.733	5243
286.791	4554
286.850	6648
286.908	10969
286.966	7868
287.024	4536
287.083	3935
287.141	2983
287.199	5699
287.257	5747
287.315	3332
287.374	8927
287.432	12740
287.490	5789
287.548	4199
287.606	3737
287.664	4636
287.723	7996
287.781	5155
287.839	5701
287.897	6091
287.955	7463
288.013	11623
288.071	39586
288.129	164281
288.187	156630
288.245	55405
288.303	26596
288.361	17313
288.419	12195
288.477	8314
288.535	6644
288.593	4470
288.651	5038
288.709	2988
288.767	4629
288.825	2949
288.883	3723
288.941	3464
288.999	3407
289.057	2689
289.115	3457
289.173	2572
289.231	4034
289.289	3387
289.346	3589
289.404	5013
289.462	8217
289.520	4976
289.578	3191
289.636	2348
289.694	2404
289.751	2199
289.809	3499
289.867	2504
289.925	5810
289.983	3765
290.040	2989
290.098	3344
290.156	4295
290.214	3362
290.271	2896
290.329	2749
290.387	2123
290.444	1634
290.502	2699
290.560	2747
290.617	2577
290.675	2520
290.733	3006
290.790	2890
290.848	3018
290.906	3072
290.963	3208
291.021	2957
291.078	3109
291.136	3941
291.194	21585
291.251	12275
291.309	4011
291.366	2671
291.424	3580
291.481	2950
291.539	3426
291.596	1627
291.654	2019
291.711	1705
291.769	5166
291.826	6183
291.884	3637
291.941	2388
291.999	3317
292.056	4026
292.114	2688
292.171	2471
292.228	4052
292.286	4150
292.343	9017
292.401	6610
292.458	4068
292.515	3181
292.573	5210
292.630	3769
292.687	3859
292.745	2514
292.802	8049
292.859	18056
292.917	19575
292.974	5878
293.031	4187
293.089	3333
293.146	3026
293.203	2025
293.260	3042
293.318	5186
293.375	4700
293.432	2303
293.489	3118
293.546	2277
293.604	6286
293.661	27691
293.718	26234
293.775	10015
293.832	7990
293.889	5970
293.947	5892
294.004	3691
294.061	6442
294.118	17120
294.175	27139
294.232	17058
294.289	7157
294.346	5869
294.403	5262
294.460	3305
294.517	3711
294.574	2953
294.631	2869
294.688	4510
294.745	23452
294.802	45598
294.859	23931
294.916	10542
294.973	7467
295.030	6494
295.087	4991
295.144	4267
295.201	3469
295.258	3040
295.315	7150
295.372	25769
295.429	17096
295.486	7193
295.542	9405
295.599	29185
295.656	21792
295.713	25205
295.770	16362
295.827	7104
295.883	5086
295.940	5986
295.997	9667
296.054	5352
296.111	4047
296.167	3059
296.224	2885
296.281	2848
296.338	2933
296.394	2731
296.451	6155
296.508	20504
296.564	15969
296.621	18197
296.678	46942
296.734	25736
296.791	10528
296.848	7056
296.904	14745
296.961	26051
297.018	28947
297.074	11837
297.131	7019
297.187	5139
297.244	14231
297.301	49767
297.357	29269
297.414	9579
297.470	6767
297.527	4758
297.583	5134
297.640	3589
297.696	3401
297.753	2424
297.809	2134
297.866	1801
297.922	2946
297.979	1572
298.035	4475
298.092	11269
298.148	21017
298.204	8502
298.261	7287
298.317	28297
298.374	29806
298.430	10687
298.486	7754
298.543	5281
298.599	6466
298.656	8437
298.712	25356
298.768	32914
298.824	12337
298.881	5705
298.937	4767
298.993	5097
299.050	6601
299.106	3979
299.162	4566
299.218	4175
299.275	3424
299.331	4952
299.387	19849
299.443	40054
299.500	21690
299.556	9167
299.612	7150
299.668	8227
299.724	11189
299.780	5910
299.837	5179
299.893	16816
299.949	37643
300.005	24639
300.061	40878
300.117	33690
300.173	13445
300.229	10317
300.285	15954
300.341	10153
300.397	5827
300.453	3871
300.510	4171
300.566	3835
300.622	10576
300.678	30731
300.734	30048
300.790	31147
300.845	23428
300.901	26832
300.957	32076
301.013	12749
301.069	6362
301.125	7034
301.181	5577
301.237	4345
301.293	2966
301.349	3220
301.405	4210
301.461	3886
301.516	5354
301.572	6805
301.628	8838
301.684	7980
301.740	19912
301.796	13649
301.851	16475
301.907	19841
301.963	19849
302.019	62986
302.074	94117
302.130	54927
302.186	23801
302.242	12546
302.297	9674
302.353	15385
302.409	19662
302.464	11056
302.520	22604
302.576	39110
302.631	27693
302.687	13091
302.743	7660
302.798	4448
302.854	4534
302.910	4599
302.965	8487
303.021	10024
303.076	11813
303.132	16942
303.187	12194
303.243	5904
303.299	4634
303.354	3275
303.410	4487
303.465	3358
303.521	4085
303.576	2867
303.632	5224
303.687	19699
303.743	29769
303.798	13119
303.853	7051
303.909	5226
303.964	6482
304.020	11084
304.075	9905
304.130	16250
304.186	21103
304.241	18935
304.297	12460
304.352	6720
304.358	6558
304.407	5230
304.449	5487
304.463	5581
304.518	5373
304.539	4619
304.573	3395
304.629	4750
304.630	4926
304.684	12853
304.720	25774
304.739	32553
304.794	22493
304.811	19545
304.850	11248
304.902	6218
304.905	5953
304.960	5481
304.992	5532
305.015	5599
305.071	5972
305.083	5458
305.126	3499
305.173	3004
305.181	2936
305.236	2720
305.264	3802
305.292	4994
305.347	4539
305.354	4711
305.402	5687
305.445	6509
305.457	6764
305.512	7138
305.535	6831
305.567	6288
305.622	7694
305.626	8374
305.678	21067
305.716	33114
305.733	38286
305.788	27049
305.807	28302
305.843	27689
305.897	33106
305.898	33220
305.953	21337
305.988	17623
306.008	14601
306.063	9707
306.078	8411
306.118	6419
306.168	4386
306.173	4241
306.228	3357
306.259	3388
306.283	3477
306.338	3811
306.349	4015
306.393	5207
306.440	5084
306.448	4977
306.503	4399
306.530	5512
306.558	7939
306.613	17044
306.620	18360
306.668	28739
306.711	35139
306.723	35462
306.778	23968
306.801	20784
306.833	14635
306.888	7185
306.892	6734
306.943	5753
306.982	5007
306.997	4819
307.052	4077
307.072	3986
307.107	4226
307.162	5214
307.163	5236
307.217	8816
307.253	10874
307.272	11679
307.327	11545
307.343	11498
307.381	9735
307.434	8797
307.436	9064
307.491	21034
307.524	27928
307.546	32293
307.600	31641
307.614	31275
307.655	19427
307.704	9370
307.710	9356
307.765	10664
307.795	13207
307.819	17357
307.874	22658
307.885	23269
307.929	18596
307.975	15239
307.984	15798
308.038	21664
308.065	28571
308.093	45990
308.148	105934
308.156	114500
308.202	196150
308.246	231240
308.257	215362
308.312	127670
308.336	93936
308.366	76217
308.421	44658
308.426	41893
308.475	27713
308.517	17692
308.530	16806
308.585	13822
308.607	12821
308.639	12528
308.694	13257
308.697	13480
308.748	23056
308.787	28811
308.803	29473
308.857	27259
308.877	27187
308.912	24384
308.967	21045
308.967	20973
309.021	28802
309.058	36080
309.076	45241
309.130	78761
309.148	93461
309.185	152752
309.238	248144
309.239	250255
309.293	307416
309.328	326072
309.348	279876
309.402	153934
309.418	120247
309.457	87396
309.508	47119
309.511	46696
309.566	41221
309.598	39663
309.620	46522
309.674	66287
309.688	70352
309.729	74490
309.778	76086
309.783	74115
309.837	49720
309.868	36926
309.892	37841
309.946	44872
309.959	46597
310.001	70740
310.049	91303
310.055	88008
310.109	55620
310.139	38701
310.163	31178
310.218	16789
310.229	13859
310.272	11437
310.319	9228
310.326	9034
310.381	7626
310.409	7025
310.435	6719
310.489	5872
310.499	5772
310.543	6217
310.589	6644
310.598	6740
310.652	7352
310.679	7461
310.706	6992
310.760	6259
310.769	6063
310.814	5226
310.859	4959
310.868	5111
310.923	5399
310.948	5733
310.977	6065
311.031	6377
311.038	6432
311.085	6966
311.128	7297
311.139	7156
311.193	6446
311.218	6018
311.247	5731
311.301	5391
311.308	5321
311.356	5641
311.398	5969
311.410	5881
311.464	5269
311.488	5049
311.518	5230
311.572	5498
311.578	5531
311.626	7780
311.668	9568
311.680	9509
311.734	9225
311.758	9033
311.788	9221
311.842	9564
311.847	9577
311.896	9926
311.937	10226
311.950	10869
312.004	13493
312.027	14621
312.058	12346
312.112	8198
312.117	7759
312.165	6765
312.207	5878
312.297	7939
312.386	8057
312.476	7483
312.566	15266
312.656	11439
312.745	5985
312.835	5776
312.925	7267
313.015	6085
313.104	7229
313.194	5827
313.284	5990
313.374	7875
313.463	10757
313.553	5512
313.643	6248
313.732	5248
313.822	4846
313.912	6246
314.001	7364
314.091	7734
314.180	10630
314.270	8926
314.360	9787
314.449	10751
314.539	7086
314.628	5652
314.718	6825
314.808	8886
314.897	6227
314.987	6150
315.076	7936
315.166	10706
315.255	9634
315.345	9350
315.434	8587
315.524	8490
315.613	10712
315.703	12467
315.792	17995
315.881	44952
315.971	35617
316.060	15952
316.150	21475
316.239	22736
316.328	13178
316.418	6435
316.507	7041
316.597	8487
316.686	10043
316.775	9774
316.865	21752
316.954	9823
317.043	5017
317.133	5771
317.222	6295
317.311	5692
317.400	5804
317.490	7428
317.579	12179
317.668	7994
317.757	10420
317.847	24744
317.936	81203
318.025	60387
318.114	24350
318.203	18469
318.293	16653
318.382	38042
318.471	36096
318.560	39485
318.649	60083
318.738	28745
318.828	8832
318.917	12046
319.006	10304
319.095	25277
319.184	67749
319.273	66455
319.362	34650
319.451	10271
319.540	8010
319.629	15974
319.718	38599
319.807	15333
319.896	21904
319.985	87909
320.074	65721
320.163	12144
320.252	13519
320.341	12932
320.430	14768
320.519	15742
320.608	15958
320.697	8599
320.786	9696
320.875	10693
320.964	14956
321.053	21287
321.142	30518
321.230	43193
321.319	23118
321.408	54842
321.497	38374
321.586	22074
321.675	23553
321.764	29353
321.852	16253
321.941	28826
322.030	32067
322.119	19486
322.207	58771
322.296	46743
322.385	21789
322.474	21361
322.562	63687
322.651	60909
322.740	22671
322.829	40553
322.917	31638
323.006	25877
323.095	20284
323.183	13791
323.272	16548
323.361	27956
323.449	80922
323.538	49866
323.626	47922
323.715	61685
323.804	13508
323.892	44859
323.981	52085
324.069	11859
324.158	19108
324.246	39630
324.335	12080
324.424	23564
324.512	11525
324.601	9974
324.689	14765
324.778	33102
324.866	27004
324.954	10890
325.043	7336
325.131	12537
325.220	21928
325.308	28316
325.397	19348
325.485	19344
325.574	6247
325.662	6099
325.750	7275
325.839	7081
325.927	4695
326.015	7279
326.104	8622
326.192	15657
326.280	5782
326.369	5308
326.457	7910
326.545	17654
326.634	13106
326.722	4893
326.810	5851
326.898	4947
326.987	7217
327.075	13209
327.163	19137
327.251	8568
327.340	9806
327.428	19610
327.516	7150
327.604	5979
327.692	6302
327.781	6120
327.869	9845
327.957	8830
328.045	9134
328.133	5292
328.221	4812
328.309	6654
328.397	5260
328.485	7658
328.574	9289
328.662	31987
328.750	32926
328.838	9867
328.926	5991
329.014	5694
329.102	7545
329.190	17089
329.278	21092
329.366	6615
329.454	4451
329.542	5583
329.630	4349
329.718	5706
329.806	7873
329.893	8966
329.981	10409
330.069	15413
330.157	53121
330.245	200734
330.333	179173
330.421	36860
330.509	15658
330.597	38611
330.684	48765
330.772	12238
330.860	12103
330.948	16960
331.036	11931
331.123	4588
331.211	4453
331.299	5864
331.387	10085
331.475	28841
331.562	12209
331.650	5499
331.738	5889
331.825	8303
331.913	4614
332.001	4320
332.089	4970
332.176	10547
332.264	20651
332.352	32327
332.439	10775
332.527	7108
332.614	4842
332.702	7472
332.790	5343
332.877	9295
332.965	30456
333.052	17805
333.140	9124
333.228	29965
333.315	17108
333.403	6294
333.490	12342
333.578	20772
333.665	33121
333.753	31924
333.840	7574
333.928	6689
334.015	13066
334.103	24397
334.190	85290
334.278	52023
334.365	12389
334.452	12061
334.540	7448
334.627	7581
334.715	11770
334.802	14669
334.889	66651
334.977	147708
335.064	29362
335.151	10527
335.239	8356
335.326	9880
335.413	28952
335.501	89726
335.588	17808
335.675	8726
335.762	8725
335.850	17352
335.937	13817
336.024	22199
336.111	95916
336.199	91065
336.286	19471
336.373	8845
336.460	6674
336.547	6402
336.635	7842
336.722	8931
336.809	6695
336.896	7450
336.983	20454
337.070	62868
337.157	106519
337.245	68502
337.332	74214
337.419	10122
337.506	5671
337.593	6594
337.680	12110
337.767	66748
337.854	33030
337.941	21638
338.028	24301
338.115	15690
338.202	8377
338.289	15183
338.376	56302
338.463	41431
338.550	24788
338.637	61037
338.724	12480
338.811	21832
338.898	7742
338.984	5127
339.071	5746
339.158	6464
339.245	19181
339.332	21427
339.419	10828
339.506	19276
339.593	5435
339.679	4037
339.766	4765
339.853	5840
339.940	16804
340.027	9384
340.113	5078
340.200	9336
340.287	7731
340.374	6216
340.460	15940
340.547	10275
340.634	8166
340.720	33186
340.807	45654
340.894	5967
340.980	5055
341.067	5760
341.154	5453
341.240	7421
341.327	24695
341.414	11989
341.500	10847
341.587	6651
341.674	4688
341.760	10179
341.847	21172
341.933	9763
342.020	3803
342.106	3274
342.193	4524
342.279	12550
342.366	8729
342.452	16482
342.539	9901
342.625	12310
342.712	47060
342.798	33251
342.885	12830
342.971	3952
343.058	3761
343.144	4108
343.230	4582
343.317	4456
343.403	6341
343.490	3058
343.576	3600
343.662	4450
343.749	6598
343.835	7109
343.921	8689
344.008	37422
344.094	181806
344.180	79427
344.267	15758
344.353	31882
344.439	74378
344.525	27849
344.612	13615
344.698	7858
344.784	8515
344.870	4262
344.957	4559
345.043	8488
345.129	6963
345.215	13851
345.301	11692
345.387	8448
345.474	3817
345.560	3853
345.646	4039
345.732	5049
345.818	6184
345.904	7802
345.990	5958
346.076	6052
346.162	11771
346.249	8004
346.335	4256
346.421	4659
346.507	9882
346.593	66664
346.679	39515
346.765	7007
346.851	5304
346.937	7519
347.023	5102
347.108	4952
347.194	7121
347.280	4937
347.366	5667
347.452	12559
347.538	67268
347.624	76512
347.710	68580
347.796	16415
347.882	4802
347.967	4768
348.053	5732
348.139	6190
348.225	4809
348.311	4454
348.397	4217
348.482	4348
348.568	7967
348.654	4667
348.740	5175
348.825	9652
348.911	7718
348.997	20372
349.083	86767
349.168	28541
349.254	6248
349.340	7414
349.425	4240
349.511	5689
349.597	9208
349.682	11181
349.768	41697
349.854	47142
349.939	6104
350.025	4398
350.110	4874
350.196	3560
350.282	4308
350.367	2445
350.453	4612
350.538	9600
350.624	6158
350.709	9311
350.795	3852
350.880	4791
350.966	5274
351.051	7313
351.137	6901
351.222	4811
351.308	8734
351.393	47867
351.479	27027
351.564	7497
351.649	3837
351.735	4788
351.820	3930
351.906	5111
351.991	5265
352.076	15890
352.162	59851
352.247	17987
352.332	6611
352.418	11134
352.503	16104
352.588	42079
352.673	87647
352.759	19097
352.844	9360
352.929	6267
353.014	12457
353.100	7309
353.185	10892
353.270	17292
353.355	23419
353.441	7743
353.526	4845
353.611	10433
353.696	22932
353.781	12026
353.866	7334
353.952	4642
354.037	9649
354.122	31888
354.207	35292
354.292	22091
354.377	6482
354.462	4626
354.547	6484
354.632	7875
354.717	8500
354.802	17206
354.887	11323
354.972	3723
355.057	4230
355.142	3555
355.227	4913
355.312	8349
355.397	18172
355.482	47406
355.567	47808
355.652	15703
355.737	22330
355.822	38482
355.907	82058
355.991	13864
356.076	5731
356.161	5476
356.246	4763
356.331	4664
356.416	8762
356.501	47551
356.585	140111
356.670	30412
356.755	9927
356.840	10713
356.924	32087
357.009	186972
357.094	170941
357.179	25317
357.263	18624
357.348	11759
357.433	14856
357.517	12549
357.602	12685
357.687	9366
357.771	10944
357.856	39950
357.941	48544
358.025	24506
358.110	154374
358.195	184537
358.279	27679
358.364	11156
358.448	23286
358.533	99120
358.617	117125
358.702	84042
358.787	58342
358.871	17879
358.956	20395
359.040	9266
359.125	5077
359.209	5154
359.294	12562
359.378	47225
359.462	25167
359.547	12044
359.631	6894
359.716	5345
359.800	5185
359.885	7652
359.969	8581
360.053	5913
360.138	6076
360.222	7798
360.306	15174
360.391	18403
360.475	14422
360.559	61556
360.644	47001
360.728	50194
360.812	25404
360.896	128422
360.981	91263
361.065	47005
361.149	13421
361.233	9732
361.318	8812
361.402	10430
361.486	9172
361.570	6676
361.654	8062
361.739	13836
361.823	49559
361.907	163592
361.991	59707
362.075	12367
362.159	30572
362.243	35775
362.327	23227
362.411	35620
362.495	22641
362.580	12824
362.664	7333
362.748	8105
362.832	8866
362.916	14927
363.000	35464
363.084	99565
363.168	195218
363.252	88213
363.336	19925
363.420	16164
363.503	37945
363.587	108404
363.671	30412
363.755	12542
363.839	18106
363.923	12362
364.007	13845
364.091	27020
364.175	19373
364.258	82218
364.342	121137
364.426	109539
364.510	93546
364.594	35112
364.677	23169
364.761	75974
364.845	142806
364.929	34187
365.013	33582
365.096	18561
365.180	30285
365.264	18188
365.347	82995
365.431	88523
365.515	18135
365.598	9655
365.682	6741
365.766	8216
365.849	18814
365.933	9464
366.017	9810
366.100	10977
366.184	5256
366.267	5160
366.351	5177
366.435	5459
366.518	5173
366.602	4034
366.685	4869
366.769	6680
366.852	7953
366.936	19691
367.019	17941
367.103	7984
367.186	15899
367.270	9662
367.353	4352
367.436	5040
367.520	5817
367.603	5791
367.687	9258
367.770	19865
367.853	15519
367.937	17629
368.020	69951
368.104	31166
368.187	11633
368.270	21715
368.353	22832
368.437	19211
368.520	35013
368.603	40743
368.687	26408
368.770	91768
368.853	45204
368.936	16191
369.020	22853
369.103	12695
369.186	5595
369.269	6983
369.352	8364
369.436	21213
369.519	16323
369.602	10596
369.685	6083
369.768	7933
369.851	7449
369.934	5087
370.018	6413
370.101	14712
370.184	17249
370.267	9692
370.350	14459
370.433	23901
370.516	39406
370.599	100803
370.682	43726
370.765	33789
370.848	54018
370.931	88963
371.014	76247
371.097	13286
371.180	7978
371.263	5510
371.346	4281
371.429	5656
371.511	5283
371.594	8942
371.677	17032
371.760	19502
371.843	15627
371.926	32523
372.009	163849
372.091	114193
372.174	30784
372.257	76680
372.340	70369
372.423	21412
372.505	34698
372.588	20159
372.671	15756
372.754	76283
372.836	94563
372.919	22542
373.002	64462
373.085	41097
373.167	15944
373.250	29568
373.332	78408
373.415	92265
373.498	213875
373.580	167903
373.663	65478
373.746	189677
373.828	77314
373.911	21172
373.993	14390
374.076	35501
374.159	81919
374.241	27436
374.324	58607
374.406	92116
374.489	36427
374.571	156477
374.654	153431
374.736	33710
374.819	80458
374.901	143446
374.983	214155
375.066	77646
375.148	14364
375.231	22231
375.313	98214
375.395	65281
375.478	16182
375.560	8272
375.643	8996
375.725	16532
375.807	93328
375.890	164995
375.972	63384
376.054	29320
376.136	31445
376.219	28291
376.301	17220
376.383	106112
376.465	102272
376.548	29737
376.630	34080
376.712	80993
376.794	105496
376.877	15490
376.959	6227
377.041	6812
377.123	8147
377.205	19303
377.287	8492
377.369	4198
377.452	4780
377.534	5814
377.616	4743
377.698	5873
377.780	4295
377.862	6222
377.944	5835
378.026	4533
378.108	3721
378.190	4287
378.272	4396
378.354	3469
378.436	3457
378.518	4751
378.600	20232
378.682	30226
378.764	37355
378.846	75380
378.928	19324
379.010	19008
379.091	17639
379.173	6151
379.255	5916
379.337	6592
379.419	12498
379.501	67381
379.583	71596
379.664	12041
379.746	13925
379.828	40212
379.910	78090
379.991	95920
380.073	32042
380.155	8228
380.237	9203
380.318	5577
380.400	6708
380.482	8745
380.564	22881
380.645	20320
380.727	26429
380.809	16337
380.890	10100
380.972	8941
381.053	6995
381.135	7929
381.217	11358
381.298	48575
381.380	57883
381.461	20037
381.543	52723
381.624	176384
381.706	66508
381.787	16003
381.869	17371
381.951	21512
382.032	118464
382.113	187051
382.195	50951
382.276	22412
382.358	25561
382.439	79200
382.521	107795
382.602	163598
382.684	127135
382.765	103478
382.846	196437
382.928	269017
383.009	293510
383.090	110996
383.172	232671
383.253	684199
383.334	395169
383.416	168947
383.497	158286
383.578	61686
383.659	78386
383.741	194040
383.822	707708
383.903	773038
383.984	211962
384.066	183968
384.147	207749
384.228	64499
384.309	25914
384.390	25929
384.471	17508
384.553	17591
384.634	17972
384.715	24596
384.796	15947
384.877	12547
384.958	29927
385.039	86581
385.120	45820
385.201	16014
385.282	14104
385.363	16093
385.444	16952
385.525	18204
385.606	49593
385.687	100394
385.768	32007
385.849	17530
385.930	38756
386.011	144331
386.092	91335
386.173	17530
386.254	9958
386.335	9787
386.416	11050
386.496	18692
386.577	65625
386.658	40779
386.739	15502
386.820	13450
386.901	10694
386.981	11177
387.062	8042
387.143	9343
387.224	32963
387.304	79522
387.385	29681
387.466	16348
387.547	16384
387.627	15093
387.708	13573
387.789	52526
387.869	144620
387.950	76798
388.031	12378
388.111	7446
388.192	11741
388.273	22810
388.353	20945
388.434	11403
388.514	11881
388.595	42879
388.676	126300
388.756	93775
388.837	48149
388.917	59541
388.998	15543
389.078	9512
389.159	7923
389.239	7219
389.320	9939
389.400	13088
389.480	11594
389.561	45344
389.641	59178
389.722	14109
389.802	16923
389.883	19864
389.963	48548
390.043	74556
390.124	23692
390.204	12884
390.284	46442
390.365	73440
390.445	30782
390.525	91986
390.605	182907
390.686	77991
390.766	23677
390.846	12525
390.927	7493
391.007	6972
391.087	8382
391.167	9027
391.247	11892
391.328	9071
391.408	13503
391.488	16161
391.568	8122
391.648	8648
391.728	13268
391.808	13267
391.888	14985
391.969	19456
392.049	58473
392.129	43690
392.209	19403
392.289	51210
392.369	66850
392.449	28895
392.529	29190
392.609	19140
392.689	18379
392.769	40431
392.849	88742
392.929	40526
393.009	68757
393.089	113891
393.169	68399
393.248	118727
393.328	451378
393.408	1002501
393.488	532658
393.568	132495
393.648	56006
393.728	34138
393.807	24023
393.887	19705
393.967	17230
394.047	17809
394.127	20495
394.206	25428
394.286	48887
394.366	210878
394.446	570201
394.525	273905
394.605	56233
394.685	26477
394.764	31065
394.844	56737
394.924	76746
395.003	32716
395.083	16708
395.163	14702
395.242	12150
395.322	13729
395.402	11462
395.481	12222
395.561	15651
395.640	57341
395.720	85649
395.799	68576
395.879	102331
395.958	49148
396.038	71911
396.117	293831
396.197	717458
396.276	397204
396.356	110604
396.435	54916
396.515	42557
396.594	35492
396.673	53252
396.753	105467
396.832	459376
396.912	800872
396.991	316991
397.070	73259
397.150	32587
397.229	22646
397.308	17891
397.388	35757
397.467	36268
397.546	14465
397.625	10083
397.705	11261
397.784	12520
397.863	11286
397.942	7205
398.022	6803
398.101	8772
398.180	47786
398.259	64176
398.338	18726
398.417	9291
398.497	7016
398.576	5583
398.655	6116
398.734	4783
398.813	4803
398.892	7262
398.971	45983
399.050	73585
399.129	14984
399.208	5213
399.287	4192
399.366	4181
399.445	4671
399.524	4380
399.603	5177
399.682	6307
399.761	14593
399.840	42687
399.919	96037
399.998	27016
400.077	4970
400.156	2470
400.235	4768
400.313	4194
400.392	4067
400.471	10778
400.550	52650
400.629	37285
400.708	8054
400.786	5515
400.865	8238
400.944	20533
401.023	15323
401.102	3744
401.180	3156
401.259	2315
401.338	3814
401.416	5451
401.495	7359
401.574	4927
401.652	4118
401.731	4218
401.810	6589
401.888	5568
401.967	2694
402.046	3533
402.124	5579
402.203	8713
402.281	7648
402.360	5337
402.438	12862
402.517	22946
402.596	8381
402.674	4824
402.753	4652
402.831	3167
402.910	3597
402.988	6659
403.066	46922
403.145	85794
403.223	21766
403.302	41172
403.380	68673
403.459	46168
403.537	41240
403.615	11447
403.694	4272
403.772	3239
403.850	2541
403.929	2726
404.007	2017
404.085	4989
404.164	12189
404.242	8977
404.320	3608
404.398	6265
404.477	12306
404.555	57361
404.633	179035
404.711	61370
404.789	8757
404.868	4884
404.946	6081
405.024	2567
405.102	2725
405.180	2643
405.258	2366
405.336	3161
405.415	1776
405.493	4626
405.571	10792
405.649	5497
405.727	2378
405.805	4517
405.883	5173
405.961	5103
406.039	6707
406.117	5095
406.195	4231
406.273	9688
406.351	66876
406.429	137151
406.507	31302
406.585	7630
406.663	3479
406.740	5523
406.818	6901
406.896	4783
406.974	3373
407.052	3669
407.130	21791
407.208	115173
407.285	65851
407.363	7274
407.441	3896
407.519	3612
407.596	3094
407.674	5846
407.752	12316
407.830	24321
407.907	19702
407.985	8668
408.063	4837
408.141	2283
408.218	3212
408.296	7627
408.373	6030
408.451	5776
408.529	5237
408.606	3331
408.684	2586
408.762	1617
408.839	1842
408.917	1291
408.994	1694
409.072	2624
409.149	3341
409.227	2602
409.304	6926
409.382	6923
409.459	6360
409.537	7342
409.614	10408
409.692	7689
409.769	6314
409.846	6968
409.924	10890
410.001	13679
410.079	10235
410.156	6047
410.233	5604
410.311	5550
410.388	3584
410.465	3509
410.543	5645
410.620	4518
410.697	3107
410.775	5263
410.852	4008
410.929	3311
411.006	7132
411.083	4781
411.161	5960
411.238	14559
411.315	9237
411.392	4386
411.469	3110
411.547	6879
411.624	5895
411.701	4012
411.778	3017
411.855	6014
411.932	10565
412.009	3838
412.086	3351
412.163	2216
412.240	4387
412.317	3537
412.394	6504
412.471	4135
412.548	1766
412.625	1873
412.702	2557
412.779	5524
412.856	8997
412.933	3666
413.010	2276
413.087	2091
413.164	8301
413.241	45601
413.318	31337
413.395	6487
413.471	7538
413.548	8748
413.625	2307
413.702	2774
413.779	4359
413.855	1814
413.932	467
414.009	383
414.086	1458
414.162	1023
414.239	2331
414.316	8054
414.393	46294
414.469	59529
414.546	9662
414.623	1624
414.699	1546
414.776	3303
414.853	3215
414.929	1876
415.006	2524
415.082	2117
415.159	3721
415.236	1754
415.312	2482
415.389	3181
415.465	8817
415.542	7944
415.618	1911
415.695	4587
415.771	5416
415.848	3431
415.924	3050
416.000	2939
416.077	2163
416.153	697
416.230	8
416.306	377
416.383	1777
416.459	1448
416.535	1105
416.612	471
416.688	805
416.764	1413
416.841	1311
416.917	1715
416.993	2409
417.069	2643
417.146	3941
417.222	5109
417.298	5574
417.374	3163
417.451	1676
417.527	2745
417.603	4839
417.679	4484
417.755	3028
417.831	1280
417.908	1315
417.984	853
418.060	1072
418.136	2563
418.212	11440
418.288	8895
418.364	2603
418.440	1425
418.516	3264
418.592	4623
418.668	7496
418.744	15639
418.820	21618
418.896	9517
418.972	2177
419.048	1613
419.124	3293
419.200	10366
419.276	5156
419.352	1889
419.428	1319
419.504	1376
419.579	3931
419.655	3614
419.731	2052
419.807	5041
419.883	18009
419.959	26458
420.034	11318
420.110	3910
420.186	15105
420.262	49647
420.337	18669
420.413	4724
420.489	4597
420.565	2368
420.640	2054
420.716	2722
420.792	2208
420.867	3482
420.943	3007
421.019	3117
421.094	7943
421.170	3731
421.245	2736
421.321	3108
421.397	3416
421.472	3889
421.548	6549
421.623	14307
421.699	9051
421.774	5950
421.850	6069
421.925	7456
422.001	11299
422.076	9094
422.152	8258
422.227	13220
422.302	19166
422.378	20752
422.453	34598
422.529	66125
422.604	167861
422.679	418022
422.755	492673
422.830	296205
422.905	103499
422.981	47458
423.056	28755
423.131	19436
423.207	14847
423.282	12356
423.357	13414
423.432	18412
423.508	11144
423.583	13938
423.658	27519
423.733	12598
423.808	6546
423.883	8126
423.959	8532
424.034	7127
424.109	7556
424.184	4368
424.259	4035
424.334	2509
424.409	2736
424.484	2173
424.559	3031
424.634	3042
424.709	4016
424.784	6300
424.859	5171
424.934	3768
425.009	9630
425.084	36672
425.159	44738
425.234	9121
425.309	2543
425.384	2823
425.459	18220
425.534	20072
425.609	4370
425.683	2874
425.758	1904
425.833	1297
425.908	3418
425.983	3994
426.058	26860
426.132	50015
426.207	11876
426.282	3369
426.357	6023
426.431	4370
426.506	1841
426.581	1697
426.655	2566
426.730	2196
426.805	2844
426.879	2372
426.954	2605
427.029	3460
427.103	11625
427.178	62390
427.253	109413
427.327	25869
427.402	4776
427.476	11850
427.551	25194
427.625	7329
427.700	3257
427.774	2748
427.849	3058
427.923	3030
427.998	1972
428.072	2725
428.147	4780
428.221	10327
428.296	58244
428.370	127016
428.444	36307
428.519	6371
428.593	9225
428.667	16687
428.742	11779
428.816	16488
428.890	19431
428.965	102349
429.039	104458
429.113	24052
429.188	15939
429.262	4520
429.336	3037
429.410	9487
429.485	24757
429.559	11302
429.633	13346
429.707	7298
429.781	5006
429.855	19960
429.930	101967
430.004	102565
430.078	48252
430.152	74330
430.226	69395
430.300	185989
430.374	108920
430.448	14772
430.522	7822
430.596	32953
430.670	71726
430.744	41598
430.818	169624
430.892	143731
430.966	18127
431.040	5609
431.114	2693
431.188	2410
431.262	1785
431.336	2480
431.410	3086
431.484	8561
431.557	22701
431.631	9232
431.705	2730
431.779	4338
431.853	34152
431.927	120174
432.000	47140
432.074	5526
432.148	2387
432.222	3628
432.295	3086
432.369	1177
432.443	2233
432.516	7188
432.590	60231
432.664	103712
432.737	21306
432.811	2486
432.885	1838
432.958	612
433.032	902
433.106	1767
433.179	905
433.253	681
433.326	1227
433.400	384
433.473	290
433.547	719
433.620	578
433.694	1063
433.767	6331
433.841	3649
433.914	516
433.988	1427
434.061	1051
434.134	1107
434.208	886
434.281	188
434.355	424
434.428	470
434.501	1232
434.575	737
434.648	728
434.721	590
434.795	359
434.868	438
434.941	102
435.014	188
435.088	135
435.161	1481
435.234	3978
435.307	6670
435.381	6180
435.454	2832
435.527	3153
435.600	3769
435.673	4412
435.746	3314
435.819	2827
435.892	1756
435.966	1469
436.039	965
436.112	1086
436.185	376
436.258	236
436.331	625
436.404	126
436.477	-563
436.550	-168
436.623	-342
436.696	403
436.769	304
436.842	1292
436.915	914
436.987	1437
437.060	2315
437.133	1017
437.206	360
437.279	904
437.352	848
437.425	522
437.498	1483
437.570	1751
437.643	6669
437.716	4820
437.789	1034
437.861	585
437.934	7982
438.007	17310
438.080	4588
438.152	1743
438.225	2057
438.298	7370
438.370	71063
438.443	140782
438.516	38726
438.588	11877
438.661	2078
438.734	889
438.806	530
438.879	2675
438.951	1746
439.024	5332
439.096	7904
439.169	2467
439.241	658
439.314	1085
439.386	896
439.459	3838
439.531	4781
439.604	7272
439.676	2758
439.749	859
439.821	354
439.893	914
439.966	-53
440.038	675
440.110	2651
440.183	2612
440.255	1799
440.327	1359
440.400	3484
440.472	27351
440.544	103872
440.617	41068
440.689	5842
440.761	5271
440.833	9683
440.905	15207
440.978	6300
441.050	504
441.122	865
441.194	786
441.266	1099
441.338	1432
441.411	1625
441.483	5306
441.555	37419
441.627	36209
441.699	5902
441.771	4195
441.843	3831
441.915	1746
441.987	1039
442.059	1150
442.131	980
442.203	2510
442.275	4548
442.347	5537
442.419	4852
442.491	10249
442.563	64242
442.635	122765
442.706	36487
442.778	23116
442.850	13286
442.922	3009
442.994	2122
443.066	3713
443.137	6244
443.209	4282
443.281	4501
443.353	7290
443.425	17247
443.496	80018
443.568	249969
443.640	190773
443.711	56863
443.783	11343
443.855	5427
443.926	4065
443.998	3233
444.070	3537
444.141	3258
444.213	3817
444.285	6033
444.356	6538
444.428	5598
444.499	4024
444.571	1567
444.642	1557
444.714	1504
444.785	2872
444.857	6087
444.928	5980
445.000	13604
445.071	6373
445.143	10532
445.214	10828
445.285	8700
445.357	16778
445.428	44795
445.500	181768
445.571	331283
445.642	183052
445.714	86236
445.785	33234
445.856	22231
445.928	8946
445.999	8186
446.070	7397
446.141	4688
446.213	6567
446.284	6631
446.355	3173
446.426	3041
446.497	2178
446.569	1923
446.640	3506
446.711	7111
446.782	4144
446.853	1362
446.924	2738
446.995	2232
447.066	2176
447.138	2674
447.209	4507
447.280	1775
447.351	337
447.422	862
447.493	702
447.564	2467
447.635	3432
447.706	3883
447.777	1061
447.847	209
447.918	713
447.989	225
448.060	2613
448.131	2613
448.202	8829
448.273	6888
448.344	4505
448.414	1497
448.485	1031
448.556	1101
448.627	954
448.698	965
448.768	-13
448.839	742
448.910	593
448.981	4498
449.051	3809
449.122	2067
449.193	410
449.263	216
449.334	968
449.405	1370
449.475	3302
449.546	7969
449.616	4734
449.687	5027
449.758	4178
449.828	1688
449.899	1128
449.969	1763
450.040	1423
450.110	1479
450.181	1869
450.251	2133
450.322	1430
450.392	719
450.463	1088
450.533	470
450.604	1307
450.674	643
450.744	1630
450.815	1084
450.885	1029
450.955	1423
451.026	444
451.096	836
451.166	1500
451.237	1016
451.307	6189
451.377	11959
451.447	3737
451.518	864
451.588	423
451.658	704
451.728	1206
451.799	3481
451.869	14969
451.939	11261
452.009	3063
452.079	843
452.149	250
452.219	1106
452.289	4122
452.360	17644
452.430	8022
452.500	2390
452.570	1642
452.640	3208
452.710	5643
452.780	16889
452.850	21219
452.920	15738
452.990	13079
453.060	3130
453.129	1916
453.199	4900
453.269	4058
453.339	42871
453.409	81733
453.479	47408
453.549	62126
453.619	81053
453.688	80353
453.758	23820
453.828	3579
453.898	1527
453.968	1454
454.037	1509
454.087	1353
454.107	1276
454.168	1362
454.177	1361
454.247	1512
454.249	1512
454.316	1171
454.330	1215
454.386	1250
454.411	1482
454.456	1543
454.492	4861
454.525	7748
454.574	9000
454.595	9634
454.655	3927
454.665	2997
454.734	1626
454.736	1691
454.804	2830
454.817	3292
454.873	4109
454.898	7853
454.943	14493
454.979	13419
455.013	12716
455.060	7109
455.082	4715
455.141	2914
455.152	2489
455.221	3391
455.222	3561
455.291	10120
455.303	10937
455.360	15333
455.384	12031
455.430	6005
455.465	5586
455.499	4979
455.546	5800
455.569	5637
455.627	10700
455.638	11866
455.707	5719
455.708	5706
455.777	1868
455.789	1766
455.846	1093
455.869	1092
455.916	1112
455.950	1101
455.985	1026
456.031	1449
456.054	1622
456.112	1234
456.124	1157
456.193	958
456.193	942
456.262	1007
456.274	1120
456.332	1429
456.355	1427
456.401	1313
456.436	1572
456.470	1801
456.516	1547
456.540	1471
456.597	1620
456.609	1593
456.678	813
456.678	798
456.747	784
456.759	893
456.817	1223
456.840	1046
456.886	765
456.920	896
456.955	1014
457.001	833
457.024	810
457.082	1574
457.093	1650
457.162	1849
457.163	1871
457.232	2557
457.243	2698
457.301	3226
457.324	2583
457.370	1640
457.405	1679
457.439	1730
457.485	1787
457.508	1807
457.566	1692
457.577	1749
457.646	3009
457.647	3044
457.715	5265
457.727	5788
457.784	9908
457.808	11737
457.853	12992
457.889	16687
457.922	17334
457.969	16731
457.991	19521
458.050	19398
458.060	19511
458.129	24559
458.130	24911
458.198	22175
458.211	22070
458.267	24211
458.292	18622
458.336	12854
458.372	10069
458.405	9474
458.453	12471
458.474	15683
458.533	26522
458.543	27037
458.611	34875
458.614	35635
458.680	32586
458.694	28478
458.749	24467
458.775	17978
458.818	9230
458.855	6525
458.887	4329
458.936	3704
458.955	3497
459.016	2888
459.024	2781
459.093	3291
459.097	3273
459.162	3167
459.177	3220
459.230	3407
459.257	3668
459.299	3840
459.338	4251
459.368	4670
459.418	4511
459.437	4038
459.499	3966
459.505	4058
459.574	3796
459.579	3744
459.643	3262
459.659	3347
459.711	3185
459.740	2907
459.780	2919
459.820	3233
459.849	3428
459.900	4485
459.917	4678
459.981	4233
459.986	4186
460.054	3901
460.061	3843
460.123	3752
460.141	4055
460.191	5503
460.222	5995
460.260	6137
460.302	6559
460.328	5972
460.382	5284
460.397	5598
460.462	5407
460.465	5432
460.534	6511
460.543	6704
460.602	13560
460.623	16216
460.671	25960
460.703	32547
460.739	25136
460.783	19472
460.808	18108
460.864	10784
460.876	11015
460.944	5363
460.945	5287
461.013	3797
461.024	3765
461.081	3957
461.104	4078
461.150	3670
461.184	3538
461.218	3788
461.264	3884
461.286	3939
461.345	3815
461.355	3816
461.423	4005
461.425	4021
461.491	4466
461.505	4480
461.559	6690
461.585	7927
461.628	12670
461.665	16841
461.696	17463
461.745	19268
461.764	16281
461.825	8820
461.832	9343
461.901	7024
461.905	6965
461.969	4364
461.985	4221
462.037	4459
462.065	4475
462.105	4849
462.145	5233
462.173	6786
462.225	9432
462.241	10299
462.305	14128
462.310	13665
462.378	8257
462.385	7552
462.446	7194
462.465	6175
462.514	4900
462.545	4940
462.582	4772
462.625	4951
462.650	4892
462.705	4470
462.718	4575
462.785	4830
462.786	4851
462.854	6610
462.865	6807
462.922	7864
462.945	8470
462.990	6417
463.025	4864
463.058	4917
463.104	4382
463.126	4193
463.184	3885
463.194	3970
463.262	4590
463.264	4619
463.330	4598
463.344	4534
463.398	5161
463.424	5448
463.466	5044
463.504	4759
463.533	4729
463.583	4759
463.601	5133
463.663	6412
463.669	6525
463.737	7628
463.743	7697
463.805	10356
463.823	11332
463.873	17093
463.903	20282
463.940	20589
463.982	21411
464.008	17273
464.062	9298
464.076	9268
464.142	6079
464.144	6034
464.211	4568
464.221	4510
464.279	5031
464.301	5228
464.347	5545
464.381	5962
464.414	6844
464.461	7782
464.482	7892
464.540	8292
464.550	8173
464.617	7357
464.620	7315
464.685	8115
464.699	8277
464.753	10537
464.779	11620
464.820	12030
464.859	12445
464.888	12355
464.938	12217
464.956	11958
465.018	10625
465.023	10537
465.091	9488
465.098	9339
465.158	9549
465.177	9626
465.226	10085
465.257	10423
465.293	10327
465.336	10074
465.361	10760
465.416	12383
465.428	13003
465.495	16048
465.496	16126
465.563	24645
465.575	26034
465.631	30056
465.654	31826
465.698	21031
465.734	12403
465.765	12254
465.813	10687
465.833	10573
465.893	10762
465.900	10727
465.968	10506
465.972	10482
466.035	11335
466.052	11525
466.102	11898
466.131	12084
466.170	12396
466.210	12697
466.237	12927
466.290	13297
466.304	13564
466.369	14665
466.372	14711
466.439	15356
466.449	15413
466.506	17049
466.528	17644
466.573	20763
466.607	23036
466.641	30615
466.687	41082
466.708	44043
466.766	51963
466.775	48874
466.842	25258
466.845	24100
466.909	21224
466.925	20399
466.977	19515
467.004	19134
467.044	19284
467.083	19439
467.111	20396
467.163	22083
467.178	22488
467.242	23977
467.245	23874
467.312	20860
467.321	20424
467.379	18721
467.400	18049
467.446	19278
467.480	20111
467.559	17291
467.638	15746
467.717	15987
467.796	16974
467.875	17959
467.955	16832
468.034	21779
468.113	43346
468.192	57278
468.271	19411
468.350	16774
468.429	18875
468.508	17868
468.588	15912
468.667	14863
468.746	14856
468.825	13533
468.904	11764
468.983	13630
469.062	18631
469.141	20669
469.220	12096
469.299	12097
469.378	13815
469.456	16778
469.535	14882
469.614	13395
469.693	13430
469.772	16069
469.851	21490
469.930	15400
470.009	13237
470.088	12144
470.166	15760
470.245	20537
470.324	24295
470.403	16528
470.482	13941
470.560	11731
470.639	13182
470.718	14624
470.797	12973
470.875	13809
470.954	17615
471.033	18114
471.111	9647
471.190	10254
471.269	9880
471.347	10042
471.426	10611
471.505	12811
471.583	13974
471.662	12338
471.740	11481
471.819	11938
471.898	10499
471.976	10872
472.055	11598
472.133	11642
472.212	14599
472.290	14988
472.369	11065
472.447	9589
472.526	9427
472.604	10781
472.683	11626
472.761	11199
472.839	11265
472.918	10025
472.996	11325
473.075	11313
473.153	10970
473.231	9553
473.310	12233
473.388	11435
473.466	11473
473.545	12966
473.623	15564
473.701	14913
473.780	11099
473.858	10541
473.936	11876
474.014	10228
474.093	12286
474.171	15440
474.249	19446
474.327	13850
474.405	9516
474.484	9412
474.562	10195
474.640	9609
474.718	11391
474.796	13490
474.874	11812
474.952	10454
475.030	11395
475.108	12699
475.187	15721
475.265	15275
475.343	18486
475.421	18362
475.499	11442
475.577	10741
475.655	13696
475.733	21147
475.811	35292
475.889	32306
475.966	21181
476.044	10064
476.122	13231
476.200	15030
476.278	13244
476.356	8593
476.434	10544
476.512	11395
476.590	15268
476.667	13645
476.745	9358
476.823	8909
476.901	8970
476.979	8928
477.056	10312
477.134	10237
477.212	10404
477.290	9475
477.367	8645
477.445	8439
477.523	8958
477.601	8436
477.678	8587
477.756	10616
477.834	11108
477.911	8705
477.989	9511
478.066	8838
478.144	10867
478.222	11187
478.299	18184
478.377	16577
478.454	8312
478.532	7631
478.609	9038
478.687	9620
478.764	8024
478.842	8827
478.919	9665
478.997	8279
479.074	7819
479.152	8795
479.229	11780
479.307	7767
479.384	7537
479.461	6774
479.539	7413
479.616	10060
479.694	8002
479.771	8246
479.848	9737
479.926	11590
480.003	12295
480.080	7960
480.157	7622
480.235	6519
480.312	7430
480.389	8176
480.467	12358
480.544	15551
480.621	9386
480.698	9239
480.775	10057
480.853	9032
480.930	7680
481.007	7732
481.084	9943
481.161	10304
481.238	9465
481.315	7057
481.392	7901
481.470	7927
481.547	8550
481.624	7732
481.701	7240
481.778	7865
481.855	9259
481.932	11680
482.009	21801
482.086	14222
482.163	8712
482.240	12821
482.317	22863
482.393	16345
482.470	8837
482.547	7924
482.624	8338
482.701	8615
482.778	8634
482.855	7656
482.932	6694
483.009	7422
483.085	9110
483.162	10426
483.239	9584
483.316	8079
483.393	8238
483.469	7405
483.546	9126
483.623	8970
483.699	7593
483.776	6037
483.853	8937
483.930	12824
484.006	29994
484.083	54109
484.160	32447
484.236	53437
484.313	39540
484.389	29108
484.466	25847
484.543	25776
484.619	26426
484.696	26228
484.772	27159
484.849	26384
484.925	24259
485.002	22973
485.078	24827
485.155	24877
485.231	23150
485.308	20794
485.384	22531
485.461	24797
485.537	35764
485.614	41563
485.690	22416
485.766	20058
485.843	21538
485.919	27235
485.995	29618
486.072	18775
486.148	18815
486.224	19128
486.301	19791
486.377	22097
486.453	23058
486.530	21686
486.606	30692
486.682	32394
486.758	34090
486.835	38622
486.911	32014
486.987	46195
487.063	48149
487.139	59989
487.215	44171
487.292	25000
487.368	22216
487.444	24972
487.520	30182
487.596	30437
487.672	47245
487.748	115515
487.824	177465
487.900	59120
487.976	28087
488.052	25310
488.128	29691
488.204	24081
488.280	20106
488.356	24214
488.432	39317
488.508	57754
488.584	24807
488.660	18845
488.736	17580
488.812	18841
488.888	23885
488.964	30153
489.039	55784
489.115	83181
489.191	51791
489.267	19687
489.343	18660
489.418	16629
489.494	17525
489.570	15661
489.646	16465
489.722	16097
489.797	17912
489.873	21988
489.949	43437
490.024	37989
490.100	16139
490.176	14850
490.251	18600
490.327	23950
490.403	16147
490.478	14834
490.554	13559
490.629	13921
490.705	12700
490.781	14402
490.856	14925
490.932	17121
491.007	16008
491.083	16546
491.158	14735
491.234	17937
491.309	32647
491.385	36218
491.460	14614
491.536	15549
491.611	14655
491.686	14563
491.762	19568
491.837	33969
491.913	59738
491.988	75025
492.063	101390
492.139	28068
492.214	19376
492.289	11620
492.365	10819
492.440	14343
492.515	14055
492.590	14509
492.666	10865
492.741	15313
492.816	20029
492.891	13305
492.967	11384
493.042	9191
493.117	11500
493.192	10686
493.267	12204
493.342	16623
493.418	17518
493.493	12134
493.568	9524
493.643	10455
493.718	13020
493.793	17180
493.868	20862
493.943	13548
494.018	11530
494.093	10905
494.168	10898
494.243	9546
494.318	9867
494.393	9460
494.468	10007
494.543	9916
494.618	11886
494.693	9958
494.768	9908
494.842	10734
494.917	9226
494.992	10093
495.067	9611
495.142	8432
495.217	11550
495.292	8715
495.366	11833
495.441	12870
495.516	15330
495.591	24164
495.665	69599
495.740	167947
495.815	69665
495.890	15692
495.964	12295
496.039	13658
496.114	12570
496.188	14381
496.263	15377
496.338	11935
496.412	14195
496.487	16344
496.561	16793
496.636	18099
496.710	15420
496.785	15500
496.860	19216
496.934	16028
497.009	16060
497.083	16712
497.158	18408
497.232	21527
497.307	24930
497.381	23067
497.455	26774
497.530	32405
497.604	27355
497.679	29435
497.753	41093
497.827	56832
497.902	58752
497.976	63717
498.050	106435
498.125	308221
498.199	338667
498.273	88800
498.348	76409
498.422	62053
498.496	54558
498.570	46824
498.645	36699
498.719	31388
498.793	31799
498.867	38859
498.941	52513
499.016	116657
499.090	327402
499.164	120471
499.238	19097
499.312	17751
499.386	21141
499.460	17893
499.534	16352
499.609	18174
499.683	26366
499.757	25769
499.831	52543
499.905	197395
499.979	202087
500.053	28972
500.127	27729
500.201	21551
500.275	14691
500.349	13578
500.422	16298
500.496	22118
500.570	49142
500.644	106870
500.718	216774
500.792	47546
500.866	13095
500.940	16403
501.013	13651
501.087	13200
501.161	23420
501.235	32875
501.309	61418
501.382	172481
501.456	164342
501.530	32425
501.603	56355
501.677	24069
501.751	10483
501.825	12024
501.898	24040
501.972	67801
502.046	44912
502.119	14105
502.193	30527
502.266	73976
502.340	39415
502.413	30468
502.487	64402
502.561	35963
502.634	13212
502.708	11187
502.781	10664
502.855	8704
502.928	8171
503.002	7553
503.075	7366
503.149	7329
503.222	8217
503.295	8843
503.369	10515
503.442	16119
503.516	46408
503.589	124098
503.662	85011
503.736	24961
503.809	57009
503.882	51454
503.956	71079
504.029	76831
504.102	64895
504.175	92102
504.249	33563
504.322	16435
504.395	13472
504.468	9438
504.542	9273
504.615	7333
504.688	6995
504.761	6998
504.834	8555
504.907	10605
504.980	18475
505.053	9648
505.127	13394
505.200	12847
505.273	12335
505.346	7685
505.419	7470
505.492	6231
505.565	6069
505.638	5138
505.711	5884
505.784	5345
505.857	5565
505.930	6346
506.003	5809
506.076	6035
506.149	8087
506.221	10965
506.294	11254
506.367	27451
506.440	92917
506.513	55112
506.586	11206
506.659	8159
506.731	6650
506.804	7522
506.877	12366
506.950	8567
507.022	7216
507.095	8062
507.168	10059
507.241	6146
507.313	5442
507.386	7280
507.459	9438
507.531	7124
507.604	6147
507.677	5126
507.749	5456
507.822	8968
507.894	18188
507.967	23060
508.040	13423
508.112	11460
508.185	11380
508.257	10458
508.330	13675
508.402	9994
508.475	9856
508.547	9341
508.620	10623
508.692	15000
508.765	10253
508.837	8454
508.909	8163
508.982	8155
509.054	9897
509.127	8688
509.199	7700
509.271	7234
509.344	7495
509.416	6951
509.488	7471
509.560	7736
509.633	8578
509.705	9474
509.777	9461
509.849	11667
509.922	10796
509.994	7300
510.066	8463
510.138	10324
510.210	19788
510.283	18028
510.355	14145
510.427	10921
510.499	11334
510.571	11494
510.643	11722
510.715	16151
510.787	16354
510.859	11591
510.931	13740
511.003	17201
511.076	15836
511.148	10205
511.219	10322
511.291	13531
511.363	17760
511.435	9941
511.507	8511
511.579	9551
511.651	9505
511.723	9086
511.795	9869
511.867	8971
511.939	11372
512.010	18923
512.082	16685
512.154	9853
512.226	11110
512.298	14877
512.369	23953
512.441	17567
512.513	16230
512.585	13547
512.656	13732
512.728	13597
512.800	12668
512.871	10985
512.943	11296
513.015	10203
513.086	11213
513.158	11653
513.230	12849
513.301	15211
513.373	18543
513.444	13264
513.516	10595
513.588	10632
513.659	11495
513.731	13243
513.802	13336
513.874	20454
513.945	37623
514.016	16193
514.088	11052
514.159	11266
514.231	14978
514.302	21615
514.374	16288
514.445	14835
514.516	23334
514.588	18909
514.659	14979
514.730	21937
514.802	21635
514.873	23612
514.944	23177
515.016	17581
515.087	18189
515.158	19751
515.229	28244
515.301	26630
515.372	38587
515.443	23895
515.514	15869
515.585	12207
515.656	12473
515.728	10661
515.799	12124
515.870	10861
515.941	11819
516.012	12025
516.083	15582
516.154	16417
516.225	18733
516.296	17037
516.367	14771
516.438	15875
516.509	23069
516.580	38116
516.651	105516
516.722	361114
516.793	188132
516.864	27809
516.935	25635
517.006	29919
517.077	49462
517.148	120846
517.219	387471
517.289	706690
517.360	173914
517.431	53086
517.502	18101
517.573	15661
517.643	16116
517.714	17596
517.785	17743
517.856	16787
517.926	19115
517.997	20856
518.068	27879
518.138	41305
518.209	85108
518.280	272423
518.350	955299
518.421	454495
518.492	43154
518.562	24141
518.633	24866
518.703	26627
518.774	45605
518.845	102182
518.915	109041
518.986	35763
519.056	24432
519.127	34255
519.197	52643
519.268	104217
519.338	76447
519.408	19721
519.479	21234
519.549	17891
519.620	12421
519.690	9348
519.760	11267
519.831	11636
519.901	11351
519.971	9507
520.042	10848
520.112	11666
520.182	13456
520.253	15091
520.323	12223
520.393	15192
520.463	24229
520.534	16382
520.604	30651
520.674	16548
520.744	15697
520.814	33591
520.885	36391
520.955	35484
521.025	118806
521.095	59770
521.165	10585
521.235	9920
521.305	9783
521.375	8365
521.445	10450
521.515	12272
521.585	14953
521.655	15011
521.725	11828
521.795	10549
521.865	8660
521.935	11804
522.005	12963
522.075	8531
522.145	9216
522.215	9093
522.285	13946
522.355	17008
522.424	31048
522.494	28959
522.564	16534
522.634	29121
522.704	79936
522.774	39630
522.843	9718
522.913	8590
522.983	13549
523.053	9467
523.122	9985
523.192	14475
523.262	39401
523.331	46134
523.401	11030
523.471	7250
523.540	7577
523.610	7115
523.680	7327
523.749	7014
523.819	9294
523.888	10314
523.958	7564
524.027	7563
524.097	8407
524.166	7555
524.236	8886
524.305	8626
524.375	8314
524.444	7072
524.514	8670
524.583	8223
524.653	10752
524.722	10502
524.791	9367
524.861	8167
524.930	8204
524.999	7875
525.069	11424
525.138	9209
525.207	10908
525.277	8421
525.346	8632
525.415	7705
525.484	8223
525.554	9741
525.623	10234
525.692	7869
525.761	9540
525.830	10059
525.900	13190
525.969	20116
526.038	37307
526.107	72671
526.176	208561
526.245	193852
526.314	58691
526.383	103701
526.452	168093
526.522	227690
526.591	275644
526.660	60945
526.729	31520
526.797	37341
526.867	84592
526.935	294183
527.004	554129
527.073	367761
527.142	32078
527.211	14054
527.280	13288
527.349	12981
527.418	8296
527.487	8082
527.555	6955
527.624	7125
527.693	7692
527.762	6787
527.831	6371
527.899	5322
527.968	6774
528.037	6785
528.106	8528
528.174	14150
528.243	13439
528.312	15471
528.380	22516
528.449	9531
528.518	6649
528.586	5473
528.655	6026
528.723	5845
528.792	5754
528.861	6245
528.929	6783
528.998	5962
529.066	5553
529.135	5289
529.203	4623
529.272	5512
529.340	7231
529.409	6460
529.477	6600
529.545	7828
529.614	8943
529.682	9576
529.751	11023
529.819	10407
529.887	8747
529.956	5996
530.024	6621
530.092	5865
530.161	7964
530.229	11032
530.297	8976
530.365	6495
530.434	5247
530.502	5638
530.570	5367
530.638	5516
530.707	6574
530.775	6789
530.843	6255
530.911	5797
530.979	5865
531.047	4841
531.115	6224
531.183	5568
531.252	6256
531.320	6598
531.388	5934
531.456	5821
531.524	5753
531.592	6634
531.660	6387
531.728	6081
531.796	6768
531.864	4919
531.932	6670
532.000	5880
532.067	6025
532.135	6921
532.203	8087
532.271	9332
532.339	13576
532.407	30137
532.475	23575
532.542	9972
532.610	12492
532.678	20957
532.746	59900
532.814	169056
532.881	53529
532.949	8863
533.017	8058
533.084	6102
533.152	7009
533.220	6950
533.287	8177
533.355	5992
533.423	6614
533.490	5816
533.558	5809
533.625	6115
533.693	8540
533.761	7265
533.828	7916
533.896	7262
533.963	12604
534.031	16666
534.098	21484
534.166	13340
534.233	8015
534.300	7412
534.368	7877
534.435	7681
534.503	7463
534.570	8945
534.637	9401
534.705	10448
534.772	14824
534.840	27911
534.907	86163
534.974	143795
535.041	20892
535.109	9895
535.176	8595
535.243	6936
535.310	7730
535.378	7888
535.445	6910
535.512	6438
535.579	7363
535.646	6882
535.714	8388
535.781	9544
535.848	9824
535.915	8892
535.982	8458
536.049	8150
536.116	7745
536.183	8369
536.250	8630
536.317	7814
536.384	9888
536.451	12823
536.518	13992
536.585	9986
536.652	11433
536.719	14994
536.786	14508
536.853	11177
536.920	15317
536.987	24404
537.053	28980
537.120	72552
537.187	87899
537.254	11473
537.321	8521
537.388	8406
537.454	8287
537.521	7098
537.588	8530
537.654	9455
537.721	11475
537.788	10403
537.855	10054
537.921	8599
537.988	9349
538.055	8090
538.121	8271
538.188	9830
538.254	12503
538.321	22888
538.388	17540
538.454	9782
538.521	9578
538.587	8863
538.654	9186
538.720	8197
538.787	8810
538.853	9219
538.920	10533
538.986	10379
539.053	9423
539.119	9274
539.185	10222
539.252	10023
539.318	15360
539.385	12800
539.451	12827
539.517	12586
539.583	15033
539.650	24521
539.716	62866
539.782	26119
539.849	10111
539.915	9287
539.981	9855
540.047	10993
540.114	10909
540.180	10559
540.246	11360
540.312	13907
540.378	22141
540.444	28081
540.510	26593
540.576	69597
540.643	33444
540.709	9996
540.775	9249
540.841	9792
540.907	11995
540.973	17650
541.039	16540
541.105	16270
541.171	12361
541.237	9924
541.303	10157
541.369	11603
541.435	13937
541.500	19426
541.566	17017
541.632	8600
541.698	9012
541.764	8882
541.830	9225
541.896	8259
541.961	9565
542.027	10416
542.093	9624
542.159	9943
542.224	11977
542.290	14524
542.356	19466
542.421	24883
542.487	13517
542.553	10769
542.618	12106
542.684	10176
542.750	10628
542.815	13176
542.881	20660
542.947	54765
543.012	57627
543.078	10337
543.143	9093
543.209	10117
543.274	11700
543.340	13395
543.405	21820
543.471	42441
543.536	14836
543.602	10626
543.667	9888
543.732	9546
543.798	9642
543.863	9910
543.928	9036
543.994	8037
544.059	9294
544.124	9251
544.190	9846
544.255	9448
544.320	10349
544.386	10493
544.451	12816
544.516	16133
544.581	17725
544.646	34696
544.712	67066
544.777	20088
544.842	13190
544.907	13323
544.972	10648
545.037	10692
545.102	12082
545.168	12456
545.233	13349
545.298	13034
545.363	14991
545.428	17333
545.493	24555
545.558	49813
545.623	29610
545.688	12870
545.753	12773
545.818	11577
545.883	12805
545.947	12752
546.012	13313
546.077	13842
546.142	13838
546.207	14281
546.272	16681
546.337	18145
546.401	15921
546.466	14664
546.531	14338
546.596	16208
546.661	16254
546.725	15176
546.790	16098
546.855	15462
546.919	17050
546.984	18402
547.049	20590
547.113	21429
547.178	23035
547.243	25321
547.307	28806
547.372	31717
547.436	34671
547.501	31187
547.565	33133
547.630	32616
547.695	33472
547.759	32957
547.823	32971
547.888	30025
547.952	30356
548.017	31099
548.081	34891
548.146	37540
548.210	36651
548.274	35856
548.339	34897
548.403	31226
548.468	30619
548.532	30337
548.596	30972
548.660	30253
548.725	32762
548.789	37352
548.853	39377
548.917	34169
548.982	35967
549.046	36581
549.110	27598
549.174	27874
549.238	31632
549.303	33271
549.367	35644
549.431	34400
549.495	31803
549.559	32746
549.623	36221
549.687	41047
549.751	45880
549.815	47113
549.879	46302
549.943	43674
550.007	44823
550.071	47208
550.135	46956
550.199	42052
550.263	39811
550.327	39221
550.391	41894
550.455	43306
550.519	44400
550.582	47159
550.646	55066
550.710	59189
550.774	52379
550.838	52126
550.901	54369
550.965	56942
551.029	58892
551.093	65344
551.156	74583
551.220	90980
551.284	112360
551.347	81482
551.411	76821
551.475	87536
551.538	60663
551.602	54779
551.666	50862
551.729	47545
551.793	46387
551.856	46249
551.920	44480
551.983	45335
552.047	45255
552.110	44973
552.174	45495
552.237	46386
552.301	44395
552.364	41489
552.428	41419
552.491	40803
552.554	43314
552.618	44020
552.681	45829
552.745	46561
552.808	53638
552.871	67526
552.934	54094
552.998	45668
553.061	44381
553.124	42094
553.187	41001
553.251	42349
553.314	42196
553.377	41856
553.440	46081
553.503	48717
553.567	54023
553.630	46005
553.693	44553
553.756	45374
553.819	45128
553.882	42060
553.945	43342
554.008	43331
554.071	43565
554.134	44575
554.197	42237
554.260	40653
554.323	42124
554.386	42050
554.449	43862
554.512	44558
554.575	42856
554.638	41180
554.701	42575
554.764	41389
554.827	38883
554.889	39083
554.952	36736
555.015	34830
555.078	35947
555.141	36345
555.203	35746
555.266	35855
555.329	35773
555.391	35191
555.454	35864
555.517	33787
555.580	32621
555.642	31274
555.705	31906
555.768	31309
555.830	31104
555.893	30282
555.955	28845
556.018	27832
556.080	28464
556.143	29191
556.206	28824
556.268	29078
556.330	28078
556.393	27719
556.455	27263
556.518	29547
556.580	31693
556.643	25504
556.705	23585
556.767	23247
556.830	25064
556.892	24868
556.955	28423
557.017	26570
557.079	23534
557.142	22820
557.204	24207
557.266	30908
557.328	32579
557.391	20780
557.453	20123
557.515	19866
557.577	20885
557.639	22608
557.701	19800
557.764	18151
557.826	19300
557.888	21177
557.950	23515
558.012	26177
558.074	36457
558.136	56638
558.198	146141
558.260	82127
558.322	22731
558.384	21718
558.446	24203
558.508	26095
558.570	35202
558.632	51348
558.694	90286
558.756	124201
558.818	241242
558.880	692459
558.942	342472
559.003	148589
559.065	105193
559.127	31852
559.189	32497
559.251	44939
559.312	72589
559.374	130449
559.436	390335
559.498	322515
559.559	43141
559.621	34792
559.683	46052
559.744	75533
559.806	165571
559.868	352082
559.929	98271
559.991	40213
560.052	54414
560.114	131411
560.176	132711
560.237	70899
560.299	147668
560.360	51387
560.422	16159
560.483	14668
560.545	14963
560.606	14534
560.667	14356
560.729	12802
560.790	13039
560.852	11292
560.913	13543
560.974	11925
561.036	12866
561.097	11944
561.158	13188
561.220	12218
561.281	12469
561.342	12806
561.403	14913
561.465	16224
561.526	26447
561.587	43469
561.648	18594
561.709	12298
561.771	12943
561.832	11346
561.893	11655
561.954	11445
562.015	12093
562.076	12221
562.137	12672
562.198	11512
562.259	12148
562.320	11878
562.381	12535
562.442	15237
562.503	15860
562.564	11722
562.625	12126
562.686	10490
562.747	13108
562.808	12767
562.869	12300
562.930	13228
562.991	13639
563.051	12201
563.112	12581
563.173	11032
563.234	11232
563.294	11962
563.355	12038
563.416	11988
563.477	11508
563.537	12057
563.598	12364
563.659	12106
563.720	12124
563.780	11881
563.841	12595
563.901	12861
563.962	11762
564.023	10080
564.083	12021
564.144	11603
564.204	12389
564.265	12166
564.325	13471
564.386	18319
564.446	21404
564.507	12157
564.567	11578
564.628	11457
564.688	11659
564.749	12366
564.809	12769
564.869	13411
564.930	12487
564.990	10720
565.050	12074
565.111	12181
565.171	12176
565.231	11695
565.292	12210
565.352	11151
565.412	11987
565.472	12889
565.532	13052
565.593	12767
565.653	11115
565.713	13020
565.773	13773
565.833	14082
565.893	17194
565.953	15011
566.013	13419
566.074	13950
566.134	16695
566.194	19804
566.254	22914
566.314	17405
566.374	15640
566.434	14998
566.494	15965
566.554	16065
566.614	18044
566.673	17901
566.733	18089
566.793	19443
566.853	21816
566.913	21622
566.973	22395
567.033	22658
567.092	22121
567.152	21281
567.212	23595
567.272	22484
567.331	23962
567.391	23882
567.451	27529
567.511	28957
567.570	30419
567.630	24010
567.690	21981
567.749	22242
567.809	24611
567.868	26903
567.928	31581
567.988	38818
568.047	48671
568.107	64301
568.166	88892
568.226	132761
568.285	195579
568.345	182200
568.404	136072
568.464	110140
568.523	99608
568.582	101639
568.642	117488
568.701	151327
568.761	206808
568.820	322401
568.879	355194
568.939	261795
568.998	185437
569.057	132605
569.116	99630
569.176	78190
569.235	62884
569.294	52045
569.353	45363
569.413	39242
569.472	35491
569.531	30424
569.590	28947
569.649	26402
569.708	24156
569.767	23529
569.827	23357
569.886	22835
569.945	19247
570.004	17797
570.063	18240
570.122	17607
570.181	17634
570.240	17961
570.299	18073
570.358	17441
570.417	16642
570.475	14687
570.534	15166
570.593	14379
570.652	15286
570.711	14908
570.770	13539
570.829	13983
570.887	13664
570.946	14105
571.005	13571
571.064	12314
571.122	13102
571.181	13919
571.240	13131
571.299	10822
571.357	12222
571.416	12764
571.475	12404
571.533	13557
571.592	11845
571.650	12351
571.709	11824
571.768	10920
571.826	12226
571.885	11185
571.943	11700
572.002	10308
572.060	11739
572.119	10535
572.177	10395
572.236	9270
572.294	10131
572.352	9364
572.411	11290
572.469	10510
572.528	10714
572.586	11030
572.644	10946
572.703	12953
572.761	11669
572.819	9713
572.877	9980
572.936	9525
572.994	10538
573.052	9189
573.110	10422
573.169	10137
573.227	9117
573.285	9814
573.343	9685
573.401	9415
573.459	8984
573.517	9315
573.576	9959
573.634	10499
573.692	10145
573.750	10051
573.808	10089
573.866	9604
573.924	10745
573.982	10929
574.040	9788
574.098	9277
574.155	9930
574.213	9138
574.271	10050
574.329	9571
574.387	9818
574.445	7963
574.503	9273
574.560	8122
574.618	9089
574.676	8546
574.734	8793
574.792	9384
574.849	9927
574.907	8645
574.965	9197
575.022	7520
575.080	9255
575.138	8519
575.195	8649
575.253	9540
575.311	9029
575.368	8782
575.426	8580
575.483	8218
575.541	9194
575.598	8127
575.656	9475
575.713	7841
575.771	8621
575.828	9166
575.886	8419
575.943	8701
576.001	8548
576.058	8547
576.115	9302
576.173	10300
576.230	11464
576.287	11815
576.345	11115
576.402	9666
576.459	10092
576.517	9615
576.574	9343
576.631	10219
576.688	9729
576.746	8797
576.803	9095
576.860	9573
576.917	8846
576.974	9553
577.031	9187
577.089	9065
577.146	8869
577.203	9142
577.260	9659
577.317	8986
577.374	9772
577.431	9546
577.488	10358
577.545	8181
577.602	8998
577.659	9346
577.716	9026
577.773	9122
577.830	8652
577.886	8775
577.943	9161
578.000	8642
578.057	10083
578.114	9136
578.171	9212
578.227	9012
578.284	9157
578.341	9689
578.398	9423
578.454	9695
578.511	9963
578.568	11613
578.625	10609
578.681	8427
578.738	9339
578.794	9101
578.851	8527
578.908	9770
578.964	11258
579.021	10512
579.077	10529
579.134	9417
579.190	9736
579.247	9408
579.303	10087
579.360	9411
579.416	10183
579.473	8353
579.529	9256
579.586	9077
579.642	10200
579.698	9880
579.755	10083
579.811	9530
579.867	9789
579.924	9610
579.980	10111
580.036	10288
580.093	9797
580.149	9961
580.205	10672
580.261	9617
580.317	10652
580.374	10769
580.430	11645
580.486	11499
580.542	11035
580.598	10505
580.619	10768
580.654	11233
580.692	10698
580.710	10446
580.765	10648
580.767	10662
580.823	10699
580.838	10680
580.879	10662
580.911	10705
580.935	10749
580.984	10571
580.991	10555
581.047	10228
581.057	10398
581.103	11173
581.130	10984
581.159	10803
581.203	11471
581.215	11648
581.270	11354
581.276	11377
581.326	11723
581.349	11231
581.382	10499
581.422	12148
581.438	12827
581.494	10910
581.494	10913
581.550	11717
581.567	11679
581.606	11664
581.640	11552
581.661	11459
581.713	10800
581.717	10751
581.773	12082
581.786	11864
581.829	11153
581.859	11432
581.885	11707
581.932	11450
581.940	11391
581.996	12445
582.004	12418
582.052	12305
582.077	11892
582.107	11388
582.150	11260
582.163	11249
582.219	12731
582.223	12731
582.274	12679
582.296	12330
582.330	11843
582.368	12635
582.386	12950
582.441	13340
582.441	13342
582.497	12340
582.514	12565
582.552	13011
582.587	13137
582.608	13286
582.659	13526
582.663	13531
582.719	13125
582.732	13192
582.774	13519
582.805	13734
582.830	13911
582.877	13839
582.885	13826
582.941	13738
582.950	13929
582.996	14809
583.023	14476
583.052	14110
583.095	14570
583.107	14721
583.162	13980
583.168	14094
583.218	15162
583.240	15080
583.273	14807
583.313	15279
583.328	15505
583.384	14873
583.385	14884
583.439	15210
583.458	15060
583.494	14923
583.531	15467
583.549	15604
583.603	15131
583.605	15125
583.660	16563
583.676	16309
583.715	15538
583.748	15520
583.770	15648
583.820	16511
583.825	16570
583.881	16303
583.893	16346
583.936	16630
583.965	16481
583.991	16282
584.038	17070
584.046	17263
584.101	18314
584.110	18252
584.156	17550
584.183	17661
584.211	17996
584.255	18127
584.266	18082
584.321	18674
584.328	18603
584.376	18463
584.400	19180
584.431	19942
584.472	19228
584.486	18998
584.541	19908
584.545	19910
584.596	20097
584.617	20401
584.651	21156
584.689	21390
584.706	21306
584.761	21379
584.762	21375
584.816	22038
584.834	22300
584.871	22534
584.906	22404
584.926	22535
584.978	23538
584.980	23577
585.035	23872
585.051	24295
585.090	25932
585.123	26436
585.145	26511
585.195	27506
585.200	27643
585.254	28478
585.267	28982
585.309	30623
585.340	31698
585.364	33022
585.412	36525
585.419	36986
585.473	41700
585.484	43043
585.528	49029
585.556	54397
585.583	61035
585.628	73790
585.637	79558
585.692	126556
585.700	140831
585.747	257059
585.772	271751
585.801	240809
585.845	174516
585.856	146853
585.910	62659
585.917	53450
585.965	45867
585.989	42029
586.019	40748
586.061	39811
586.074	39856
586.128	39703
586.133	39718
586.183	40673
586.205	40763
586.237	41298
586.277	41659
586.292	41651
586.346	43121
586.349	43106
586.401	44154
586.421	44672
586.455	45384
586.493	46432
586.509	47236
586.564	49672
586.565	49748
586.618	57014
586.637	59133
586.672	63277
586.709	63322
586.727	60991
586.781	57630
586.781	57689
586.835	59043
586.853	58977
586.889	58113
586.925	58415
586.944	59441
586.996	61475
586.998	61602
587.052	64261
587.068	65111
587.106	67276
587.140	68855
587.161	69967
587.212	71997
587.215	72197
587.269	76392
587.284	77076
587.323	79363
587.356	81791
587.377	83774
587.427	87789
587.431	88203
587.485	94252
587.499	95330
587.539	99501
587.571	103194
587.593	105797
587.643	110997
587.648	111744
587.702	119312
587.715	121075
587.755	127862
587.786	132974
587.810	137571
587.858	146746
587.864	148105
587.917	160921
587.930	163756
587.971	176078
588.001	184929
588.025	192446
588.073	207626
588.079	210345
588.133	233865
588.145	238984
588.187	260218
588.217	275905
588.241	291563
588.288	322670
588.295	328045
588.348	373016
588.360	382929
588.402	427790
588.431	459949
588.456	493106
588.503	560575
588.510	572707
588.564	674143
588.575	695930
588.617	806228
588.646	885242
588.671	974646
588.718	1145520
588.725	1180055
588.778	1446444
588.789	1499888
588.832	1752517
588.861	1906354
588.886	1953473
588.932	1952362
588.939	1897556
588.993	1398922
589.004	1330474
589.047	1407466
589.075	1480245
589.100	1740967
589.147	2120005
589.154	2105642
589.207	1921314
589.218	1882799
589.261	1674037
589.290	1539476
589.314	1497748
589.361	1424057
589.368	1436369
589.421	1543193
589.433	1566727
589.475	1761982
589.504	1876335
589.528	1880276
589.576	1793797
589.582	1755495
589.635	1481329
589.647	1429468
589.689	1741788
589.718	1900558
589.742	1787063
589.790	1531835
589.795	1494650
589.849	1128061
589.861	1043323
589.902	877544
589.932	755817
589.955	699322
590.004	579195
590.009	572029
590.062	484095
590.075	462087
590.115	417063
590.146	381090
590.168	363908
590.218	324602
590.222	322807
590.275	291893
590.289	283125
590.328	264218
590.360	248219
590.381	240591
590.431	221139
590.435	220633
590.488	204581
590.503	199582
590.541	189642
590.574	180803
590.594	177038
590.645	165872
590.647	165828
590.700	155201
590.716	151721
590.753	146762
590.787	141566
590.806	139070
590.859	131256
590.859	131459
590.912	126251
590.930	124256
590.965	121173
591.001	117731
591.018	116329
591.071	111099
591.072	110794
591.124	108214
591.143	106829
591.177	104222
591.214	101076
591.230	100496
591.283	97738
591.285	97401
591.336	95385
591.356	94257
591.389	92746
591.427	90555
591.442	89950
591.495	86609
591.498	86184
591.547	83735
591.569	82210
591.600	81383
591.640	79893
591.653	79584
591.706	77486
591.711	77081
591.759	76256
591.782	75503
591.811	75160
591.853	74369
591.864	74428
591.917	73599
591.924	73308
591.969	70850
591.995	69152
592.022	69061
592.066	68503
592.075	68607
592.127	68173
592.137	67925
592.180	67960
592.208	67727
592.233	68445
592.279	69201
592.285	68956
592.338	65346
592.350	64367
592.390	63287
592.421	62161
592.443	61863
592.491	60719
592.495	60848
592.548	60486
592.562	60235
592.600	59589
592.633	58740
592.653	58546
592.704	57339
592.705	57646
592.775	56475
592.846	57238
592.916	57484
592.987	56076
593.058	56635
593.128	55720
593.199	52585
593.270	52065
593.341	50965
593.411	50909
593.482	51507
593.553	51744
593.623	49320
593.694	48802
593.764	49122
593.835	50203
593.906	48568
593.976	48291
594.047	47881
594.117	49173
594.188	51136
594.258	50503
594.329	47036
594.399	47487
594.470	47639
594.540	46450
594.611	47227
594.681	47395
594.751	45979
594.822	47397
594.892	48741
594.963	48613
595.033	48948
595.103	49040
595.174	48413
595.244	49950
595.314	57014
595.384	59028
595.455	48590
595.525	50312
595.595	49720
595.665	51672
595.736	50393
595.806	49381
595.876	50191
595.946	50506
596.016	49588
596.087	51481
596.157	52140
596.227	51335
596.297	52609
596.367	54491
596.437	57028
596.507	59827
596.577	63491
596.647	65704
596.717	58000
596.787	60359
596.857	59794
596.927	59732
596.997	59954
597.067	58845
597.137	59484
597.207	61263
597.277	60863
597.347	61220
597.417	59671
597.487	58714
597.557	58059
597.626	59465
597.696	60254
597.766	61222
597.836	63826
597.906	64464
597.975	56765
598.045	53647
598.115	54076
598.185	55819
598.254	58749
598.324	64579
598.394	69182
598.464	69605
598.533	66941
598.603	65850
598.672	61446
598.742	62000
598.812	61704
598.881	62349
598.951	62792
599.020	62792
599.090	61939
599.159	64377
599.229	64688
599.299	62124
599.368	61015
599.437	63899
599.507	60729
599.576	58314
599.646	57382
599.715	55971
599.785	55568
599.854	55926
599.924	54489
599.993	54955
600.062	53688
600.132	53247
600.201	54885
600.270	58796
600.340	66282
600.409	67268
600.478	65044
600.547	65765
600.617	66664
600.686	60572
600.755	50756
600.824	49662
600.894	47744
600.963	45398
601.032	44743
601.101	45728
601.170	42869
601.239	42931
601.308	42504
601.378	44831
601.447	42356
601.516	41922
601.585	42366
601.654	44427
601.723	45922
601.792	43683
601.861	43861
601.930	45356
601.999	47472
602.068	48280
602.137	47886
602.206	49687
602.275	48235
602.343	48571
602.412	50902
602.481	50289
602.550	48147
602.619	47619
602.688	48821
602.756	50323
602.825	49072
602.894	51075
602.963	50221
603.032	51635
603.100	52417
603.169	51916
603.238	51722
603.307	51628
603.375	51324
603.444	52861
603.513	53211
603.581	53656
603.650	53846
603.719	55420
603.787	54155
603.856	55250
603.924	55869
603.993	58473
604.061	57638
604.130	62166
604.198	62852
604.267	64577
604.335	63291
604.404	65157
604.472	65508
604.541	66946
604.609	67694
604.678	68466
604.746	68371
604.815	69466
604.883	70012
604.951	72028
605.020	71071
605.088	73257
605.156	73129
605.225	74332
605.293	75295
605.361	74293
605.429	74871
605.498	75943
605.566	78090
605.634	80954
605.702	81899
605.771	85708
605.839	86543
605.907	86662
605.975	84923
606.043	81742
606.111	81317
606.180	82447
606.248	80045
606.316	79179
606.384	78878
606.452	79902
606.520	82863
606.588	89206
606.656	82793
606.724	82934
606.792	79600
606.860	75633
606.928	69397
606.996	63789
607.064	61369
607.132	61328
607.200	61672
607.267	66009
607.335	66807
607.403	69202
607.471	69739
607.539	67458
607.607	66503
607.674	64803
607.742	58201
607.810	59703
607.878	60787
607.946	59524
608.013	60670
608.081	64557
608.149	64515
608.216	65404
608.284	66892
608.352	67531
608.419	67701
608.487	68358
608.555	68798
608.622	67136
608.690	66725
608.757	71501
608.825	78901
608.893	78279
608.960	76466
609.028	76718
609.095	74375
609.163	74079
609.230	69931
609.298	62563
609.365	58444
609.432	62302
609.500	66113
609.567	72083
609.635	82065
609.702	92825
609.769	96823
609.837	91391
609.904	72241
609.971	67395
610.039	71165
610.106	84826
610.173	123031
610.241	251094
610.308	576271
610.375	339243
610.442	149279
610.509	82440
610.577	70172
610.644	68854
610.711	67601
610.778	70273
610.845	71175
610.912	73414
610.980	76796
611.047	80310
611.114	78487
611.181	78397
611.248	74288
611.315	75193
611.382	78648
611.449	81047
611.516	83310
611.583	85166
611.650	84138
611.717	86236
611.784	86255
611.851	89621
611.918	95451
611.984	107638
612.051	134633
612.118	210168
612.185	455507
612.252	1121148
612.319	549517
612.386	146598
612.452	116041
612.519	105946
612.586	98211
612.653	99978
612.719	97532
612.786	99487
612.853	93379
612.919	86090
612.986	85737
613.053	86029
613.120	79739
613.186	75677
613.253	74059
613.319	74518
613.386	74091
613.453	76496
613.519	76208
613.586	79080
613.652	83039
613.719	88846
613.785	83621
613.852	83160
613.918	77637
613.985	76770
614.051	76669
614.118	81314
614.184	83474
614.250	78271
614.317	75473
614.383	77717
614.449	76942
614.516	79175
614.582	78479
614.648	79631
614.715	77018
614.781	76536
614.847	74308
614.914	76536
614.980	74994
615.046	75256
615.112	74125
615.179	79061
615.245	80605
615.311	85984
615.377	99825
615.443	144060
615.509	145743
615.575	100168
615.642	89068
615.708	86503
615.774	88955
615.840	98662
615.906	110913
615.972	135287
616.038	205618
616.104	387034
616.170	660143
616.236	1391200
616.302	971659
616.368	226413
616.434	161354
616.500	116947
616.565	104331
616.631	117302
616.697	142823
616.763	119068
616.829	123332
616.895	192876
616.961	337269
617.026	304410
617.092	124716
617.158	88475
617.224	80997
617.289	78591
617.355	71968
617.421	70813
617.487	69828
617.552	69156
617.618	65204
617.684	65159
617.749	65401
617.815	64887
617.880	60742
617.946	61167
618.012	60386
618.077	62707
618.143	63112
618.208	60824
618.274	62010
618.339	65740
618.405	64917
618.470	55483
618.536	55176
618.601	56521
618.667	55177
618.732	53070
618.798	48979
618.863	50551
618.928	47653
618.994	48917
619.059	48871
619.124	52772
619.190	58975
619.255	51262
619.320	49071
619.386	48493
619.451	47691
619.516	48558
619.581	46507
619.647	48605
619.712	48535
619.777	48151
619.842	46495
619.907	46810
619.972	47402
620.038	49505
620.103	48106
620.168	47265
620.233	46796
620.298	47801
620.363	46045
620.428	47929
620.493	48658
620.558	49794
620.623	50512
620.688	51340
620.753	49589
620.818	50611
620.883	50339
620.948	52372
621.013	51210
621.078	51391
621.143	50529
621.207	52687
621.272	51484
621.337	51696
621.402	51191
621.467	51339
621.532	53718
621.596	53648
621.661	51017
621.726	47854
621.791	47964
621.855	48448
621.920	50717
621.985	49948
622.049	50759
622.114	52365
622.179	51725
622.243	50506
622.308	52191
622.373	53352
622.437	53977
622.502	53615
622.566	50329
622.631	50400
622.695	49983
622.760	51264
622.824	50526
622.889	50772
622.953	51958
623.018	53828
623.082	65820
623.147	61721
623.211	54698
623.276	51840
623.340	52885
623.404	51069
623.469	48247
623.533	48475
623.597	48811
623.662	48532
623.726	47598
623.790	45594
623.854	42957
623.919	43591
623.983	41853
624.047	43746
624.111	44280
624.176	44558
624.240	44012
624.304	48134
624.368	49074
624.432	45817
624.496	43396
624.560	46936
624.625	49576
624.689	51173
624.753	47180
624.817	49482
624.881	46017
624.945	46627
625.009	40824
625.073	42056
625.137	42421
625.201	46560
625.265	49791
625.329	48774
625.393	44427
625.456	45648
625.520	44303
625.584	45358
625.648	47192
625.712	51271
625.776	60098
625.839	85752
625.903	88562
625.967	49597
626.031	40513
626.095	49540
626.158	64804
626.222	44439
626.286	33586
626.349	31840
626.413	31406
626.477	30072
626.540	31218
626.604	29987
626.668	30303
626.731	29228
626.795	29895
626.858	30394
626.922	29431
626.986	29820
627.049	27580
627.113	29301
627.176	28164
627.240	28787
627.303	27353
627.366	28348
627.430	28507
627.493	29627
627.557	27423
627.620	28735
627.684	26826
627.747	28871
627.810	28659
627.874	28097
627.937	24608
628.000	25698
628.064	25611
628.127	25267
628.190	21658
628.253	22808
628.317	22507
628.380	21682
628.443	20118
628.506	20433
628.569	20578
628.632	20144
628.696	19778
628.759	19565
628.822	18084
628.885	18097
628.948	17415
629.011	18089
629.074	18041
629.137	18663
629.200	17146
629.263	17682
629.326	17517
629.389	16432
629.452	16140
629.515	17434
629.578	16554
629.641	16424
629.704	17188
629.767	17763
629.830	17228
629.892	16339
629.955	15698
630.018	16111
630.081	16643
630.144	18292
630.207	20362
630.269	18386
630.332	16466
630.395	17708
630.458	15490
630.520	15345
630.583	15519
630.646	16002
630.708	14276
630.771	14659
630.834	13806
630.896	15886
630.959	14718
631.021	15291
631.084	15024
631.146	15982
631.209	15820
631.272	16078
631.334	15411
631.397	15472
631.459	14804
631.522	16463
631.584	16323
631.646	17722
631.709	17618
631.771	18685
631.834	21342
631.896	19608
631.958	16967
632.021	15925
632.083	14999
632.145	15331
632.208	13994
632.270	15435
632.332	14383
632.395	14844
632.457	14220
632.519	14183
632.581	13687
632.643	13597
632.706	13789
632.768	13657
632.830	13754
632.892	13997
632.954	13585
633.016	14729
633.078	13725
633.141	13543
633.203	13316
633.265	14013
633.327	13588
633.389	14244
633.451	13355
633.513	14775
633.575	16681
633.637	16655
633.698	15926
633.760	15771
633.822	14311
633.884	15245
633.946	14591
634.008	15928
634.070	15970
634.132	16353
634.193	16953
634.255	18479
634.317	19420
634.379	20504
634.441	19126
634.502	18657
634.564	15639
634.626	15035
634.687	14051
634.749	13943
634.811	12518
634.873	13744
634.934	12223
634.996	13147
635.057	13059
635.119	12923
635.181	12966
635.242	13782
635.304	12638
635.365	14188
635.427	12803
635.488	13697
635.550	13153
635.611	13882
635.673	13225
635.734	14022
635.796	14631
635.857	15642
635.918	16561
635.980	17996
636.041	17906
636.102	19643
636.164	21019
636.225	21058
636.286	20112
636.348	18414
636.409	15921
636.470	15355
636.531	13337
636.593	12984
636.654	13437
636.715	13087
636.776	11901
636.838	12254
636.899	11145
636.960	11992
637.021	11244
637.082	11244
637.143	10925
637.204	11486
637.265	11091
637.326	10948
637.387	10162
637.448	10541
637.509	10241
637.570	11273
637.631	11067
637.692	9840
637.753	10045
637.814	10568
637.875	9953
637.936	10358
637.997	9424
638.058	10193
638.119	9937
638.179	9962
638.240	9846
638.301	10268
638.362	8914
638.423	10090
638.483	9581
638.544	9373
638.605	8467
638.666	9692
638.726	9592
638.787	9749
638.848	8905
638.908	9166
638.969	9168
639.030	9504
639.090	8566
639.151	9248
639.211	9157
639.272	10762
639.332	11688
639.393	16623
639.453	11477
639.514	11235
639.574	9981
639.635	9276
639.695	8418
639.756	9781
639.816	8611
639.877	9354
639.937	9969
639.997	14838
640.058	17761
640.118	10711
640.178	8225
640.239	8709
640.299	8131
640.359	8524
640.420	8392
640.480	8985
640.540	9203
640.600	11677
640.661	10770
640.721	11021
640.781	10133
640.841	12088
640.901	8966
640.961	8404
641.021	7987
641.082	9683
641.142	11583
641.202	13089
641.262	9476
641.322	8490
641.382	8085
641.442	8183
641.502	7059
641.562	8013
641.622	6190
641.682	7826
641.742	8121
641.802	10133
641.861	8901
641.921	8484
641.981	8163
642.041	9255
642.101	8390
642.161	10401
642.221	8469
642.280	7346
642.340	7435
642.400	7294
642.460	7069
642.519	7773
642.579	7341
642.639	7992
642.698	6832
642.758	8472
642.818	7461
642.877	7133
642.937	7401
642.997	8306
643.056	8608
643.116	12158
643.175	9323
643.235	8904
643.294	8168
643.354	9251
643.414	9660
643.473	10491
643.532	12910
643.592	17821
643.651	23980
643.711	39830
643.770	71011
643.830	140571
643.889	316725
643.948	729724
644.008	198559
644.067	32208
644.126	18599
644.186	15012
644.245	12689
644.304	10752
644.363	9131
644.423	9016
644.482	8571
644.541	8321
644.600	8538
644.659	9629
644.719	11050
644.778	15816
644.837	22097
644.896	36936
644.955	72565
645.014	182879
645.073	69414
645.132	14982
645.191	10047
645.250	9688
645.309	9142
645.368	9774
645.427	10407
645.486	12830
645.545	19587
645.604	36646
645.663	13499
645.722	9008
645.781	8911
645.840	9919
645.898	11764
645.957	15093
646.016	21993
646.075	35555
646.134	67214
646.192	127575
646.251	314989
646.310	542601
646.369	90570
646.427	22936
646.486	16184
646.545	12475
646.603	9420
646.662	8760
646.721	7447
646.779	7371
646.838	7805
646.896	9198
646.955	10413
647.014	14254
647.072	22005
647.131	39545
647.189	111118
647.248	66233
647.306	10132
647.365	7828
647.423	6249
647.481	6771
647.540	5644
647.598	6534
647.657	5273
647.715	5840
647.773	5153
647.832	5974
647.890	5342
647.948	5713
648.007	4882
648.065	5716
648.123	3993
648.181	5750
648.240	5532
648.298	6596
648.356	4639
648.414	5981
648.472	4462
648.531	5067
648.589	4837
648.647	5875
648.705	5226
648.763	5794
648.821	5050
648.879	6072
648.937	5608
648.995	7429
649.053	8137
649.111	11642
649.169	16544
649.227	29241
649.285	51598
649.343	98821
649.401	301692
649.459	182281
649.516	30628
649.574	18368
649.632	9965
649.690	9798
649.748	10354
649.806	11979
649.863	16340
649.921	27406
649.979	72225
650.037	63056
650.094	8719
650.152	6391
650.210	5430
650.268	5152
650.325	4435
650.383	4191
650.440	4621
650.498	4967
650.556	4030
650.613	4322
650.671	4173
650.728	4278
650.786	4033
650.843	5465
650.901	4864
650.958	5235
651.016	3894
651.073	3409
651.131	3550
651.188	3775
651.246	3176
651.303	4073
651.360	3543
651.418	3871
651.475	4074
651.532	3430
651.590	2800
651.647	4166
651.704	2847
651.762	4191
651.819	3375
651.876	3650
651.933	3278
651.990	3363
652.048	3147
652.105	4015
652.162	3198
652.219	3881
652.276	3167
652.333	2926
652.390	3309
652.448	3860
652.505	3271
652.562	3438
652.619	2014
652.676	3092
652.733	3209
652.790	2880
652.847	1809
652.904	3369
652.961	1949
653.017	2672
653.074	2957
653.131	3442
653.188	2699
653.245	3637
653.302	2253
653.359	3106
653.415	2479
653.472	2787
653.529	2152
653.586	3479
653.642	2608
653.699	2940
653.756	2131
653.813	3216
653.869	2324
653.926	2992
653.983	2559
654.039	2847
654.096	2843
654.152	3787
654.209	2709
654.266	2722
654.322	2876
654.379	3568
654.435	2851
654.492	3573
654.548	3497
654.605	5038
654.661	6082
654.717	4895
654.774	3034
654.830	2865
654.887	2723
654.943	3481
655.000	2540
655.056	3953
655.112	2810
655.168	3238
655.225	2919
655.281	3144
655.337	2541
655.394	4151
655.450	5262
655.506	4716
655.562	3911
655.618	6530
655.675	5073
655.731	3636
655.787	2959
655.843	3092
655.899	2593
655.955	3297
656.011	2096
656.067	2794
656.123	3236
656.179	3218
656.235	2613
656.291	3111
656.347	2231
656.403	2699
656.459	3192
656.515	3739
656.571	2999
656.627	3471
656.683	2028
656.739	3506
656.795	2716
656.850	3491
656.906	3327
656.962	3444
657.018	2583
657.074	3082
657.129	2533
657.185	4705
657.241	4338
657.297	9906
657.352	8503
657.408	3549
657.464	2933
657.519	3134
657.575	2295
657.630	3127
657.686	1471
657.742	2655
657.797	2654
657.853	3178
657.908	2361
657.964	2840
658.019	2131
658.075	3050
658.130	1905
658.186	2193
658.241	1842
658.297	2936
658.352	923
658.407	2957
658.463	2046
658.518	2822
658.573	2502
658.629	2294
658.684	2831
658.739	2410
658.795	1552
658.850	2967
658.905	1643
658.960	2587
659.016	2447
659.071	2492
659.126	1954
659.181	2589
659.236	3157
659.291	4406
659.346	4513
659.401	2977
659.457	3182
659.512	2728
659.567	2150
659.622	2674
659.677	2130
659.732	2604
659.787	1835
659.842	2997
659.897	2515
659.952	3313
660.007	2274
660.061	2943
660.116	1983
660.171	1960
660.226	1914
660.281	3146
660.336	1551
660.391	2397
660.445	1609
660.500	2627
660.555	1490
660.610	1985
660.664	2382
660.719	2680
660.774	2367
660.828	2697
660.883	1970
660.938	2861
660.992	1339
661.047	2214
661.101	1603
661.156	1609
661.211	1123
661.265	2487
661.320	1498
661.374	2721
661.429	2583
661.483	1910
661.538	1481
661.592	2306
661.647	1745
661.701	3035
661.755	1627
661.810	2477
661.864	1019
661.919	2531
661.973	2248
662.027	2148
662.081	1924
662.136	2213
662.190	1658
662.244	2291
662.299	1936
662.353	2829
662.407	2481
662.461	2301
662.515	1559
662.569	2073
662.624	2214
662.678	2303
662.732	1914
662.786	1640
662.840	2547
662.894	3051
662.948	1513
663.002	2287
663.056	1846
663.110	2317
663.164	1501
663.218	2580
663.272	1685
663.326	2194
663.380	1860
663.434	2358
663.488	1623
663.542	2620
663.595	1888
663.649	1674
663.703	2744
663.757	2881
663.811	1407
663.864	2161
663.918	1705
663.972	2207
664.026	1904
664.079	2050
664.133	2385
664.187	2151
664.240	1377
664.294	2423
664.348	1448
664.401	2571
664.455	1952
664.508	1890
664.562	1676
664.615	1578
664.669	1399
664.722	2179
664.776	2014
664.829	2154
664.883	2134
664.936	2640
664.990	1945
665.043	2428
665.097	1826
665.150	2217
665.203	2151
665.257	2174
665.310	1328
665.363	3096
665.417	1611
665.470	2523
665.523	2551
665.576	2573
665.630	2353
665.683	2569
665.736	2201
665.789	2109
665.842	1585
665.895	2072
665.949	2148
666.002	1676
666.055	1053
666.108	2621
666.161	2019
666.214	2585
666.267	1976
666.320	1879
666.373	3119
666.426	2395
666.479	1597
666.532	2496
666.585	1825
666.638	2898
666.691	3189
666.744	2079
666.796	1794
666.849	3571
666.902	2594
666.955	2351
667.008	2424
667.060	2100
667.113	1509
667.166	2292
667.219	1379
667.271	1834
667.324	2235
667.377	1923
667.430	2163
667.482	1801
667.535	2512
667.587	2204
667.640	1478
667.693	2548
667.745	2614
667.798	4526
667.850	5803
667.903	2713
667.955	2034
668.008	2549
668.060	2093
668.113	2728
668.165	2411
668.218	2615
668.270	2458
668.322	1961
668.375	1511
668.427	2454
668.479	2033
668.532	2603
668.584	2525
668.636	2279
668.689	1949
668.741	1960
668.793	2617
668.845	2343
668.898	1974
668.950	2571
669.002	1807
669.054	1714
669.106	2346
669.158	2617
669.211	2138
669.263	3135
669.315	1712
669.367	2219
669.419	2164
669.471	2607
669.523	2766
669.575	3881
669.627	3318
669.679	4103
669.731	2969
669.783	3535
669.835	2728
669.886	3688
669.938	3066
669.990	2915
670.042	2062
670.094	3363
670.146	2712
670.197	4875
670.249	4075
670.301	5867
670.353	6434
670.404	10286
670.456	14365
670.508	22550
670.560	34159
670.611	57716
670.663	93331
670.715	157704
670.766	302911
670.818	629428
670.869	371356
670.921	67726
670.972	25055
671.024	16508
671.075	10955
671.127	8968
671.178	5786
671.230	5800
671.281	4947
671.333	5496
671.384	4462
671.436	5186
671.487	5317
671.538	6188
671.590	7142
671.641	9765
671.692	12737
671.744	21330
671.795	42411
671.846	43880
671.897	15785
671.949	8058
672.000	4658
672.051	3956
672.102	3253
672.153	3261
672.204	2703
672.256	3022
672.307	2268
672.358	3212
672.409	2289
672.460	2275
672.511	1950
672.562	2056
672.613	1287
672.664	2819
672.715	1978
672.766	2397
672.817	1707
672.868	1847
672.919	1662
672.970	1582
673.021	1729
673.071	1978
673.122	1544
673.173	2654
673.224	1487
673.275	1568
673.326	1755
673.376	2024
673.427	1233
673.478	1986
673.528	1523
673.579	1318
673.630	748
673.680	2628
673.731	1798
673.782	1920
673.832	1714
673.883	1465
673.934	1252
673.984	1654
674.035	1371
674.085	2208
674.136	1490
674.186	1543
674.237	1814
674.287	2470
674.338	2805
674.388	2951
674.438	825
674.489	2554
674.539	1853
674.589	2624
674.640	1815
674.690	2440
674.740	1626
674.791	1768
674.841	1646
674.891	2279
674.942	1536
674.992	1308
675.042	1278
675.092	1907
675.142	1046
675.193	1597
675.243	884
675.293	2371
675.343	1256
675.393	1393
675.443	1508
675.493	1638
675.543	627
675.593	1790
675.643	1254
675.693	2288
675.743	1899
675.793	1852
675.843	1682
675.893	2076
675.943	1128
675.993	1828
676.043	100
676.093	1945
676.142	829
676.192	1242
676.242	1146
676.292	1380
676.341	1017
676.391	1608
676.441	1327
676.491	1058
676.540	917
676.590	1817
676.640	584
676.689	1407
676.739	522
676.789	590
676.838	455
676.888	1237
676.937	630
676.987	1742
677.037	1512
677.086	811
677.136	1056
677.185	852
677.235	533
677.284	1281
677.333	231
677.383	1324
677.432	1157
677.482	991
677.531	777
677.580	550
677.630	165
677.679	1069
677.728	470
677.778	1309
677.827	685
677.876	1229
677.925	1196
677.975	1498
678.024	662
678.073	1120
678.122	1529
678.171	1164
678.220	1040
678.269	1375
678.319	1170
678.368	2324
678.417	1031
678.466	1496
678.515	1046
678.564	1423
678.613	1787
678.662	1564
678.711	224
678.760	1117
678.809	392
678.857	1397
678.906	692
678.955	890
679.004	453
679.053	1204
679.102	163
679.151	1207
679.199	829
679.248	941
679.297	742
679.346	1335
679.394	984
679.443	1027
679.492	436
679.540	1377
679.589	644
679.638	1341
679.686	1079
679.735	855
679.784	757
679.832	1165
679.881	926
679.929	1542
679.978	577
680.026	439
680.075	78
680.123	953
680.172	1231
680.220	739
680.268	-21
680.317	1403
680.365	455
680.414	1331
680.462	255
680.510	1394
680.559	429
680.607	1020
680.655	89
680.703	1428
680.752	72
680.800	976
680.848	82
680.896	1407
680.945	391
680.993	800
681.041	146
681.089	1030
681.137	30
681.185	35
681.233	694
681.258	868
681.281	1008
681.329	523
681.377	510
681.380	519
681.425	222
681.473	1034
681.502	625
681.521	298
681.569	793
681.617	902
681.624	996
681.665	1432
681.713	890
681.745	914
681.761	883
681.809	381
681.857	1444
681.867	1420
681.904	1212
681.952	1691
681.989	772
682.000	468
682.048	1375
682.096	982
682.111	1259
682.143	1769
682.191	1142
682.233	1533
682.239	1563
682.286	1812
682.334	1776
682.354	1300
682.382	604
682.430	2080
682.476	1870
682.477	1845
682.525	2108
682.572	1464
682.598	1909
682.620	2250
682.667	1787
682.715	2434
682.720	2459
682.763	2458
682.810	2607
682.841	2187
682.857	1931
682.905	2675
682.952	1989
682.963	2014
683.000	1991
683.047	2033
683.085	2798
683.095	2994
683.142	1837
683.190	2956
683.206	2915
683.237	2792
683.284	2535
683.328	2838
683.332	2838
683.379	2731
683.426	2496
683.449	2524
683.473	2532
683.521	3140
683.568	2832
683.571	2863
683.615	3030
683.662	3138
683.693	2990
683.709	2886
683.757	2563
683.804	2418
683.814	2643
683.851	3294
683.898	3519
683.936	3495
683.945	3505
683.992	3304
684.039	3114
684.057	3380
684.086	3621
684.133	4018
684.179	3711
684.180	3693
684.227	4120
684.274	3071
684.300	3932
684.321	4529
684.368	3638
684.415	4088
684.422	4053
684.462	3818
684.509	3652
684.543	4028
684.556	4102
684.603	3907
684.649	3719
684.665	3845
684.696	4182
684.743	4271
684.786	4502
684.790	4506
684.837	4504
684.883	4513
684.908	4324
684.930	4136
684.977	5015
685.023	4370
685.029	4462
685.070	5150
685.117	4853
685.150	5176
685.164	5221
685.210	4757
685.257	4823
685.272	4987
685.303	5388
685.350	5001
685.393	5044
685.396	5042
685.443	5311
685.490	4979
685.514	5406
685.536	5762
685.583	5794
685.629	6062
685.636	6007
685.675	5496
685.722	6230
685.757	5787
685.768	5622
685.815	6108
685.861	5011
685.878	5191
685.908	5557
685.954	5671
686.000	5824
686.000	5820
686.047	5664
686.093	6616
686.121	6023
686.139	5696
686.185	6900
686.232	6063
686.242	6203
686.278	6578
686.324	6766
686.363	6906
686.370	6878
686.416	6688
686.463	6301
686.484	6180
686.509	6119
686.555	6645
686.601	5841
686.606	5877
686.647	6343
686.693	6368
686.727	6604
686.739	6652
686.785	6097
686.831	6187
686.848	6402
686.877	6783
686.923	6562
686.969	6400
686.969	6397
687.015	6665
687.061	6411
687.090	6440
687.107	6589
687.153	6300
687.199	7140
687.211	7087
687.245	6756
687.291	6747
687.332	6817
687.336	6820
687.382	7301
687.428	6453
687.453	6930
687.474	7405
687.520	6793
687.565	7118
687.574	7113
687.611	6921
687.657	6976
687.695	7280
687.702	7367
687.748	7088
687.794	7427
687.816	7396
687.839	7381
687.885	7467
687.931	7830
687.937	7776
687.976	7365
688.022	7988
688.058	7539
688.067	7402
688.113	7331
688.158	7182
688.179	7394
688.204	7834
688.249	7436
688.295	7798
688.300	7756
688.340	7208
688.386	7278
688.421	7513
688.431	7682
688.477	7664
688.522	7407
688.542	7914
688.567	8423
688.613	8098
688.658	8419
688.663	8339
688.703	7623
688.749	8158
688.784	7863
688.794	7829
688.839	8608
688.884	8363
688.905	8377
688.930	8310
688.975	8071
689.020	8168
689.026	8105
689.065	7713
689.110	7939
689.146	7681
689.155	7699
689.201	7708
689.246	7903
689.267	8339
689.291	8744
689.336	8191
689.381	8741
689.388	8691
689.426	8290
689.471	8377
689.509	7968
689.516	7943
689.561	8101
689.606	8239
689.630	8206
689.651	8164
689.696	8143
689.741	8627
689.750	8602
689.785	8542
689.830	8369
689.871	8198
689.875	8200
689.920	8685
689.965	8431
689.992	8427
690.010	8378
690.054	8245
690.099	8168
690.112	8074
690.144	8094
690.189	8652
690.233	8772
690.233	8784
690.278	8675
690.323	8890
690.354	9161
690.367	9270
690.412	8735
690.457	8819
690.474	8673
690.501	8471
690.546	8916
690.590	8333
690.595	8333
690.635	8546
690.680	8251
690.716	8362
690.724	8412
690.769	8331
690.813	8658
690.836	8509
690.857	8515
690.902	9253
690.946	9100
690.957	9209
690.991	9586
691.035	9572
691.077	10008
691.080	10054
691.124	10100
691.168	10629
691.198	10610
691.213	10629
691.257	11131
691.301	11161
691.318	11493
691.346	11621
691.390	10747
691.434	10704
691.439	10621
691.478	10235
691.522	10083
691.559	9415
691.567	9356
691.611	9855
691.655	9630
691.680	9665
691.699	9848
691.743	9821
691.787	10526
691.800	10492
691.831	10120
691.875	9823
691.919	9801
691.921	9783
691.964	10274
692.008	10589
692.041	10798
692.052	10837
692.096	10717
692.139	10614
692.162	10584
692.183	10482
692.227	10675
692.271	9939
692.282	9976
692.315	10195
692.359	10034
692.402	9928
692.403	9950
692.447	9956
692.490	10637
692.523	10489
692.534	10422
692.578	10725
692.622	10696
692.643	10867
692.666	11092
692.709	10998
692.753	10854
692.763	10808
692.797	10533
692.840	10539
692.884	10180
692.884	10202
692.928	10537
692.971	10509
693.004	10603
693.015	10665
693.059	10850
693.102	10824
693.124	10887
693.146	10874
693.189	10733
693.233	10583
693.245	10543
693.276	10742
693.320	10827
693.363	10907
693.365	10885
693.407	11061
693.450	11536
693.485	11547
693.493	11519
693.537	11721
693.580	11388
693.605	11465
693.624	11590
693.667	11456
693.710	11481
693.725	11425
693.753	11571
693.797	12155
693.840	12004
693.845	12043
693.883	13123
693.926	13905
693.966	14780
693.970	14881
694.013	15419
694.056	16146
694.086	16589
694.099	16205
694.142	14721
694.185	13299
694.206	12668
694.229	12589
694.272	12042
694.315	11955
694.326	11762
694.358	11709
694.401	12142
694.444	12151
694.446	12148
694.487	12750
694.530	12689
694.566	12948
694.573	12966
694.616	12682
694.659	12653
694.686	12441
694.702	12366
694.745	12119
694.787	12036
694.806	11998
694.830	11969
694.873	11513
694.916	11477
694.926	11340
694.959	11180
695.002	11141
695.044	11233
695.046	11205
695.087	11416
695.130	11306
695.166	11655
695.172	11736
695.215	11515
695.258	11727
695.286	11698
695.301	11763
695.343	12008
695.386	12160
695.406	12229
695.428	12230
695.471	12055
695.514	12014
695.526	11935
695.556	11958
695.599	12157
695.641	12080
695.646	12063
695.684	12364
695.726	12458
695.766	12786
695.769	12820
695.811	12607
695.854	12592
695.886	12377
695.896	12386
695.938	12464
695.981	12361
696.005	12401
696.023	12417
696.065	12215
696.108	12120
696.125	12028
696.150	12211
696.192	12472
696.235	12708
696.245	12742
696.277	13062
696.319	13373
696.361	13722
696.365	13717
696.404	13524
696.446	13416
696.485	12988
696.488	13004
696.530	13037
696.572	12840
696.604	12690
696.614	12755
696.656	12894
696.698	13064
696.724	13191
696.740	13183
696.783	13037
696.825	12724
696.844	12652
696.867	12699
696.909	12432
696.951	12452
696.964	12398
696.992	12531
697.034	12553
697.076	12687
697.083	12661
697.118	12780
697.160	13038
697.202	13174
697.203	13142
697.244	13238
697.286	13378
697.323	13353
697.327	13379
697.369	13404
697.411	13319
697.442	13305
697.453	13323
697.494	13171
697.536	13036
697.562	12927
697.578	13085
697.620	13386
697.661	13665
697.682	13782
697.703	13912
697.744	14106
697.786	14340
697.801	14326
697.828	14371
697.869	14554
697.911	14645
697.921	14640
697.952	15104
697.994	15576
698.035	16153
698.040	16170
698.077	15635
698.118	15025
698.160	14357
698.160	14313
698.201	14330
698.243	14231
698.279	14154
698.284	14173
698.325	13940
698.367	13748
698.399	13513
698.408	13640
698.449	14125
698.491	14532
698.518	14776
698.532	14833
698.573	14896
698.614	14981
698.638	14961
698.656	14974
698.697	14927
698.738	14894
698.757	14830
698.779	14715
698.820	14420
698.862	14133
698.877	13980
698.903	14451
698.944	15160
698.985	15858
698.996	16010
699.026	16041
699.067	16018
699.116	15949
699.235	14337
699.354	14362
699.474	14661
699.593	13914
699.713	14625
699.832	15293
699.951	14747
700.070	14722
700.190	15115
700.309	14751
700.428	14473
700.547	14052
700.667	14772
700.786	13915
700.905	14324
701.024	14867
701.143	13311
701.262	14367
701.381	13954
701.500	13545
701.619	13087
701.738	14390
701.857	13882
701.976	13016
702.095	13258
702.214	13118
702.333	12559
702.452	14817
702.571	14923
702.690	13984
702.809	13240
702.928	12767
703.047	12993
703.165	12382
703.284	12891
703.403	12505
703.522	12350
703.640	13544
703.759	13322
703.878	13518
703.997	15509
704.115	12897
704.234	12064
704.353	13071
704.471	12479
704.590	11706
704.708	11778
704.827	12245
704.946	11915
705.064	11572
705.183	12525
705.301	11698
705.420	11901
705.538	14567
705.656	16091
705.775	13193
705.893	12908
706.012	13451
706.130	15024
706.249	14486
706.367	13037
706.485	13349
706.604	13753
706.722	12970
706.840	13112
706.958	14911
707.077	15638
707.195	13579
707.313	12669
707.431	13061
707.549	11975
707.668	12595
707.786	12516
707.904	12140
708.022	12087
708.140	11953
708.258	12745
708.376	12641
708.494	12323
708.612	12333
708.730	12049
708.848	15605
708.966	16432
709.084	14904
709.202	14763
709.320	14050
709.438	13895
709.556	13595
709.674	14410
709.791	13930
709.909	14096
710.027	13056
710.145	13766
710.263	13547
710.380	13147
710.498	13704
710.616	14000
710.733	13346
710.851	12521
710.969	13271
711.086	13288
711.204	13203
711.322	12698
711.439	12797
711.557	13487
711.674	12812
711.792	12998
711.909	13267
712.027	12451
712.144	11995
712.262	12288
712.379	11566
712.497	12623
712.614	14721
712.732	17400
712.849	15028
712.966	13875
713.084	14369
713.201	16129
713.318	15766
713.436	15153
713.553	14998
713.670	14798
713.787	14999
713.905	16213
714.022	16650
714.139	15054
714.256	13751
714.373	16609
714.490	18943
714.608	25971
714.725	47786
714.842	173137
714.959	488586
715.076	83066
715.193	20322
715.310	16530
715.427	15232
715.544	13556
715.661	13290
715.778	12915
715.895	13226
716.011	14132
716.128	13342
716.245	13814
716.362	12959
716.479	13507
716.596	14529
716.713	12833
716.829	11955
716.946	11313
717.063	12202
717.180	11726
717.296	12016
717.413	10976
717.530	11886
717.646	11150
717.763	12228
717.880	10732
717.996	11063
718.113	10542
718.229	10805
718.346	10129
718.462	11425
718.579	10998
718.695	11972
718.812	15762
718.928	17128
719.045	13033
719.161	13068
719.277	10564
719.394	10857
719.510	9656
719.626	10224
719.743	10239
719.859	11880
719.975	14380
720.092	20217
720.208	50322
720.324	192073
720.440	93424
720.557	14504
720.673	11854
720.789	13990
720.905	16936
721.021	22984
721.137	24027
721.253	10198
721.369	10347
721.486	9995
721.602	10395
721.718	11963
721.834	10882
721.950	9125
722.066	8816
722.181	9397
722.297	9366
722.413	8915
722.529	8396
722.645	8527
722.761	8724
722.877	8602
722.993	8577
723.108	7987
723.224	9455
723.340	9217
723.456	8882
723.571	8507
723.687	8367
723.803	8355
723.918	7771
724.034	8729
724.150	8375
724.265	8633
724.381	8963
724.497	10477
724.612	17213
724.728	8848
724.843	7421
724.959	7876
725.074	8047
725.190	9408
725.305	17025
725.421	8863
725.536	8374
725.651	8034
725.767	7017
725.882	7917
725.997	7243
726.113	7195
726.228	7586
726.343	6726
726.459	6686
726.574	7575
726.689	7182
726.804	7543
726.920	6430
727.035	6797
727.150	7120
727.265	7448
727.380	7234
727.495	7260
727.610	6813
727.725	6510
727.841	6565
727.956	7259
728.071	6704
728.186	7206
728.301	7994
728.416	6440
728.531	6807
728.645	6767
728.760	6031
728.875	6324
728.990	8029
729.105	6982
729.220	7052
729.335	7172
729.449	7615
729.564	7198
729.679	6541
729.794	6661
729.908	5981
730.023	6143
730.138	7457
730.253	6499
730.367	6181
730.482	6481
730.596	6128
730.711	6130
730.826	6343
730.940	7165
731.055	6525
731.169	5654
731.284	6823
731.398	5700
731.513	6548
731.627	6474
731.742	6694
731.856	6974
731.970	8315
732.085	7297
732.199	8421
732.313	9911
732.428	13417
732.542	24787
732.656	73058
732.771	108801
732.885	23658
732.999	11223
733.113	7617
733.227	8746
733.342	8092
733.456	7624
733.570	6951
733.684	6682
733.798	7552
733.912	8008
734.026	6922
734.140	6460
734.254	6444
734.368	7257
734.482	7679
734.596	11008
734.710	7019
734.824	6825
734.938	7140
735.052	5881
735.166	6249
735.280	7329
735.393	6707
735.507	6540
735.621	6026
735.735	7485
735.849	8869
735.962	8864
736.076	6059
736.190	6949
736.303	6370
736.417	6574
736.531	8976
736.644	6451
736.758	6280
736.872	5408
736.985	5753
737.099	6133
737.212	6382
737.326	6093
737.439	5894
737.553	5865
737.666	6214
737.780	5946
737.893	5870
738.007	5572
738.120	4887
738.233	6027
738.347	5947
738.460	6265
738.573	6300
738.687	5423
738.800	6584
738.913	6606
739.026	6885
739.140	6848
739.253	5712
739.366	5307
739.479	5806
739.592	4984
739.705	5218
739.818	4981
739.932	5073
740.045	4890
740.158	5475
740.271	5141
740.384	4683
740.497	4831
740.610	4557
740.723	5974
740.836	6465
740.949	5483
741.062	5471
741.174	6109
741.287	7005
741.400	5097
741.513	6048
741.626	4999
741.739	6164
741.851	5941
741.964	5024
742.077	5003
742.189	5421
742.302	5540
742.415	5059
742.527	4899
742.640	5588
742.753	5545
742.865	4689
742.978	4883
743.090	4990
743.203	4886
743.316	4118
743.428	5043
743.541	4801
743.653	3949
743.766	4556
743.878	4055
743.990	3831
744.103	4469
744.215	5803
744.327	4130
744.440	5529
744.552	5302
744.664	6638
744.777	5315
744.889	5030
745.001	4427
745.113	4210
745.226	4313
745.338	4992
745.450	3604
745.562	4297
745.674	4532
745.786	4581
745.898	4438
746.010	4317
746.122	3814
746.234	4477
746.347	3727
746.459	3784
746.570	4010
746.682	3692
746.794	4398
746.906	4848
747.018	4084
747.130	4400
747.242	4039
747.354	4894
747.466	4032
747.577	3799
747.689	4164
747.801	4069
747.913	4039
748.024	3548
748.136	3061
748.248	3671
748.359	3570
748.471	3801
748.583	4014
748.694	3435
748.806	4033
748.918	3326
749.029	4100
749.141	4735
749.252	4779
749.364	4504
749.475	4101
749.587	5788
749.698	7088
749.809	4126
749.921	3695
750.032	3492
750.144	3479
750.255	4049
750.366	3163
750.478	3702
750.589	3345
750.700	3592
750.811	3793
750.923	3408
751.034	3508
751.145	5957
751.256	9105
751.367	4714
751.479	3892
751.590	4070
751.701	3498
751.812	3728
751.923	3267
752.034	3469
752.145	3841
752.256	3937
752.367	3478
752.478	3708
752.589	3708
752.700	3410
752.811	2908
752.922	3045
753.032	3223
753.143	3471
753.254	3692
753.365	3475
753.476	2887
753.586	3510
753.697	2638
753.808	3190
753.919	3030
754.029	3487
754.140	2689
754.251	2446
754.361	2914
754.472	3283
754.582	2902
754.693	3202
754.804	3388
754.914	3283
755.025	3230
755.135	2974
755.246	3119
755.356	3423
755.466	3272
755.577	2447
755.687	3342
755.798	3256
755.908	2935
756.018	3362
756.129	2558
756.239	2887
756.349	3161
756.460	3353
756.570	3478
756.680	2856
756.790	3328
756.900	2984
757.011	3635
757.121	3490
757.231	3350
757.341	2921
757.451	2203
757.561	2854
757.671	2755
757.781	3221
757.891	2815
758.001	2570
758.111	3076
758.221	3012
758.331	2841
758.441	2594
758.551	3705
758.661	4206
758.771	4818
758.880	2693
758.990	2970
759.100	3325
759.210	2966
759.320	3336
759.429	3278
759.539	2400
759.649	3329
759.758	2822
759.868	3740
759.978	3342
760.087	3739
760.197	3550
760.307	2900
760.416	3463
760.526	3412
760.635	3605
760.745	3086
760.854	4464
760.964	3638
761.073	3723
761.182	4621
761.292	3530
761.401	3015
761.511	3569
761.620	3128
761.729	3218
761.839	3062
761.948	3462
762.057	2984
762.166	3740
762.276	2883
762.385	3421
762.494	3108
762.603	3124
762.712	3065
762.822	3226
762.931	3211
763.040	3501
763.149	2934
763.258	3160
763.367	3536
763.476	2525
763.585	2480
763.694	2826
763.803	2483
763.912	2826
764.021	3591
764.130	3497
764.238	2930
764.347	2648
764.456	2931
764.565	3650
764.674	2976
764.783	3303
764.891	3747
765.000	4265
765.109	4115
765.217	3218
765.326	3778
765.435	4984
765.543	5073
765.652	5739
765.761	6190
765.869	7583
765.978	8815
766.086	13264
766.195	21711
766.303	41802
766.412	95936
766.520	292366
766.629	554215
766.737	219749
766.846	53709
766.954	25066
767.062	17171
767.171	13266
767.279	9546
767.387	7197
767.496	7209
767.604	5471
767.712	5384
767.820	5651
767.928	4940
768.037	4953
768.145	4519
768.253	4896
768.361	4707
768.469	4870
768.577	3807
768.685	4357
768.793	4325
768.901	4555
769.009	4528
769.117	4433
769.225	4972
769.333	5829
769.441	7367
769.549	9547
769.657	17961
769.765	36540
769.873	101338
769.981	338891
770.088	307214
770.196	55590
770.304	18262
770.412	11733
770.519	8477
770.627	8026
770.735	6035
770.842	5299
770.950	4534
771.058	4582
771.165	4450
771.273	4254
771.380	4310
771.488	4328
771.595	4624
771.703	4855
771.810	4085
771.918	3487
772.025	4209
772.133	3497
772.240	4814
772.348	4736
772.455	4945
772.562	4990
772.670	3606
772.777	4217
772.884	4138
772.991	4746
773.099	4093
773.206	4154
773.313	3269
773.420	3997
773.528	3870
773.635	3994
773.742	4097
773.849	3992
773.956	3337
774.063	4121
774.170	3672
774.277	3683
774.384	3943
774.491	4394
774.598	2780
774.705	3591
774.812	4417
774.919	4056
775.026	5167
775.133	3816
775.239	2993
775.346	3650
775.453	3299
775.560	3486
775.667	3436
775.773	3510
775.880	3721
775.987	3165
776.093	3789
776.200	3012
776.307	2726
776.413	3580
776.520	2791
776.627	2970
776.733	3881
776.840	3022
776.946	3900
777.053	2954
777.159	3432
777.266	3814
777.372	3553
777.478	4051
777.585	3734
777.691	4079
777.798	3518
777.904	2761
778.010	3379
778.117	3571
778.223	4484
778.329	3093
778.435	2584
778.542	3159
778.648	2520
778.754	2769
778.860	3162
778.966	3004
779.072	2888
779.178	2485
779.284	2857
779.391	3129
779.497	2949
779.603	3142
779.708	2410
779.815	2605
779.920	4015
780.026	5710
780.132	11772
780.238	7663
780.344	2429
780.450	2327
780.556	3076
780.661	3092
780.767	2638
780.873	2725
780.979	2894
781.085	2925
781.190	2722
781.296	2666
781.402	2352
781.507	2197
781.613	2872
781.719	2339
781.824	2479
781.930	2965
782.035	2450
782.141	2542
782.246	2396
782.352	1964
782.457	2336
782.563	2078
782.668	2558
782.773	2645
782.879	2254
782.984	2457
783.090	2436
783.195	2575
783.300	2717
783.405	3495
783.511	2232
783.616	1902
783.721	2440
783.826	2547
783.932	2685
784.037	1991
784.142	3003
784.247	2735
784.352	2196
784.457	2591
784.562	2380
784.667	2250
784.772	2557
784.877	2752
784.982	2651
785.087	2079
785.192	2469
785.297	1581
785.402	1890
785.507	1731
785.611	1931
785.716	2441
785.821	2704
785.926	1963
786.031	1750
786.135	1671
786.240	2446
786.345	2425
786.450	1677
786.554	1634
786.659	2672
786.763	1980
786.868	1504
786.973	2480
787.077	2373
787.182	1778
787.286	1822
787.391	1206
787.495	1856
787.600	2446
787.704	1752
787.809	2064
787.913	1555
788.017	1857
788.122	1756
788.226	2060
788.330	2112
788.435	1417
788.539	1854
788.643	2063
788.747	1329
788.852	2008
788.956	1806
789.060	1875
789.164	1667
789.268	1410
789.372	1618
789.476	1598
789.580	1615
789.684	2043
789.788	1151
789.892	1806
789.996	1523
790.100	1196
790.204	1618
790.308	2041
790.412	1719
790.516	991
790.620	1378
790.724	2373
790.828	2635
790.931	2483
791.035	2315
791.139	1430
791.242	2378
791.346	2020
791.450	1338
791.554	1606
791.657	1268
791.761	2057
791.864	2150
791.968	1089
792.072	2210
792.175	2387
792.279	1697
792.382	1425
792.486	2009
792.589	1408
792.693	1438
792.796	1737
792.899	1012
793.003	1494
793.106	1689
793.209	1529
793.313	1589
793.416	1407
793.519	1524
793.623	1923
793.726	1939
793.829	3384
793.932	2783
794.035	1993
794.138	1779
794.242	2479
794.345	1748
794.448	2275
794.551	1995
794.654	2971
794.757	4243
794.860	5159
794.963	4564
795.066	1766
795.169	1885
795.272	1438
795.375	1015
795.477	1829
795.580	1068
795.683	630
795.786	1596
795.889	1200
795.991	973
796.094	1410
796.197	1085
796.300	2380
796.402	1660
796.505	1470
796.608	946
796.710	540
796.813	1181
796.915	1341
797.018	1239
797.120	1446
797.223	898
797.326	1753
797.428	1631
797.530	1432
797.633	1722
797.735	1480
797.838	1225
797.940	1999
798.042	3056
798.145	2048
798.247	1394
798.349	1238
798.452	974
798.554	1041
798.656	1513
798.758	1363
798.860	841
798.962	2236
799.065	884
799.167	1423
799.269	1556
799.371	1469
799.473	996
799.575	2110
799.677	1308
799.779	1956
799.881	1354
799.983	2019
800.085	2546
800.187	1797
800.289	1335
800.390	1843
800.492	1074
800.594	914
800.696	485
800.798	1187
800.899	1452
801.001	1145
801.103	1399
801.205	1433
801.306	1308
801.408	1362
801.509	1015
801.611	733
801.713	1314
801.814	912
801.916	1352
802.017	644
802.119	825
802.220	991
802.322	1167
802.423	1955
802.525	591
802.626	1787
802.727	1196
802.829	1703
802.930	703
803.031	1373
803.133	1055
803.234	946
803.335	847
803.436	805
803.538	646
803.639	721
803.740	631
803.841	1155
803.942	1371
804.043	1011
804.144	322
804.245	1576
804.346	926
804.447	1205
804.548	650
804.649	1516
804.750	2199
804.851	1614
804.952	814
805.053	388
805.154	865
805.255	911
805.355	1109
805.456	1173
805.557	325
805.658	542
805.758	821
805.859	656
805.960	535
806.061	1205
806.161	93
806.262	768
806.362	378
806.463	873
806.564	1252
806.664	899
806.765	1407
806.865	1054
806.966	849
807.066	874
807.166	677
807.267	803
807.367	1136
807.468	1299
807.568	490
807.668	1406
807.769	915
807.869	975
807.969	681
808.069	813
808.170	752
808.270	1396
808.370	1032
808.470	1165
808.570	1036
808.670	1584
808.770	773
808.870	1141
808.970	255
809.070	-272
809.170	365
809.271	1369
809.370	980
809.470	1126
809.570	745
809.670	392
809.770	1122
809.870	-4
809.970	585
810.070	423
810.169	1104
810.269	676
810.369	648
810.469	593
810.568	1234
810.668	1383
810.768	577
810.867	692
810.967	1073
811.066	1223
811.166	554
811.265	1027
811.365	855
811.464	684
811.564	1677
811.663	321
811.763	587
811.862	1264
811.962	1167
812.061	853
812.160	1026
812.260	1389
812.359	1425
812.458	1133
812.557	2276
812.657	4069
812.756	9021
812.855	7123
812.954	1681
813.053	1706
813.153	1273
813.252	1804
813.351	1441
813.450	1614
813.549	1713
813.648	1630
813.747	907
813.846	1184
813.945	1490
814.044	1373
814.143	1605
814.242	1934
814.341	1729
814.439	908
814.538	1387
814.637	1781
814.736	1178
814.835	1866
814.933	1383
815.032	2067
815.131	2511
815.229	2371
815.328	2645
815.427	3601
815.525	3230
815.624	3023
815.722	3316
815.821	3327
815.919	3102
816.018	3963
816.116	3191
816.215	3878
816.313	4102
816.412	4198
816.510	3509
816.609	5409
816.707	5370
816.805	5288
816.904	5919
817.002	5443
817.100	7473
817.198	7967
817.296	8956
817.395	9934
817.493	10941
817.591	13894
817.689	14676
817.787	19140
817.885	25122
817.983	37353
818.081	59084
818.179	104709
818.277	205053
818.375	410390
818.473	580654
818.571	351951
818.669	158848
818.767	89941
818.865	66139
818.963	59703
819.061	61311
819.158	78115
819.256	111830
819.354	184422
819.452	334216
819.549	593939
819.647	640387
819.745	397972
819.842	209049
819.940	120277
820.038	77739
820.135	55619
820.233	41043
820.330	32013
820.428	25895
820.525	21124
820.623	18442
820.720	15142
820.818	12959
820.915	12659
821.012	11317
821.110	9943
821.207	7709
821.304	7970
821.402	6968
821.499	7135
821.596	6608
821.693	6723
821.791	5572
821.888	4520
821.985	5521
822.082	6088
822.179	6188
822.276	5010
822.373	3859
822.470	3986
822.567	3567
822.664	3797
822.761	3574
822.858	3151
822.955	3458
823.052	3123
823.149	2692
823.246	2706
823.343	3097
823.440	3013
823.536	2696
823.633	2888
823.730	2493
823.827	2775
823.923	2646
824.020	2374
824.117	1835
824.213	2044
824.310	2627
824.407	2179
824.503	1746
824.600	1544
824.696	2230
824.793	1688
824.889	1603
824.986	2628
825.082	1308
825.179	1495
825.275	1426
825.371	1306
825.468	2141
825.564	1925
825.660	1287
825.757	1703
825.853	2327
825.949	1989
826.045	895
826.142	1007
826.238	791
826.334	1688
826.430	756
826.526	1422
826.622	1249
826.718	1405
826.814	1266
826.910	1760
827.006	1724
827.102	1418
827.198	1403
827.294	1214
827.390	1233
827.486	1952
827.582	591
827.678	799
827.774	1616
827.869	364
827.965	1467
828.061	1166
828.157	885
828.252	1294
828.348	935
828.444	1255
828.539	990
828.635	517
828.731	1030
828.826	279
828.922	693
829.017	891
829.113	904
829.208	878
829.304	1220
829.399	912
829.495	854
829.590	1415
829.685	1050
829.781	476
829.876	1093
829.971	1137
830.066	655
830.162	874
830.257	818
830.352	881
830.447	1108
830.543	212
830.638	-297
830.733	1334
830.828	1510
830.923	1287
831.018	537
831.113	617
831.208	1120
831.303	829
831.398	426
831.493	32
831.588	187
831.683	589
831.778	681
831.873	730
831.967	129
832.062	615
832.157	264
832.252	1173
832.346	424
832.441	966
832.536	161
832.631	1368
832.725	2155
832.820	3020
832.914	797
833.009	620
833.104	144
833.198	569
833.293	750
833.387	228
833.482	614
833.576	736
833.670	893
833.765	-53
833.859	580
833.954	449
834.048	1157
834.142	524
834.237	-3
834.331	-42
834.425	-220
834.519	316
834.613	509
834.708	64
834.802	138
834.896	5
834.990	298
835.084	647
835.178	301
835.272	500
835.366	223
835.460	452
835.554	556
835.648	526
835.742	-160
835.836	-99
835.930	-1171
836.024	358
836.117	253
836.211	-128
836.305	867
836.399	1019
836.493	573
836.586	1287
836.680	192
836.774	262
836.867	479
836.961	-232
837.055	-17
837.148	5
837.242	1177
837.335	60
837.429	191
837.522	-103
837.616	-115
837.709	263
837.803	219
837.896	1847
837.989	504
838.083	668
838.176	-11
838.269	11
838.363	1774
838.456	636
838.549	466
838.642	654
838.735	1176
838.829	2221
838.922	2721
839.015	766
839.108	140
839.201	416
839.294	270
839.387	109
839.480	703
839.573	-46
839.666	298
839.759	646
839.852	273
839.945	430
840.038	178
840.131	333
840.223	-575
840.316	245
840.409	-405
840.502	509
840.594	170
840.687	682
840.780	801
840.873	375
840.965	34
841.058	186
841.150	232
841.243	451
841.336	1501
841.428	1067
841.521	-350
841.613	-218
841.706	206
841.798	-231
841.890	292
841.983	-194
842.075	449
842.167	-500
842.260	-298
842.352	135
842.444	261
842.537	220
842.629	608
842.721	1703
842.813	1429
842.905	-307
842.997	-497
843.090	325
843.182	-638
843.274	761
843.366	576
843.458	2319
843.550	5522
843.642	7061
843.734	2584
843.826	863
843.918	-23
844.009	1026
844.101	437
844.193	16
844.285	-97
844.377	180
844.469	-170
844.560	-438
844.652	-310
844.744	-42
844.835	-20
844.927	385
845.019	-249
845.110	-20
845.202	-96
845.293	-274
845.385	452
845.476	419
845.568	672
845.659	273
845.751	186
845.842	239
845.934	-747
846.025	244
846.116	-269
846.208	-15
846.299	148
846.390	-31
846.482	-147
846.573	203
846.664	189
846.755	218
846.846	691
846.937	1503
847.029	156
847.120	242
847.211	-910
847.302	377
847.393	-31
847.484	399
847.575	-479
847.666	-107
847.757	-194
847.847	353
847.938	447
848.029	-72
848.120	-67
848.211	-448
848.302	-581
848.392	-290
848.483	-699
848.574	-499
848.664	103
848.755	45
848.846	365
848.936	-132
849.027	-347
849.118	-401
849.208	-420
849.299	-593
849.389	184
849.480	1129
849.570	1239
849.661	2544
849.751	6016
849.841	12000
849.932	11343
850.022	2324
850.112	339
850.203	-335
850.293	322
850.383	-609
850.474	68
850.564	420
850.654	-352
850.744	-498
850.834	-431
850.924	-89
851.014	-475
851.104	-704
851.194	-83
851.284	-182
851.374	-396
851.464	-549
851.554	7
851.644	-76
851.734	218
851.824	169
851.914	360
852.004	724
852.094	-348
852.183	436
852.273	-193
852.363	-436
852.452	-182
852.542	188
852.632	-274
852.721	-360
852.811	-518
852.901	-687
852.990	568
853.080	101
853.169	-357
853.259	-109
853.348	-319
853.438	716
853.527	10
853.617	1162
853.706	684
853.795	1948
853.885	4451
853.974	9756
854.063	23022
854.152	37802
854.242	77160
854.331	75042
854.420	13529
854.509	2905
854.598	1569
854.687	1468
854.777	645
854.866	187
854.955	691
855.044	-41
855.133	-115
855.222	75
855.311	373
855.400	241
855.488	-914
855.577	-635
855.666	-629
855.755	650
855.844	456
855.933	-326
856.021	-583
856.110	225
856.199	-381
856.288	-154
856.376	-80
856.465	-657
856.554	-304
856.642	-35
856.731	-487
856.819	-316
856.908	-696
856.996	-300
857.085	-425
857.173	-180
857.262	-595
857.350	-38
857.438	-108
857.527	-838
857.615	1
857.703	-488
857.792	-142
857.880	-349
857.968	-318
858.056	565
858.145	-850
858.233	-701
858.321	142
858.409	-184
858.497	-459
858.585	-471
858.673	-647
858.761	-316
858.849	-356
858.937	-563
859.025	-984
859.113	-278
859.201	-886
859.289	-755
859.377	-665
859.465	-225
859.552	-220
859.640	-8
859.728	291
859.816	-582
859.903	-55
859.991	-761
860.079	-674
860.166	-695
860.254	-810
860.342	-646
860.429	-413
860.517	-387
860.604	142
860.692	-47
860.779	-48
860.867	-674
860.954	195
861.042	-538
861.129	256
861.216	-151
861.304	-394
861.391	119
861.478	-396
861.565	-401
861.653	417
861.740	-492
861.827	-334
861.914	20
862.001	-973
862.089	-296
862.176	-146
862.263	-418
862.350	-99
862.437	-967
862.524	-767
862.611	-458
862.698	248
862.785	-158
862.871	-301
862.958	-34
863.045	143
863.132	-400
863.219	-193
863.306	-225
863.392	-40
863.479	-935
863.566	161
863.652	-644
863.739	180
863.826	-633
863.912	222
863.999	-216
864.086	-51
864.172	-923
864.259	-162
864.345	755
864.432	-660
864.518	-745
864.604	-634
864.691	-587
864.777	-62
864.863	268
864.950	-574
865.036	31
865.122	-334
865.209	558
865.295	679
865.381	488
865.467	281
865.553	652
865.639	204
865.726	1816
865.812	2413
865.898	5514
865.984	10331
866.070	18185
866.156	25589
866.242	52934
866.328	31702
866.414	4993
866.499	1934
866.585	1483
866.671	1168
866.757	380
866.843	36
866.928	913
867.014	-93
867.100	1176
867.186	309
867.271	840
867.357	256
867.442	301
867.528	1005
867.614	181
867.699	420
867.785	800
867.870	770
867.956	240
868.041	876
868.127	23
868.212	-280
868.297	172
868.383	577
868.468	281
868.553	1448
868.639	542
868.724	2146
868.809	2277
868.894	4788
868.979	2156
869.065	263
869.150	-171
869.235	301
869.320	-318
869.405	444
869.490	-85
869.575	-372
869.660	127
869.745	-40
869.830	470
869.915	163
870.000	711
870.085	-223
870.169	152
870.254	-75
870.339	69
870.424	-371
870.509	-89
870.593	-388
870.678	-47
870.763	-193
870.847	-494
870.932	-119
871.016	487
871.101	-286
871.186	-667
871.270	-1026
871.355	28
871.439	823
871.523	-505
871.608	-466
871.692	-566
871.777	-823
871.861	259
871.945	82
872.030	287
872.114	21
872.198	208
872.282	-388
872.367	-448
872.451	-74
872.535	-498
872.619	-803
872.703	116
872.787	77
872.871	-544
872.955	271
873.039	-182
873.123	-654
873.207	-62
873.291	857
873.375	569
873.459	-211
873.543	-317
873.627	-291
873.711	-959
873.794	-247
873.878	-1192
873.962	-631
874.045	-550
874.129	-400
874.137	-447
874.213	-919
874.245	-726
874.296	-413
874.352	-486
874.380	-528
874.460	-242
874.464	-230
874.547	145
874.568	42
874.631	-294
874.676	-580
874.714	-811
874.784	-28
874.798	124
874.881	313
874.892	265
874.965	-75
874.999	-342
875.048	-690
875.107	-638
875.131	-630
875.215	377
875.215	377
875.298	-172
875.323	-267
875.381	-507
875.430	-194
875.465	29
875.538	-290
875.548	-327
875.631	-67
875.646	-58
875.714	-130
875.753	-74
875.798	40
875.861	-688
875.881	-923
875.964	-123
875.968	-131
876.047	-251
876.076	-70
876.130	290
876.183	214
876.213	165
876.291	-568
876.296	-621
876.379	-490
876.398	-395
876.462	-69
876.506	24
876.545	131
876.613	-439
876.628	-562
876.711	-101
876.721	-93
876.794	-120
876.828	-298
876.877	-367
876.935	150
876.960	234
877.043	-422
877.043	-422
877.125	83
877.150	31
877.208	-64
877.258	11
877.291	15
877.365	137
877.374	146
877.456	160
877.472	173
877.539	356
877.579	298
877.622	180
877.687	482
877.704	588
877.787	-282
877.794	-214
877.869	414
877.901	365
877.952	304
878.008	79
878.034	27
878.115	248
878.117	249
878.199	721
878.222	442
878.282	-193
878.329	-193
878.364	-87
878.437	649
878.447	712
878.529	692
878.544	667
878.611	498
878.651	22
878.694	-431
878.758	-53
878.776	80
878.858	-236
878.865	-230
878.941	-96
878.972	36
879.023	216
879.078	-46
879.105	-192
879.185	-101
879.187	-96
879.269	438
879.292	325
879.351	68
879.399	159
879.433	152
879.506	285
879.516	363
879.598	509
879.613	521
879.680	66
879.720	26
879.762	147
879.827	112
879.844	113
879.926	413
879.933	430
880.007	108
880.040	-396
880.089	-654
880.147	283
880.171	622
880.253	829
880.254	829
880.335	973
880.360	1071
880.417	1517
880.467	2245
880.499	2912
880.574	3772
880.580	3806
880.662	6890
880.680	6645
880.744	4670
880.787	2494
880.825	988
880.893	457
880.907	438
880.989	388
881.000	401
881.070	135
881.106	6
881.152	-57
881.213	-150
881.233	-200
881.315	101
881.319	100
881.396	541
881.426	473
881.478	-162
881.532	-492
881.559	-323
881.639	430
881.641	440
881.722	274
881.745	256
881.803	79
881.852	17
881.885	-48
881.958	-15
881.966	62
882.047	640
882.064	743
882.129	456
882.171	356
882.210	620
882.277	776
882.291	800
882.372	1277
882.383	1322
882.454	1000
882.489	630
882.535	371
882.596	236
882.616	302
882.697	586
882.702	610
882.778	472
882.808	270
882.859	18
882.914	1
882.940	81
883.020	-98
883.021	-99
883.102	-113
883.127	-167
883.183	266
883.233	596
883.264	582
883.339	475
883.345	450
883.426	227
883.445	118
883.507	64
883.551	315
883.587	618
883.657	682
883.668	662
883.749	405
883.763	419
883.830	193
883.869	58
883.910	436
883.975	730
883.991	581
884.072	229
884.081	146
884.152	285
884.187	421
884.233	349
884.292	392
884.314	459
884.394	506
884.398	501
884.475	798
884.504	916
884.555	640
884.610	312
884.636	245
884.716	249
884.716	255
884.797	389
884.821	489
884.877	820
884.927	1202
884.958	1151
885.033	528
885.038	528
885.118	661
885.139	737
885.199	987
885.244	933
885.279	605
885.350	321
885.359	361
885.439	379
885.456	443
885.520	575
885.561	428
885.600	564
885.667	1009
885.680	984
885.760	626
885.773	604
885.840	1128
885.878	1291
885.920	814
885.984	305
886.000	383
886.080	508
886.089	506
886.160	410
886.195	554
886.240	718
886.300	616
886.320	657
886.400	1064
886.406	1075
886.480	798
886.511	638
886.560	758
886.616	1067
886.640	1174
886.720	1302
886.722	1303
886.800	1337
886.827	1248
886.879	940
886.932	586
886.959	651
887.038	1206
887.039	1207
887.119	620
887.143	430
887.198	634
887.248	884
887.278	910
887.354	902
887.358	899
887.437	792
887.459	707
887.517	519
887.564	460
887.596	505
887.669	531
887.676	567
887.755	867
887.774	947
887.835	387
887.880	14
887.914	225
887.985	611
887.994	639
888.073	842
888.090	862
888.153	780
888.195	796
888.232	1013
888.300	1284
888.311	1143
888.391	117
888.405	-59
888.470	895
888.510	1431
888.549	1283
888.615	1068
888.628	982
888.708	473
888.720	377
888.787	1026
888.825	1400
888.866	1186
888.930	807
888.945	819
889.024	943
889.035	945
889.103	638
889.140	491
889.182	890
889.245	1455
889.261	1315
889.340	598
889.349	515
889.419	1054
889.454	1310
889.498	1398
889.559	1514
889.577	1460
889.656	1190
889.664	1160
889.735	1606
889.768	1807
889.814	1609
889.873	1336
889.978	646
890.083	1285
890.187	817
890.292	727
890.397	1857
890.501	1246
890.606	977
890.710	1456
890.815	1808
890.919	689
891.024	856
891.128	1359
891.233	831
891.337	1491
891.442	1008
891.546	1791
891.650	1156
891.755	573
891.859	885
891.963	1586
892.068	764
892.172	934
892.276	702
892.380	1870
892.484	1123
892.589	2122
892.693	1286
892.797	1310
892.901	60
893.005	716
893.109	1058
893.213	509
893.317	910
893.421	1556
893.525	1146
893.629	642
893.733	327
893.837	1393
893.941	727
894.045	1342
894.148	448
894.252	1021
894.356	1387
894.460	1620
894.564	1388
894.667	799
894.771	893
894.875	1221
894.978	126
895.082	1164
895.186	746
895.289	1033
895.393	1106
895.496	2034
895.600	984
895.703	449
895.807	491
895.910	1265
896.014	833
896.117	1224
896.221	1231
896.324	480
896.427	417
896.531	1017
896.634	1225
896.737	409
896.840	1153
896.944	851
897.047	1581
897.150	1026
897.253	1097
897.356	1174
897.460	709
897.563	1044
897.666	1076
897.769	1861
897.872	1461
897.975	1074
898.078	41
898.181	1420
898.284	1426
898.387	1734
898.490	990
898.593	1314
898.695	929
898.798	1269
898.901	1849
899.004	1459
899.107	1026
899.209	1715
899.312	184
899.415	1720
899.518	1242
899.620	738
899.723	831
899.826	676
899.928	1504
900.031	1765
900.133	1069
900.236	1709
900.338	496
900.441	1702
900.543	1504
900.646	1310
900.748	240
900.851	1973
900.953	1385
901.055	1290
901.158	349
901.260	2117
901.362	73
901.465	909
901.567	1221
901.669	1263
901.771	1061
901.873	1221
901.976	579
902.078	1851
902.180	1482
902.282	1567
902.384	609
902.486	1858
902.588	545
902.690	1240
902.792	1001
902.894	575
902.996	1382
903.098	1106
903.200	953
903.302	1429
903.404	1222
903.505	873
903.607	1501
903.709	1585
903.811	1494
903.913	1209
904.014	880
904.116	839
904.218	1382
904.319	1329
904.421	923
904.523	1665
904.624	1082
904.726	1093
904.827	726
904.929	1758
905.030	385
905.132	1241
905.233	1226
905.335	796
905.436	626
905.537	1542
905.639	1088
905.740	1213
905.841	972
905.943	1392
906.044	1091
906.145	1263
906.247	1117
906.348	1652
906.449	1065
906.550	2118
906.651	526
906.752	1156
906.854	885
906.955	749
907.056	1461
907.157	1099
907.258	1316
907.359	1230
907.460	1400
907.561	1684
907.662	833
907.762	769
907.863	806
907.964	1624
908.065	1224
908.166	363
908.267	650
908.367	980
908.468	-75
908.569	1632
908.670	524
908.770	1382
908.871	710
908.971	1374
909.072	1033
909.173	2040
909.273	963
909.374	645
909.474	-137
909.575	688
909.675	683
909.776	741
909.876	1001
909.977	680
910.077	1266
910.177	1536
910.278	1327
910.378	466
910.478	144
910.579	1749
910.679	842
910.779	1361
910.879	1308
910.980	1878
911.080	1536
911.180	603
911.280	1301
911.380	865
911.480	229
911.580	783
911.680	945
911.780	772
911.880	1704
911.980	1535
912.080	333
912.180	1504
912.280	865
912.380	972
912.480	1611
912.580	1521
912.679	914
912.779	1897
912.879	836
912.979	1020
913.078	769
913.178	617
913.278	1095
913.377	904
913.477	1203
913.577	842
913.676	676
913.776	317
913.875	1786
913.975	1004
914.074	853
914.174	1237
914.273	1013
914.373	1697
914.472	946
914.572	874
914.671	1141
914.770	1503
914.870	438
914.969	801
915.068	-9
915.167	1197
915.267	568
915.366	786
915.465	587
915.564	672
915.663	558
915.763	1044
915.862	444
915.961	751
916.060	680
916.159	573
916.258	404
916.357	886
916.456	1453
916.555	1105
916.654	571
916.752	998
916.851	1024
916.950	1478
917.049	292
917.148	727
917.247	184
917.345	544
917.444	347
917.543	672
917.642	822
917.740	397
917.839	776
917.937	1652
918.036	1326
918.135	636
918.233	-34
918.332	910
918.430	823
918.529	815
918.627	678
918.726	542
918.824	1105
918.923	1528
919.021	1009
919.119	452
919.218	960
919.316	1418
919.414	398
919.512	171
919.611	972
919.709	1073
919.807	628
919.905	1329
920.003	822
920.102	1033
920.200	1375
920.298	1541
920.396	256
920.494	1275
920.592	1159
920.690	490
920.788	740
920.886	474
920.984	1512
921.082	1465
921.180	751
921.277	1218
921.375	550
921.473	1082
921.571	1958
921.669	1718
921.766	1436
921.864	1042
921.962	765
922.060	1396
922.157	867
922.255	944
922.352	1124
922.450	1726
922.548	1281
922.645	1293
922.743	1422
922.840	2107
922.938	1351
923.035	2824
923.133	1908
923.230	1876
923.327	1721
923.425	3045
923.522	2935
923.619	2442
923.717	2306
923.814	2351
923.911	1410
924.008	2075
924.106	1237
924.203	2733
924.300	1387
924.397	2690
924.494	2006
924.591	1868
924.688	1785
924.786	1176
924.883	1210
924.979	1803
925.077	1626
925.173	2235
925.270	2121
925.367	2024
925.464	1373
925.561	2552
925.658	2445
925.755	1862
925.852	1867
925.948	2527
926.045	1432
926.142	2320
926.239	1840
926.335	2066
926.432	1860
926.529	2522
926.625	1653
926.722	2630
926.818	2365
926.915	1741
927.011	2158
927.108	1963
927.204	2058
927.301	2054
927.397	1340
927.494	1497
927.590	3242
927.687	2252
927.783	1559
927.879	1910
927.976	2347
928.072	1797
928.168	1692
928.264	2582
928.361	1177
928.457	2103
928.553	1100
928.649	1989
928.745	1219
928.841	2583
928.937	1097
929.033	1625
929.129	1104
929.225	2029
929.321	1919
929.417	1833
929.513	1255
929.609	2094
929.705	1012
929.801	1755
929.897	1670
929.993	1657
930.089	1161
930.184	1993
930.280	1462
930.376	1872
930.471	1410
930.567	2110
930.663	622
930.758	1521
930.854	1242
930.950	2242
931.045	1988
931.141	1377
931.236	1825
931.332	2513
931.427	1296
931.523	1480
931.618	1750
931.714	1790
931.809	1285
931.905	1431
932.000	1792
932.095	1294
932.191	2292
932.286	1564
932.381	1467
932.476	1494
932.572	1741
932.667	1155
932.762	1248
932.857	1590
932.952	734
933.047	2045
933.142	963
933.237	2810
933.332	1663
933.427	1544
933.522	923
933.617	1824
933.712	1181
933.807	1873
933.902	1529
933.997	1668
934.092	1340
934.187	1604
934.282	1789
934.376	2075
934.471	1899
934.566	2365
934.661	1795
934.755	1429
934.850	796
934.945	2230
935.039	329
935.134	1218
935.228	1543
935.323	1731
935.417	2500
935.512	1322
935.606	1681
935.701	1886
935.795	907
935.890	1079
935.984	1165
936.079	1288
936.173	387
936.267	1732
936.362	773
936.456	1776
936.550	1529
936.644	1783
936.738	1538
936.833	1057
936.927	1453
937.021	684
937.115	1226
937.209	1921
937.303	797
937.397	1601
937.491	1178
937.585	432
937.679	872
937.773	2717
937.867	735
937.961	851
938.055	687
938.149	1532
938.243	898
938.337	610
938.430	507
938.524	1114
938.618	1131
938.712	1361
938.805	606
938.899	1181
938.993	656
939.086	2117
939.180	1001
939.274	925
939.367	523
939.461	802
939.554	1439
939.648	894
939.741	879
939.835	1466
939.928	1345
940.022	1088
940.115	1506
940.208	1300
940.302	1319
940.395	1042
940.488	1047
940.582	1475
940.675	1259
940.768	1351
940.861	584
940.954	1231
941.048	1133
941.141	784
941.234	1054
941.327	1822
941.420	1866
941.513	1872
941.606	330
941.699	1580
941.792	1127
941.885	1918
941.978	1437
942.071	996
942.164	1214
942.257	754
942.349	691
942.442	573
942.535	1055
942.628	943
942.721	803
942.813	983
942.906	961
942.999	639
943.091	780
943.184	1481
943.277	797
943.369	1778
943.462	450
943.554	461
943.647	598
943.739	1097
943.832	823
943.924	1319
944.017	-171
944.109	764
944.201	988
944.294	1198
944.386	399
944.478	2148
944.571	133
944.663	1537
944.755	872
944.847	673
944.940	1746
945.032	1119
945.124	707
945.216	1159
945.308	1710
945.400	1249
945.492	773
945.584	1135
945.676	434
945.768	994
945.860	818
945.952	1316
946.044	1520
946.136	956
946.228	977
946.320	946
946.412	871
946.503	1177
946.595	1087
946.687	1365
946.779	1122
946.870	703
946.962	379
947.054	1472
947.145	894
947.237	890
947.329	1009
947.420	-143
947.512	1050
947.603	878
947.695	425
947.786	852
947.878	441
947.969	1141
948.061	772
948.152	1115
948.243	443
948.335	803
948.426	599
948.517	729
948.609	201
948.700	1095
948.791	1391
948.882	1469
948.973	-202
949.065	329
949.156	315
949.247	1226
949.338	519
949.429	-258
949.520	-78
949.611	474
949.702	848
949.793	1133
949.884	1009
949.975	-161
950.066	-20
950.157	385
950.247	150
950.338	888
950.429	68
950.520	195
950.611	602
950.701	381
950.792	44
950.883	1153
950.973	269
951.064	631
951.155	866
951.245	685
951.336	928
951.427	750
951.517	666
951.608	706
951.698	488
951.788	520
951.879	273
951.969	184
952.060	1057
952.150	1791
952.240	-715
952.331	651
952.421	1045
952.511	1372
952.602	340
952.692	714
952.782	499
952.872	-314
952.962	62
953.052	1124
953.143	69
953.233	149
953.323	283
953.413	619
953.503	677
953.593	1427
953.683	672
953.773	-195
953.863	319
953.953	657
954.042	-175
954.132	1489
954.222	1687
954.312	809
954.402	-198
954.492	624
954.581	359
954.671	940
954.761	539
954.850	811
954.940	188
955.030	210
955.119	235
955.209	454
955.298	103
955.388	797
955.477	98
955.567	37
955.656	99
955.746	1095
955.835	386
955.925	-428
956.014	-18
956.103	465
956.193	544
956.282	1235
956.371	745
956.461	210
956.550	690
956.639	255
956.728	139
956.817	357
956.906	392
956.995	232
957.085	622
957.174	419
957.263	-255
957.352	135
957.441	12
957.530	437
957.619	408
957.708	466
957.796	287
957.885	-64
957.974	75
958.063	436
958.152	834
958.241	-186
958.329	114
958.418	937
958.507	283
958.596	319
958.684	-33
958.773	236
958.861	443
958.950	72
959.039	585
959.127	560
959.216	37
959.304	28
959.393	-21
959.481	577
959.570	791
959.658	-157
959.746	12
959.835	397
959.923	57
960.011	874
960.100	-412
960.188	736
960.276	-104
960.365	320
960.453	-425
960.541	214
960.629	680
960.717	754
960.805	-310
960.893	282
960.981	317
961.069	698
961.158	-159
961.245	244
961.333	271
961.421	897
961.509	227
961.597	617
961.685	105
961.773	993
961.861	452
961.949	383
962.036	473
962.124	582
962.212	-114
962.299	397
962.387	183
962.475	-3
962.562	104
962.650	432
962.738	-330
962.825	765
962.913	625
963.000	115
963.088	-445
963.175	404
963.263	41
963.350	345
963.438	149
963.525	615
963.612	114
963.700	851
963.787	1371
963.874	3777
963.962	2588
964.049	151
964.136	-617
964.223	313
964.310	-667
964.398	684
964.485	931
964.572	462
964.659	421
964.746	464
964.833	797
964.920	460
965.007	-296
965.094	-50
965.181	368
965.268	365
965.355	177
965.441	537
965.528	1
965.615	-55
965.702	-320
965.789	-94
965.875	-225
965.962	727
966.049	42
966.136	344
966.222	-250
966.309	380
966.395	-16
966.482	584
966.569	-637
966.655	506
966.742	191
966.828	238
966.915	112
967.001	536
967.087	56
967.174	496
967.260	-425
967.347	486
967.433	924
967.519	1683
967.605	2373
967.692	1316
967.778	776
967.864	-372
967.950	-146
968.036	-98
968.123	627
968.209	579
968.295	410
968.381	239
968.467	-1
968.553	-103
968.639	-219
968.725	86
968.811	308
968.897	732
968.983	456
969.069	513
969.154	-337
969.240	-199
969.326	-212
969.412	51
969.497	-1191
969.583	805
969.669	-915
969.755	132
969.840	-376
969.926	623
970.012	-89
970.097	530
970.183	588
970.268	27
970.354	954
970.439	-102
970.525	32
970.610	1224
970.696	349
970.781	256
970.866	-32
970.952	8
971.037	235
971.122	518
971.208	-223
971.293	339
971.378	-934
971.463	-512
971.549	260
971.634	-480
971.719	-261
971.804	-33
971.889	293
971.974	615
972.059	-577
972.144	473
972.229	-20
972.314	-455
972.399	-545
972.484	135
972.569	-401
972.654	377
972.739	-544
972.824	622
972.908	1051
972.993	549
973.078	-335
973.163	-107
973.247	-234
973.332	-1030
973.417	-187
973.501	-307
973.586	-417
973.671	20
973.755	-519
973.840	-35
973.924	-296
974.009	-463
974.093	73
974.178	231
974.262	260
974.346	584
974.431	224
974.515	539
974.600	-479
974.684	176
974.768	-300
974.852	-104
974.937	-329
975.021	189
975.105	-681
975.189	-244
975.273	34
975.358	258
975.442	-581
975.526	-46
975.610	52
975.694	839
975.778	-820
975.862	-405
975.946	-920
976.030	-382
976.114	-281
976.198	-32
976.281	51
976.365	622
976.449	-221
976.533	-747
976.617	-355
976.700	1130
976.784	-441
976.868	642
976.951	-249
977.035	614
977.119	-643
977.202	510
977.286	-25
977.369	237
977.453	-318
977.536	853
977.620	-126
977.703	284
977.787	-39
977.870	45
977.953	-496
978.037	383
978.120	-487
978.203	-10
978.287	-207
978.370	569
978.453	371
978.536	818
978.620	220
978.703	-310
978.786	-611
978.869	654
978.952	-927
979.035	-824
979.118	-737
979.201	-273
979.284	-374
979.367	-235
979.450	181
979.533	-135
979.616	-526
979.699	234
979.782	-704
979.865	193
979.948	-706
980.030	103
980.113	-212
980.196	-99
980.279	-869
980.361	226
980.444	-515
980.526	-854
980.609	51
980.692	-457
980.774	-291
980.857	-606
980.939	375
981.022	-983
981.104	-512
981.187	281
981.269	248
981.352	-40
981.434	-1257
981.516	-424
981.599	-721
981.681	454
981.763	-850
981.846	-44
981.928	-121
982.010	498
982.092	-408
982.174	561
982.256	-516
982.339	-724
982.421	-57
982.503	-41
982.585	-497
982.667	-592
982.749	48
982.831	-509
982.913	-258
982.995	425
983.077	-627
983.158	5
983.240	-646
983.322	451
983.404	-1103
983.486	512
983.568	-578
983.649	-388
983.731	295
983.813	-377
983.894	-172
983.976	97
984.058	-530
984.139	-61
984.221	-1008
984.302	114
984.384	-883
984.465	-624
984.547	-301
984.628	-107
984.710	-244
984.791	-436
984.872	-222
984.954	-244
985.035	-457
985.116	-309
985.198	98
985.279	-601
985.360	-167
985.441	246
985.522	77
985.604	136
985.685	-364
985.766	801
985.847	-563
985.928	166
986.009	79
986.090	-107
986.171	-172
986.252	-891
986.333	-107
986.414	-137
986.495	-186
986.576	46
986.656	-373
986.737	297
986.818	11
986.899	98
986.980	-142
987.060	357
987.141	-424
987.222	-395
987.302	-12
987.383	136
987.464	-248
987.544	33
987.625	1093
987.705	-319
987.786	-392
987.866	-419
987.947	-420
988.027	-65
988.108	346
988.188	-256
988.268	147
988.349	570
988.429	-480
988.509	-730
988.589	-185
988.670	-242
988.750	539
988.830	175
988.910	-250
988.990	-550
989.070	-201
989.151	1
989.231	-93
989.311	-386
989.391	-783
989.471	100
989.551	233
989.631	597
989.711	-399
989.791	496
989.870	269
989.950	447
990.030	710
990.110	-161
990.190	-666
990.269	-208
990.349	-217
990.429	-265
990.509	281
990.588	-53
990.668	186
990.747	190
990.827	-82
990.907	-92
990.986	-15
991.066	-298
991.145	-224
991.225	-474
991.304	-57
991.383	251
991.463	575
991.542	-104
991.622	-266
991.701	-647
991.780	-848
991.859	385
991.939	-281
992.018	19
992.097	-158
992.176	-66
992.256	143
992.335	-617
992.414	-345
992.493	160
992.572	13
992.651	-81
992.730	-933
992.809	449
992.888	-772
992.967	282
993.046	215
993.125	-676
993.203	-647
993.282	-172
993.361	-87
993.440	-191
993.519	518
993.597	-222
993.676	-360
993.755	-154
993.834	-209
993.912	-826
993.991	-462
994.069	-688
994.148	-1151
994.226	156
994.305	-228
994.384	-207
994.462	-129
994.540	-523
994.619	-425
994.697	644
994.776	-608
994.854	587
994.932	-927
995.011	-62
995.089	-767
995.167	-291
995.245	-382
995.324	-328
995.402	-1055
995.480	-127
995.558	-317
995.636	445
995.714	-682
995.792	-74
995.870	-397
995.948	257
996.026	-870
996.104	-1179
996.182	175
996.260	-366
996.338	-602
996.416	-960
996.494	-1189
996.572	-57
996.649	-843
996.727	-597
996.805	-696
996.883	69
996.960	-248
997.038	260
997.116	-556
997.193	-520
997.271	-167
997.348	-437
997.426	-769
997.504	-398
997.581	-406
997.658	-320
997.736	-140
997.813	-477
997.891	-362
997.968	-415
998.046	-15
998.123	-6
998.200	-929
998.277	-62
998.355	-345
998.432	-325
998.509	361
998.586	113
998.663	345
998.741	-595
998.818	-1435
998.895	31
998.972	-945
999.049	-1732
999.126	-967
999.203	-58
999.280	541
999.357	-720
999.434	-648
999.511	510
999.587	-342
999.664	174
999.741	-1076
999.818	-885
999.895	-568
999.971	-94
1000.048	-813
1000.125	437
1000.202	-1255
1000.278	767
1000.355	-256
1000.431	-935
1000.508	-136
1000.584	-503
1000.661	-116
1000.738	-1282
1000.814	-912
1000.890	-212
1000.967	-773
1001.043	-660
1001.120	-440
1001.196	38
1001.272	-1220
1001.349	-667
1001.425	-554
1001.501	-228
1001.577	-1280
1001.654	-57
1001.730	-726
1001.806	-438
1001.882	-947
1001.958	-613
1002.034	-1441
1002.110	-123
1002.186	-953
1002.262	106
1002.338	-207
1002.414	-849
1002.490	-433
1002.566	-461
1002.642	-1161
1002.718	-1033
1002.794	-1212
1002.870	-66
1002.945	-430
1003.021	-118
1003.097	-1044
1003.173	-747
1003.248	-1215
1003.324	-616
1003.400	-1400
1003.475	-325
1003.551	-690
1003.626	-204
1003.702	-1029
1003.777	-429
1003.853	-638
1003.928	-1026
1004.004	-1520
1004.079	-447
1004.155	-1577
1004.230	-1463
1004.305	-928
1004.381	-809
1004.456	-531
1004.531	-770
1004.607	-1177
1004.682	-473
1004.757	-248
1004.832	-876
1004.907	-589
1004.982	113
1005.057	-777
1005.133	-777
1005.208	-1328
1005.283	-713
1005.358	-606
1005.433	-1220
1005.508	-828
1005.583	-884
1005.657	-1303
1005.732	-744
1005.807	-517
1005.882	-492
1005.957	-1281
1006.032	-739
1006.106	-1128
1006.181	-827
1006.256	-1028
1006.331	-469
1006.405	-1772
1006.480	-46
1006.554	-852
1006.629	-444
1006.704	-1235
1006.778	-883
1006.853	-775
1006.927	-1131
1007.002	-1437
1007.076	-459
1007.150	-1277
1007.225	-735
1007.299	-965
1007.373	-1227
1007.448	-473
1007.522	-94
1007.596	-1321
1007.671	-437
1007.745	-774
1007.819	-1289
1007.893	-2107
1007.967	-678
1008.041	-553
1008.115	-1273
1008.190	-1523
1008.264	-615
1008.338	-1051
1008.412	-724
1008.486	-1439
1008.560	-945
1008.633	-1798
1008.707	-299
1008.781	-1704
1008.855	-991
1008.929	-1030
1009.003	-1143
1009.076	-2472
1009.150	-494
1009.224	-1770
1009.298	-555
1009.371	-1370
1009.445	-757
1009.519	-1640
1009.592	-1729
1009.666	-754
1009.739	-1325
1009.813	-1023
1009.886	-651
1009.960	-1612
1010.033	-864
1010.107	-936
1010.180	-1719
1010.253	-1572
1010.327	-795
1010.400	-911
1010.473	-762
1010.547	-877
1010.620	-774
1010.693	-759
1010.766	-1327
1010.840	-1061
1010.913	-1010
1010.986	-1848
1011.059	-790
1011.132	-1685
1011.205	-1242
1011.278	-975
1011.351	-1498
1011.424	-886
1011.497	-1412
1011.570	-1227
1011.643	-1310
1011.716	-959
1011.789	-952
1011.862	-812
1011.934	-1468
1012.007	-1494
1012.080	-1231
1012.153	-1888
1012.225	-694
1012.298	-1395
1012.371	-1709
1012.443	-323
1012.516	-500
1012.588	-1913
1012.661	-872
1012.733	-1243
1012.806	-1333
1012.879	-1473
1012.951	-616
1013.023	-1086
1013.096	-744
1013.168	-1771
1013.241	-663
1013.313	-299
1013.385	-1126
1013.458	-1720
1013.530	-1026
1013.602	-268
1013.674	-1596
1013.746	-1186
1013.819	-1227
1013.891	-908
1013.963	-1012
1014.035	-553
1014.107	-970
1014.179	-1182
1014.251	-712
1014.323	-1099
1014.395	-649
1014.467	-1577
1014.539	-1018
1014.611	-1997
1014.683	-1382
1014.754	-1195
1014.826	-1054
1014.898	-1407
1014.970	-810
1015.042	-1371
1015.113	-1142
1015.185	-2124
1015.257	-1395
1015.328	-1628
1015.400	-1616
1015.471	-2028
1015.543	-1263
1015.615	-1468
1015.686	-1797
1015.757	-926
1015.829	-1818
1015.901	-1815
1015.972	-918
1016.043	-1265
1016.115	-722
1016.186	-1476
1016.257	-1326
1016.328	-1255
1016.400	-1100
1016.471	-2077
1016.542	-1520
1016.613	-1443
1016.685	-1368
1016.756	-1632
1016.827	-1207
1016.898	-1566
1016.969	-1011
1017.040	-1821
1017.111	-1940
1017.182	-2044
1017.253	-1048
1017.324	-1975
1017.395	-1193
1017.466	-1554
1017.537	-671
1017.608	-1957
1017.678	-1600
1017.749	-1418
1017.820	-998
1017.891	-1669
1017.961	-1339
1018.032	-1061
1018.103	-1204
1018.173	-1875
1018.244	-1674
1018.315	-1352
1018.385	-999
1018.456	-1596
1018.526	-2082
1018.597	-850
1018.667	-921
1018.738	-1609
1018.808	-1020
1018.878	-1705
1018.949	-1106
1019.019	-1374
1019.089	-557
1019.160	-2238
1019.230	-959
1019.300	-1997
1019.371	-1414
1019.441	-1581
1019.511	-2084
1019.581	-807
1019.651	-1242
1019.721	-1998
1019.791	-1524
1019.861	-2236
1019.931	-979
1020.001	-2296
1020.071	-1151
1020.141	-939
1020.211	-1524
1020.281	-1859
1020.351	-1225
1020.421	-1464
1020.491	-800
1020.560	-1914
1020.630	-1983
1020.700	-1234
1020.770	-1722
1020.839	-2172
1020.909	-1305
1020.979	-1784
1021.048	-1350
1021.118	-1083
1021.187	-1316
1021.257	-2258
1021.326	-1802
1021.396	-1776
1021.465	-1894
1021.535	-1842
1021.604	-1200
1021.674	-1540
1021.743	-997
1021.812	-2188
1021.882	-1325
1021.951	-1160
1022.020	-1200
1022.089	-1367
1022.159	-1376
1022.228	-2254
1022.297	-1879
1022.366	-1509
1022.435	-1328
1022.504	-2030
1022.573	-1827
1022.642	-1432
1022.711	-1589
1022.781	-1404
1022.849	-1770
1022.918	-1986
1022.987	-1323
1023.056	-1044
1023.125	-1077
1023.194	-2126
1023.263	-1078
1023.331	-1326
1023.400	-530
1023.469	-1107
1023.538	-1213
1023.606	-2200
1023.675	-1483
1023.744	-1440
1023.812	-715
1023.881	-911
1023.949	-1491
1024.018	-1979
1024.086	-861
1024.155	-1676
1024.223	-1752
1024.292	-1141
1024.360	-1493
1024.429	-1595
1024.497	-2254
1024.565	-1566
1024.634	-1304
1024.702	-1909
1024.770	-1049
1024.838	-1705
1024.907	-1313
1024.975	-1757
1025.043	-1408
1025.111	-1254
1025.179	-1787
1025.247	-1505
1025.315	-1524
1025.383	-2592
1025.451	-1428
1025.519	-2142
1025.587	-1881
1025.655	-833
1025.723	-1516
1025.791	-1356
1025.859	-1228
1025.927	-2001
1025.995	-1628
1026.062	-1853
1026.130	-896
1026.198	-1705
1026.266	-966
1026.333	-1407
1026.401	-1169
1026.469	-1956
1026.536	-1646
1026.604	-1787
1026.671	-1473
1026.739	-1545
1026.806	-1319
1026.874	-1293
1026.941	-1676
1027.009	-1926
1027.076	-1516
1027.144	-851
1027.211	-2423
1027.278	-1603
1027.345	-688
1027.413	-1617
1027.480	-1405
1027.547	-2037
1027.614	-1498
1027.682	-1457
1027.749	-1428
1027.816	-1021
1027.883	-1549
1027.950	-1342
1028.017	-1200
1028.084	-2128
1028.151	-876
1028.218	-1911
1028.285	-1293
1028.352	-2098
1028.419	-1928
1028.486	-1619
1028.553	-2192
1028.619	-2289
1028.686	-1558
1028.753	-1361
1028.820	-1348
1028.886	-1526
1028.953	-1751
1029.020	-1825
1029.086	-1768
1029.153	-1356
1029.220	-1676
1029.286	-1547
1029.353	-1277
1029.419	-1586
1029.486	-1340
1029.552	-1683
1029.619	-1329
1029.685	-1599
1029.751	-1750
1029.818	-1350
1029.884	-1114
1029.951	-542
1030.017	-1795
1030.083	-1947
1030.149	-852
1030.216	-1159
1030.282	-1224
1030.348	-1674
1030.414	-1751
1030.480	-2261
1030.546	-1307
1030.612	-1587
1030.678	-1934
1030.744	-1567
1030.810	-1472
1030.876	-1872
1030.942	-1130
1031.008	-1774
1031.074	-2124
1031.140	-1867
1031.206	-1432
1031.272	-2297
1031.337	-544
1031.403	-1318
1031.469	-1458
1031.534	-1091
1031.600	-751
1031.666	-1996
1031.731	-1560
1031.797	-1258
1031.863	-1191
1031.928	-1677
1031.994	-1194
1032.059	-1818
1032.125	-944
1032.190	-2366
1032.256	-1276
1032.321	-2074
1032.386	-1556
1032.452	-1568
1032.517	-1777
1032.582	-1353
1032.647	-1021
1032.713	-1311
1032.778	-994
1032.843	-1926
1032.908	-1816
1032.974	-1579
1033.039	-1322
1033.104	-1380
1033.169	-916
1033.234	-1233
1033.299	-996
1033.364	-1759
1033.429	-1437
1033.494	-2069
1033.559	-738
1033.624	-2144
1033.688	-1669
1033.753	-1952
1033.818	-1357
1033.883	-1596
1033.948	-848
1034.013	-1539
1034.077	-1252
1034.142	-1650
1034.207	-1238
1034.271	-1383
1034.336	-1372
1034.400	-893
1034.465	-927
1034.530	-1134
1034.594	-1282
1034.658	-1421
1034.723	-1593
1034.787	-1075
1034.852	-1183
1034.916	-2617
1034.981	-1108
1035.045	-1749
1035.109	-861
1035.173	-1146
1035.238	-1870
1035.302	-2321
1035.366	-1365
1035.430	-1432
1035.495	-1471
1035.559	-1472
1035.623	-1054
1035.687	-1581
1035.751	-1689
1035.815	-1803
1035.879	-1125
1035.943	-1728
1036.007	-1590
1036.071	-1816
1036.135	-1782
1036.198	-703
1036.262	-1825
1036.326	-1886
1036.390	-848
1036.454	-1986
1036.517	-1731
1036.581	-1190
1036.645	-642
1036.709	-716
1036.772	-1706
1036.836	-986
1036.900	-1235
1036.963	-2057
1037.026	-2047
1037.090	-2172
1037.154	-1616
1037.217	-1361
1037.280	-1385
1037.344	-1979
1037.407	-1836
1037.471	-1719
1037.534	-1693
1037.597	-1333
1037.661	-2294
1037.724	-2378
1037.787	-1556
1037.850	-1297
1037.913	-1312
1037.977	-1850
1038.040	-1823
1038.103	-1559
1038.166	-1331
1038.229	-1152
1038.292	-1750
1038.355	-1241
1038.418	-978
1038.481	-1457
1038.544	-1080
1038.607	-1924
1038.670	-1994
1038.732	-2083
1038.795	-1222
1038.858	-1846
1038.921	-1499
1038.984	-1905
1039.046	-1850
1039.109	-1571
1039.172	-1388
1039.234	-2155
1039.297	-1663
1039.360	-1948
1039.422	-1199
1039.485	-1381
1039.547	-1776
1039.610	-1907
1039.672	-1800
1039.734	-1754
1039.797	-1993
1039.859	-1665
1039.922	-1580
1039.984	-2202
1040.046	-1256
1040.109	-1533
1040.171	-1909
1040.233	-1844
1040.295	-1581
1040.358	-1965
1040.420	-1851
1040.482	-1482
1040.544	-1986
1040.606	-1389
1040.668	-1127
1040.730	-1104
1040.792	-1583
1040.854	-1802
1040.916	-1061
1040.978	-1938
1041.040	-884
1041.102	-1510
1041.164	-911
1041.225	-1699
1041.287	-1541
1041.349	-2295
1041.411	-996
1041.472	-1873
1041.534	-1660
1041.596	-1456
1041.657	-1575
1041.719	-1998
1041.781	-1670
1041.842	-2377
1041.904	-1230
1041.965	-1776
1042.027	-1286
1042.088	-1624
1042.150	-1229
1042.211	-1307
1042.272	-1030
1042.334	-1379
1042.395	-1843
1042.456	-2007
1042.518	-1406
1042.579	-1889
1042.640	-1730
1042.701	-2422
1042.763	-1784
1042.824	-1806
1042.885	-2104
1042.946	-1868
1043.007	-1075
1043.068	-1706
1043.129	-1881
1043.190	-1982
1043.251	-2209
1043.312	-2632
1043.373	-1634
1043.434	-2136
1043.495	-1730
1043.556	-1749
1043.616	-1353
1043.677	-2150
1043.738	-1753
1043.799	-1613
1043.859	-1176
1043.920	-1636
1043.981	-1956
1044.041	-2380
1044.102	-1704
1044.162	-1742
1044.223	-1333
1044.284	-2034
1044.344	-1996
1044.405	-1652
1044.465	-1210
1044.525	-2331
1044.586	-1160
1044.646	-1635
1044.707	-2363
1044.767	-1597
1044.827	-1659
1044.887	-1555
1044.948	-1122
1045.008	-1686
1045.068	-1421
1045.128	-1914
1045.188	-1889
1045.249	-1519
1045.309	-2260
1045.369	-1370
1045.429	-1179
1045.489	-1326
1045.549	-1638
1045.609	-2460
1045.669	-1343
1045.729	-2067
1045.789	-1575
1045.848	-1667
1045.908	-1041
1045.968	-2639
1046.028	-1117
1046.088	-835
1046.147	-757
1046.207	-2264
1046.267	-2072
1046.326	-1837
1046.386	-1715
1046.446	-1326
1046.505	-1022
1046.565	-980
1046.624	-791
1046.684	-1915
1046.743	-3
1046.803	-564
1046.862	-889
1046.922	0
