'Start Wavelength	183.907
'End Wavelength	1046.922
'Gate Delay	5.000
'Gate Width (ms)	1.050
'Laser Output Level	0.000
'X Position	0.000
'Y Position	0.000
'Z Position	0.000
'Grid Point Number	1.000
'Shot Number	100.000
183.907	796.000
183.977	448.000
184.047	585
184.116	337
184.186	903
184.256	526
184.325	189
184.395	580
184.465	372
184.534	286
184.604	234
184.674	934
184.743	362
184.813	1020
184.883	626
184.952	45
185.022	310
185.092	817
185.161	-26
185.231	304
185.301	-77
185.370	637
185.440	840
185.509	498
185.579	448
185.649	451
185.718	338
185.788	-273
185.857	969
185.927	279
185.996	637
186.066	135
186.136	209
186.205	376
186.275	599
186.344	520
186.414	1007
186.483	1035
186.553	661
186.622	753
186.692	886
186.761	408
186.831	761
186.900	809
186.970	363
187.039	-169
187.109	846
187.178	305
187.248	723
187.317	369
187.387	585
187.456	701
187.526	1339
187.595	654
187.664	843
187.734	673
187.803	1103
187.873	301
187.942	1176
188.012	412
188.081	1016
188.150	1336
188.220	982
188.289	703
188.358	745
188.428	1015
188.497	322
188.567	1260
188.636	566
188.705	258
188.775	371
188.844	371
188.913	441
188.983	912
189.052	1299
189.121	385
189.191	827
189.260	806
189.329	1196
189.399	460
189.468	464
189.537	807
189.606	510
189.676	1434
189.745	1047
189.814	525
189.883	112
189.953	871
190.022	1598
190.091	2387
190.161	1832
190.230	-36
190.299	988
190.368	623
190.437	678
190.507	475
190.576	1059
190.645	872
190.714	588
190.783	205
190.853	344
190.922	549
190.991	83
191.060	735
191.129	695
191.198	624
191.268	759
191.337	1303
191.406	1043
191.475	230
191.544	910
191.613	851
191.682	374
191.752	968
191.821	114
191.890	1055
191.959	373
192.028	725
192.097	697
192.166	328
192.235	380
192.304	202
192.373	421
192.442	881
192.511	353
192.580	127
192.650	-73
192.719	861
192.788	895
192.857	906
192.926	1360
192.995	1149
193.064	1486
193.133	1610
193.202	2013
193.271	984
193.340	830
193.409	1293
193.478	1298
193.547	2109
193.615	2515
193.684	2291
193.753	992
193.822	1135
193.891	616
193.960	1233
194.029	672
194.098	1024
194.167	909
194.236	496
194.305	843
194.374	899
194.443	1212
194.512	1420
194.580	1465
194.649	846
194.718	1357
194.787	1368
194.856	475
194.925	962
194.994	1103
195.062	961
195.131	1059
195.200	2011
195.269	1322
195.338	964
195.407	996
195.475	1195
195.544	1352
195.613	1088
195.682	903
195.751	1258
195.819	1348
195.888	428
195.957	1925
196.026	1103
196.094	1067
196.163	1896
196.232	1272
196.301	887
196.369	994
196.438	1253
196.507	524
196.576	1228
196.644	1174
196.713	1050
196.782	666
196.850	1327
196.919	680
196.988	1219
197.056	1001
197.125	1344
197.194	773
197.262	374
197.331	503
197.400	329
197.468	430
197.537	589
197.606	648
197.674	1233
197.743	1144
197.812	1092
197.880	2393
197.949	1843
198.017	2280
198.086	1164
198.155	510
198.223	1944
198.292	2209
198.360	739
198.429	1249
198.497	1079
198.566	2527
198.635	1874
198.703	1101
198.772	1731
198.840	3546
198.909	1810
198.977	1413
199.046	1218
199.114	1198
199.183	1391
199.251	772
199.320	636
199.388	587
199.457	561
199.525	1353
199.594	985
199.662	1230
199.731	760
199.799	1512
199.867	225
199.936	1072
200.004	568
200.073	1151
200.141	503
200.210	1097
200.278	928
200.346	683
200.415	1433
200.483	1535
200.552	1304
200.620	1023
200.688	898
200.757	799
200.825	736
200.893	1529
200.962	1325
201.030	466
201.098	1504
201.167	578
201.235	933
201.303	766
201.372	1295
201.440	1465
201.508	1228
201.577	1555
201.645	955
201.713	936
201.781	2207
201.850	1581
201.918	814
201.986	634
202.055	1169
202.123	955
202.191	1195
202.259	350
202.327	1043
202.396	1326
202.464	1622
202.532	2065
202.600	3075
202.669	1736
202.737	1501
202.805	761
202.873	1759
202.941	983
203.009	792
203.078	845
203.146	1226
203.214	985
203.282	890
203.350	961
203.418	1390
203.487	1388
203.555	1146
203.623	1490
203.691	721
203.759	986
203.827	1688
203.895	1232
203.963	1380
204.031	1355
204.099	1131
204.168	759
204.236	1428
204.304	955
204.372	701
204.440	881
204.508	1467
204.576	1495
204.644	813
204.712	832
204.780	891
204.848	1146
204.916	1475
204.984	1643
205.052	1845
205.120	1515
205.188	559
205.256	1253
205.324	1496
205.392	894
205.460	1832
205.528	906
205.596	1595
205.664	1172
205.732	1673
205.799	5293
205.867	3476
205.935	1414
206.003	1712
206.071	1433
206.139	1392
206.207	1714
206.275	1472
206.343	1226
206.411	1425
206.478	1861
206.546	1265
206.614	1477
206.682	1556
206.750	1331
206.818	2235
206.885	1932
206.953	1639
207.021	1435
207.089	1173
207.157	1571
207.225	1327
207.292	401
207.360	1752
207.428	1072
207.496	983
207.563	2224
207.631	2010
207.699	757
207.767	1333
207.834	1213
207.902	1581
207.970	1390
208.038	1665
208.105	1779
208.173	2483
208.241	1517
208.309	2416
208.376	2797
208.444	2902
208.512	1309
208.579	1587
208.647	1861
208.715	2162
208.782	1329
208.850	1799
208.918	1296
208.985	1462
209.053	1419
209.120	2088
209.188	1877
209.256	1621
209.323	1496
209.391	2430
209.459	1822
209.526	1142
209.594	1445
209.661	1553
209.729	1653
209.796	1539
209.864	1887
209.932	1937
209.999	1808
210.067	1632
210.134	1582
210.202	2183
210.269	1675
210.337	2326
210.404	1593
210.472	2041
210.539	1489
210.607	1800
210.674	2168
210.742	1384
210.809	1631
210.877	2545
210.944	3016
211.012	3326
211.079	2230
211.146	1343
211.214	2780
211.281	2546
211.349	1701
211.416	1864
211.484	2270
211.551	2089
211.618	1406
211.686	1937
211.753	1556
211.821	2476
211.888	2033
211.955	1588
212.023	2270
212.090	2039
212.157	2262
212.225	2587
212.292	4580
212.359	9611
212.427	10797
212.494	4535
212.561	1980
212.629	3133
212.696	1759
212.763	2094
212.831	1427
212.898	2430
212.965	1591
213.032	2468
213.100	2557
213.167	2719
213.234	2258
213.301	2180
213.369	2165
213.436	1720
213.503	1885
213.570	2636
213.638	1711
213.705	1881
213.772	2026
213.839	3067
213.906	2023
213.973	1851
214.041	2072
214.108	2096
214.175	2735
214.242	2408
214.309	1487
214.376	2261
214.444	2702
214.511	3041
214.578	1914
214.645	2704
214.712	2711
214.779	2715
214.846	2935
214.913	2326
214.980	2974
215.048	2891
215.115	3648
215.182	3064
215.249	2415
215.316	2636
215.383	1349
215.450	2167
215.517	2048
215.584	2327
215.651	2057
215.718	2118
215.785	2790
215.852	1760
215.919	3067
215.986	2322
216.053	2258
216.120	2076
216.187	2487
216.254	2067
216.321	1684
216.388	1857
216.455	2676
216.522	3162
216.589	3671
216.656	5266
216.722	4241
216.789	3324
216.856	3096
216.923	2758
216.990	3771
217.057	2766
217.124	3283
217.191	3986
217.258	4238
217.324	4915
217.391	4584
217.458	3352
217.525	3281
217.592	2425
217.659	2670
217.725	3019
217.792	4373
217.859	2710
217.926	2590
217.993	2712
218.059	2473
218.126	2012
218.193	2274
218.260	917
218.327	1923
218.393	2253
218.460	1918
218.527	2026
218.594	2858
218.660	4155
218.727	3103
218.794	1542
218.860	1173
218.927	1984
218.994	2077
219.061	2273
219.127	2733
219.194	3420
219.261	1527
219.327	1894
219.394	1216
219.461	1665
219.527	1704
219.594	2706
219.661	1535
219.727	1862
219.794	2682
219.860	2031
219.927	3146
219.994	4597
220.060	4734
220.127	3343
220.193	3352
220.260	3916
220.326	4999
220.393	7569
220.460	7292
220.526	4588
220.593	3532
220.659	3589
220.726	5523
220.792	8099
220.859	8197
220.925	11410
220.992	12445
221.058	12234
221.125	8195
221.191	6068
221.258	3061
221.324	2734
221.391	2537
221.457	1899
221.524	2988
221.590	5549
221.657	9652
221.723	5442
221.789	6749
221.856	4373
221.922	3153
221.989	2999
222.055	2076
222.121	2891
222.188	3076
222.254	2183
222.321	2475
222.387	1635
222.453	1805
222.520	1861
222.586	1980
222.652	1827
222.719	1246
222.785	2681
222.851	894
222.918	1680
222.984	2655
223.050	2088
223.116	2324
223.183	1474
223.249	1213
223.315	1263
223.382	2452
223.448	2116
223.514	1200
223.580	2080
223.647	1484
223.713	1485
223.779	1659
223.845	1173
223.911	1611
223.978	2024
224.044	1942
224.110	1476
224.176	2056
224.242	1777
224.309	496
224.375	1924
224.441	915
224.507	1456
224.573	1411
224.639	1907
224.705	1532
224.772	1473
224.838	1697
224.904	2215
224.970	1714
225.036	1960
225.102	2349
225.168	1659
225.234	1086
225.300	2153
225.366	1117
225.432	1021
225.499	1840
225.565	2285
225.631	2203
225.697	2171
225.763	3225
225.829	3170
225.895	3867
225.961	4684
226.027	3876
226.093	3688
226.159	3773
226.225	8064
226.291	15833
226.357	14987
226.423	8126
226.489	5203
226.554	4349
226.620	4409
226.686	5693
226.752	8434
226.818	15941
226.884	23377
226.950	13904
227.016	6932
227.082	5857
227.148	4841
227.214	4205
227.279	3687
227.345	2893
227.411	3159
227.477	4717
227.543	7613
227.609	5196
227.674	3166
227.740	2970
227.806	2246
227.872	1993
227.938	2992
228.003	3895
228.069	2355
228.135	1205
228.201	2633
228.267	2193
228.332	2958
228.398	2879
228.464	2035
228.530	1537
228.595	2071
228.661	2678
228.727	3086
228.792	1959
228.858	2082
228.924	2537
228.990	2816
229.055	3114
229.121	1937
229.187	1928
229.252	2502
229.318	1142
229.384	2986
229.449	2302
229.515	1150
229.581	474
229.646	2042
229.712	3463
229.777	5789
229.843	4529
229.909	5092
229.974	4396
230.040	3692
230.105	3206
230.171	3825
230.236	5003
230.302	6446
230.368	3932
230.433	2679
230.499	2517
230.564	3568
230.630	1939
230.695	1894
230.761	3006
230.826	2308
230.892	3253
230.957	2536
231.023	2681
231.088	2470
231.154	1528
231.219	2719
231.284	3852
231.350	3251
231.415	2416
231.481	2411
231.546	2197
231.612	2513
231.677	2004
231.742	2052
231.808	1376
231.873	2404
231.939	2130
232.004	4464
232.069	2375
232.135	2921
232.200	1901
232.265	1935
232.331	1938
232.396	1858
232.461	946
232.527	1627
232.592	2063
232.657	2178
232.723	3837
232.788	1897
232.853	1870
232.918	2331
232.984	1813
233.049	2297
233.114	4062
233.179	2473
233.245	7292
233.310	3150
233.375	1677
233.440	1788
233.506	1746
233.571	1413
233.636	1032
233.701	3012
233.766	6190
233.832	3055
233.897	2784
233.962	3269
234.027	3782
234.092	2908
234.157	2159
234.222	2762
234.288	8343
234.353	11818
234.418	9495
234.483	6063
234.548	4598
234.613	4056
234.678	4530
234.743	7162
234.808	13315
234.873	5486
234.938	4067
235.004	2736
235.069	3533
235.134	2240
235.199	2870
235.264	2999
235.329	2535
235.394	3585
235.459	3746
235.524	2994
235.589	2671
235.654	2734
235.719	2074
235.784	2245
235.849	5372
235.913	6702
235.978	9423
236.043	5225
236.108	4258
236.173	4702
236.238	2670
236.303	3098
236.368	3146
236.433	7845
236.498	6424
236.563	6431
236.627	17835
236.692	30384
236.757	15258
236.822	9749
236.887	8204
236.952	5669
237.017	6685
237.081	6094
237.146	9911
237.211	18994
237.276	38877
237.341	34968
237.405	15969
237.470	9503
237.535	6929
237.600	4331
237.664	4466
237.729	3598
237.794	8039
237.859	8489
237.923	6289
237.988	4487
238.053	6737
238.118	8848
238.182	18000
238.247	8338
238.312	6977
238.376	4493
238.441	4553
238.506	3490
238.570	2663
238.635	2757
238.700	1832
238.764	2961
238.829	10416
238.893	5470
238.958	4304
239.023	4060
239.087	3254
239.152	3285
239.216	2859
239.281	2411
239.346	2332
239.410	2330
239.475	7267
239.539	17941
239.604	5740
239.668	3705
239.733	3098
239.797	6789
239.862	13712
239.926	10509
239.991	3243
240.055	2606
240.120	2515
240.184	3084
240.249	2330
240.313	1654
240.378	4654
240.442	14192
240.507	9139
240.571	5027
240.635	10024
240.700	5029
240.764	3236
240.829	2445
240.893	2467
240.957	3229
241.022	13685
241.086	11408
241.151	4756
241.215	2975
241.279	7194
241.344	6579
241.408	4069
241.472	4530
241.537	3677
241.601	3231
241.665	3495
241.730	3739
241.794	2871
241.858	3338
241.922	3620
241.987	2969
242.051	3529
242.115	3246
242.179	2846
242.244	3037
242.308	3255
242.372	4467
242.436	4117
242.501	3441
242.565	2978
242.629	2786
242.693	3835
242.757	3103
242.822	3279
242.886	2840
242.950	3281
243.014	3002
243.078	4532
243.142	3398
243.206	3683
243.271	4109
243.335	3946
243.399	7710
243.463	36192
243.527	29670
243.591	9750
243.655	5008
243.719	3860
243.783	5295
243.847	9351
243.911	9986
243.975	12520
244.040	4657
244.104	3197
244.168	4403
244.232	8346
244.296	8633
244.360	6851
244.424	4165
244.488	3373
244.552	3485
244.615	2970
244.679	2671
244.743	5463
244.807	3529
244.871	2648
244.935	1972
244.999	3069
245.063	2170
245.127	4107
245.191	8067
245.255	4384
245.319	6240
245.383	3810
245.446	3476
245.510	3246
245.574	3387
245.638	3228
245.702	6576
245.766	6665
245.829	4877
245.893	4211
245.957	3918
246.021	4412
246.085	4714
246.149	6991
246.212	15685
246.276	11626
246.340	7093
246.404	4779
246.467	8888
246.531	6710
246.595	5276
246.659	5231
246.722	6255
246.786	6348
246.850	8874
246.913	5729
246.977	3703
247.041	4663
247.104	4344
247.168	6865
247.232	17233
247.295	17462
247.359	7387
247.423	7786
247.486	8895
247.550	5748
247.614	5741
247.677	5915
247.741	4312
247.804	3983
247.868	5666
247.932	17518
247.995	14311
248.059	6066
248.122	4389
248.186	7041
248.249	18699
248.313	36773
248.376	27345
248.440	15048
248.503	7333
248.567	8579
248.630	13402
248.694	15545
248.757	26014
248.821	28502
248.884	17657
248.948	26272
249.011	31309
249.075	40579
249.138	22068
249.202	12445
249.265	11407
249.328	11359
249.392	8548
249.455	6213
249.519	7009
249.582	9943
249.645	11735
249.709	6715
249.772	6186
249.835	7168
249.899	6160
249.962	5465
250.025	6900
250.089	19371
250.152	13411
250.215	9031
250.279	7504
250.342	7783
250.405	7029
250.468	6959
250.532	9854
250.595	19849
250.658	68346
250.721	39788
250.785	18791
250.848	11501
250.911	7750
250.974	7352
251.038	17890
251.101	16299
251.164	12095
251.227	12366
251.290	10697
251.354	29792
251.417	70578
251.480	36150
251.543	66598
251.606	102682
251.669	45625
251.732	28591
251.795	30914
251.859	44968
251.922	60341
251.985	21525
252.048	13279
252.111	10983
252.174	13598
252.237	32700
252.300	38282
252.363	70724
252.426	61113
252.489	26632
252.552	16445
252.615	13133
252.678	20578
252.741	32686
252.804	67238
252.867	71074
252.930	39062
252.993	21565
253.056	16929
253.119	11436
253.182	12850
253.245	16772
253.308	12466
253.371	14756
253.434	11689
253.497	15079
253.559	19935
253.622	15870
253.685	26225
253.748	14069
253.811	9705
253.874	14487
253.937	9893
254.000	9841
254.062	21782
254.125	18004
254.188	24569
254.251	10939
254.314	11656
254.376	20748
254.439	16765
254.502	13849
254.565	22579
254.628	22304
254.690	14208
254.753	7711
254.816	8581
254.878	10596
254.941	19535
255.004	9710
255.067	8170
255.129	5929
255.192	3963
255.255	4697
255.317	5578
255.380	3293
255.443	3417
255.505	2830
255.568	3466
255.631	3472
255.693	4448
255.756	3204
255.819	3966
255.881	3398
255.944	2735
256.006	3366
256.069	3151
256.132	3643
256.194	9515
256.257	12215
256.319	11184
256.382	7050
256.444	5642
256.507	4475
256.569	3887
256.632	5498
256.694	9725
256.757	36463
256.819	34788
256.882	12631
256.944	7277
257.007	7532
257.069	7378
257.132	4751
257.194	4342
257.257	4881
257.319	3837
257.381	7075
257.444	27073
257.506	68669
257.569	43683
257.631	25691
257.693	12479
257.756	9158
257.818	6577
257.880	4066
257.943	4849
258.005	4647
258.067	4164
258.130	3777
258.192	10134
258.254	10969
258.317	3674
258.379	7159
258.441	15029
258.503	8213
258.566	23794
258.628	10314
258.690	5188
258.753	8964
258.815	10706
258.877	4957
258.939	4478
259.001	3277
259.064	3714
259.126	7600
259.188	5634
259.250	5172
259.312	11085
259.375	16795
259.437	5748
259.499	4499
259.561	5065
259.623	4838
259.685	3823
259.747	6694
259.809	26564
259.872	24680
259.934	47751
259.996	20110
260.058	6473
260.120	4695
260.182	3736
260.244	3662
260.306	3766
260.368	3810
260.430	4747
260.492	12201
260.554	16639
260.616	11263
260.678	32835
260.740	14380
260.802	6418
260.864	6283
260.926	5144
260.988	4763
261.050	6438
261.112	19850
261.174	32512
261.236	11110
261.298	8017
261.359	20159
261.421	9877
261.483	4755
261.545	4076
261.607	3394
261.669	3749
261.731	16949
261.793	15675
261.854	6836
261.916	5033
261.978	5837
262.040	4920
262.102	5768
262.164	9443
262.225	4169
262.287	6682
262.349	12972
262.411	5389
262.472	4541
262.534	17653
262.596	10831
262.658	4539
262.719	3606
262.781	12211
262.843	13529
262.904	5435
262.966	5606
263.028	11146
263.090	66640
263.151	46397
263.213	18636
263.275	9386
263.336	5827
263.398	3902
263.459	2932
263.521	5650
263.583	10726
263.644	4930
263.706	2334
263.767	3092
263.829	1724
263.891	1929
263.952	1689
264.014	1442
264.075	9722
264.137	9484
264.198	3491
264.260	1773
264.321	2548
264.383	17801
264.444	12124
264.506	3877
264.567	3773
264.629	14272
264.690	10295
264.752	5208
264.813	4157
264.875	3059
264.936	2709
264.998	1832
265.059	2015
265.120	3392
265.182	11241
265.243	34085
265.305	11522
265.366	4158
265.427	3678
265.489	2923
265.550	2196
265.611	4219
265.673	2343
265.734	2800
265.795	1950
265.857	2603
265.918	3105
265.979	19520
266.040	48399
266.102	15233
266.163	9006
266.224	6700
266.286	3456
266.347	3403
266.408	3643
266.469	3369
266.530	2676
266.592	4244
266.653	12557
266.714	7979
266.775	3588
266.836	1845
266.898	3535
266.959	5319
267.020	2159
267.081	3000
267.142	1986
267.203	2728
267.264	2758
267.326	3490
267.387	2733
267.448	3094
267.509	3079
267.570	2233
267.631	2486
267.692	3489
267.753	2018
267.814	2637
267.875	13054
267.936	10195
267.997	8245
268.058	6069
268.119	3767
268.180	3512
268.241	2735
268.302	2071
268.363	2561
268.424	3187
268.485	2384
268.546	2221
268.607	2089
268.668	1752
268.729	2580
268.790	2400
268.851	4728
268.912	13944
268.972	7753
269.033	3610
269.094	1850
269.155	2259
269.216	2576
269.277	2995
269.338	1755
269.398	3125
269.459	3699
269.520	5729
269.581	8571
269.642	7326
269.702	4680
269.763	3700
269.824	3344
269.885	7636
269.945	4605
270.006	2314
270.067	1862
270.128	1797
270.188	3071
270.249	2368
270.310	1784
270.370	3254
270.431	2519
270.492	1946
270.553	3745
270.613	12459
270.674	11381
270.734	4127
270.795	3243
270.856	6648
270.916	3025
270.977	3131
271.038	4910
271.098	4781
271.159	9433
271.219	5132
271.280	2568
271.340	2510
271.401	8045
271.462	8304
271.522	4428
271.583	3552
271.643	3652
271.704	2977
271.764	5758
271.825	19926
271.885	44554
271.946	23310
272.006	12698
272.066	31268
272.127	18485
272.187	6623
272.248	5321
272.308	12304
272.369	17951
272.429	8380
272.489	13675
272.550	9204
272.610	12086
272.671	6663
272.731	12522
272.791	10572
272.852	6959
272.912	4941
272.972	4071
273.033	5571
273.093	7079
273.153	5270
273.214	3724
273.274	7694
273.334	32115
273.394	21368
273.455	11772
273.515	25157
273.575	20172
273.635	11519
273.696	28975
273.756	21691
273.816	9142
273.876	9435
273.936	29929
273.997	15018
274.057	5903
274.117	6312
274.177	21379
274.237	44279
274.297	25800
274.358	23354
274.418	25657
274.478	12607
274.538	5990
274.598	12615
274.658	31818
274.718	20332
274.778	7403
274.838	6400
274.898	33059
274.958	33765
275.018	29627
275.078	13387
275.138	6796
275.198	3902
275.258	4107
275.318	8676
275.378	13063
275.438	8897
275.498	9458
275.558	33170
275.618	31195
275.678	14309
275.738	14967
275.798	7859
275.858	4051
275.918	2866
275.978	5504
276.038	3586
276.098	3955
276.157	19556
276.217	18128
276.277	9810
276.337	6836
276.397	5030
276.457	5262
276.517	2779
276.576	3217
276.636	4130
276.696	9430
276.756	17068
276.815	7085
276.875	5779
276.935	6531
276.995	3125
277.055	3046
277.114	3150
277.174	13839
277.234	13693
277.293	6258
277.353	4181
277.413	3986
277.472	4654
277.532	3079
277.592	7625
277.651	36089
277.711	16950
277.771	21881
277.830	45743
277.890	17862
277.950	46676
278.009	39926
278.069	16527
278.128	39580
278.188	20269
278.248	25578
278.307	38262
278.367	12362
278.426	6927
278.486	4585
278.545	4051
278.605	3785
278.664	3874
278.724	5300
278.783	27144
278.843	18309
278.902	7641
278.962	7596
279.021	8747
279.081	14873
279.140	10014
279.199	8373
279.259	7969
279.318	8244
279.378	13371
279.437	33071
279.496	109499
279.556	178754
279.615	69766
279.675	29584
279.734	26233
279.793	48540
279.853	28431
279.912	13385
279.971	9619
280.031	10194
280.090	26151
280.149	21024
280.208	58689
280.268	147219
280.327	57682
280.386	24195
280.445	24916
280.505	12281
280.564	9322
280.623	7463
280.682	18502
280.742	10605
280.801	5317
280.860	4174
280.919	5045
280.978	4270
281.037	4305
281.097	3673
281.156	4743
281.215	3827
281.274	10631
281.333	22774
281.392	7024
281.451	3168
281.510	4651
281.569	3285
281.628	2454
281.688	3339
281.747	4389
281.806	3068
281.865	3143
281.924	3478
281.983	2189
282.042	2084
282.101	3422
282.160	2165
282.219	3182
282.278	7056
282.337	13259
282.396	4275
282.454	3943
282.513	11419
282.572	18782
282.631	5800
282.690	2925
282.749	3722
282.808	4573
282.867	5272
282.926	4022
282.985	2337
283.043	2016
283.102	2795
283.161	4362
283.220	19202
283.279	12279
283.338	5208
283.396	3976
283.455	4489
283.514	6764
283.573	6635
283.631	4918
283.690	3076
283.749	5087
283.808	12581
283.866	5907
283.925	4390
283.984	4666
284.043	7731
284.101	5007
284.160	4648
284.219	5320
284.277	6043
284.336	18488
284.395	28872
284.453	11339
284.512	10441
284.570	12204
284.629	11039
284.688	10994
284.746	13625
284.805	17066
284.863	22028
284.922	25571
284.981	32743
285.039	50952
285.098	91956
285.156	132755
285.215	111018
285.273	131621
285.332	96091
285.390	61615
285.449	41759
285.507	29817
285.566	21265
285.624	16532
285.683	13077
285.741	11386
285.799	10282
285.858	8546
285.916	7889
285.975	5945
286.033	5324
286.091	5415
286.150	4525
286.208	5012
286.267	5958
286.325	6934
286.383	10048
286.442	4808
286.500	3839
286.558	4081
286.616	4123
286.675	6163
286.733	4267
286.791	3806
286.850	5001
286.908	10633
286.966	7299
287.024	3323
287.083	2569
287.141	2393
287.199	5156
287.257	4813
287.315	3897
287.374	8136
287.432	11629
287.490	5750
287.548	3908
287.606	3673
287.664	4525
287.723	7432
287.781	5264
287.839	3905
287.897	4936
287.955	5366
288.013	9129
288.071	33449
288.129	156739
288.187	140558
288.245	44918
288.303	20478
288.361	14563
288.419	9572
288.477	6278
288.535	4688
288.593	3203
288.651	3438
288.709	2529
288.767	3567
288.825	2383
288.883	2560
288.941	2566
288.999	2222
289.057	2660
289.115	1538
289.173	2081
289.231	3034
289.289	1983
289.346	3123
289.404	4794
289.462	7707
289.520	5574
289.578	2301
289.636	2020
289.694	1220
289.751	1131
289.809	2117
289.867	2196
289.925	4464
289.983	2452
290.040	1710
290.098	2916
290.156	3585
290.214	3032
290.271	1099
290.329	1433
290.387	1686
290.444	1314
290.502	418
290.560	2062
290.617	1876
290.675	1919
290.733	1654
290.790	1826
290.848	2287
290.906	2224
290.963	2190
291.021	1185
291.078	1725
291.136	3557
291.194	18315
291.251	10240
291.309	3302
291.366	2201
291.424	2603
291.481	2561
291.539	2461
291.596	1519
291.654	984
291.711	612
291.769	5087
291.826	5591
291.884	2158
291.941	1586
291.999	2226
292.056	3587
292.114	2246
292.171	1913
292.228	2512
292.286	3977
292.343	8535
292.401	6790
292.458	3076
292.515	3284
292.573	4015
292.630	3989
292.687	3017
292.745	2592
292.802	7296
292.859	17815
292.917	18101
292.974	5686
293.031	2492
293.089	3238
293.146	2088
293.203	1944
293.260	1663
293.318	4170
293.375	3052
293.432	2022
293.489	1373
293.546	2002
293.604	6360
293.661	26633
293.718	23503
293.775	10346
293.832	8211
293.889	6552
293.947	6213
294.004	3748
294.061	5871
294.118	15763
294.175	23747
294.232	15281
294.289	5715
294.346	5560
294.403	4680
294.460	3719
294.517	2737
294.574	2287
294.631	2022
294.688	3330
294.745	21991
294.802	42183
294.859	21372
294.916	11461
294.973	7309
295.030	7067
295.087	4542
295.144	3368
295.201	2455
295.258	1866
295.315	6583
295.372	24083
295.429	15675
295.486	6353
295.542	8166
295.599	25554
295.656	17923
295.713	22437
295.770	13495
295.827	5428
295.883	4763
295.940	6202
295.997	9964
296.054	5246
296.111	3008
296.167	1809
296.224	1594
296.281	2586
296.338	1573
296.394	2264
296.451	5532
296.508	17417
296.564	14329
296.621	16819
296.678	41757
296.734	21993
296.791	8649
296.848	6442
296.904	14120
296.961	23856
297.018	25251
297.074	10044
297.131	5004
297.187	5234
297.244	13214
297.301	43396
297.357	25374
297.414	8900
297.470	5346
297.527	3917
297.583	4642
297.640	4045
297.696	1690
297.753	1853
297.809	1577
297.866	1512
297.922	2686
297.979	1353
298.035	3196
298.092	9798
298.148	18111
298.204	8786
298.261	6973
298.317	24967
298.374	27148
298.430	11404
298.486	8540
298.543	5355
298.599	6196
298.656	8293
298.712	22952
298.768	27452
298.824	10022
298.881	4726
298.937	3625
298.993	4986
299.050	5120
299.106	3179
299.162	3327
299.218	3097
299.275	2288
299.331	3501
299.387	19150
299.443	35381
299.500	18437
299.556	7453
299.612	6246
299.668	6558
299.724	8105
299.780	5332
299.837	3174
299.893	15110
299.949	32329
300.005	21745
300.061	36055
300.117	28895
300.173	10403
300.229	10205
300.285	15760
300.341	9839
300.397	5289
300.453	4028
300.510	3353
300.566	3713
300.622	8081
300.678	24354
300.734	24306
300.790	27618
300.845	20669
300.901	23268
300.957	27082
301.013	11381
301.069	6068
301.125	6740
301.181	5711
301.237	3778
301.293	2051
301.349	2689
301.405	2534
301.461	4173
301.516	3795
301.572	7385
301.628	7598
301.684	7997
301.740	17158
301.796	12355
301.851	15679
301.907	18546
301.963	18229
302.019	56832
302.074	81563
302.130	49537
302.186	20414
302.242	10943
302.297	8358
302.353	14205
302.409	17616
302.464	9871
302.520	20615
302.576	36075
302.631	26902
302.687	12431
302.743	6840
302.798	4462
302.854	4541
302.910	4619
302.965	8399
303.021	11456
303.076	10308
303.132	17431
303.187	11638
303.243	5690
303.299	3917
303.354	3375
303.410	2778
303.465	2579
303.521	2095
303.576	2968
303.632	4695
303.687	17482
303.743	26296
303.798	12804
303.853	6311
303.909	4551
303.964	5159
304.020	11121
304.075	10428
304.130	15534
304.186	21499
304.241	19118
304.297	11743
304.352	5981
304.358	5917
304.407	5352
304.449	5611
304.463	5712
304.518	4690
304.539	4212
304.573	3371
304.629	4045
304.630	4242
304.684	13140
304.720	23577
304.739	29103
304.794	20811
304.811	18557
304.850	11422
304.902	5702
304.905	5402
304.960	6093
304.992	5815
305.015	5739
305.071	5356
305.083	5224
305.126	4445
305.173	3206
305.181	3022
305.236	2668
305.264	3488
305.292	4595
305.347	5635
305.354	5704
305.402	5873
305.445	6724
305.457	7015
305.512	8405
305.535	8176
305.567	7485
305.622	8250
305.626	8900
305.678	22143
305.716	34073
305.733	39088
305.788	29833
305.807	30852
305.843	29277
305.897	34095
305.898	34208
305.953	23626
305.988	19920
306.008	16803
306.063	11391
306.078	9923
306.118	7696
306.168	5890
306.173	5799
306.228	4290
306.259	4184
306.283	4226
306.338	4351
306.349	4544
306.393	6063
306.440	6500
306.448	6412
306.503	6077
306.530	7665
306.558	11929
306.613	23269
306.620	24770
306.668	35700
306.711	42493
306.723	42192
306.778	30116
306.801	26426
306.833	19690
306.888	9132
306.892	8635
306.943	8274
306.982	6582
306.997	6320
307.052	5849
307.072	5998
307.107	6921
307.162	9547
307.163	9558
307.217	14390
307.253	18096
307.272	19380
307.327	19766
307.343	19838
307.381	16647
307.434	14028
307.436	14498
307.491	30253
307.524	39591
307.546	44050
307.600	42713
307.614	42249
307.655	26971
307.704	12333
307.710	12379
307.765	15274
307.795	18984
307.819	26307
307.874	37857
307.885	39279
307.929	29720
307.975	22046
307.984	22664
308.038	28127
308.065	33997
308.093	53522
308.148	113792
308.156	122548
308.202	203811
308.246	243725
308.257	228377
308.312	145055
308.336	112657
308.366	94059
308.421	58587
308.426	55213
308.475	36636
308.517	22792
308.530	22122
308.585	19677
308.607	18947
308.639	19481
308.694	21021
308.697	21321
308.748	38172
308.787	48599
308.803	49306
308.857	45548
308.877	45227
308.912	40356
308.967	33407
308.967	33218
309.021	45544
309.058	55719
309.076	68653
309.130	111693
309.148	128904
309.185	193726
309.238	295642
309.239	297879
309.293	348788
309.328	365258
309.348	322551
309.402	204609
309.418	172457
309.457	130039
309.508	76221
309.511	75980
309.566	71181
309.598	70260
309.620	85000
309.674	125129
309.688	133469
309.729	142216
309.778	147422
309.783	143799
309.837	97220
309.868	71989
309.892	71317
309.946	74791
309.959	75424
310.001	108525
310.049	139227
310.055	134454
310.109	87021
310.139	62205
310.163	51584
310.218	29127
310.229	24616
310.272	20875
310.319	16993
310.326	16816
310.381	15546
310.409	14707
310.435	14021
310.489	12724
310.499	12464
310.543	13090
310.589	13763
310.598	13941
310.652	14581
310.679	14718
310.706	13668
310.760	11556
310.769	11206
310.814	10086
310.859	8907
310.868	9044
310.923	9725
310.948	9972
310.977	11074
311.031	13305
311.038	13539
311.085	14364
311.128	14884
311.139	14584
311.193	13088
311.218	12243
311.247	11777
311.301	10813
311.308	10658
311.356	10933
311.398	11207
311.410	11188
311.464	10741
311.488	10466
311.518	10354
311.572	10236
311.578	10200
311.626	15788
311.668	20448
311.680	20283
311.734	19158
311.758	18615
311.788	18802
311.842	18972
311.847	18920
311.896	20504
311.937	21773
311.950	23197
312.004	28990
312.027	31399
312.058	26208
312.112	16720
312.117	15704
312.165	13689
312.207	11861
312.297	17748
312.386	18453
312.476	14955
312.566	31991
312.656	24876
312.745	10408
312.835	11665
312.925	15985
313.015	13970
313.104	14658
313.194	12268
313.284	13667
313.374	16498
313.463	22832
313.553	11975
313.643	12363
313.732	10604
313.822	9752
313.912	11913
314.001	15050
314.091	16970
314.180	22658
314.270	21285
314.360	22335
314.449	23835
314.539	14890
314.628	11254
314.718	14100
314.808	18087
314.897	13710
314.987	12223
315.076	15916
315.166	24792
315.255	20700
315.345	20909
315.434	20265
315.524	17717
315.613	21630
315.703	27497
315.792	34158
315.881	64161
315.971	51581
316.060	35069
316.150	48562
316.239	51864
316.328	29682
316.418	12546
316.507	13888
316.597	18604
316.686	20910
316.775	19388
316.865	49217
316.954	21692
317.043	11056
317.133	13095
317.222	13488
317.311	11692
317.400	13614
317.490	15992
317.579	27402
317.668	15839
317.757	20148
317.847	44308
317.936	115067
318.025	99668
318.114	46198
318.203	33452
318.293	31806
318.382	67859
318.471	63325
318.560	70495
318.649	99961
318.738	49741
318.828	19888
318.917	27003
319.006	20301
319.095	52477
319.184	116723
319.273	115107
319.362	70018
319.451	21717
319.540	18165
319.629	35852
319.718	85111
319.807	32983
319.896	42637
319.985	145703
320.074	115663
320.163	25832
320.252	31957
320.341	29106
320.430	31842
320.519	36204
320.608	33229
320.697	17975
320.786	19552
320.875	23565
320.964	32753
321.053	51140
321.142	71391
321.230	97397
321.319	53088
321.408	122731
321.497	83427
321.586	49421
321.675	54705
321.764	64125
321.852	38446
321.941	65773
322.030	72377
322.119	41928
322.207	128467
322.296	103402
322.385	46747
322.474	46734
322.562	135566
322.651	128078
322.740	50467
322.829	91135
322.917	75227
323.006	59473
323.095	47067
323.183	32141
323.272	39045
323.361	61079
323.449	160163
323.538	95676
323.626	98911
323.715	122433
323.804	29054
323.892	96805
323.981	116189
324.069	26405
324.158	44911
324.246	84224
324.335	28194
324.424	54484
324.512	26819
324.601	23446
324.689	44084
324.778	116550
324.866	71968
324.954	26147
325.043	16119
325.131	29069
325.220	51531
325.308	65023
325.397	45715
325.485	46288
325.574	13021
325.662	14655
325.750	16453
325.839	14719
325.927	11521
326.015	16768
326.104	20043
326.192	37722
326.280	15548
326.369	13228
326.457	19538
326.545	39923
326.634	30201
326.722	9748
326.810	11663
326.898	12118
326.987	12948
327.075	29272
327.163	45277
327.251	22053
327.340	31369
327.428	87442
327.516	21263
327.604	12775
327.692	14328
327.781	13101
327.869	24735
327.957	22032
328.045	21409
328.133	11654
328.221	12109
328.309	15830
328.397	12139
328.485	17118
328.574	19528
328.662	66473
328.750	69835
328.838	21436
328.926	13597
329.014	10648
329.102	16524
329.190	38108
329.278	48806
329.366	13222
329.454	9553
329.542	11885
329.630	10877
329.718	10899
329.806	16817
329.893	16797
329.981	18377
330.069	19020
330.157	58142
330.245	208964
330.333	185364
330.421	44524
330.509	24017
330.597	82527
330.684	103778
330.772	28679
330.860	26861
330.948	37216
331.036	27075
331.123	11256
331.211	9665
331.299	13791
331.387	20208
331.475	66052
331.562	28200
331.650	11249
331.738	12873
331.825	18657
331.913	12695
332.001	9728
332.089	12776
332.176	25600
332.264	47319
332.352	72347
332.439	25098
332.527	16826
332.614	12183
332.702	16035
332.790	11033
332.877	22495
332.965	67575
333.052	40108
333.140	20510
333.228	68955
333.315	37151
333.403	14022
333.490	29544
333.578	48740
333.665	75358
333.753	70238
333.840	18519
333.928	14314
334.015	30964
334.103	49278
334.190	137206
334.278	86864
334.365	22121
334.452	20622
334.540	14217
334.627	14398
334.715	24018
334.802	28509
334.889	132587
334.977	262210
335.064	48798
335.151	19233
335.239	16882
335.326	19239
335.413	47132
335.501	133862
335.588	32211
335.675	16555
335.762	17054
335.850	35307
335.937	24603
336.024	37326
336.111	174369
336.199	158307
336.286	33110
336.373	16435
336.460	12774
336.547	11010
336.635	15689
336.722	18597
336.809	12672
336.896	16191
336.983	43532
337.070	116213
337.157	167745
337.245	119976
337.332	141766
337.419	20659
337.506	13089
337.593	12364
337.680	24913
337.767	122057
337.854	60515
337.941	49037
338.028	57465
338.115	36059
338.202	19007
338.289	31873
338.376	116796
338.463	83903
338.550	47415
338.637	107598
338.724	26673
338.811	52915
338.898	18670
338.984	11022
339.071	14773
339.158	16023
339.245	42580
339.332	47531
339.419	24934
339.506	45773
339.593	11627
339.679	11003
339.766	12794
339.853	13303
339.940	37215
340.027	22937
340.113	11525
340.200	22023
340.287	18646
340.374	15145
340.460	38991
340.547	22571
340.634	17613
340.720	67123
340.807	89415
340.894	13690
340.980	12263
341.067	15102
341.154	13147
341.240	16813
341.327	53820
341.414	27004
341.500	25219
341.587	17010
341.674	12124
341.760	24005
341.847	50577
341.933	22904
342.020	8233
342.106	7421
342.193	10628
342.279	29107
342.366	20291
342.452	38350
342.539	24963
342.625	27883
342.712	97801
342.798	66406
342.885	29343
342.971	10708
343.058	8788
343.144	8987
343.230	11343
343.317	11408
343.403	14163
343.490	8093
343.576	8281
343.662	9849
343.749	14068
343.835	15673
343.921	18523
344.008	64483
344.094	253373
344.180	116853
344.267	31675
344.353	50013
344.439	105127
344.525	58187
344.612	30554
344.698	19980
344.784	18751
344.870	9778
344.957	11259
345.043	20377
345.129	15586
345.215	32981
345.301	28285
345.387	19553
345.474	8804
345.560	8593
345.646	11724
345.732	12099
345.818	14671
345.904	17614
345.990	15417
346.076	14211
346.162	27591
346.249	20037
346.335	10917
346.421	9649
346.507	17394
346.593	88046
346.679	55975
346.765	14325
346.851	11092
346.937	15497
347.023	10917
347.108	12563
347.194	16105
347.280	12756
347.366	12824
347.452	23219
347.538	94552
347.624	108440
347.710	99841
347.796	30475
347.882	12123
347.967	10643
348.053	14776
348.139	14077
348.225	11017
348.311	11725
348.397	10688
348.482	11344
348.568	20377
348.654	10780
348.740	11627
348.825	16527
348.911	15879
348.997	36990
349.083	116713
349.168	46984
349.254	12570
349.340	18103
349.425	10815
349.511	13021
349.597	20085
349.682	23002
349.768	69892
349.854	65301
349.939	13984
350.025	9031
350.110	10061
350.196	8684
350.282	10842
350.367	7334
350.453	12323
350.538	23459
350.624	15894
350.709	20799
350.795	10686
350.880	12716
350.966	11861
351.051	18414
351.137	18081
351.222	11289
351.308	19954
351.393	80150
351.479	46869
351.564	17102
351.649	11894
351.735	11215
351.820	8619
351.906	10574
351.991	12855
352.076	30359
352.162	96276
352.247	33360
352.332	15014
352.418	26270
352.503	39241
352.588	77291
352.673	162828
352.759	42855
352.844	21401
352.929	14681
353.014	29092
353.100	18525
353.185	22835
353.270	39482
353.355	57143
353.441	18081
353.526	13613
353.611	25041
353.696	57308
353.781	29725
353.866	19589
353.952	11329
354.037	24853
354.122	77572
354.207	86528
354.292	51037
354.377	15156
354.462	12210
354.547	16623
354.632	19301
354.717	18949
354.802	36006
354.887	23424
354.972	10447
355.057	10379
355.142	9513
355.227	12137
355.312	20635
355.397	42348
355.482	109719
355.567	110234
355.652	37229
355.737	52373
355.822	61756
355.907	117143
355.991	26452
356.076	12322
356.161	11585
356.246	11041
356.331	11301
356.416	17437
356.501	75868
356.585	193918
356.670	53302
356.755	23190
356.840	23139
356.924	66248
357.009	300932
357.094	271693
357.179	53911
357.263	42546
357.348	25269
357.433	36670
357.517	28422
357.602	28365
357.687	19747
357.771	21127
357.856	56022
357.941	61887
358.025	46767
358.110	243082
358.195	275470
358.279	57307
358.364	26822
358.448	51298
358.533	173862
358.617	196233
358.702	141312
358.787	97191
358.871	39521
358.956	47433
359.040	20026
359.125	11807
359.209	12121
359.294	20144
359.378	61697
359.462	41003
359.547	28138
359.631	16186
359.716	12928
359.800	12987
359.885	18773
359.969	19609
360.053	13358
360.138	12131
360.222	16995
360.306	36461
360.391	40634
360.475	28894
360.559	104017
360.644	88572
360.728	95017
360.812	47960
360.896	185476
360.981	144071
361.065	103799
361.149	29205
361.233	23459
361.318	20579
361.402	20611
361.486	20410
361.570	15832
361.654	17866
361.739	30630
361.823	98172
361.907	238012
361.991	94941
362.075	27925
362.159	67726
362.243	75052
362.327	44830
362.411	58551
362.495	39175
362.580	25530
362.664	15800
362.748	14949
362.832	17113
362.916	23466
363.000	52166
363.084	143161
363.168	275159
363.252	135473
363.336	39176
363.420	34264
363.503	70658
363.587	165447
363.671	52865
363.755	26061
363.839	40450
363.923	27508
364.007	28647
364.091	55954
364.175	37134
364.258	121974
364.342	172642
364.426	143817
364.510	124202
364.594	57261
364.677	43204
364.761	115429
364.845	195372
364.929	63855
365.013	74318
365.096	42784
365.180	64308
365.264	35192
365.347	124270
365.431	130786
365.515	38760
365.598	21848
365.682	16016
365.766	18910
365.849	39977
365.933	21073
366.017	24093
366.100	25024
366.184	13157
366.267	11808
366.351	12623
366.435	12190
366.518	11900
366.602	9922
366.685	12098
366.769	15730
366.852	19368
366.936	43211
367.019	41908
367.103	20159
367.186	33935
367.270	21503
367.353	10467
367.436	11191
367.520	12679
367.603	13249
367.687	22280
367.770	46078
367.853	34848
367.937	31062
368.020	95245
368.104	48016
368.187	26364
368.270	49634
368.353	49239
368.437	44052
368.520	80843
368.603	92345
368.687	56331
368.770	134992
368.853	72463
368.936	35692
369.020	50939
369.103	27992
369.186	13765
369.269	16301
369.352	22493
369.436	51607
369.519	36144
369.602	23108
369.685	14478
369.768	21627
369.851	18490
369.934	12711
370.018	13401
370.101	35412
370.184	42492
370.267	23253
370.350	29572
370.433	51555
370.516	71306
370.599	134906
370.682	67907
370.765	73358
370.848	108952
370.931	131260
371.014	112788
371.097	27497
371.180	20024
371.263	12349
371.346	11580
371.429	12228
371.511	13346
371.594	21478
371.677	40117
371.760	44462
371.843	36741
371.926	64323
372.009	249662
372.091	178125
372.174	62767
372.257	113380
372.340	98230
372.423	46247
372.505	77657
372.588	43255
372.671	35425
372.754	122818
372.836	134867
372.919	42168
373.002	110951
373.085	75932
373.167	33992
373.250	61405
373.332	120222
373.415	140849
373.498	322602
373.580	258905
373.663	115930
373.746	270493
373.828	124045
373.911	46209
373.993	32659
374.076	64943
374.159	136006
374.241	51851
374.324	96850
374.406	143944
374.489	64463
374.571	223980
374.654	208113
374.736	60882
374.819	121670
374.901	214306
374.983	313137
375.066	122375
375.148	28147
375.231	40612
375.313	154764
375.395	114116
375.478	34702
375.560	16788
375.643	18901
375.725	35934
375.807	146063
375.890	239529
375.972	126268
376.054	64575
376.136	73114
376.219	60313
376.301	33147
376.383	149257
376.465	137884
376.548	58516
376.630	70357
376.712	116956
376.794	139880
376.877	25528
376.959	11934
377.041	15476
377.123	19110
377.205	41846
377.287	17667
377.369	9595
377.452	12314
377.534	14121
377.616	11186
377.698	14303
377.780	11931
377.862	12869
377.944	14358
378.026	12212
378.108	9417
378.190	10810
378.272	10718
378.354	8346
378.436	8719
378.518	10533
378.600	45527
378.682	67934
378.764	65563
378.846	113181
378.928	35581
379.010	41391
379.091	38724
379.173	14824
379.255	13117
379.337	14969
379.419	28530
379.501	106392
379.583	104013
379.664	22752
379.746	32308
379.828	76546
379.910	128765
379.991	140665
380.073	51549
380.155	18410
380.237	20586
380.318	12742
380.400	13862
380.482	18878
380.564	50061
380.645	45327
380.727	56876
380.809	34967
380.890	22708
380.972	20086
381.053	17127
381.135	18262
381.217	23169
381.298	84306
381.380	98539
381.461	40693
381.543	90497
381.624	250138
381.706	103310
381.787	33454
381.869	35444
381.951	43486
382.032	188590
382.113	279298
382.195	100655
382.276	46153
382.358	50886
382.439	127156
382.521	161401
382.602	241251
382.684	193980
382.765	179609
382.846	323969
382.928	515681
383.009	542156
383.090	237312
383.172	447504
383.253	1039331
383.334	635440
383.416	295558
383.497	248214
383.578	129684
383.659	176787
383.741	391915
383.822	1040243
383.903	1051437
383.984	383404
384.066	297502
384.147	313371
384.228	110174
384.309	55481
384.390	55816
384.471	37127
384.553	36351
384.634	39637
384.715	54404
384.796	34680
384.877	28208
384.958	53972
385.039	134564
385.120	85873
385.201	34121
385.282	32948
385.363	36919
385.444	35142
385.525	36954
385.606	82028
385.687	136907
385.768	50432
385.849	36824
385.930	75269
386.011	221959
386.092	140764
386.173	34824
386.254	20446
386.335	20621
386.416	21042
386.496	34954
386.577	106846
386.658	71186
386.739	34507
386.820	29111
386.901	24954
386.981	23482
387.062	17327
387.143	18619
387.224	56834
387.304	120265
387.385	57022
387.466	31838
387.547	32265
387.627	28959
387.708	24097
387.789	83010
387.869	206117
387.950	109098
388.031	20992
388.111	13328
388.192	26209
388.273	50381
388.353	48396
388.434	24129
388.514	24178
388.595	72612
388.676	182437
388.756	142778
388.837	86689
388.917	112826
388.998	30665
389.078	17975
389.159	15884
389.239	16807
389.320	19711
389.400	28574
389.480	24724
389.561	68872
389.641	81369
389.722	22254
389.802	36875
389.883	41910
389.963	70774
390.043	99874
390.124	42955
390.204	25399
390.284	82940
390.365	124317
390.445	58589
390.525	149983
390.605	253454
390.686	120230
390.766	40656
390.846	20179
390.927	13789
391.007	16309
391.087	16145
391.167	18521
391.247	17712
391.328	17406
391.408	30252
391.488	33963
391.568	16546
391.648	15678
391.728	29597
391.808	27400
391.888	31502
391.969	33838
392.049	83471
392.129	64443
392.209	34213
392.289	73132
392.369	88790
392.449	49504
392.529	55136
392.609	36404
392.689	32912
392.769	59608
392.849	117549
392.929	58189
393.009	106662
393.089	154584
393.169	94306
393.248	158762
393.328	563117
393.408	1118769
393.488	603827
393.568	169919
393.648	79179
393.728	47548
393.807	36114
393.887	30008
393.967	26540
394.047	27216
394.127	34000
394.206	41328
394.286	74557
394.366	290157
394.446	676401
394.525	347433
394.605	85186
394.685	41840
394.764	55965
394.844	105818
394.924	133080
395.003	56529
395.083	31354
395.163	26524
395.242	21542
395.322	25635
395.402	20475
395.481	19034
395.561	28178
395.640	103932
395.720	150157
395.799	110013
395.879	158095
395.958	76181
396.038	106814
396.117	401594
396.197	844640
396.276	497161
396.356	170906
396.435	91556
396.515	71735
396.594	56071
396.673	83745
396.753	154119
396.832	568757
396.912	907253
396.991	399338
397.070	102282
397.150	49286
397.229	34197
397.308	26910
397.388	49398
397.467	49290
397.546	21518
397.625	16190
397.705	20637
397.784	24824
397.863	21370
397.942	13010
398.022	11562
398.101	16783
398.180	82789
398.259	109425
398.338	34214
398.417	19274
398.497	16175
398.576	13341
398.655	13449
398.734	10052
398.813	9388
398.892	13684
398.971	75400
399.050	116065
399.129	24707
399.208	8608
399.287	8333
399.366	7929
399.445	8216
399.524	9669
399.603	9991
399.682	12762
399.761	31821
399.840	78348
399.919	147340
399.998	43346
400.077	10634
400.156	8372
400.235	10223
400.313	9738
400.392	10738
400.471	22862
400.550	96830
400.629	67520
400.708	17401
400.786	13084
400.865	19130
400.944	44023
401.023	33079
401.102	10773
401.180	6769
401.259	6843
401.338	8943
401.416	13515
401.495	17659
401.574	13634
401.652	9599
401.731	11514
401.810	16403
401.888	13675
401.967	6528
402.046	6827
402.124	9343
402.203	18548
402.281	18105
402.360	10113
402.438	24226
402.517	48273
402.596	18635
402.674	12097
402.753	9978
402.831	7252
402.910	7465
402.988	13951
403.066	68407
403.145	111279
403.223	33101
403.302	63224
403.380	96179
403.459	69916
403.537	62142
403.615	20819
403.694	10219
403.772	6177
403.850	5413
403.929	6227
404.007	6553
404.085	11045
404.164	25577
404.242	19017
404.320	7853
404.398	12594
404.477	25584
404.555	94420
404.633	249683
404.711	89642
404.789	16412
404.868	10775
404.946	12553
405.024	7028
405.102	5439
405.180	5448
405.258	5787
405.336	6821
405.415	6274
405.493	12270
405.571	22365
405.649	13129
405.727	6521
405.805	10125
405.883	12083
405.961	12655
406.039	14373
406.117	13228
406.195	10596
406.273	21730
406.351	104538
406.429	191275
406.507	52103
406.585	16675
406.663	9570
406.740	15317
406.818	18439
406.896	13248
406.974	7472
407.052	9779
407.130	39893
407.208	168124
407.285	95793
407.363	14452
407.441	10014
407.519	9163
407.596	8671
407.674	15395
407.752	32819
407.830	63628
407.907	45950
407.985	20946
408.063	10727
408.141	6666
408.218	7188
408.296	15982
408.373	15266
408.451	12787
408.529	13677
408.606	10365
408.684	5420
408.762	5161
408.839	4826
408.917	3853
408.994	4725
409.072	6182
409.149	6961
409.227	6745
409.304	13016
409.382	11638
409.459	9743
409.537	12316
409.614	16576
409.692	14416
409.769	10010
409.846	13479
409.924	18471
410.001	21106
410.079	17795
410.156	11742
410.233	8556
410.311	10012
410.388	8626
410.465	7487
410.543	11972
410.620	10034
410.697	6737
410.775	12675
410.852	10645
410.929	7007
411.006	14849
411.083	12946
411.161	11603
411.238	28279
411.315	19043
411.392	9078
411.469	8581
411.547	15068
411.624	10832
411.701	9251
411.778	7263
411.855	16832
411.932	24859
412.009	9666
412.086	7509
412.163	6964
412.240	10973
412.317	11143
412.394	14059
412.471	8566
412.548	4460
412.625	6681
412.702	6559
412.779	13968
412.856	20873
412.933	9203
413.010	5646
413.087	5920
413.164	18211
413.241	89108
413.318	60213
413.395	15133
413.471	19494
413.548	22881
413.625	6525
413.702	8394
413.779	11916
413.855	5876
413.932	4042
414.009	4021
414.086	5226
414.162	4538
414.239	6406
414.316	17703
414.393	88008
414.469	106845
414.546	17893
414.623	4991
414.699	5145
414.776	7690
414.853	9635
414.929	6367
415.006	6774
415.082	7491
415.159	9099
415.236	6569
415.312	6613
415.389	9149
415.465	22462
415.542	22726
415.618	8529
415.695	11636
415.771	14119
415.848	10609
415.924	9656
416.000	8086
416.077	6539
416.153	4248
416.230	3039
416.306	2856
416.383	4031
416.459	5376
416.535	3017
416.612	3875
416.688	5083
416.764	5061
416.841	6023
416.917	5828
416.993	5671
417.069	6223
417.146	9832
417.222	14412
417.298	16395
417.374	7809
417.451	7152
417.527	8375
417.603	13837
417.679	12274
417.755	8125
417.831	5837
417.908	4096
417.984	4214
418.060	3984
418.136	7058
418.212	26052
418.288	21515
418.364	6814
418.440	4537
418.516	10195
418.592	11534
418.668	19777
418.744	39947
418.820	51033
418.896	25044
418.972	6809
419.048	4988
419.124	9071
419.200	25379
419.276	13317
419.352	3865
419.428	3777
419.504	5159
419.579	9637
419.655	10508
419.731	7790
419.807	12311
419.883	41451
419.959	58948
420.034	24521
420.110	9332
420.186	30211
420.262	90087
420.337	33495
420.413	11485
420.489	10790
420.565	6164
420.640	5429
420.716	6196
420.792	6284
420.867	5767
420.943	6516
421.019	7781
421.094	18131
421.170	9105
421.245	5377
421.321	5672
421.397	7058
421.472	8479
421.548	16248
421.623	32961
421.699	19299
421.774	12476
421.850	12732
421.925	14241
422.001	23006
422.076	16059
422.152	14320
422.227	21488
422.302	31995
422.378	31987
422.453	51467
422.529	90309
422.604	215861
422.679	464084
422.755	502917
422.830	340594
422.905	135193
422.981	64768
423.056	40156
423.131	27233
423.207	20603
423.282	18906
423.357	24267
423.432	36591
423.508	20444
423.583	27579
423.658	57499
423.733	26268
423.808	13268
423.883	16357
423.959	18595
424.034	15444
424.109	12174
424.184	8023
424.259	6565
424.334	6760
424.409	6677
424.484	5696
424.559	7244
424.634	8188
424.709	8191
424.784	13463
424.859	12852
424.934	8213
425.009	22633
425.084	78759
425.159	82929
425.234	18793
425.309	4947
425.384	6559
425.459	25458
425.534	26063
425.609	8152
425.683	7149
425.758	4848
425.833	5389
425.908	7200
425.983	11625
426.058	59023
426.132	104656
426.207	26171
426.282	8854
426.357	15600
426.431	10416
426.506	5663
426.581	6195
426.655	6793
426.730	6094
426.805	6547
426.879	7599
426.954	5781
427.029	7771
427.103	24024
427.178	113477
427.253	156652
427.327	38576
427.402	9890
427.476	22298
427.551	38302
427.625	12486
427.700	9093
427.774	7131
427.849	6813
427.923	6880
427.998	5607
428.072	5962
428.147	9270
428.221	19024
428.296	85762
428.370	149738
428.444	42003
428.519	13421
428.593	20588
428.667	35033
428.742	24640
428.816	35133
428.890	34030
428.965	132181
429.039	125394
429.113	40369
429.188	34899
429.262	10399
429.336	6368
429.410	22012
429.485	52078
429.559	22224
429.633	31129
429.707	16814
429.781	9925
429.855	33708
429.930	150641
430.004	150061
430.078	91742
430.152	139692
430.226	102669
430.300	208403
430.374	115252
430.448	18702
430.522	14330
430.596	62836
430.670	121332
430.744	61636
430.818	208899
430.892	173018
430.966	25756
431.040	10764
431.114	5592
431.188	4877
431.262	5030
431.336	5191
431.410	6902
431.484	20492
431.557	49534
431.631	18673
431.705	4841
431.779	7548
431.853	42577
431.927	133810
432.000	50425
432.074	7370
432.148	5690
432.222	8247
432.295	6139
432.369	4373
432.443	4692
432.516	13577
432.590	91351
432.664	142890
432.737	33743
432.811	7356
432.885	3999
432.958	2984
433.032	3358
433.106	3319
433.179	2712
433.253	2334
433.326	2930
433.400	2771
433.473	2621
433.547	3072
433.620	2190
433.694	5532
433.767	14683
433.841	8487
433.914	3774
433.988	3286
434.061	3182
434.134	3225
434.208	3387
434.281	2713
434.355	1695
434.428	3218
434.501	4438
434.575	3320
434.648	2953
434.721	3465
434.795	2651
434.868	2913
434.941	2204
435.014	1752
435.088	2490
435.161	4385
435.234	8762
435.307	14978
435.381	15044
435.454	7504
435.527	6455
435.600	8226
435.673	7400
435.746	6212
435.819	4946
435.892	4726
435.966	3769
436.039	2816
436.112	4586
436.185	3324
436.258	2966
436.331	1908
436.404	1802
436.477	1925
436.550	2494
436.623	1756
436.696	1778
436.769	2572
436.842	4807
436.915	3667
436.987	5050
437.060	8347
437.133	2678
437.206	2687
437.279	3593
437.352	2694
437.425	2345
437.498	3817
437.570	5588
437.643	15373
437.716	10663
437.789	3138
437.861	3051
437.934	14201
438.007	29655
438.080	7990
438.152	4585
438.225	5189
438.298	14658
438.370	106787
438.443	186606
438.516	57144
438.588	20511
438.661	5285
438.734	4030
438.806	4426
438.879	6049
438.951	5909
439.024	11143
439.096	13739
439.169	5697
439.241	3503
439.314	2601
439.386	3049
439.459	9203
439.531	11035
439.604	15784
439.676	4830
439.749	2941
439.821	2681
439.893	3577
439.966	2631
440.038	3446
440.110	6577
440.183	5999
440.255	3464
440.327	4809
440.400	7284
440.472	48069
440.544	146766
440.617	54348
440.689	10801
440.761	10833
440.833	17839
440.905	25439
440.978	10949
441.050	3397
441.122	2863
441.194	2404
441.266	3688
441.338	3509
441.411	3956
441.483	10756
441.555	69681
441.627	60330
441.699	10487
441.771	10143
441.843	8339
441.915	3153
441.987	2868
442.059	2614
442.131	3814
442.203	6837
442.275	8917
442.347	12340
442.419	8736
442.491	15045
442.563	77871
442.635	135467
442.706	42097
442.778	45336
442.850	23696
442.922	5565
442.994	4375
443.066	7781
443.137	12203
443.209	7567
443.281	6170
443.353	10993
443.425	24576
443.496	96925
443.568	271264
443.640	194858
443.711	57634
443.783	13766
443.855	8752
443.926	6325
443.998	4382
444.070	5695
444.141	6620
444.213	8024
444.285	14297
444.356	13574
444.428	11756
444.499	8799
444.571	3126
444.642	2470
444.714	3757
444.785	7103
444.857	12216
444.928	13947
445.000	26764
445.071	12318
445.143	21128
445.214	19793
445.285	13764
445.357	26393
445.428	66217
445.500	206714
445.571	338919
445.642	191898
445.714	89336
445.785	46359
445.856	37051
445.928	13755
445.999	17291
446.070	12027
446.141	9507
446.213	12551
446.284	12863
446.355	6782
446.426	7027
446.497	4963
446.569	5452
446.640	10055
446.711	17294
446.782	10040
446.853	4187
446.924	7520
446.995	7133
447.066	6431
447.138	6025
447.209	10452
447.280	4359
447.351	2575
447.422	1588
447.493	3048
447.564	6041
447.635	8781
447.706	12135
447.777	4037
447.847	2447
447.918	2296
447.989	3347
448.060	6157
448.131	8703
448.202	18921
448.273	15276
448.344	12165
448.414	3721
448.485	2949
448.556	3882
448.627	2299
448.698	2630
448.768	2836
448.839	1591
448.910	3981
448.981	11041
449.051	7634
449.122	3763
449.193	2460
449.263	1850
449.334	3199
449.405	3057
449.475	7742
449.546	17649
449.616	8949
449.687	11866
449.758	7303
449.828	2952
449.899	3015
449.969	2611
450.040	3286
450.110	2668
450.181	5125
450.251	4692
450.322	2817
450.392	2929
450.463	3322
450.533	3036
450.604	2198
450.674	2857
450.744	3026
450.815	2725
450.885	3615
450.955	2226
451.026	2579
451.096	2477
451.166	3639
451.237	4317
451.307	13565
451.377	24412
451.447	6416
451.518	2601
451.588	2067
451.658	2458
451.728	3391
451.799	7681
451.869	33586
451.939	22227
452.009	4585
452.079	2608
452.149	2452
452.219	3106
452.289	9975
452.360	34762
452.430	14703
452.500	3707
452.570	5659
452.640	6035
452.710	9736
452.780	28409
452.850	31309
452.920	27548
452.990	22722
453.060	5847
453.129	5656
453.199	9645
453.269	9305
453.339	71879
453.409	134505
453.479	70227
453.549	108045
453.619	137659
453.688	140500
453.758	33324
453.828	6938
453.898	4397
453.968	3642
454.037	3631
454.087	3631
454.107	3626
454.168	3252
454.177	3196
454.247	2776
454.249	2786
454.316	2825
454.330	2778
454.386	2494
454.411	3174
454.456	4012
454.492	11412
454.525	17978
454.574	18794
454.595	19287
454.655	6519
454.665	4441
454.734	3365
454.736	3451
454.804	5352
454.817	6266
454.873	9039
454.898	16190
454.943	29147
454.979	25744
455.013	22958
455.060	13157
455.082	8868
455.141	5666
455.152	4974
455.221	6114
455.222	6361
455.291	20283
455.303	21486
455.360	28064
455.384	20843
455.430	7539
455.465	7814
455.499	7703
455.546	9433
455.569	9799
455.627	21333
455.638	23781
455.707	10503
455.708	10464
455.777	3119
455.789	3084
455.846	2916
455.869	2804
455.916	2511
455.950	2731
455.985	3001
456.031	3371
456.054	3522
456.112	3603
456.124	3627
456.193	2357
456.193	2343
456.262	2195
456.274	2425
456.332	3434
456.355	3556
456.401	3528
456.436	4259
456.470	5069
456.516	3623
456.540	2888
456.597	2311
456.609	2185
456.678	2386
456.678	2380
456.747	1872
456.759	1839
456.817	1575
456.840	1684
456.886	1958
456.920	2128
456.955	2353
457.001	2163
457.024	2098
457.082	2671
457.093	2758
457.162	4259
457.163	4279
457.232	5851
457.243	5884
457.301	5787
457.324	4754
457.370	3259
457.405	3185
457.439	2972
457.485	2888
457.508	2926
457.566	3097
457.577	3181
457.646	3596
457.647	3622
457.715	5891
457.727	6408
457.784	9442
457.808	10526
457.853	11215
457.889	14871
457.922	16510
457.969	16331
457.991	18445
458.050	16227
458.060	15753
458.129	20073
458.130	20349
458.198	21923
458.211	22255
458.267	24703
458.292	18564
458.336	10728
458.372	8613
458.405	8332
458.453	10762
458.474	12908
458.533	20184
458.543	20620
458.611	28716
458.614	29503
458.680	34245
458.694	30126
458.749	22651
458.775	16527
458.818	7852
458.855	5906
458.887	4307
458.936	4000
458.955	3980
459.016	3481
459.024	3350
459.093	4153
459.097	4125
459.162	4483
459.177	4600
459.230	4755
459.257	5103
459.299	5091
459.338	5342
459.368	5729
459.418	5396
459.437	5097
459.499	5522
459.505	5611
459.574	4710
459.579	4645
459.643	3580
459.659	3579
459.711	4177
459.740	4318
459.780	4384
459.820	4814
459.849	5082
459.900	5039
459.917	4891
459.981	5163
459.986	5203
460.054	5209
460.061	5215
460.123	5684
460.141	5794
460.191	6585
460.222	7311
460.260	7970
460.302	8922
460.328	8324
460.382	8164
460.397	8626
460.462	6579
460.465	6560
460.534	7898
460.543	8168
460.602	15518
460.623	18041
460.671	26909
460.703	33962
460.739	28598
460.783	28811
460.808	28902
460.864	15880
460.876	15230
460.944	5286
460.945	5170
461.013	4829
461.024	4770
461.081	4533
461.104	4822
461.150	4799
461.184	4441
461.218	4338
461.264	4168
461.286	4250
461.345	4288
461.355	4198
461.423	4033
461.425	4026
461.491	4424
461.505	4511
461.559	7394
461.585	8648
461.628	12414
461.665	16266
461.696	18108
461.745	22650
461.764	19749
461.825	14432
461.832	15242
461.901	7216
461.905	7063
461.969	4306
461.985	4325
462.037	4944
462.065	4906
462.105	5222
462.145	5621
462.173	7188
462.225	10232
462.241	11129
462.305	15039
462.310	14611
462.378	10801
462.385	10073
462.446	9205
462.465	7683
462.514	5271
462.545	5479
462.582	5059
462.625	4465
462.650	4387
462.705	4169
462.718	4272
462.785	5087
462.786	5114
462.854	6442
462.865	6694
462.922	8479
462.945	9451
462.990	7687
463.025	6252
463.058	6432
463.104	5028
463.126	4510
463.184	4367
463.194	4411
463.262	4630
463.264	4645
463.330	4780
463.344	4870
463.398	5174
463.424	5036
463.466	4784
463.504	4857
463.533	4901
463.583	4895
463.601	5122
463.663	5690
463.669	5886
463.737	8117
463.743	8332
463.805	11797
463.823	12977
463.873	18629
463.903	21647
463.940	22096
463.982	23767
464.008	19529
464.062	11449
464.076	11771
464.142	7450
464.144	7347
464.211	5074
464.221	4996
464.279	5506
464.301	5680
464.347	6068
464.381	6494
464.414	6915
464.461	7403
464.482	7750
464.540	8688
464.550	8518
464.617	7735
464.620	7679
464.685	7992
464.699	8025
464.753	9421
464.779	10300
464.820	10838
464.859	11188
464.888	10890
464.938	10554
464.956	10463
465.018	9868
465.023	9787
465.091	8612
465.098	8462
465.158	8666
465.177	8778
465.226	8422
465.257	8160
465.293	8388
465.336	8692
465.361	9478
465.416	11182
465.428	11781
465.495	15020
465.496	15087
465.563	22730
465.575	23950
465.631	29008
465.654	31435
465.698	20339
465.734	11431
465.765	11388
465.813	9115
465.833	8562
465.893	8154
465.900	8123
465.968	8126
465.972	8124
466.035	8096
466.052	8058
466.102	8666
466.131	8979
466.170	8711
466.210	8499
466.237	8705
466.290	9011
466.304	9318
466.369	10636
466.372	10686
466.439	11739
466.449	11878
466.506	12383
466.528	12566
466.573	15552
466.607	17733
466.641	25031
466.687	35126
466.708	38696
466.766	48438
466.775	45084
466.842	19936
466.845	18711
466.909	15326
466.925	14397
466.977	13110
467.004	12668
467.044	12802
467.083	12945
467.111	14164
467.163	16406
467.178	16684
467.242	17725
467.245	17644
467.312	15429
467.321	15113
467.379	14323
467.400	14003
467.446	14602
467.480	15002
467.559	14420
467.638	11588
467.717	12504
467.796	13456
467.875	15256
467.955	15026
468.034	18779
468.113	38011
468.192	57193
468.271	16974
468.350	13099
468.429	14196
468.508	14829
468.588	12771
468.667	11525
468.746	12766
468.825	11636
468.904	10592
468.983	12392
469.062	18482
469.141	21242
469.220	10569
469.299	10380
469.378	11369
469.456	14464
469.535	12711
469.614	11610
469.693	12183
469.772	15161
469.851	20328
469.930	15683
470.009	12870
470.088	13060
470.166	15876
470.245	24097
470.324	29483
470.403	19359
470.482	14698
470.560	12479
470.639	13240
470.718	14458
470.797	11151
470.875	13044
470.954	17226
471.033	19238
471.111	9266
471.190	9965
471.269	8622
471.347	9305
471.426	10166
471.505	11618
471.583	12871
471.662	11098
471.740	9938
471.819	10070
471.898	9578
471.976	10007
472.055	9674
472.133	11497
472.212	14056
472.290	14160
472.369	10172
472.447	9440
472.526	9073
472.604	9442
472.683	10805
472.761	11771
472.839	11375
472.918	10451
472.996	9467
473.075	11115
473.153	10978
473.231	9802
473.310	11559
473.388	10426
473.466	10561
473.545	12545
473.623	16033
473.701	15581
473.780	10291
473.858	9979
473.936	10332
474.014	10150
474.093	11978
474.171	14692
474.249	19378
474.327	14068
474.405	9344
474.484	9698
474.562	9858
474.640	8646
474.718	9997
474.796	11248
474.874	9946
474.952	8599
475.030	9285
475.108	9722
475.187	11632
475.265	12354
475.343	16944
475.421	18228
475.499	9761
475.577	9602
475.655	12838
475.733	22511
475.811	37184
475.889	33418
475.966	24555
476.044	10162
476.122	13547
476.200	16112
476.278	13527
476.356	8868
476.434	10468
476.512	11590
476.590	15653
476.667	13020
476.745	8558
476.823	9282
476.901	8224
476.979	8981
477.056	9271
477.134	9470
477.212	10022
477.290	9114
477.367	8079
477.445	8088
477.523	8747
477.601	8074
477.678	8435
477.756	9454
477.834	10968
477.911	8651
477.989	8738
478.066	7677
478.144	10463
478.222	11803
478.299	17866
478.377	16958
478.454	8733
478.532	6947
478.609	8723
478.687	9353
478.764	8400
478.842	8536
478.919	9498
478.997	8845
479.074	8340
479.152	9486
479.229	11466
479.307	8383
479.384	6148
479.461	6937
479.539	7243
479.616	9226
479.694	8115
479.771	8123
479.848	8631
479.926	12453
480.003	13336
480.080	8145
480.157	6977
480.235	7715
480.312	7282
480.389	8764
480.467	13684
480.544	17393
480.621	9366
480.698	7741
480.775	9785
480.853	9786
480.930	8294
481.007	8035
481.084	9827
481.161	10883
481.238	9717
481.315	7132
481.392	7519
481.470	8120
481.547	8196
481.624	7344
481.701	7124
481.778	7578
481.855	9699
481.932	12891
482.009	20642
482.086	16079
482.163	9020
482.240	13647
482.317	23609
482.393	19367
482.470	8059
482.547	8010
482.624	8580
482.701	8544
482.778	8454
482.855	6319
482.932	7761
483.009	6935
483.085	8423
483.162	10461
483.239	9263
483.316	7769
483.393	7737
483.469	7844
483.546	8558
483.623	9813
483.699	7943
483.776	7200
483.853	9926
483.930	13785
484.006	30443
484.083	56319
484.160	31191
484.236	44511
484.313	35618
484.389	26069
484.466	23643
484.543	22189
484.619	22770
484.696	22843
484.772	23493
484.849	25908
484.925	21953
485.002	20660
485.078	21955
485.155	23355
485.231	19550
485.308	19710
485.384	20662
485.461	24174
485.537	35458
485.614	44186
485.690	20864
485.766	19701
485.843	21055
485.919	28748
485.995	31912
486.072	18444
486.148	17873
486.224	18921
486.301	18296
486.377	21538
486.453	22247
486.530	20818
486.606	25713
486.682	30493
486.758	32964
486.835	38914
486.911	31063
486.987	47005
487.063	56630
487.139	74664
487.215	52425
487.292	25356
487.368	20723
487.444	23109
487.520	27296
487.596	27492
487.672	38156
487.748	88151
487.824	143422
487.900	52841
487.976	24017
488.052	22987
488.128	27903
488.204	23052
488.280	19564
488.356	22202
488.432	39457
488.508	63515
488.584	26749
488.660	18495
488.736	18463
488.812	18999
488.888	24301
488.964	32754
489.039	67970
489.115	107668
489.191	68085
489.267	20029
489.343	18504
489.418	15269
489.494	15827
489.570	14929
489.646	16431
489.722	15017
489.797	16081
489.873	21267
489.949	43658
490.024	42257
490.100	14848
490.176	15347
490.251	19164
490.327	25574
490.403	17177
490.478	14380
490.554	12417
490.629	13921
490.705	13006
490.781	13639
490.856	13822
490.932	16743
491.007	16571
491.083	15466
491.158	14157
491.234	18529
491.309	33093
491.385	39476
491.460	14691
491.536	14342
491.611	13926
491.686	14648
491.762	21302
491.837	41977
491.913	77070
491.988	95764
492.063	140109
492.139	34580
492.214	21130
492.289	11926
492.365	11467
492.440	14418
492.515	13828
492.590	13937
492.666	11319
492.741	14502
492.816	21645
492.891	13328
492.967	10786
493.042	9917
493.117	10901
493.192	9377
493.267	11585
493.342	15153
493.418	16497
493.493	10905
493.568	9781
493.643	9752
493.718	13563
493.793	19638
493.868	25117
493.943	15999
494.018	11742
494.093	10426
494.168	9853
494.243	9342
494.318	9086
494.393	9440
494.468	9743
494.543	10681
494.618	11939
494.693	10824
494.768	10202
494.842	10609
494.917	9555
494.992	9378
495.067	9725
495.142	8598
495.217	10755
495.292	9361
495.366	10619
495.441	13649
495.516	17196
495.591	28238
495.665	88601
495.740	223377
495.815	104967
495.890	16628
495.964	12889
496.039	13065
496.114	13108
496.188	13965
496.263	14468
496.338	11843
496.412	14142
496.487	16018
496.561	17086
496.636	18660
496.710	13833
496.785	15379
496.860	18618
496.934	14424
497.009	14232
497.083	14658
497.158	16196
497.232	17281
497.307	20733
497.381	19381
497.455	21000
497.530	25769
497.604	19471
497.679	20270
497.753	29715
497.827	40128
497.902	39472
497.976	43121
498.050	84070
498.125	273842
498.199	340710
498.273	69006
498.348	53084
498.422	41861
498.496	37277
498.570	33953
498.645	22774
498.719	20640
498.793	22555
498.867	31619
498.941	47314
499.016	111129
499.090	312808
499.164	137938
499.238	16603
499.312	15116
499.386	19409
499.460	17929
499.534	15383
499.609	17916
499.683	26007
499.757	24704
499.831	51236
499.905	189450
499.979	225065
500.053	31913
500.127	32866
500.201	26517
500.275	15650
500.349	14725
500.422	16981
500.496	24939
500.570	56641
500.644	116524
500.718	226152
500.792	62088
500.866	13049
500.940	16254
501.013	14928
501.087	13894
501.161	26516
501.235	38237
501.309	64001
501.382	177089
501.456	194677
501.530	38537
501.603	60156
501.677	29263
501.751	11661
501.825	13924
501.898	25756
501.972	70953
502.046	57041
502.119	14559
502.193	32687
502.266	80321
502.340	48490
502.413	32873
502.487	72154
502.561	45034
502.634	15585
502.708	12209
502.781	12091
502.855	9891
502.928	7732
503.002	7571
503.075	8453
503.149	8360
503.222	8774
503.295	9330
503.369	10697
503.442	15898
503.516	49606
503.589	137712
503.662	104598
503.736	28397
503.809	59659
503.882	60942
503.956	70338
504.029	85176
504.102	58518
504.175	81106
504.249	31875
504.322	15591
504.395	13502
504.468	9020
504.542	9588
504.615	8360
504.688	6633
504.761	7374
504.834	10528
504.907	12671
504.980	23316
505.053	12950
505.127	15419
505.200	17181
505.273	14579
505.346	10099
505.419	8326
505.492	6672
505.565	6398
505.638	5723
505.711	6453
505.784	7124
505.857	6444
505.930	6405
506.003	6365
506.076	7107
506.149	8618
506.221	12602
506.294	11572
506.367	29830
506.440	96439
506.513	70188
506.586	12847
506.659	8898
506.731	7977
506.804	9433
506.877	16078
506.950	10068
507.022	6804
507.095	9449
507.168	12142
507.241	8029
507.313	6574
507.386	7300
507.459	11420
507.531	8658
507.604	6856
507.677	5849
507.749	6016
507.822	9573
507.894	19542
507.967	23068
508.040	13926
508.112	11698
508.185	11420
508.257	10421
508.330	15680
508.402	11564
508.475	9501
508.547	9971
508.620	10188
508.692	15195
508.765	11533
508.837	8367
508.909	7420
508.982	7992
509.054	9680
509.127	9504
509.199	7591
509.271	7781
509.344	7225
509.416	7061
509.488	8190
509.560	7464
509.633	9174
509.705	10858
509.777	9777
509.849	14411
509.922	11427
509.994	8014
510.066	7695
510.138	10317
510.210	16425
510.283	17996
510.355	13569
510.427	11559
510.499	11798
510.571	12041
510.643	12760
510.715	17344
510.787	19202
510.859	11213
510.931	13638
511.003	18262
511.076	17154
511.148	9977
511.219	10202
511.291	14062
511.363	19538
511.435	9583
511.507	8204
511.579	9067
511.651	9459
511.723	9086
511.795	9168
511.867	9683
511.939	11157
512.010	19270
512.082	19671
512.154	10204
512.226	11156
512.298	14058
512.369	23642
512.441	17773
512.513	17243
512.585	13782
512.656	12476
512.728	14773
512.800	12181
512.871	10110
512.943	11160
513.015	9897
513.086	10675
513.158	12239
513.230	12357
513.301	18004
513.373	22262
513.444	14012
513.516	10200
513.588	10288
513.659	11131
513.731	14977
513.802	14669
513.874	25001
513.945	51013
514.016	21109
514.088	9826
514.159	13264
514.231	15418
514.302	21772
514.374	15238
514.445	14930
514.516	24102
514.588	21936
514.659	14356
514.730	24119
514.802	21735
514.873	18711
514.944	17908
515.016	15233
515.087	17549
515.158	19638
515.229	27408
515.301	19567
515.372	24376
515.443	16996
515.514	13635
515.585	10424
515.656	12008
515.728	10889
515.799	11240
515.870	11590
515.941	11453
516.012	12966
516.083	16053
516.154	17836
516.225	22157
516.296	20487
516.367	17178
516.438	18877
516.509	27446
516.580	48462
516.651	141429
516.722	497208
516.793	290694
516.864	37808
516.935	32891
517.006	36086
517.077	61575
517.148	153316
517.219	490325
517.289	939282
517.360	230875
517.431	70790
517.502	21993
517.573	18234
517.643	18224
517.714	19961
517.785	19674
517.856	18574
517.926	22127
517.997	24130
518.068	32538
518.138	52036
518.209	103901
518.280	338378
518.350	1160767
518.421	622771
518.492	63892
518.562	29034
518.633	26812
518.703	25925
518.774	39026
518.845	83763
518.915	96342
518.986	34835
519.056	25200
519.127	42415
519.197	63727
519.268	118724
519.338	93659
519.408	23786
519.479	27307
519.549	24180
519.620	13969
519.690	11607
519.760	12402
519.831	12462
519.901	13156
519.971	9824
520.042	11711
520.112	13127
520.182	14642
520.253	18881
520.323	13023
520.393	16035
520.463	27186
520.534	19477
520.604	35048
520.674	18531
520.744	17177
520.814	38344
520.885	42851
520.955	38345
521.025	126450
521.095	72519
521.165	11444
521.235	11450
521.305	10759
521.375	9479
521.445	11314
521.515	15826
521.585	18128
521.655	19331
521.725	13183
521.795	14636
521.865	10655
521.935	12775
522.005	13474
522.075	8430
522.145	10006
522.215	11607
522.285	15963
522.355	19580
522.424	34945
522.494	36594
522.564	21401
522.634	36522
522.704	106584
522.774	57844
522.843	10847
522.913	10605
522.983	13281
523.053	12037
523.122	11982
523.192	17619
523.262	52976
523.331	71012
523.401	13983
523.471	7210
523.540	9783
523.610	7655
523.680	8266
523.749	9035
523.819	9080
523.888	11298
523.958	8181
524.027	7933
524.097	9452
524.166	8983
524.236	10847
524.305	10161
524.375	9250
524.444	8393
524.514	8342
524.583	10380
524.653	11866
524.722	11812
524.791	9600
524.861	8508
524.930	8469
524.999	9792
525.069	13652
525.138	10630
525.207	12603
525.277	9472
525.346	8560
525.415	8988
525.484	9385
525.554	10459
525.623	11353
525.692	10188
525.761	9827
525.830	9569
525.900	11340
525.969	17876
526.038	31888
526.107	56224
526.176	161956
526.245	164850
526.314	52451
526.383	81930
526.452	139046
526.522	176060
526.591	241833
526.660	71453
526.729	34860
526.797	36096
526.867	81919
526.935	291221
527.004	494928
527.073	336251
527.142	30972
527.211	12659
527.280	12777
527.349	14614
527.418	9223
527.487	8461
527.555	9116
527.624	7466
527.693	6733
527.762	7746
527.831	7284
527.899	7656
527.968	7647
528.037	7649
528.106	9500
528.174	18747
528.243	17401
528.312	19091
528.380	31043
528.449	10869
528.518	7507
528.586	6064
528.655	6100
528.723	6177
528.792	5817
528.861	7040
528.929	6189
528.998	6308
529.066	6151
529.135	5831
529.203	5973
529.272	6132
529.340	6961
529.409	6443
529.477	6742
529.545	8327
529.614	10039
529.682	10012
529.751	12545
529.819	11463
529.887	10211
529.956	6748
530.024	7283
530.092	7393
530.161	9392
530.229	14736
530.297	10612
530.365	6576
530.434	6515
530.502	5915
530.570	6350
530.638	5840
530.707	7072
530.775	8089
530.843	7099
530.911	6770
530.979	6499
531.047	6942
531.115	7163
531.183	6318
531.252	6669
531.320	6720
531.388	6816
531.456	6097
531.524	7011
531.592	6398
531.660	7089
531.728	6597
531.796	6102
531.864	6992
531.932	6974
532.000	7357
532.067	6795
532.135	8219
532.203	8390
532.271	10605
532.339	17038
532.407	45108
532.475	33961
532.542	12089
532.610	14066
532.678	24431
532.746	69376
532.814	215255
532.881	77487
532.949	10896
533.017	9348
533.084	7612
533.152	8309
533.220	8156
533.287	9867
533.355	7727
533.423	6940
533.490	6849
533.558	7258
533.625	8279
533.693	7722
533.761	8482
533.828	8194
533.896	9826
533.963	15715
534.031	22045
534.098	28803
534.166	18424
534.233	8348
534.300	7767
534.368	8271
534.435	7752
534.503	8198
534.570	9441
534.637	9906
534.705	9314
534.772	13274
534.840	22514
534.907	66709
534.974	123554
535.041	21456
535.109	11101
535.176	8846
535.243	8136
535.310	8314
535.378	8258
535.445	7062
535.512	7255
535.579	7852
535.646	7201
535.714	8192
535.781	9570
535.848	9400
535.915	8960
535.982	8296
536.049	9282
536.116	10147
536.183	9046
536.250	9188
536.317	9016
536.384	10692
536.451	14868
536.518	17993
536.585	12976
536.652	13981
536.719	19496
536.786	19676
536.853	13206
536.920	18453
536.987	32753
537.053	36609
537.120	93217
537.187	119842
537.254	14752
537.321	8604
537.388	10088
537.454	9069
537.521	7976
537.588	8570
537.654	9854
537.721	11615
537.788	11107
537.855	10737
537.921	10240
537.988	10396
538.055	9650
538.121	10080
538.188	11435
538.254	14799
538.321	31167
538.388	24740
538.454	10859
538.521	9188
538.587	9908
538.654	8402
538.720	9281
538.787	8286
538.853	8468
538.920	10848
538.986	12798
539.053	11159
539.119	10797
539.185	11268
539.252	11409
539.318	19642
539.385	15425
539.451	13306
539.517	13921
539.583	16573
539.650	28757
539.716	84178
539.782	36797
539.849	11612
539.915	10254
539.981	11004
540.047	13606
540.114	12688
540.180	11331
540.246	13071
540.312	15344
540.378	29596
540.444	37954
540.510	32756
540.576	92361
540.643	47271
540.709	11250
540.775	10912
540.841	10985
540.907	13442
540.973	21659
541.039	20815
541.105	21637
541.171	13432
541.237	10692
541.303	11144
541.369	13234
541.435	16090
541.500	27284
541.566	22859
541.632	10471
541.698	9912
541.764	9340
541.830	10140
541.896	9743
541.961	9941
542.027	10539
542.093	11294
542.159	11160
542.224	13068
542.290	17700
542.356	26635
542.421	36387
542.487	17469
542.553	11507
542.618	12512
542.684	11463
542.750	11234
542.815	15284
542.881	25247
542.947	71730
543.012	81764
543.078	12465
543.143	10245
543.209	11521
543.274	12608
543.340	15131
543.405	27400
543.471	58303
543.536	17944
543.602	10655
543.667	10270
543.732	9972
543.798	9864
543.863	10757
543.928	10278
543.994	9560
544.059	9634
544.124	10342
544.190	10014
544.255	10606
544.320	10873
544.386	11382
544.451	15287
544.516	21074
544.581	22278
544.646	42869
544.712	93476
544.777	26188
544.842	12862
544.907	13557
544.972	13398
545.037	11847
545.102	13076
545.168	13054
545.233	13532
545.298	14927
545.363	18373
545.428	21160
545.493	30204
545.558	68510
545.623	41553
545.688	14680
545.753	13998
545.818	13400
545.883	14212
545.947	14381
546.012	14597
546.077	14948
546.142	15437
546.207	16286
546.272	19068
546.337	21747
546.401	16873
546.466	16055
546.531	16292
546.596	16968
546.661	18042
546.725	16271
546.790	16226
546.855	15786
546.919	16626
546.984	19101
547.049	19848
547.113	22410
547.178	23495
547.243	23655
547.307	28027
547.372	31805
547.436	33916
547.501	29466
547.565	31791
547.630	33921
547.695	34111
547.759	33218
547.823	31562
547.888	28089
547.952	29444
548.017	31539
548.081	34042
548.146	38091
548.210	37661
548.274	32934
548.339	32262
548.403	30115
548.468	29003
548.532	28128
548.596	28153
548.660	29065
548.725	31054
548.789	36492
548.853	38420
548.917	32795
548.982	35385
549.046	37743
549.110	27540
549.174	26407
549.238	29142
549.303	32188
549.367	33025
549.431	31429
549.495	29754
549.559	30485
549.623	32849
549.687	39272
549.751	45612
549.815	44904
549.879	43858
549.943	40926
550.007	43237
550.071	44554
550.135	43707
550.199	42025
550.263	38108
550.327	36017
550.391	42250
550.455	40137
550.519	41126
550.582	44190
550.646	50672
550.710	58382
550.774	48531
550.838	47229
550.901	48891
550.965	52340
551.029	55255
551.093	60234
551.156	66972
551.220	86191
551.284	111209
551.347	76952
551.411	77018
551.475	94728
551.538	57268
551.602	49710
551.666	46721
551.729	44126
551.793	41722
551.856	42487
551.920	42074
551.983	41854
552.047	41664
552.110	41296
552.174	41866
552.237	43047
552.301	41006
552.364	38523
552.428	38607
552.491	38977
552.554	41087
552.618	41004
552.681	43868
552.745	46814
552.808	60440
552.871	81625
552.934	60955
552.998	44822
553.061	42300
553.124	39948
553.187	38811
553.251	39076
553.314	39515
553.377	39778
553.440	40096
553.503	43014
553.567	46787
553.630	42147
553.693	41305
553.756	41193
553.819	40247
553.882	39151
553.945	39473
554.008	39531
554.071	40390
554.134	40173
554.197	38167
554.260	36961
554.323	39106
554.386	39372
554.449	40406
554.512	40095
554.575	39078
554.638	37850
554.701	38886
554.764	38165
554.827	36075
554.889	35185
554.952	33992
555.015	32655
555.078	33524
555.141	34214
555.203	32903
555.266	32980
555.329	33807
555.391	33512
555.454	32626
555.517	32926
555.580	30411
555.642	28995
555.705	29350
555.768	28987
555.830	28988
555.893	27325
555.955	26051
556.018	26656
556.080	26940
556.143	26347
556.206	26528
556.268	27587
556.330	27990
556.393	27666
556.455	26854
556.518	29200
556.580	32015
556.643	25046
556.705	23136
556.767	23651
556.830	23651
556.892	24823
556.955	31780
557.017	31327
557.079	22881
557.142	23410
557.204	24662
557.266	36637
557.328	39371
557.391	21184
557.453	19990
557.515	19708
557.577	22117
557.639	25521
557.701	20026
557.764	18482
557.826	18552
557.888	20284
557.950	21692
558.012	24248
558.074	31127
558.136	48480
558.198	128270
558.260	78261
558.322	22800
558.384	21258
558.446	23353
558.508	25838
558.570	34780
558.632	51164
558.694	93134
558.756	107122
558.818	194950
558.880	581405
558.942	308374
559.003	128435
559.065	98995
559.127	29129
559.189	30734
559.251	39440
559.312	60653
559.374	105550
559.436	326238
559.498	290294
559.559	40919
559.621	31096
559.683	40129
559.744	63130
559.806	136615
559.868	310524
559.929	93667
559.991	36639
560.052	48147
560.114	113298
560.176	121403
560.237	61643
560.299	135535
560.360	52511
560.422	17947
560.483	15751
560.545	15570
560.606	14097
560.667	14869
560.729	14662
560.790	13845
560.852	13479
560.913	13952
560.974	12844
561.036	13316
561.097	14323
561.158	13634
561.220	14805
561.281	14230
561.342	14896
561.403	18220
561.465	21505
561.526	37249
561.587	64482
561.648	25814
561.709	13574
561.771	13765
561.832	14162
561.893	13018
561.954	13650
562.015	12815
562.076	13038
562.137	13367
562.198	13296
562.259	14359
562.320	13413
562.381	15206
562.442	19103
562.503	19139
562.564	13407
562.625	13508
562.686	12576
562.747	13496
562.808	13999
562.869	13682
562.930	15094
562.991	14982
563.051	14149
563.112	13088
563.173	13214
563.234	13033
563.294	13269
563.355	12020
563.416	13650
563.477	13404
563.537	13435
563.598	14454
563.659	14094
563.720	14083
563.780	13326
563.841	14579
563.901	13361
563.962	12850
564.023	12263
564.083	13230
564.144	13023
564.204	13865
564.265	14216
564.325	15798
564.386	20403
564.446	26149
564.507	13844
564.567	12817
564.628	13421
564.688	13367
564.749	12997
564.809	14578
564.869	15731
564.930	13927
564.990	12060
565.050	12653
565.111	13294
565.171	13386
565.231	12472
565.292	13081
565.352	11716
565.412	13696
565.472	13385
565.532	13407
565.593	12956
565.653	13718
565.713	13700
565.773	14326
565.833	15604
565.893	20741
565.953	15614
566.013	13438
566.074	14402
566.134	15850
566.194	21650
566.254	27085
566.314	19984
566.374	14953
566.434	13407
566.494	15313
566.554	13879
566.614	15450
566.673	15732
566.733	16377
566.793	16592
566.853	17168
566.913	16730
566.973	17704
567.033	17587
567.092	18559
567.152	17212
567.212	18518
567.272	18338
567.331	18931
567.391	19755
567.451	20079
567.511	21622
567.570	25282
567.630	18194
567.690	17830
567.749	17002
567.809	18064
567.868	20394
567.928	23294
567.988	25377
568.047	30011
568.107	35812
568.166	51233
568.226	74323
568.285	113791
568.345	102925
568.404	75202
568.464	59390
568.523	52580
568.582	54639
568.642	64704
568.701	82107
568.761	113878
568.820	181357
568.879	200868
568.939	143161
568.998	98303
569.057	70288
569.116	52881
569.176	42926
569.235	34919
569.294	30231
569.353	25720
569.413	23852
569.472	22709
569.531	20484
569.590	18756
569.649	17758
569.708	17712
569.767	16643
569.827	18252
569.886	17769
569.945	15947
570.004	15153
570.063	15424
570.122	15009
570.181	15800
570.240	15337
570.299	16431
570.358	16810
570.417	15151
570.475	12777
570.534	13816
570.593	14526
570.652	14045
570.711	15517
570.770	13701
570.829	14686
570.887	13473
570.946	15469
571.005	13355
571.064	12763
571.122	14237
571.181	14283
571.240	13297
571.299	11285
571.357	13020
571.416	12002
571.475	13368
571.533	15201
571.592	12225
571.650	12410
571.709	11997
571.768	12320
571.826	11851
571.885	11813
571.943	10721
572.002	10789
572.060	11288
572.119	11109
572.177	10131
572.236	10204
572.294	10094
572.352	10614
572.411	10615
572.469	10302
572.528	9591
572.586	11326
572.644	11214
572.703	14159
572.761	12606
572.819	10441
572.877	10090
572.936	9682
572.994	9359
573.052	9245
573.110	10524
573.169	10608
573.227	10034
573.285	9914
573.343	9548
573.401	9460
573.459	10459
573.517	10404
573.576	10424
573.634	9829
573.692	10524
573.750	10232
573.808	11180
573.866	9847
573.924	11331
573.982	12796
574.040	10877
574.098	10123
574.155	8804
574.213	9268
574.271	9619
574.329	10007
574.387	9785
574.445	9193
574.503	7930
574.560	8446
574.618	9203
574.676	8504
574.734	9264
574.792	9110
574.849	8903
574.907	8820
574.965	8675
575.022	8984
575.080	8140
575.138	8775
575.195	8800
575.253	8854
575.311	10099
575.368	8770
575.426	7775
575.483	8129
575.541	7805
575.598	8435
575.656	9312
575.713	8994
575.771	8442
575.828	8731
575.886	8755
575.943	8516
576.001	9209
576.058	9439
576.115	10288
576.173	9718
576.230	11954
576.287	12353
576.345	12293
576.402	9838
576.459	9291
576.517	8754
576.574	10575
576.631	11142
576.688	10212
576.746	9346
576.803	9184
576.860	9438
576.917	8986
576.974	9515
577.031	8602
577.089	8599
577.146	9036
577.203	8928
577.260	10063
577.317	10146
577.374	10119
577.431	11345
577.488	9530
577.545	9471
577.602	8560
577.659	8834
577.716	7699
577.773	8327
577.830	8206
577.886	8229
577.943	8711
578.000	8643
578.057	9223
578.114	9150
578.171	9701
578.227	7955
578.284	8845
578.341	8935
578.398	9876
578.454	9320
578.511	10993
578.568	10654
578.625	9514
578.681	9240
578.738	8171
578.794	8332
578.851	8982
578.908	9344
578.964	10687
579.021	10227
579.077	9885
579.134	9258
579.190	9163
579.247	8533
579.303	9199
579.360	9275
579.416	8975
579.473	8478
579.529	8318
579.586	8882
579.642	9162
579.698	8223
579.755	9329
579.811	9762
579.867	8971
579.924	9017
579.980	8190
580.036	9838
580.093	9065
580.149	8815
580.205	9136
580.261	9213
580.317	9824
580.374	10115
580.430	11163
580.486	10916
580.542	9990
580.598	10320
580.619	10204
580.654	9994
580.692	9806
580.710	9696
580.765	10101
580.767	10101
580.823	9954
580.838	9792
580.879	9318
580.911	9880
580.935	10265
580.984	10323
580.991	10324
581.047	9619
581.057	9741
581.103	10187
581.130	10142
581.159	10086
581.203	10964
581.215	11168
581.270	10553
581.276	10607
581.326	11008
581.349	10859
581.382	10616
581.422	10878
581.438	10979
581.494	11410
581.494	11433
581.550	11989
581.567	11933
581.606	11922
581.640	12053
581.661	12024
581.713	12539
581.717	12560
581.773	12107
581.786	12041
581.829	11879
581.859	12208
581.885	12515
581.932	13147
581.940	13212
581.996	12879
582.004	12847
582.052	12672
582.077	12929
582.107	13143
582.150	13648
582.163	13829
582.219	14236
582.223	14196
582.274	13291
582.296	13525
582.330	14052
582.368	14777
582.386	15040
582.441	15103
582.441	15090
582.497	13848
582.514	13989
582.552	14498
582.587	15161
582.608	15514
582.659	15100
582.663	15060
582.719	15810
582.732	15902
582.774	15990
582.805	16012
582.830	16144
582.877	16448
582.885	16467
582.941	16016
582.950	16210
582.996	17169
583.023	17047
583.052	16991
583.095	17819
583.107	18010
583.162	17738
583.168	17867
583.218	19060
583.240	18681
583.273	17996
583.313	17760
583.328	17711
583.384	18721
583.385	18734
583.439	19140
583.458	19102
583.494	18996
583.531	19319
583.549	19469
583.603	20242
583.605	20278
583.660	21142
583.676	20849
583.715	20193
583.748	20754
583.770	21074
583.820	21441
583.825	21506
583.881	22757
583.893	22858
583.936	23079
583.965	23166
583.991	23280
584.038	23352
584.046	23360
584.101	23992
584.110	23946
584.156	24214
584.183	24480
584.211	24644
584.255	25068
584.266	25179
584.321	24731
584.328	24769
584.376	25679
584.400	25767
584.431	25825
584.472	25917
584.486	26073
584.541	27605
584.545	27641
584.596	28309
584.617	28369
584.651	29000
584.689	29557
584.706	29864
584.761	31173
584.762	31139
584.816	31834
584.834	32078
584.871	32661
584.906	33020
584.926	33318
584.978	33987
584.980	34069
585.035	34767
585.051	34836
585.090	35784
585.123	37146
585.145	38248
585.195	39943
585.200	40165
585.254	42152
585.267	42587
585.309	44299
585.340	45618
585.364	47323
585.412	51133
585.419	51790
585.473	57616
585.484	58909
585.528	65338
585.556	70674
585.583	79217
585.628	94153
585.637	103114
585.692	169591
585.700	185846
585.747	347247
585.772	392657
585.801	357172
585.845	286674
585.856	248845
585.910	103743
585.917	86927
585.965	72038
585.989	64324
586.019	62307
586.061	59463
586.074	59635
586.128	60190
586.133	60136
586.183	61523
586.205	61610
586.237	63008
586.277	64517
586.292	64870
586.346	64970
586.349	64871
586.401	66271
586.421	66454
586.455	67806
586.493	69406
586.509	70928
586.564	75361
586.565	75331
586.618	93489
586.637	99232
586.672	111635
586.709	118141
586.727	109304
586.781	87643
586.781	87889
586.835	87504
586.853	87060
586.889	86190
586.925	85415
586.944	86272
586.996	87935
586.998	88296
587.052	92334
587.068	93076
587.106	95233
587.140	96961
587.161	98752
587.212	101802
587.215	102355
587.269	108083
587.284	109187
587.323	113300
587.356	116209
587.377	118613
587.427	123063
587.431	123841
587.485	129656
587.499	130771
587.539	136252
587.571	139977
587.593	143888
587.643	150764
587.648	152160
587.702	163460
587.715	165524
587.755	173505
587.786	178764
587.810	185192
587.858	197018
587.864	199138
587.917	213584
587.930	216355
587.971	232520
588.001	243045
588.025	253999
588.073	273937
588.079	277851
588.133	305044
588.145	310181
588.187	336161
588.217	353274
588.241	374672
588.288	412881
588.295	420370
588.348	473448
588.360	483750
588.402	541504
588.431	579258
588.456	622408
588.503	702420
588.510	719678
588.564	846491
588.575	871078
588.617	1014833
588.646	1111957
588.671	1232925
588.718	1458459
588.725	1508052
588.778	1869074
588.789	1938868
588.832	2241452
588.861	2436053
588.886	2469720
588.932	2469154
588.939	2413966
588.993	1861066
589.004	1760213
589.047	1824587
589.075	1864897
589.100	2146096
589.147	2593815
589.154	2588252
589.207	2474983
589.218	2447289
589.261	2215195
589.290	2052830
589.314	2007928
589.361	1910561
589.368	1932398
589.421	2071907
589.433	2097690
589.475	2336846
589.504	2488912
589.528	2476736
589.576	2373355
589.582	2336136
589.635	1959133
589.647	1872052
589.689	2247757
589.718	2472540
589.742	2359012
589.790	2113911
589.795	2070094
589.849	1591474
589.861	1475833
589.902	1259195
589.932	1090951
589.955	1017926
590.004	851233
590.009	842184
590.062	707744
590.075	671777
590.115	611457
590.146	560619
590.168	538363
590.218	481951
590.222	480666
590.275	437609
590.289	424465
590.328	401956
590.360	380751
590.381	371018
590.431	342470
590.435	342504
590.488	318291
590.503	310301
590.541	300380
590.574	289050
590.594	285024
590.645	270362
590.647	270986
590.700	256293
590.716	250743
590.753	243455
590.787	234638
590.806	232913
590.859	224433
590.859	225290
590.912	216689
590.930	212942
590.965	209946
591.001	204959
591.018	203764
591.071	197576
591.072	196634
591.124	193207
591.143	190811
591.177	188223
591.214	183623
591.230	183403
591.283	179891
591.285	178947
591.336	178000
591.356	176508
591.389	177476
591.427	176703
591.442	175582
591.495	168499
591.498	167210
591.547	163659
591.569	160964
591.600	160291
591.640	157689
591.653	157617
591.706	154202
591.711	153136
591.759	153602
591.782	152767
591.811	154730
591.853	155943
591.864	156753
591.917	157000
591.924	156315
591.969	151848
591.995	148196
592.022	147766
592.066	145210
592.075	145856
592.127	145689
592.137	145000
592.180	151445
592.208	154502
592.233	156035
592.279	156701
592.285	156085
592.338	144737
592.350	141480
592.390	139586
592.421	137010
592.443	137128
592.491	135355
592.495	135980
592.548	135775
592.562	135084
592.600	135338
592.633	134362
592.653	134416
592.704	132149
592.705	132908
592.775	132379
592.846	130142
592.916	132257
592.987	135375
593.058	135426
593.128	128361
593.199	122127
593.270	122378
593.341	121734
593.411	119978
593.482	122176
593.553	122617
593.623	119360
593.694	117473
593.764	121335
593.835	122657
593.906	117903
593.976	116016
594.047	116797
594.117	121676
594.188	129393
594.258	125675
594.329	114082
594.399	113477
594.470	113325
594.540	112834
594.611	113548
594.681	113720
594.751	114500
594.822	114872
594.892	117159
594.963	121301
595.033	120846
595.103	120399
595.174	122344
595.244	129685
595.314	157272
595.384	161807
595.455	121440
595.525	121627
595.595	123526
595.665	125077
595.736	124445
595.806	121914
595.876	122332
595.946	123748
596.016	121290
596.087	123002
596.157	124777
596.227	125019
596.297	125486
596.367	130732
596.437	136075
596.507	144027
596.577	162774
596.647	172938
596.717	139739
596.787	141187
596.857	142347
596.927	141777
596.997	141333
597.067	139779
597.137	141625
597.207	145423
597.277	144778
597.347	145278
597.417	140845
597.487	140241
597.557	141794
597.626	144436
597.696	146937
597.766	151689
597.836	162866
597.906	173193
597.975	136980
598.045	131173
598.115	134342
598.185	135107
598.254	143344
598.324	152453
598.394	161465
598.464	163446
598.533	159956
598.603	153580
598.672	145950
598.742	147644
598.812	146295
598.881	145035
598.951	147258
599.020	144237
599.090	145750
599.159	148309
599.229	150912
599.299	144657
599.368	142514
599.437	147608
599.507	141587
599.576	138275
599.646	136289
599.715	134121
599.785	132305
599.854	133523
599.924	135446
599.993	139224
600.062	132835
600.132	131581
600.201	131108
600.270	140686
600.340	157821
600.409	157795
600.478	152576
600.547	150394
600.617	153899
600.686	142447
600.755	126405
600.824	121959
600.894	120961
600.963	116158
601.032	112800
601.101	111547
601.170	110199
601.239	108104
601.308	108970
601.378	112572
601.447	108889
601.516	105743
601.585	108406
601.654	111263
601.723	118638
601.792	110835
601.861	112720
601.930	115419
601.999	121568
602.068	123473
602.137	119204
602.206	128593
602.275	124407
602.343	124460
602.412	133646
602.481	130021
602.550	119929
602.619	120226
602.688	122965
602.756	123386
602.825	123291
602.894	121713
602.963	124439
603.032	124573
603.100	125256
603.169	123488
603.238	125519
603.307	126721
603.375	124545
603.444	125479
603.513	128173
603.581	128677
603.650	131121
603.719	132541
603.787	126498
603.856	130712
603.924	131249
603.993	138462
604.061	138765
604.130	141288
604.198	145448
604.267	148127
604.335	148311
604.404	148404
604.472	151193
604.541	152054
604.609	153557
604.678	154837
604.746	154932
604.815	156035
604.883	161013
604.951	161922
605.020	159818
605.088	163358
605.156	164760
605.225	167936
605.293	165407
605.361	166949
605.429	167776
605.498	169636
605.566	174495
605.634	178937
605.702	184578
605.771	189612
605.839	192471
605.907	189990
605.975	185686
606.043	180935
606.111	178701
606.180	177008
606.248	177814
606.316	176604
606.384	175362
606.452	181130
606.520	190537
606.588	206255
606.656	184100
606.724	179174
606.792	175645
606.860	167079
606.928	152104
606.996	141155
607.064	136218
607.132	136429
607.200	139330
607.267	146239
607.335	148820
607.403	153712
607.471	153572
607.539	149786
607.607	147005
607.674	144332
607.742	133375
607.810	135925
607.878	139260
607.946	134854
608.013	137147
608.081	141535
608.149	145122
608.216	143691
608.284	149070
608.352	150621
608.419	152154
608.487	155230
608.555	165683
608.622	151225
608.690	146735
608.757	156871
608.825	169843
608.893	173038
608.960	172049
609.028	174254
609.095	174891
609.163	179138
609.230	156401
609.298	142874
609.365	133034
609.432	139681
609.500	148448
609.567	162127
609.635	181984
609.702	204838
609.769	208925
609.837	204133
609.904	169555
609.971	155136
610.039	164666
610.106	195893
610.173	278305
610.241	546196
610.308	1217186
610.375	960923
610.442	474020
610.509	215213
610.577	169809
610.644	158615
610.711	155487
610.778	158737
610.845	159194
610.912	163122
610.980	169854
611.047	175857
611.114	173939
611.181	171792
611.248	164888
611.315	165943
611.382	170065
611.449	176409
611.516	179355
611.583	182910
611.650	180385
611.717	184820
611.784	184727
611.851	191890
611.918	203966
611.984	228027
612.051	272530
612.118	404071
612.185	814562
612.252	1911348
612.319	997151
612.386	307025
612.452	244183
612.519	221427
612.586	214691
612.653	226560
612.719	212055
612.786	211952
612.853	201439
612.919	185917
612.986	184538
613.053	183577
613.120	174262
613.186	165239
613.253	161891
613.319	162931
613.386	162650
613.453	165580
613.519	171286
613.586	179385
613.652	195675
613.719	223108
613.785	201648
613.852	187619
613.918	169245
613.985	165454
614.051	167510
614.118	174811
614.184	177274
614.250	168897
614.317	165805
614.383	167880
614.449	166832
614.516	169050
614.582	166853
614.648	170793
614.715	165932
614.781	166317
614.847	162957
614.914	165269
614.980	166351
615.046	163223
615.112	161985
615.179	166286
615.245	169453
615.311	180012
615.377	202107
615.443	263680
615.509	269907
615.575	208078
615.642	189982
615.708	184295
615.774	193376
615.840	206046
615.906	226419
615.972	269243
616.038	378677
616.104	666943
616.170	1132872
616.236	2297062
616.302	1662636
616.368	461411
616.434	331984
616.500	247916
616.565	226560
616.631	247585
616.697	296654
616.763	246861
616.829	259747
616.895	382443
616.961	656291
617.026	599375
617.092	273612
617.158	197076
617.224	181262
617.289	175250
617.355	164948
617.421	160419
617.487	160609
617.552	156996
617.618	148999
617.684	147309
617.749	149119
617.815	147731
617.880	140866
617.946	139470
618.012	140231
618.077	145143
618.143	146142
618.208	140205
618.274	141186
618.339	152183
618.405	151646
618.470	132030
618.536	130169
618.601	135643
618.667	137083
618.732	127720
618.798	123602
618.863	120011
618.928	117657
618.994	118104
619.059	124312
619.124	135370
619.190	162301
619.255	129626
619.320	119667
619.386	118809
619.451	116320
619.516	117427
619.581	115780
619.647	116580
619.712	118565
619.777	117075
619.842	113183
619.907	117114
619.972	119948
620.038	121479
620.103	119533
620.168	114827
620.233	113723
620.298	115410
620.363	114215
620.428	114966
620.493	117269
620.558	120441
620.623	120075
620.688	121248
620.753	119699
620.818	118016
620.883	120740
620.948	122100
621.013	122323
621.078	121884
621.143	120346
621.207	126475
621.272	126099
621.337	127863
621.402	128227
621.467	128864
621.532	141885
621.596	141827
621.661	131954
621.726	122187
621.791	121008
621.855	122637
621.920	127805
621.985	130544
622.049	131933
622.114	136755
622.179	134686
622.243	128961
622.308	134152
622.373	134229
622.437	136563
622.502	135526
622.566	129362
622.631	128226
622.695	130963
622.760	130097
622.824	130506
622.889	129095
622.953	134376
623.018	141976
623.082	184848
623.147	170200
623.211	137879
623.276	134817
623.340	134736
623.404	125350
623.469	122988
623.533	122476
623.597	123326
623.662	121644
623.726	121653
623.790	116107
623.854	111760
623.919	112030
623.983	111517
624.047	114677
624.111	114087
624.176	114215
624.240	116392
624.304	124762
624.368	126541
624.432	116418
624.496	114445
624.560	119796
624.625	129197
624.689	136467
624.753	120162
624.817	123501
624.881	115983
624.945	115780
625.009	106516
625.073	107550
625.137	109587
625.201	121933
625.265	138006
625.329	132807
625.393	112450
625.456	120087
625.520	114055
625.584	118230
625.648	126925
625.712	139673
625.776	173264
625.839	290044
625.903	304173
625.967	147789
626.031	114113
626.095	149846
626.158	205626
626.222	117082
626.286	91938
626.349	87700
626.413	86679
626.477	84651
626.540	88449
626.604	84367
626.668	83108
626.731	81100
626.795	81217
626.858	83379
626.922	84772
626.986	82136
627.049	79862
627.113	81412
627.176	80742
627.240	78837
627.303	77260
627.366	78721
627.430	78173
627.493	80315
627.557	78383
627.620	79993
627.684	78022
627.747	80182
627.810	80305
627.874	76307
627.937	71899
628.000	70340
628.064	72295
628.127	73135
628.190	67560
628.253	66703
628.317	65902
628.380	65383
628.443	62831
628.506	63042
628.569	64182
628.632	60087
628.696	58282
628.759	58143
628.822	57924
628.885	57181
628.948	55894
629.011	57036
629.074	58125
629.137	56985
629.200	53484
629.263	56743
629.326	57613
629.389	54501
629.452	53594
629.515	54424
629.578	55116
629.641	54452
629.704	55911
629.767	56469
629.830	57340
629.892	52092
629.955	51913
630.018	52878
630.081	55510
630.144	61653
630.207	68415
630.269	59073
630.332	56521
630.395	57644
630.458	52306
630.520	50043
630.583	49746
630.646	47774
630.708	47422
630.771	49131
630.834	49661
630.896	49007
630.959	48211
631.021	48152
631.084	48553
631.146	50465
631.209	53762
631.272	56613
631.334	48968
631.397	47598
631.459	48946
631.522	49260
631.584	51843
631.646	52253
631.709	53046
631.771	56685
631.834	67733
631.896	55682
631.958	50502
632.021	47044
632.083	47789
632.145	48001
632.208	48121
632.270	48319
632.332	47828
632.395	44513
632.457	45068
632.519	45404
632.581	45882
632.643	43648
632.706	45267
632.768	44704
632.830	45127
632.892	43192
632.954	43259
633.016	45871
633.078	44864
633.141	43410
633.203	43526
633.265	44020
633.327	44453
633.389	43267
633.451	44591
633.513	49279
633.575	58277
633.637	53814
633.698	55397
633.760	52264
633.822	47395
633.884	45418
633.946	47081
634.008	46060
634.070	46515
634.132	46952
634.193	50219
634.255	52563
634.317	54467
634.379	54904
634.441	54572
634.502	52641
634.564	48917
634.626	46072
634.687	43027
634.749	43753
634.811	43543
634.873	41070
634.934	40414
634.996	40907
635.057	40336
635.119	41045
635.181	41637
635.242	42389
635.304	41309
635.365	42735
635.427	41261
635.488	42705
635.550	43011
635.611	41888
635.673	41345
635.734	42479
635.796	44093
635.857	45904
635.918	49507
635.980	49796
636.041	51668
636.102	52782
636.164	55345
636.225	54885
636.286	53133
636.348	50986
636.409	44816
636.470	43813
636.531	42076
636.593	41767
636.654	44836
636.715	41956
636.776	36938
636.838	36804
636.899	36456
636.960	37861
637.021	36624
637.082	35096
637.143	35529
637.204	35949
637.265	34534
637.326	35197
637.387	34848
637.448	34133
637.509	34595
637.570	33943
637.631	34835
637.692	33705
637.753	32411
637.814	33806
637.875	32480
637.936	33209
637.997	33763
638.058	34026
638.119	34383
638.179	33842
638.240	33138
638.301	32347
638.362	31550
638.423	32562
638.483	31806
638.544	31153
638.605	31576
638.666	31666
638.726	31545
638.787	32231
638.848	30234
638.908	30715
638.969	31334
639.030	30142
639.090	30564
639.151	29935
639.211	31645
639.272	34112
639.332	41385
639.393	62418
639.453	40076
639.514	33233
639.574	32558
639.635	29984
639.695	29262
639.756	29628
639.816	30833
639.877	32445
639.937	37012
639.997	53242
640.058	69862
640.118	35885
640.178	29438
640.239	29090
640.299	27565
640.359	27812
640.420	27553
640.480	29101
640.540	30553
640.600	32604
640.661	32894
640.721	32563
640.781	34160
640.841	38170
640.901	34366
640.961	29914
641.021	28763
641.082	31732
641.142	36823
641.202	47397
641.262	34132
641.322	27675
641.382	27129
641.442	26141
641.502	26990
641.562	25920
641.622	27300
641.682	27946
641.742	28297
641.802	31210
641.861	29239
641.921	29343
641.981	29385
642.041	31554
642.101	32544
642.161	39494
642.221	30299
642.280	25554
642.340	25301
642.400	24724
642.460	26975
642.519	25594
642.579	25740
642.639	26708
642.698	25990
642.758	26523
642.818	25941
642.877	26933
642.937	28587
642.997	29136
643.056	32809
643.116	44896
643.175	32919
643.235	27452
643.294	26413
643.354	28089
643.414	29617
643.473	31999
643.532	35545
643.592	42090
643.651	54651
643.711	79927
643.770	130447
643.830	242607
643.889	535608
643.948	1193323
644.008	346008
644.067	68387
644.126	45213
644.186	37827
644.245	32300
644.304	29459
644.363	27602
644.423	27493
644.482	26351
644.541	26649
644.600	26627
644.659	29046
644.719	32267
644.778	38144
644.837	53286
644.896	78871
644.955	145016
645.014	350932
645.073	136663
645.132	37298
645.191	31355
645.250	29512
645.309	27805
645.368	28841
645.427	29508
645.486	34943
645.545	47905
645.604	80088
645.663	35323
645.722	26303
645.781	26274
645.840	27957
645.898	30358
645.957	37061
646.016	50146
646.075	73159
646.134	123320
646.192	225616
646.251	542520
646.310	913256
646.369	169256
646.427	50230
646.486	40083
646.545	33639
646.603	27675
646.662	24796
646.721	25036
646.779	24760
646.838	24110
646.896	26208
646.955	29892
647.014	36536
647.072	51584
647.131	81320
647.189	220721
647.248	131819
647.306	29113
647.365	22885
647.423	22297
647.481	22322
647.540	20197
647.598	21504
647.657	20748
647.715	20136
647.773	19839
647.832	19651
647.890	19497
647.948	19495
648.007	19233
648.065	19301
648.123	19348
648.181	20634
648.240	20038
648.298	19280
648.356	18806
648.414	18542
648.472	19867
648.531	19391
648.589	18759
648.647	19334
648.705	18772
648.763	18973
648.821	19462
648.879	19797
648.937	19768
648.995	22143
649.053	25243
649.111	29795
649.169	40259
649.227	63590
649.285	101398
649.343	188242
649.401	543161
649.459	334391
649.516	91497
649.574	60626
649.632	29920
649.690	28394
649.748	29725
649.806	32371
649.863	40525
649.921	59921
649.979	146333
650.037	126396
650.094	26384
650.152	19941
650.210	18745
650.268	19267
650.325	17544
650.383	19237
650.440	18522
650.498	17513
650.556	16527
650.613	15941
650.671	15883
650.728	16073
650.786	16913
650.843	18343
650.901	18997
650.958	18247
651.016	14843
651.073	15573
651.131	15335
651.188	15364
651.246	15766
651.303	16571
651.360	15495
651.418	15218
651.475	15087
651.532	15613
651.590	15017
651.647	14534
651.704	14615
651.762	16085
651.819	15540
651.876	15719
651.933	14612
651.990	15020
652.048	14450
652.105	13858
652.162	14960
652.219	14994
652.276	14718
652.333	14292
652.390	13840
652.448	14267
652.505	13359
652.562	14482
652.619	14257
652.676	13714
652.733	14812
652.790	13838
652.847	13071
652.904	14345
652.961	13058
653.017	13464
653.074	14288
653.131	14184
653.188	14135
653.245	13876
653.302	12549
653.359	14010
653.415	13394
653.472	13632
653.529	12730
653.586	13442
653.642	13140
653.699	14205
653.756	11957
653.813	13130
653.869	12876
653.926	13579
653.983	12994
654.039	13355
654.096	12845
654.152	13341
654.209	13420
654.266	14521
654.322	13411
654.379	13814
654.435	14805
654.492	15612
654.548	16961
654.605	20417
654.661	32474
654.717	19261
654.774	14294
654.830	14658
654.887	15076
654.943	13493
655.000	13853
655.056	14150
655.112	14065
655.168	14294
655.225	14564
655.281	14965
655.337	14330
655.394	17583
655.450	25991
655.506	21674
655.562	18796
655.618	25636
655.675	23276
655.731	13949
655.787	13093
655.843	12750
655.899	13194
655.955	13212
656.011	12337
656.067	13108
656.123	13051
656.179	13455
656.235	13721
656.291	14330
656.347	13452
656.403	14631
656.459	14738
656.515	14034
656.571	14224
656.627	16135
656.683	14824
656.739	14608
656.795	14077
656.850	13683
656.906	13748
656.962	16293
657.018	15473
657.074	12748
657.129	14169
657.185	16145
657.241	17673
657.297	26052
657.352	23173
657.408	13438
657.464	13639
657.519	14159
657.575	15077
657.630	12684
657.686	12876
657.742	11832
657.797	12913
657.853	12857
657.908	12672
657.964	13684
658.019	12332
658.075	12527
658.130	12498
658.186	12612
658.241	12362
658.297	12920
658.352	12456
658.407	12990
658.463	12341
658.518	12365
658.573	12366
658.629	12549
658.684	11455
658.739	11286
658.795	11609
658.850	11811
658.905	12319
658.960	12199
659.016	11877
659.071	12357
659.126	13458
659.181	13309
659.236	15809
659.291	19725
659.346	24116
659.401	15552
659.457	13985
659.512	12128
659.567	13020
659.622	12360
659.677	12125
659.732	12867
659.787	13034
659.842	12826
659.897	13432
659.952	16814
660.007	12942
660.061	11822
660.116	11671
660.171	12966
660.226	11698
660.281	12464
660.336	12209
660.391	11574
660.445	11616
660.500	11993
660.555	12247
660.610	11895
660.664	12312
660.719	11620
660.774	11620
660.828	11453
660.883	12033
660.938	12331
660.992	12340
661.047	12755
661.101	11463
661.156	12138
661.211	11724
661.265	11898
661.320	12227
661.374	12174
661.429	11600
661.483	12025
661.538	11517
661.592	11892
661.647	12174
661.701	12088
661.755	11813
661.810	11713
661.864	12371
661.919	11469
661.973	11833
662.027	11817
662.081	11697
662.136	11125
662.190	11405
662.244	12518
662.299	12572
662.353	11784
662.407	11689
662.461	11715
662.515	12311
662.569	13536
662.624	12114
662.678	12288
662.732	12471
662.786	11422
662.840	12313
662.894	12555
662.948	11555
663.002	11075
663.056	10863
663.110	10746
663.164	11454
663.218	11388
663.272	10558
663.326	11808
663.380	12458
663.434	12443
663.488	12153
663.542	12505
663.595	11647
663.649	11997
663.703	12661
663.757	11671
663.811	11425
663.864	12179
663.918	11641
663.972	11500
664.026	11427
664.079	11990
664.133	11987
664.187	12218
664.240	10406
664.294	11219
664.348	10407
664.401	12401
664.455	11526
664.508	11720
664.562	11626
664.615	12041
664.669	10887
664.722	11573
664.776	10210
664.829	10782
664.883	11444
664.936	11182
664.990	11604
665.043	11464
665.097	12302
665.150	13141
665.203	13034
665.257	13283
665.310	12811
665.363	12659
665.417	12862
665.470	12658
665.523	12247
665.576	12525
665.630	12365
665.683	12457
665.736	12677
665.789	12765
665.842	12165
665.895	12199
665.949	12549
666.002	11709
666.055	11521
666.108	12508
666.161	11722
666.214	12490
666.267	12516
666.320	13851
666.373	14464
666.426	13877
666.479	12366
666.532	11921
666.585	13121
666.638	14623
666.691	15988
666.744	15051
666.796	14383
666.849	14930
666.902	14316
666.955	13650
667.008	12850
667.060	11706
667.113	11350
667.166	12316
667.219	10676
667.271	11639
667.324	11917
667.377	11157
667.430	10798
667.482	11591
667.535	12146
667.587	11765
667.640	12959
667.693	13859
667.745	15686
667.798	20855
667.850	25837
667.903	14820
667.955	12700
668.008	12794
668.060	12203
668.113	13081
668.165	13514
668.218	13564
668.270	13192
668.322	12832
668.375	13006
668.427	12261
668.479	13239
668.532	12373
668.584	12207
668.636	13324
668.689	12331
668.741	12079
668.793	12498
668.845	13665
668.898	12217
668.950	11998
669.002	12812
669.054	11986
669.106	13055
669.158	13765
669.211	13569
669.263	11867
669.315	12884
669.367	13307
669.419	13507
669.471	14244
669.523	14438
669.575	15615
669.627	17501
669.679	18883
669.731	14616
669.783	14737
669.835	13982
669.886	15494
669.938	16180
669.990	15486
670.042	14716
670.094	16004
670.146	16143
670.197	18759
670.249	19555
670.301	22227
670.353	27013
670.404	33896
670.456	45199
670.508	62720
670.560	92346
670.611	140790
670.663	223237
670.715	357690
670.766	659693
670.818	1023387
670.869	726751
670.921	212220
670.972	88543
671.024	56052
671.075	41091
671.127	32080
671.178	27246
671.230	24068
671.281	22169
671.333	21407
671.384	18523
671.436	19692
671.487	20820
671.538	20955
671.590	23508
671.641	28495
671.692	36634
671.744	51259
671.795	89795
671.846	92152
671.897	41697
671.949	24408
672.000	20417
672.051	17119
672.102	15990
672.153	14767
672.204	14351
672.256	13595
672.307	13488
672.358	14033
672.409	13383
672.460	13317
672.511	12183
672.562	12063
672.613	12749
672.664	12474
672.715	11666
672.766	12129
672.817	12523
672.868	11859
672.919	11484
672.970	11778
673.021	11906
673.071	11597
673.122	11775
673.173	11372
673.224	10950
673.275	11298
673.326	11516
673.376	10699
673.427	11085
673.478	11264
673.528	11442
673.579	11209
673.630	11234
673.680	10904
673.731	10326
673.782	10779
673.832	9871
673.883	11638
673.934	12001
673.984	10567
674.035	11053
674.085	10967
674.136	11229
674.186	11757
674.237	11627
674.287	12952
674.338	17043
674.388	15107
674.438	11180
674.489	11385
674.539	11161
674.589	11780
674.640	11777
674.690	12070
674.740	10814
674.791	12638
674.841	12113
674.891	11759
674.942	10449
674.992	10344
675.042	10362
675.092	10086
675.142	9561
675.193	10308
675.243	10296
675.293	10662
675.343	10502
675.393	11599
675.443	11444
675.493	10948
675.543	9590
675.593	9764
675.643	10864
675.693	10594
675.743	10378
675.793	10971
675.843	9704
675.893	10493
675.943	10573
675.993	9591
676.043	8827
676.093	10265
676.142	9407
676.192	9735
676.242	9923
676.292	9722
676.341	8932
676.391	9463
676.441	10862
676.491	9767
676.540	9452
676.590	8946
676.640	9069
676.689	9906
676.739	9210
676.789	9668
676.838	9014
676.888	8875
676.937	8702
676.987	8903
677.037	8926
677.086	8393
677.136	8122
677.185	8358
677.235	8842
677.284	8086
677.333	8938
677.383	8851
677.432	8205
677.482	7878
677.531	7694
677.580	9199
677.630	8173
677.679	8260
677.728	8060
677.778	8116
677.827	8548
677.876	8417
677.925	8558
677.975	7649
678.024	7752
678.073	8809
678.122	8515
678.171	9527
678.220	9633
678.269	9906
678.319	9989
678.368	10852
678.417	9318
678.466	9395
678.515	9085
678.564	9154
678.613	9887
678.662	9586
678.711	8417
678.760	9564
678.809	8915
678.857	8749
678.906	8714
678.955	9335
679.004	8974
679.053	8563
679.102	8645
679.151	9537
679.199	9058
679.248	8729
679.297	9000
679.346	8061
679.394	9392
679.443	9299
679.492	8312
679.540	8304
679.589	8939
679.638	9590
679.686	8344
679.735	8397
679.784	8411
679.832	8707
679.881	9129
679.929	8910
679.978	7856
680.026	7606
680.075	8297
680.123	7759
680.172	8532
680.220	8043
680.268	7113
680.317	7238
680.365	7765
680.414	8311
680.462	8077
680.510	7779
680.559	8097
680.607	7668
680.655	7550
680.703	8102
680.752	7466
680.800	7726
680.848	7013
680.896	6743
680.945	7258
680.993	7307
681.041	7383
681.089	8183
681.137	8281
681.185	6643
681.233	7610
681.258	7520
681.281	7417
681.329	7094
681.377	7866
681.380	7833
681.425	6892
681.473	7656
681.502	8025
681.521	8250
681.569	7987
681.617	7916
681.624	7868
681.665	7411
681.713	7854
681.745	7684
681.761	7570
681.809	7049
681.857	7907
681.867	7834
681.904	7505
681.952	7974
681.989	7778
682.000	7692
682.048	7021
682.096	8075
682.111	7895
682.143	7483
682.191	8236
682.233	8127
682.239	8080
682.286	7964
682.334	8367
682.354	8193
682.382	7944
682.430	7417
682.476	8513
682.477	8516
682.525	8509
682.572	6779
682.598	7561
682.620	8226
682.667	8202
682.715	8156
682.720	8286
682.763	9250
682.810	8642
682.841	8606
682.857	8596
682.905	8487
682.952	8205
682.963	8122
683.000	7676
683.047	7730
683.085	8226
683.095	8352
683.142	8661
683.190	8250
683.206	8349
683.237	8464
683.284	8888
683.328	8726
683.332	8697
683.379	8420
683.426	9221
683.449	8856
683.473	8404
683.521	8131
683.568	7982
683.571	7976
683.615	7886
683.662	8759
683.693	8364
683.709	8093
683.757	9163
683.804	8747
683.814	8673
683.851	8319
683.898	9492
683.936	9170
683.945	9099
683.992	8675
684.039	9243
684.057	9071
684.086	8695
684.133	9733
684.179	9788
684.180	9778
684.227	9279
684.274	10434
684.300	10035
684.321	9680
684.368	9148
684.415	9132
684.422	9150
684.462	9190
684.509	9506
684.543	8949
684.556	8699
684.603	9169
684.649	9157
684.665	9067
684.696	8972
684.743	8952
684.786	9292
684.790	9305
684.837	9806
684.883	9964
684.908	9953
684.930	9922
684.977	9709
685.023	9447
685.029	9547
685.070	10380
685.117	10096
685.150	10158
685.164	10085
685.210	10397
685.257	10630
685.272	10592
685.303	10631
685.350	10930
685.393	10739
685.396	10701
685.443	10278
685.490	10808
685.514	10844
685.536	10989
685.583	11914
685.629	10774
685.636	10799
685.675	10708
685.722	11248
685.757	10742
685.768	10536
685.815	10787
685.861	10501
685.878	10719
685.908	11320
685.954	10868
686.000	11141
686.000	11134
686.047	11505
686.093	11015
686.121	11363
686.139	11716
686.185	12595
686.232	11971
686.242	11926
686.278	11658
686.324	12194
686.363	12086
686.370	12017
686.416	11522
686.463	11418
686.484	11428
686.509	11529
686.555	11158
686.601	11446
686.606	11392
686.647	10780
686.693	10820
686.727	10662
686.739	10643
686.785	10527
686.831	10722
686.848	10824
686.877	10921
686.923	11140
686.969	10847
686.969	10845
687.015	10991
687.061	10516
687.090	11001
687.107	11264
687.153	11602
687.199	10924
687.211	11017
687.245	11188
687.291	10959
687.332	10601
687.336	10567
687.382	11394
687.428	11359
687.453	11409
687.474	11547
687.520	11183
687.565	11498
687.574	11476
687.611	11164
687.657	11135
687.695	11281
687.702	11346
687.748	11060
687.794	11550
687.816	11988
687.839	12463
687.885	12174
687.931	11461
687.937	11523
687.976	11623
688.022	11689
688.058	11585
688.067	11590
688.113	11831
688.158	11837
688.179	11844
688.204	11917
688.249	11652
688.295	11700
688.300	11751
688.340	11861
688.386	11951
688.421	11541
688.431	11554
688.477	11742
688.522	12081
688.542	12185
688.567	12127
688.613	12235
688.658	12026
688.663	12051
688.703	12425
688.749	12208
688.784	12173
688.794	12136
688.839	12359
688.884	12328
688.905	12013
688.930	11671
688.975	12185
689.020	11187
689.026	11293
689.065	11995
689.110	11467
689.146	11485
689.155	11585
689.201	12383
689.246	12295
689.267	12440
689.291	12334
689.336	11875
689.381	12144
689.388	12063
689.426	11938
689.471	11937
689.509	12199
689.516	12278
689.561	12174
689.606	11992
689.630	12148
689.651	12108
689.696	11892
689.741	12493
689.750	12338
689.785	12076
689.830	12304
689.871	12359
689.875	12372
689.920	12066
689.965	11990
689.992	12237
690.010	12293
690.054	11597
690.099	11843
690.112	11803
690.144	11957
690.189	11444
690.233	11691
690.233	11705
690.278	12017
690.323	12447
690.354	12512
690.367	12456
690.412	12567
690.457	12828
690.474	12664
690.501	12384
690.546	12448
690.590	12033
690.595	11991
690.635	11790
690.680	11627
690.716	11703
690.724	11750
690.769	11294
690.813	11219
690.836	11367
690.857	11718
690.902	12012
690.946	12286
690.957	12342
690.991	12283
691.035	12527
691.077	12732
691.080	12774
691.124	12837
691.168	13320
691.198	13226
691.213	13237
691.257	13993
691.301	14036
691.318	14315
691.346	14418
691.390	13994
691.434	13513
691.439	13440
691.478	12888
691.522	12859
691.559	12236
691.567	12238
691.611	12761
691.655	12982
691.680	13227
691.699	13381
691.743	13314
691.787	13236
691.800	13287
691.831	13374
691.875	13359
691.919	13211
691.921	13200
691.964	13640
692.008	13672
692.041	13972
692.052	14076
692.096	14034
692.139	14142
692.162	14232
692.183	14231
692.227	13933
692.271	13842
692.282	13852
692.315	14076
692.359	13862
692.402	13880
692.403	13900
692.447	13920
692.490	13710
692.523	13873
692.534	13940
692.578	13589
692.622	13402
692.643	13452
692.666	13698
692.709	13903
692.753	13724
692.763	13757
692.797	13794
692.840	13712
692.884	13775
692.884	13797
692.928	13452
692.971	13632
693.004	13502
693.015	13513
693.059	13745
693.102	13906
693.124	13752
693.146	13627
693.189	13756
693.233	13791
693.245	13775
693.276	13919
693.320	14014
693.363	14321
693.365	14305
693.407	14341
693.450	14155
693.485	14088
693.493	14114
693.537	14182
693.580	13999
693.605	14116
693.624	14295
693.667	14195
693.710	14449
693.725	14407
693.753	14224
693.797	14235
693.840	14316
693.845	14295
693.883	14991
693.926	15744
693.966	15949
693.970	15978
694.013	16262
694.056	16575
694.086	16746
694.099	16463
694.142	15567
694.185	14678
694.206	14197
694.229	14239
694.272	14390
694.315	14372
694.326	14349
694.358	14535
694.401	14787
694.444	15075
694.446	15063
694.487	15270
694.530	15669
694.566	15391
694.573	15376
694.616	15384
694.659	15749
694.686	15807
694.702	15650
694.745	14823
694.787	14441
694.806	14175
694.830	14068
694.873	13890
694.916	13694
694.926	13636
694.959	13851
695.002	13838
695.044	13966
695.046	13945
695.087	13901
695.130	13948
695.166	13791
695.172	13868
695.215	14298
695.258	14731
695.286	14937
695.301	14921
695.343	14685
695.386	14788
695.406	14686
695.428	14546
695.471	14206
695.514	14041
695.526	13936
695.556	14069
695.599	14210
695.641	14332
695.646	14339
695.684	14859
695.726	15051
695.766	15458
695.769	15480
695.811	15154
695.854	15001
695.886	14712
695.896	14700
695.938	14704
695.981	14549
696.005	14470
696.023	14573
696.065	14732
696.108	15047
696.125	15002
696.150	14855
696.192	14916
696.235	14782
696.245	14714
696.277	15057
696.319	15557
696.361	16110
696.365	16108
696.404	15690
696.446	15302
696.485	14919
696.488	14953
696.530	15002
696.572	14910
696.604	14879
696.614	14949
696.656	15120
696.698	15379
696.724	15395
696.740	15521
696.783	15773
696.825	16222
696.844	16271
696.867	15986
696.909	15578
696.951	15207
696.964	15000
696.992	15046
697.034	15183
697.076	15196
697.083	15188
697.118	15391
697.160	15536
697.202	15653
697.203	15620
697.244	15619
697.286	15757
697.323	15623
697.327	15668
697.369	15828
697.411	15975
697.442	16077
697.453	16056
697.494	15809
697.536	15628
697.562	15403
697.578	15560
697.620	15952
697.661	16339
697.682	16476
697.703	16407
697.744	16215
697.786	16026
697.801	15939
697.828	16186
697.869	16422
697.911	16727
697.921	16765
697.952	17039
697.994	17280
698.035	17567
698.040	17560
698.077	17277
698.118	16880
698.160	16536
698.160	16495
698.201	16492
698.243	16495
698.279	16428
698.284	16446
698.325	16286
698.367	16111
698.399	15946
698.408	16016
698.449	16120
698.491	16287
698.518	16347
698.532	16387
698.573	16384
698.614	16386
698.638	16349
698.656	16408
698.697	16477
698.738	16517
698.757	16502
698.779	16504
698.820	16438
698.862	16360
698.877	16296
698.903	16603
698.944	17034
698.985	17462
698.996	17541
699.026	17629
699.067	17694
699.116	17732
699.235	16549
699.354	16726
699.474	16137
699.593	16284
699.713	16407
699.832	18181
699.951	16343
700.070	17353
700.190	16860
700.309	17612
700.428	15593
700.547	16843
700.667	16721
700.786	16146
700.905	16508
701.024	15460
701.143	15132
701.262	16298
701.381	14747
701.500	15727
701.619	16134
701.738	16623
701.857	15874
701.976	14737
702.095	14537
702.214	14057
702.333	15341
702.452	17016
702.571	16125
702.690	14670
702.809	14473
702.928	15705
703.047	14678
703.165	14335
703.284	14423
703.403	14865
703.522	14863
703.640	15407
703.759	14870
703.878	15966
703.997	18901
704.115	15669
704.234	13936
704.353	14744
704.471	14027
704.590	14157
704.708	13274
704.827	14241
704.946	14104
705.064	13481
705.183	14784
705.301	13569
705.420	15275
705.538	20598
705.656	20508
705.775	17746
705.893	15560
706.012	16335
706.130	17548
706.249	18246
706.367	17179
706.485	17211
706.604	17936
706.722	17933
706.840	17970
706.958	19605
707.077	19444
707.195	18753
707.313	16798
707.431	15878
707.549	16047
707.668	16667
707.786	16121
707.904	16491
708.022	15598
708.140	15804
708.258	16161
708.376	15083
708.494	15974
708.612	15485
708.730	15784
708.848	20224
708.966	22428
709.084	21523
709.202	20086
709.320	18562
709.438	18481
709.556	18295
709.674	18027
709.791	18847
709.909	18379
710.027	18622
710.145	18170
710.263	17733
710.380	17747
710.498	17882
710.616	17389
710.733	18197
710.851	17122
710.969	17407
711.086	18176
711.204	17718
711.322	17505
711.439	16526
711.557	16733
711.674	18015
711.792	16008
711.909	16852
712.027	15580
712.144	15981
712.262	16023
712.379	15984
712.497	17766
712.614	21099
712.732	24611
712.849	22080
712.966	19331
713.084	19752
713.201	23024
713.318	22268
713.436	21280
713.553	20450
713.670	19649
713.787	20260
713.905	21306
714.022	21836
714.139	20235
714.256	19916
714.373	21336
714.490	22911
714.608	29609
714.725	49323
714.842	169777
714.959	375688
715.076	56875
715.193	22432
715.310	19961
715.427	19868
715.544	18950
715.661	18633
715.778	18152
715.895	17419
716.011	19126
716.128	19720
716.245	18509
716.362	17558
716.479	17818
716.596	21291
716.713	17471
716.829	17734
716.946	18006
717.063	17284
717.180	16129
717.296	16203
717.413	15962
717.530	15801
717.646	15482
717.763	16841
717.880	14723
717.996	13945
718.113	15650
718.229	16736
718.346	14410
718.462	15073
718.579	15585
718.695	16974
718.812	23078
718.928	23684
719.045	17824
719.161	17744
719.277	14119
719.394	14980
719.510	14545
719.626	15003
719.743	14419
719.859	18385
719.975	18502
720.092	23696
720.208	51833
720.324	169683
720.440	64866
720.557	17225
720.673	16815
720.789	19879
720.905	24611
721.021	36743
721.137	29821
721.253	15014
721.369	14771
721.486	14835
721.602	15506
721.718	17150
721.834	15809
721.950	12444
722.066	13155
722.181	13224
722.297	13575
722.413	14162
722.529	13601
722.645	12411
722.761	12340
722.877	12629
722.993	13560
723.108	12846
723.224	13534
723.340	12897
723.456	12550
723.571	12582
723.687	11608
723.803	12183
723.918	11394
724.034	11950
724.150	12444
724.265	11819
724.381	11536
724.497	16364
724.612	26489
724.728	13409
724.843	11479
724.959	10547
725.074	12011
725.190	15202
725.305	24378
725.421	12824
725.536	12329
725.651	10608
725.767	10545
725.882	11647
725.997	10268
726.113	10934
726.228	11043
726.343	11139
726.459	10704
726.574	9990
726.689	10465
726.804	11599
726.920	9706
727.035	10410
727.150	10118
727.265	10447
727.380	10897
727.495	11220
727.610	9810
727.725	9803
727.841	9795
727.956	9877
728.071	9953
728.186	11176
728.301	10125
728.416	9554
728.531	9690
728.645	10027
728.760	9624
728.875	9347
728.990	10880
729.105	9801
729.220	9944
729.335	9583
729.449	10760
729.564	9869
729.679	9675
729.794	8517
729.908	9301
730.023	10044
730.138	9837
730.253	9394
730.367	8489
730.482	8915
730.596	8290
730.711	9053
730.826	9382
730.940	9989
731.055	9334
731.169	9666
731.284	8802
731.398	9107
731.513	8813
731.627	9139
731.742	9537
731.856	10589
731.970	10883
732.085	9305
732.199	10532
732.313	11643
732.428	14096
732.542	23177
732.656	70788
732.771	90831
732.885	19895
732.999	11396
733.113	10946
733.227	11580
733.342	10201
733.456	9987
733.570	9821
733.684	9514
733.798	9515
733.912	9605
734.026	9623
734.140	9043
734.254	9430
734.368	9582
734.482	11056
734.596	17096
734.710	10391
734.824	8852
734.938	8961
735.052	9453
735.166	9005
735.280	10271
735.393	9108
735.507	8902
735.621	8693
735.735	10705
735.849	13421
735.962	12129
736.076	9387
736.190	9337
736.303	8982
736.417	9430
736.531	13043
736.644	10034
736.758	9289
736.872	8091
736.985	8003
737.099	7886
737.212	8357
737.326	8468
737.439	8315
737.553	8564
737.666	8023
737.780	8662
737.893	7869
738.007	7783
738.120	7358
738.233	8401
738.347	8175
738.460	8228
738.573	7178
738.687	8114
738.800	7757
738.913	7917
739.026	9646
739.140	8968
739.253	7423
739.366	7560
739.479	6857
739.592	7467
739.705	7828
739.818	8077
739.932	7109
740.045	7925
740.158	7101
740.271	7825
740.384	7451
740.497	7954
740.610	7616
740.723	7424
740.836	8058
740.949	8220
741.062	7185
741.174	9223
741.287	9369
741.400	7481
741.513	7092
741.626	7717
741.739	8364
741.851	7790
741.964	7551
742.077	6850
742.189	6802
742.302	7190
742.415	7302
742.527	8305
742.640	7428
742.753	6844
742.865	6572
742.978	6627
743.090	6537
743.203	6509
743.316	6222
743.428	5920
743.541	6067
743.653	7495
743.766	6111
743.878	6856
743.990	6991
744.103	7532
744.215	8519
744.327	7816
744.440	6260
744.552	7204
744.664	9002
744.777	8863
744.889	6298
745.001	6217
745.113	5484
745.226	5384
745.338	6663
745.450	5761
745.562	5775
745.674	6053
745.786	5239
745.898	6099
746.010	6674
746.122	6619
746.234	5763
746.347	6621
746.459	6250
746.570	5647
746.682	5451
746.794	5867
746.906	6304
747.018	5969
747.130	5992
747.242	6563
747.354	6096
747.466	6357
747.577	6143
747.689	5662
747.801	5340
747.913	5169
748.024	5389
748.136	5572
748.248	5542
748.359	6112
748.471	6071
748.583	5800
748.694	5250
748.806	5643
748.918	5719
749.029	6704
749.141	6372
749.252	6409
749.364	6273
749.475	5928
749.587	10313
749.698	10255
749.809	5929
749.921	5065
750.032	4874
750.144	5276
750.255	5159
750.366	5896
750.478	4795
750.589	5466
750.700	4647
750.811	5561
750.923	5773
751.034	6078
751.145	9172
751.256	14272
751.367	7115
751.479	5678
751.590	4921
751.701	4756
751.812	4367
751.923	4978
752.034	4388
752.145	5240
752.256	5243
752.367	4738
752.478	5523
752.589	5015
752.700	4750
752.811	4244
752.922	4749
753.032	5515
753.143	5733
753.254	6492
753.365	4955
753.476	5271
753.586	5255
753.697	4713
753.808	4725
753.919	5360
754.029	4573
754.140	4835
754.251	4125
754.361	4997
754.472	5004
754.582	4607
754.693	5081
754.804	5362
754.914	4203
755.025	4866
755.135	4366
755.246	4767
755.356	3936
755.466	5013
755.577	4397
755.687	4877
755.798	4630
755.908	4838
756.018	4675
756.129	4630
756.239	4122
756.349	4885
756.460	4574
756.570	4582
756.680	4653
756.790	5242
756.900	4485
757.011	5572
757.121	4090
757.231	4452
757.341	3882
757.451	4419
757.561	4178
757.671	4900
757.781	4110
757.891	4647
758.001	3736
758.111	4617
758.221	4589
758.331	4009
758.441	4428
758.551	5442
758.661	5278
758.771	7614
758.880	4562
758.990	4926
759.100	4294
759.210	5046
759.320	4871
759.429	5013
759.539	4594
759.649	5135
759.758	4828
759.868	4997
759.978	4978
760.087	5358
760.197	4687
760.307	5223
760.416	5490
760.526	5849
760.635	5034
760.745	4145
760.854	4607
760.964	5233
761.073	5319
761.182	5526
761.292	4986
761.401	5634
761.511	4718
761.620	4844
761.729	4381
761.839	4343
761.948	5254
762.057	4148
762.166	5395
762.276	4705
762.385	4461
762.494	4094
762.603	3894
762.712	4375
762.822	4194
762.931	5120
763.040	4497
763.149	4535
763.258	4312
763.367	4893
763.476	4326
763.585	4243
763.694	5181
763.803	4237
763.912	4532
764.021	4706
764.130	4027
764.238	5169
764.347	4430
764.456	4653
764.565	4970
764.674	5097
764.783	4861
764.891	5283
765.000	5731
765.109	5982
765.217	4924
765.326	5852
765.435	6232
765.543	7505
765.652	6892
765.761	7522
765.869	7279
765.978	9531
766.086	12572
766.195	20545
766.303	40957
766.412	95091
766.520	302168
766.629	492907
766.737	140318
766.846	36030
766.954	19833
767.062	14195
767.171	11192
767.279	9505
767.387	8686
767.496	7863
767.604	6987
767.712	7087
767.820	5864
767.928	6335
768.037	5780
768.145	5776
768.253	6508
768.361	5565
768.469	5464
768.577	5520
768.685	5392
768.793	5783
768.901	5583
769.009	5718
769.117	5497
769.225	6898
769.333	6282
769.441	9015
769.549	10732
769.657	18886
769.765	37993
769.873	106373
769.981	347774
770.088	225287
770.196	37105
770.304	15122
770.412	11251
770.519	9676
770.627	8133
770.735	7185
770.842	6062
770.950	6276
771.058	5377
771.165	6255
771.273	6321
771.380	6184
771.488	6030
771.595	5371
771.703	6622
771.810	6432
771.918	6216
772.025	6280
772.133	6320
772.240	6561
772.348	5670
772.455	6702
772.562	6034
772.670	5804
772.777	6014
772.884	6507
772.991	5947
773.099	6126
773.206	4982
773.313	5527
773.420	5660
773.528	5891
773.635	5355
773.742	6093
773.849	5483
773.956	5806
774.063	5630
774.170	5508
774.277	5487
774.384	5472
774.491	5134
774.598	5509
774.705	5654
774.812	5168
774.919	6159
775.026	6528
775.133	5826
775.239	5947
775.346	5739
775.453	6182
775.560	5367
775.667	4930
775.773	5480
775.880	5605
775.987	5756
776.093	5549
776.200	4764
776.307	6061
776.413	5169
776.520	4319
776.627	5019
776.733	4842
776.840	5232
776.946	5444
777.053	5092
777.159	6392
777.266	6696
777.372	6842
777.478	6572
777.585	6746
777.691	6445
777.798	4986
777.904	4674
778.010	5529
778.117	5116
778.223	7136
778.329	4700
778.435	4891
778.542	5057
778.648	4763
778.754	4304
778.860	5451
778.966	4822
779.072	5403
779.178	4651
779.284	4947
779.391	4018
779.497	4582
779.603	5312
779.708	3784
779.815	4662
779.920	4448
780.026	7101
780.132	14372
780.238	7988
780.344	5260
780.450	4512
780.556	4424
780.661	4439
780.767	4471
780.873	4173
780.979	4549
781.085	3757
781.190	4322
781.296	4161
781.402	3905
781.507	3872
781.613	4487
781.719	4579
781.824	4331
781.930	4175
782.035	4864
782.141	4328
782.246	5500
782.352	4199
782.457	4506
782.563	4318
782.668	4519
782.773	4742
782.879	4598
782.984	4335
783.090	4553
783.195	4659
783.300	6008
783.405	6598
783.511	4467
783.616	4174
783.721	5324
783.826	4384
783.932	4146
784.037	3880
784.142	4243
784.247	4190
784.352	5237
784.457	3759
784.562	4217
784.667	3741
784.772	4540
784.877	4110
784.982	4298
785.087	2662
785.192	4148
785.297	3808
785.402	3767
785.507	3679
785.611	4073
785.716	3347
785.821	3760
785.926	4250
786.031	3352
786.135	3445
786.240	3440
786.345	3436
786.450	3905
786.554	3700
786.659	3995
786.763	2900
786.868	3299
786.973	3046
787.077	3553
787.182	3649
787.286	4085
787.391	3698
787.495	3630
787.600	3108
787.704	3285
787.809	3035
787.913	3405
788.017	3054
788.122	3481
788.226	3409
788.330	3653
788.435	3617
788.539	2772
788.643	3048
788.747	2496
788.852	3472
788.956	2789
789.060	3487
789.164	2779
789.268	2831
789.372	4257
789.476	3714
789.580	2937
789.684	3027
789.788	2813
789.892	3189
789.996	3465
790.100	3319
790.204	3147
790.308	2999
790.412	3458
790.516	3610
790.620	2985
790.724	2262
790.828	3629
790.931	2879
791.035	3175
791.139	2228
791.242	3515
791.346	3257
791.450	3449
791.554	3110
791.657	2798
791.761	3241
791.864	3152
791.968	2566
792.072	3837
792.175	2864
792.279	2840
792.382	2872
792.486	3100
792.589	2924
792.693	3065
792.796	3131
792.899	3348
793.003	3032
793.106	2575
793.209	3634
793.313	3441
793.416	2871
793.519	3074
793.623	3278
793.726	4003
793.829	6285
793.932	4471
794.035	2168
794.138	3532
794.242	2802
794.345	3236
794.448	2990
794.551	2924
794.654	4661
794.757	6088
794.860	6824
794.963	4945
795.066	4179
795.169	2680
795.272	1923
795.375	2728
795.477	2464
795.580	3229
795.683	2504
795.786	2752
795.889	2437
795.991	2402
796.094	2405
796.197	2573
796.300	2881
796.402	2635
796.505	1831
796.608	1520
796.710	2782
796.813	2144
796.915	2783
797.018	2450
797.120	2562
797.223	2474
797.326	1819
797.428	2790
797.530	2356
797.633	2005
797.735	2678
797.838	2654
797.940	3554
798.042	3758
798.145	2728
798.247	2368
798.349	1633
798.452	3054
798.554	1865
798.656	1958
798.758	2620
798.860	2829
798.962	2589
799.065	2123
799.167	2083
799.269	2196
799.371	2042
799.473	3089
799.575	2669
799.677	3122
799.779	4156
799.881	2122
799.983	4198
800.085	3940
800.187	1415
800.289	2328
800.390	1596
800.492	2100
800.594	2809
800.696	2622
800.798	2033
800.899	1695
801.001	2162
801.103	2538
801.205	1883
801.306	2173
801.408	1496
801.509	2651
801.611	2227
801.713	2030
801.814	1545
801.916	2628
802.017	1857
802.119	1267
802.220	1628
802.322	1336
802.423	1655
802.525	1724
802.626	2978
802.727	1669
802.829	2117
802.930	2300
803.031	1829
803.133	1228
803.234	2444
803.335	1451
803.436	1812
803.538	2167
803.639	1430
803.740	2058
803.841	1682
803.942	2114
804.043	1536
804.144	2101
804.245	1687
804.346	1632
804.447	2096
804.548	2001
804.649	2444
804.750	3404
804.851	1922
804.952	1550
805.053	1619
805.154	2154
805.255	1336
805.355	1111
805.456	1316
805.557	1198
805.658	1142
805.758	1523
805.859	1271
805.960	1550
806.061	1105
806.161	1364
806.262	1148
806.362	1533
806.463	1669
806.564	1564
806.664	1353
806.765	1672
806.865	1676
806.966	2140
807.066	1659
807.166	1498
807.267	1355
807.367	1412
807.468	1464
807.568	1612
807.668	2028
807.769	2130
807.869	1169
807.969	1419
808.069	1287
808.170	1282
808.270	1380
808.370	1499
808.470	1236
808.570	2650
808.670	1647
808.770	1710
808.870	1034
808.970	1427
809.070	1580
809.170	1475
809.271	1389
809.370	1602
809.470	1419
809.570	1817
809.670	1668
809.770	1079
809.870	1856
809.970	1940
810.070	1217
810.169	1339
810.269	1315
810.369	1265
810.469	919
810.568	1088
810.668	1780
810.768	1726
810.867	1838
810.967	2258
811.066	1166
811.166	834
811.265	1788
811.365	1599
811.464	824
811.564	1298
811.663	1290
811.763	1772
811.862	1962
811.962	1728
812.061	1561
812.160	1064
812.260	1510
812.359	1871
812.458	1159
812.557	4080
812.657	6946
812.756	15015
812.855	8655
812.954	2909
813.053	2022
813.153	2000
813.252	1010
813.351	2216
813.450	1850
813.549	1037
813.648	1086
813.747	1752
813.846	827
813.945	2332
814.044	1200
814.143	992
814.242	1149
814.341	1436
814.439	1658
814.538	1572
814.637	1383
814.736	2272
814.835	1671
814.933	1984
815.032	1643
815.131	2201
815.229	1697
815.328	2443
815.427	2765
815.525	3538
815.624	2832
815.722	2411
815.821	2620
815.919	3436
816.018	2356
816.116	3292
816.215	2970
816.313	3555
816.412	3065
816.510	3046
816.609	2774
816.707	3855
816.805	4519
816.904	3706
817.002	3613
817.100	3935
817.198	4441
817.296	4602
817.395	4873
817.493	5248
817.591	5760
817.689	6797
817.787	8041
817.885	11940
817.983	15972
818.081	29608
818.179	58001
818.277	130034
818.375	302472
818.473	416967
818.571	171099
818.669	54402
818.767	28875
818.865	24286
818.963	22345
819.061	24098
819.158	32940
819.256	54306
819.354	106223
819.452	224969
819.549	471902
819.647	486235
819.745	199248
819.842	73052
819.940	38999
820.038	26034
820.135	18857
820.233	14451
820.330	10867
820.428	9776
820.525	7404
820.623	6958
820.720	6131
820.818	5594
820.915	5032
821.012	5403
821.110	4163
821.207	5339
821.304	3350
821.402	3949
821.499	4111
821.596	3817
821.693	4056
821.791	4190
821.888	3037
821.985	3370
822.082	4722
822.179	7360
822.276	3767
822.373	2768
822.470	2803
822.567	2593
822.664	1715
822.761	2375
822.858	2075
822.955	2430
823.052	2330
823.149	2264
823.246	2247
823.343	2667
823.440	2387
823.536	2044
823.633	1216
823.730	2683
823.827	1921
823.923	1673
824.020	2976
824.117	1800
824.213	1694
824.310	2753
824.407	2459
824.503	1960
824.600	1701
824.696	1670
824.793	2205
824.889	1398
824.986	1980
825.082	1951
825.179	1807
825.275	1447
825.371	1191
825.468	2325
825.564	1419
825.660	1403
825.757	1423
825.853	1748
825.949	2493
826.045	1179
826.142	899
826.238	1067
826.334	1121
826.430	1673
826.526	1799
826.622	878
826.718	184
826.814	1623
826.910	1847
827.006	1701
827.102	1374
827.198	1684
827.294	1027
827.390	1913
827.486	1562
827.582	924
827.678	342
827.774	1448
827.869	1528
827.965	1989
828.061	1430
828.157	1620
828.252	627
828.348	1744
828.444	1544
828.539	1238
828.635	714
828.731	1271
828.826	843
828.922	1604
829.017	1413
829.113	1587
829.208	1147
829.304	1419
829.399	1312
829.495	999
829.590	1154
829.685	671
829.781	693
829.876	1536
829.971	442
830.066	1637
830.162	186
830.257	1154
830.352	1406
830.447	1484
830.543	790
830.638	1075
830.733	1690
830.828	1681
830.923	891
831.018	850
831.113	1830
831.208	1492
831.303	1167
831.398	992
831.493	1099
831.588	1100
831.683	825
831.778	879
831.873	878
831.967	824
832.062	515
832.157	1406
832.252	1384
832.346	650
832.441	1577
832.536	1186
832.631	1164
832.725	3373
832.820	5202
832.914	1827
833.009	178
833.104	1008
833.198	1079
833.293	1593
833.387	1339
833.482	1610
833.576	617
833.670	1547
833.765	1245
833.859	1058
833.954	1630
834.048	1607
834.142	654
834.237	-16
834.331	1614
834.425	1689
834.519	791
834.613	1258
834.708	-76
834.802	1132
834.896	448
834.990	1153
835.084	361
835.178	474
835.272	850
835.366	825
835.460	855
835.554	1217
835.648	444
835.742	678
835.836	1
835.930	613
836.024	909
836.117	1568
836.211	1304
836.305	1566
836.399	927
836.493	1411
836.586	1115
836.680	1282
836.774	941
836.867	1195
836.961	324
837.055	365
837.148	375
837.242	872
837.335	243
837.429	1104
837.522	-7
837.616	1769
837.709	1091
837.803	1837
837.896	1256
837.989	889
838.083	709
838.176	1645
838.269	1519
838.363	3163
838.456	1399
838.549	1355
838.642	1555
838.735	3107
838.829	4760
838.922	4582
839.015	1118
839.108	510
839.201	0
839.294	1220
839.387	552
839.480	553
839.573	529
839.666	398
839.759	783
839.852	1584
839.945	633
840.038	538
840.131	-170
840.223	805
840.316	1290
840.409	818
840.502	1016
840.594	818
840.687	26
840.780	600
840.873	529
840.965	535
841.058	1069
841.150	1306
841.243	1220
841.336	2572
841.428	648
841.521	133
841.613	-159
841.706	1208
841.798	576
841.890	1111
841.983	-275
842.075	597
842.167	628
842.260	454
842.352	802
842.444	1410
842.537	1723
842.629	2622
842.721	3486
842.813	2560
842.905	555
842.997	1129
843.090	411
843.182	1097
843.274	1215
843.366	2071
843.458	4764
843.550	9443
843.642	10191
843.734	3468
843.826	149
843.918	1686
844.009	1299
844.101	659
844.193	173
844.285	373
844.377	1207
844.469	1408
844.560	353
844.652	798
844.744	1048
844.835	593
844.927	-315
845.019	971
845.110	1511
845.202	1226
845.293	394
845.385	448
845.476	697
845.568	104
845.659	356
845.751	884
845.842	736
845.934	119
846.025	-87
846.116	1062
846.208	765
846.299	114
846.390	738
846.482	1235
846.573	474
846.664	231
846.755	782
846.846	1348
846.937	2281
847.029	1059
847.120	112
847.211	983
847.302	819
847.393	125
847.484	1061
847.575	-104
847.666	108
847.757	155
847.847	-18
847.938	651
848.029	469
848.120	190
848.211	56
848.302	623
848.392	166
848.483	640
848.574	-190
848.664	515
848.755	331
848.846	974
848.936	-100
849.027	549
849.118	550
849.208	988
849.299	792
849.389	421
849.480	770
849.570	2059
849.661	3697
849.751	7048
849.841	14508
849.932	10959
850.022	2072
850.112	1004
850.203	513
850.293	64
850.383	-124
850.474	510
850.564	-81
850.654	987
850.744	189
850.834	464
850.924	-113
851.014	452
851.104	92
851.194	126
851.284	681
851.374	953
851.464	1242
851.554	1463
851.644	578
851.734	-44
851.824	699
851.914	1046
852.004	368
852.094	-300
852.183	346
852.273	336
852.363	1334
852.452	431
852.542	45
852.632	565
852.721	-117
852.811	-219
852.901	276
852.990	-389
853.080	1086
853.169	141
853.259	-277
853.348	723
853.438	188
853.527	518
853.617	1069
853.706	1926
853.795	2614
853.885	5498
853.974	12188
854.063	27137
854.152	41994
854.242	86892
854.331	69458
854.420	11567
854.509	2677
854.598	1489
854.687	1652
854.777	1320
854.866	199
854.955	1236
855.044	377
855.133	651
855.222	352
855.311	925
855.400	427
855.488	643
855.577	-84
855.666	604
855.755	492
855.844	621
855.933	680
856.021	335
856.110	304
856.199	596
856.288	-235
856.376	-57
856.465	-9
856.554	341
856.642	-563
856.731	331
856.819	94
856.908	886
856.996	239
857.085	604
857.173	-694
857.262	66
857.350	208
857.438	469
857.527	-407
857.615	1039
857.703	185
857.792	519
857.880	218
857.968	-203
858.056	669
858.145	784
858.233	-642
858.321	637
858.409	735
858.497	346
858.585	-356
858.673	792
858.761	-63
858.849	-247
858.937	-284
859.025	438
859.113	-76
859.201	365
859.289	330
859.377	511
859.465	-107
859.552	273
859.640	266
859.728	314
859.816	377
859.903	702
859.991	-432
860.079	-76
860.166	331
860.254	556
860.342	167
860.429	160
860.517	-283
860.604	-71
860.692	-279
860.779	1239
860.867	-40
860.954	525
861.042	107
861.129	-159
861.216	388
861.304	325
861.391	398
861.478	685
861.565	-241
861.653	785
861.740	54
861.827	-312
861.914	-134
862.001	245
862.089	-593
862.176	208
862.263	397
862.350	143
862.437	183
862.524	792
862.611	-427
862.698	-14
862.785	-85
862.871	76
862.958	-248
863.045	1009
863.132	641
863.219	274
863.306	-91
863.392	-159
863.479	-398
863.566	409
863.652	471
863.739	501
863.826	-383
863.912	509
863.999	151
864.086	608
864.172	460
864.259	492
864.345	225
864.432	9
864.518	444
864.604	433
864.691	57
864.777	569
864.863	1030
864.950	430
865.036	277
865.122	980
865.209	1518
865.295	1342
865.381	1138
865.467	1530
865.553	1586
865.639	911
865.726	1948
865.812	3904
865.898	6318
865.984	13823
866.070	20489
866.156	29621
866.242	57037
866.328	29657
866.414	5020
866.499	1926
866.585	1012
866.671	1469
866.757	833
866.843	935
866.928	1684
867.014	1062
867.100	402
867.186	1041
867.271	986
867.357	1490
867.442	890
867.528	1797
867.614	970
867.699	968
867.785	1153
867.870	657
867.956	201
868.041	831
868.127	966
868.212	1160
868.297	961
868.383	1497
868.468	1009
868.553	1565
868.639	2281
868.724	2755
868.809	3675
868.894	7279
868.979	3169
869.065	1455
869.150	1018
869.235	574
869.320	615
869.405	713
869.490	458
869.575	1044
869.660	498
869.745	145
869.830	263
869.915	-2
870.000	1303
870.085	391
870.169	1324
870.254	839
870.339	1043
870.424	280
870.509	-22
870.593	270
870.678	542
870.763	328
870.847	696
870.932	360
871.016	413
871.101	1021
871.186	554
871.270	533
871.355	698
871.439	501
871.523	53
871.608	761
871.692	551
871.777	524
871.861	-118
871.945	376
872.030	-274
872.114	466
872.198	52
872.282	928
872.367	-391
872.451	243
872.535	176
872.619	-140
872.703	176
872.787	34
872.871	-19
872.955	461
873.039	198
873.123	-798
873.207	777
873.291	349
873.375	678
873.459	325
873.543	-244
873.627	1243
873.711	135
873.794	1227
873.878	24
873.962	364
874.045	548
874.129	494
874.137	457
874.213	81
874.245	336
874.296	750
874.352	-244
874.380	-729
874.460	119
874.464	152
874.547	-162
874.568	36
874.631	630
874.676	365
874.714	133
874.784	371
874.798	416
874.881	161
874.892	74
874.965	-433
874.999	-377
875.048	-373
875.107	36
875.131	218
875.215	-493
875.215	-493
875.298	-39
875.323	65
875.381	310
875.430	214
875.465	127
875.538	482
875.548	541
875.631	672
875.646	602
875.714	185
875.753	128
875.798	81
875.861	-13
875.881	-49
875.964	254
875.968	245
876.047	166
876.076	103
876.130	-83
876.183	-153
876.213	-137
876.291	687
876.296	736
876.379	108
876.398	76
876.462	-12
876.506	30
876.545	56
876.613	726
876.628	885
876.711	130
876.721	152
876.794	258
876.828	320
876.877	376
876.935	730
876.960	928
877.043	470
877.043	468
877.125	-103
877.150	-46
877.208	59
877.258	347
877.291	528
877.365	465
877.374	459
877.456	434
877.472	343
877.539	145
877.579	373
877.622	526
877.687	174
877.704	76
877.787	681
877.794	666
877.869	597
877.901	552
877.952	461
878.008	576
878.034	595
878.115	891
878.117	899
878.199	380
878.222	355
878.282	240
878.329	378
878.364	626
878.437	448
878.447	385
878.529	9
878.544	132
878.611	582
878.651	109
878.694	-270
878.758	53
878.776	140
878.858	149
878.865	148
878.941	193
878.972	204
879.023	131
879.078	381
879.105	533
879.185	186
879.187	180
879.269	364
879.292	244
879.351	-33
879.399	210
879.433	359
879.506	406
879.516	428
879.598	622
879.613	560
879.680	88
879.720	165
879.762	384
879.827	303
879.844	216
879.926	100
879.933	20
880.007	-406
880.040	63
880.089	887
880.147	924
880.171	750
880.253	845
880.254	844
880.335	1113
880.360	1660
880.417	3300
880.467	4279
880.499	5151
880.574	6945
880.580	7013
880.662	11717
880.680	10930
880.744	6509
880.787	3459
880.825	1576
880.893	541
880.907	313
880.989	-91
881.000	-136
881.070	61
881.106	128
881.152	319
881.213	607
881.233	577
881.315	365
881.319	367
881.396	606
881.426	593
881.478	353
881.532	22
881.559	22
881.639	318
881.641	329
881.722	806
881.745	804
881.803	481
881.852	284
881.885	253
881.958	660
881.966	675
882.047	248
882.064	175
882.129	290
882.171	554
882.210	798
882.277	878
882.291	870
882.372	1458
882.383	1433
882.454	1551
882.489	1626
882.535	1056
882.596	158
882.616	168
882.697	663
882.702	667
882.778	296
882.808	351
882.859	462
882.914	208
882.940	102
883.020	310
883.021	314
883.102	297
883.127	247
883.183	303
883.233	535
883.264	484
883.339	297
883.345	294
883.426	203
883.445	150
883.507	369
883.551	492
883.587	193
883.657	-250
883.668	-188
883.749	407
883.763	463
883.830	567
883.869	752
883.910	838
883.975	626
883.991	538
884.072	329
884.081	320
884.152	426
884.187	331
884.233	305
884.292	347
884.314	244
884.394	321
884.398	285
884.475	236
884.504	349
884.555	179
884.610	-142
884.636	-131
884.716	-40
884.716	-37
884.797	159
884.821	84
884.877	212
884.927	390
884.958	372
885.033	187
885.038	168
885.118	144
885.139	39
885.199	236
885.244	444
885.279	448
885.350	484
885.359	505
885.439	679
885.456	668
885.520	409
885.561	348
885.600	197
885.667	-119
885.680	-62
885.760	406
885.773	452
885.840	574
885.878	677
885.920	601
885.984	496
886.000	487
886.080	323
886.089	286
886.160	439
886.195	628
886.240	675
886.300	700
886.320	580
886.400	135
886.406	88
886.480	534
886.511	848
886.560	749
886.616	486
886.640	561
886.720	750
886.722	751
886.800	524
886.827	481
886.879	606
886.932	617
886.959	681
887.038	1012
887.039	1011
887.119	406
887.143	282
887.198	516
887.248	626
887.278	689
887.354	883
887.358	884
887.437	761
887.459	754
887.517	692
887.564	581
887.596	613
887.669	767
887.676	767
887.755	678
887.774	645
887.835	475
887.880	372
887.914	545
887.985	832
887.994	788
888.073	433
888.090	353
888.153	404
888.195	420
888.232	361
888.300	241
888.311	272
888.391	455
888.405	499
888.470	807
888.510	957
888.549	992
888.615	1048
888.628	966
888.708	461
888.720	384
888.787	429
888.825	405
888.866	564
888.930	867
888.945	862
889.024	784
889.035	771
889.103	740
889.140	710
889.182	564
889.245	342
889.261	450
889.340	977
889.349	1031
889.419	786
889.454	660
889.498	863
889.559	1161
889.577	1049
889.656	521
889.664	469
889.735	767
889.768	906
889.814	1010
889.873	1140
889.978	308
890.083	678
890.187	611
890.292	611
890.397	792
890.501	1049
890.606	406
890.710	727
890.815	769
890.919	778
891.024	95
891.128	733
891.233	39
891.337	1076
891.442	697
891.546	837
891.650	490
891.755	628
891.859	435
891.963	1042
892.068	976
892.172	865
892.276	75
892.380	492
892.484	364
892.589	837
892.693	847
892.797	148
892.901	640
893.005	173
893.109	-73
893.213	340
893.317	919
893.421	744
893.525	-150
893.629	1205
893.733	361
893.837	1148
893.941	175
894.045	1215
894.148	525
894.252	432
894.356	787
894.460	246
894.564	1124
894.667	230
894.771	734
894.875	658
894.978	40
895.082	922
895.186	434
895.289	1378
895.393	178
895.496	420
895.600	301
895.703	241
895.807	287
895.910	652
896.014	52
896.117	266
896.221	673
896.324	300
896.427	924
896.531	123
896.634	423
896.737	773
896.840	587
896.944	1171
897.047	911
897.150	190
897.253	-199
897.356	834
897.460	-3
897.563	182
897.666	839
897.769	818
897.872	318
897.975	163
898.078	802
898.181	479
898.284	66
898.387	523
898.490	742
898.593	462
898.695	373
898.798	348
898.901	-18
899.004	335
899.107	299
899.209	202
899.312	69
899.415	577
899.518	-689
899.620	-33
899.723	578
899.826	567
899.928	424
900.031	2105
900.133	333
900.236	-350
900.338	-463
900.441	265
900.543	-418
900.646	161
900.748	36
900.851	556
900.953	697
901.055	438
901.158	-107
901.260	612
901.362	520
901.465	-46
901.567	211
901.669	100
901.771	332
901.873	590
901.976	780
902.078	538
902.180	58
902.282	951
902.384	289
902.486	476
902.588	325
902.690	-508
902.792	365
902.894	324
902.996	10
903.098	410
903.200	1
903.302	48
903.404	196
903.505	723
903.607	-127
903.709	-207
903.811	340
903.913	306
904.014	-113
904.116	191
904.218	15
904.319	520
904.421	1243
904.523	1205
904.624	-90
904.726	1158
904.827	-617
904.929	143
905.030	462
905.132	-3
905.233	721
905.335	367
905.436	54
905.537	206
905.639	483
905.740	6
905.841	406
905.943	663
906.044	486
906.145	791
906.247	-79
906.348	-33
906.449	244
906.550	531
906.651	-275
906.752	-402
906.854	255
906.955	307
907.056	-289
907.157	625
907.258	-125
907.359	-566
907.460	-409
907.561	-157
907.662	368
907.762	653
907.863	317
907.964	-186
908.065	-341
908.166	672
908.267	-417
908.367	-571
908.468	591
908.569	127
908.670	494
908.770	330
908.871	287
908.971	350
909.072	95
909.173	472
909.273	292
909.374	218
909.474	549
909.575	-449
909.675	229
909.776	260
909.876	-421
909.977	4
910.077	313
910.177	174
910.278	99
910.378	-285
910.478	106
910.579	352
910.679	70
910.779	322
910.879	914
910.980	125
911.080	-59
911.180	-726
911.280	-354
911.380	-865
911.480	-301
911.580	403
911.680	-176
911.780	873
911.880	532
911.980	533
912.080	575
912.180	-95
912.280	-856
912.380	395
912.480	-78
912.580	34
912.679	227
912.779	-1149
912.879	356
912.979	-484
913.078	-829
913.178	-417
913.278	246
913.377	272
913.477	92
913.577	-28
913.676	-658
913.776	-1167
913.875	-216
913.975	-14
914.074	-578
914.174	-509
914.273	-377
914.373	217
914.472	384
914.572	322
914.671	-868
914.770	-150
914.870	-291
914.969	171
915.068	-55
915.167	41
915.267	73
915.366	59
915.465	-185
915.564	421
915.663	506
915.763	-714
915.862	73
915.961	293
916.060	375
916.159	536
916.258	364
916.357	557
916.456	106
916.555	483
916.654	306
916.752	63
916.851	-526
916.950	50
917.049	-48
917.148	775
917.247	20
917.345	8
917.444	-377
917.543	398
917.642	25
917.740	108
917.839	-608
917.937	355
918.036	-351
918.135	99
918.233	124
918.332	-821
918.430	398
918.529	-894
918.627	-131
918.726	-499
918.824	-594
918.923	-383
919.021	320
919.119	256
919.218	-534
919.316	399
919.414	-31
919.512	-310
919.611	269
919.709	-620
919.807	-684
919.905	917
920.003	-515
920.102	656
920.200	-382
920.298	103
920.396	274
920.494	356
920.592	-422
920.690	434
920.788	-725
920.886	597
920.984	799
921.082	106
921.180	608
921.277	260
921.375	18
921.473	307
921.571	866
921.669	114
921.766	69
921.864	711
921.962	41
922.060	416
922.157	-100
922.255	78
922.352	-28
922.450	712
922.548	17
922.645	-378
922.743	568
922.840	902
922.938	1330
923.035	189
923.133	978
923.230	-1
923.327	680
923.425	1747
923.522	449
923.619	1617
923.717	961
923.814	674
923.911	689
924.008	1323
924.106	978
924.203	895
924.300	1370
924.397	1123
924.494	537
924.591	862
924.688	458
924.786	1312
924.883	565
924.979	1585
925.077	731
925.173	1331
925.270	1367
925.367	717
925.464	40
925.561	439
925.658	959
925.755	-219
925.852	711
925.948	1549
926.045	1203
926.142	796
926.239	1681
926.335	1202
926.432	1086
926.529	1569
926.625	827
926.722	1500
926.818	860
926.915	339
927.011	116
927.108	1063
927.204	-122
927.301	1304
927.397	363
927.494	932
927.590	1210
927.687	940
927.783	763
927.879	863
927.976	869
928.072	828
928.168	341
928.264	873
928.361	269
928.457	281
928.553	389
928.649	1016
928.745	648
928.841	1212
928.937	-76
929.033	734
929.129	139
929.225	969
929.321	1362
929.417	60
929.513	913
929.609	942
929.705	487
929.801	755
929.897	940
929.993	705
930.089	636
930.184	595
930.280	355
930.376	764
930.471	210
930.567	910
930.663	-27
930.758	329
930.854	840
930.950	-181
931.045	-309
931.141	296
931.236	134
931.332	1263
931.427	389
931.523	949
931.618	1191
931.714	598
931.809	468
931.905	58
932.000	163
932.095	-180
932.191	346
932.286	1
932.381	261
932.476	1104
932.572	100
932.667	839
932.762	228
932.857	549
932.952	255
933.047	938
933.142	505
933.237	1028
933.332	990
933.427	666
933.522	130
933.617	985
933.712	667
933.807	601
933.902	602
933.997	55
934.092	724
934.187	544
934.282	177
934.376	178
934.471	852
934.566	792
934.661	212
934.755	264
934.850	521
934.945	329
935.039	281
935.134	288
935.228	-45
935.323	461
935.417	337
935.512	697
935.606	-173
935.701	-49
935.795	174
935.890	257
935.984	476
936.079	974
936.173	-206
936.267	-102
936.362	-387
936.456	168
936.550	523
936.644	749
936.738	21
936.833	38
936.927	-78
937.021	69
937.115	-160
937.209	437
937.303	355
937.397	-148
937.491	352
937.585	704
937.679	757
937.773	698
937.867	-430
937.961	346
938.055	-96
938.149	504
938.243	196
938.337	370
938.430	-362
938.524	-96
938.618	8
938.712	200
938.805	-126
938.899	659
938.993	206
939.086	-220
939.180	561
939.274	-313
939.367	685
939.461	354
939.554	-370
939.648	-489
939.741	-786
939.835	258
939.928	-75
940.022	-77
940.115	-151
940.208	-532
940.302	-303
940.395	318
940.488	407
940.582	552
940.675	-71
940.768	-400
940.861	65
940.954	-467
941.048	375
941.141	-626
941.234	-479
941.327	-505
941.420	514
941.513	745
941.606	488
941.699	224
941.792	-163
941.885	-234
941.978	35
942.071	-427
942.164	-240
942.257	-399
942.349	687
942.442	-225
942.535	-306
942.628	57
942.721	-476
942.813	125
942.906	546
942.999	-354
943.091	-624
943.184	339
943.277	-1
943.369	188
943.462	-67
943.554	790
943.647	242
943.739	158
943.832	-1037
943.924	146
944.017	-350
944.109	186
944.201	-43
944.294	-520
944.386	-63
944.478	-401
944.571	-610
944.663	-614
944.755	-92
944.847	-531
944.940	-602
945.032	-356
945.124	138
945.216	-539
945.308	-314
945.400	792
945.492	205
945.584	-529
945.676	-45
945.768	-451
945.860	-212
945.952	194
946.044	-201
946.136	-509
946.228	-196
946.320	-264
946.412	696
946.503	170
946.595	43
946.687	-235
946.779	-592
946.870	-73
946.962	-763
947.054	-70
947.145	-374
947.237	-535
947.329	-1177
947.420	-196
947.512	-545
947.603	-399
947.695	-404
947.786	66
947.878	-372
947.969	-765
948.061	-717
948.152	417
948.243	-91
948.335	-453
948.426	-476
948.517	-582
948.609	-862
948.700	-251
948.791	-777
948.882	-474
948.973	-557
949.065	-384
949.156	-594
949.247	-176
949.338	-298
949.429	-310
949.520	-997
949.611	204
949.702	159
949.793	-1
949.884	-568
949.975	-1219
950.066	-1004
950.157	-945
950.247	-953
950.338	-248
950.429	-232
950.520	-1207
950.611	-996
950.701	-269
950.792	-278
950.883	566
950.973	163
951.064	-407
951.155	-1371
951.245	379
951.336	-83
951.427	-370
951.517	-108
951.608	-504
951.698	-366
951.788	-360
951.879	-411
951.969	210
952.060	-366
952.150	-873
952.240	-705
952.331	-516
952.421	-324
952.511	-958
952.602	-757
952.692	-463
952.782	400
952.872	-226
952.962	-309
953.052	-1239
953.143	-256
953.233	-206
953.323	-657
953.413	-213
953.503	-702
953.593	-899
953.683	-829
953.773	-1116
953.863	-602
953.953	-544
954.042	-409
954.132	-1116
954.222	-78
954.312	-870
954.402	176
954.492	-453
954.581	-68
954.671	-761
954.761	157
954.850	-229
954.940	-185
955.030	-565
955.119	-239
955.209	-743
955.298	-937
955.388	795
955.477	-1273
955.567	-232
955.656	-1257
955.746	226
955.835	-816
955.925	-867
956.014	-798
956.103	508
956.193	-57
956.282	-707
956.371	-891
956.461	-129
956.550	-509
956.639	-279
956.728	-839
956.817	-869
956.906	-539
956.995	-850
957.085	35
957.174	-174
957.263	-937
957.352	-1350
957.441	163
957.530	277
957.619	-501
957.708	-609
957.796	-1051
957.885	-624
957.974	-43
958.063	-890
958.152	-289
958.241	-719
958.329	-462
958.418	-694
958.507	-213
958.596	-424
958.684	-627
958.773	-576
958.861	-237
958.950	-435
959.039	-501
959.127	-563
959.216	-822
959.304	-805
959.393	-836
959.481	-976
959.570	-786
959.658	-324
959.746	-173
959.835	-671
959.923	-341
960.011	205
960.100	-118
960.188	-534
960.276	-559
960.365	-681
960.453	-629
960.541	-934
960.629	-910
960.717	-541
960.805	-298
960.893	-398
960.981	-1128
961.069	162
961.158	-508
961.245	-486
961.333	-442
961.421	-610
961.509	-444
961.597	-548
961.685	-548
961.773	-499
961.861	-1192
961.949	-1288
962.036	-1248
962.124	-517
962.212	-659
962.299	-453
962.387	-386
962.475	-1245
962.562	252
962.650	78
962.738	-309
962.825	-472
962.913	-726
963.000	-634
963.088	-459
963.175	-1430
963.263	-419
963.350	30
963.438	-937
963.525	-264
963.612	-739
963.700	-399
963.787	1391
963.874	2358
963.962	1284
964.049	-335
964.136	-878
964.223	-11
964.310	-556
964.398	-744
964.485	-900
964.572	-642
964.659	-303
964.746	-334
964.833	-421
964.920	-185
965.007	-680
965.094	-880
965.181	-1126
965.268	-625
965.355	-212
965.441	-1201
965.528	-460
965.615	-1004
965.702	-180
965.789	-909
965.875	-902
965.962	-586
966.049	-1289
966.136	-205
966.222	-636
966.309	-542
966.395	-752
966.482	-908
966.569	-1148
966.655	-1350
966.742	-486
966.828	-476
966.915	-1293
967.001	-617
967.087	-880
967.174	-669
967.260	-753
967.347	-801
967.433	-976
967.519	578
967.605	1102
967.692	-253
967.778	-145
967.864	-30
967.950	-301
968.036	-715
968.123	-495
968.209	-467
968.295	70
968.381	-578
968.467	-913
968.553	-386
968.639	-925
968.725	-982
968.811	-592
968.897	-653
968.983	-405
969.069	-1086
969.154	-441
969.240	-739
969.326	-1282
969.412	-643
969.497	-1388
969.583	-811
969.669	-1084
969.755	-488
969.840	-945
969.926	-242
970.012	-1202
970.097	-352
970.183	-690
970.268	-29
970.354	-371
970.439	-580
970.525	-46
970.610	847
970.696	-325
970.781	-1046
970.866	-804
970.952	-1092
971.037	-1263
971.122	-1134
971.208	-1141
971.293	-470
971.378	328
971.463	-825
971.549	-176
971.634	-682
971.719	-1239
971.804	-532
971.889	-1111
971.974	-513
972.059	-573
972.144	-699
972.229	-394
972.314	-744
972.399	-1264
972.484	-802
972.569	-742
972.654	-1000
972.739	-422
972.824	109
972.908	-208
972.993	-648
973.078	20
973.163	-925
973.247	-1231
973.332	-914
973.417	-917
973.501	-1024
973.586	-313
973.671	-922
973.755	-1034
973.840	-748
973.924	-1928
974.009	-126
974.093	-1052
974.178	-457
974.262	-792
974.346	-136
974.431	-655
974.515	-862
974.600	-859
974.684	-1291
974.768	-185
974.852	-270
974.937	-872
975.021	-611
975.105	-1140
975.189	-1354
975.273	-79
975.358	-1221
975.442	-1324
975.526	-1123
975.610	-1071
975.694	-575
975.778	-1451
975.862	-1632
975.946	-1559
976.030	-491
976.114	-907
976.198	-1914
976.281	-425
976.365	-1098
976.449	-722
976.533	-980
976.617	-740
976.700	-1483
976.784	-558
976.868	-1800
976.951	-913
977.035	-918
977.119	-1457
977.202	-989
977.286	-671
977.369	-890
977.453	-1003
977.536	-837
977.620	-1245
977.703	107
977.787	-207
977.870	-1002
977.953	-808
978.037	-775
978.120	-835
978.203	41
978.287	-827
978.370	-493
978.453	-757
978.536	-631
978.620	-967
978.703	-1286
978.786	-791
978.869	-848
978.952	-1360
979.035	-604
979.118	-1304
979.201	-497
979.284	-1193
979.367	-938
979.450	-782
979.533	-842
979.616	-827
979.699	-1301
979.782	-950
979.865	-1164
979.948	-1726
980.030	-707
980.113	-1229
980.196	-550
980.279	-621
980.361	-1002
980.444	-241
980.526	-1345
980.609	-1243
980.692	-933
980.774	-417
980.857	-131
980.939	-603
981.022	-1473
981.104	-1108
981.187	-984
981.269	-788
981.352	-1239
981.434	-1350
981.516	-855
981.599	-121
981.681	-1159
981.763	-1082
981.846	-671
981.928	-990
982.010	-1294
982.092	-967
982.174	-1363
982.256	-830
982.339	-228
982.421	-1028
982.503	-1036
982.585	-1107
982.667	106
982.749	-863
982.831	-798
982.913	-790
982.995	-963
983.077	-1332
983.158	-1267
983.240	-823
983.322	-873
983.404	-849
983.486	-357
983.568	-530
983.649	-1538
983.731	-470
983.813	-556
983.894	-609
983.976	-301
984.058	-531
984.139	-777
984.221	-6
984.302	-1022
984.384	-148
984.465	-948
984.547	-828
984.628	-1187
984.710	-921
984.791	-1050
984.872	-1901
984.954	-645
985.035	-863
985.116	-1967
985.198	-1273
985.279	-660
985.360	-994
985.441	-615
985.522	-492
985.604	-848
985.685	-860
985.766	-589
985.847	-424
985.928	-1366
986.009	-1208
986.090	-1059
986.171	-858
986.252	-798
986.333	-981
986.414	-839
986.495	-660
986.576	-1352
986.656	-631
986.737	-316
986.818	-1286
986.899	-452
986.980	-649
987.060	-1247
987.141	-816
987.222	-1158
987.302	-1029
987.383	-216
987.464	-1536
987.544	-581
987.625	-1161
987.705	-880
987.786	-1350
987.866	-1123
987.947	-785
988.027	-928
988.108	-1357
988.188	45
988.268	-1259
988.349	-1635
988.429	-1267
988.509	-32
988.589	-1083
988.670	-1023
988.750	-866
988.830	-961
988.910	-431
988.990	-1101
989.070	-903
989.151	-160
989.231	-1241
989.311	-674
989.391	-1104
989.471	-1258
989.551	-1424
989.631	-1300
989.711	-742
989.791	-1510
989.870	-1143
989.950	-1440
990.030	-1198
990.110	-202
990.190	-943
990.269	-975
990.349	-1439
990.429	-652
990.509	-1503
990.588	-1702
990.668	-1083
990.747	-1463
990.827	-1385
990.907	-1169
990.986	-1317
991.066	-1413
991.145	-671
991.225	-1465
991.304	-503
991.383	-588
991.463	-1227
991.542	-622
991.622	-734
991.701	-1090
991.780	-1077
991.859	-1247
991.939	-1342
992.018	-441
992.097	-304
992.176	-1067
992.256	-1661
992.335	49
992.414	-1256
992.493	-668
992.572	-840
992.651	-1460
992.730	-1031
992.809	-1146
992.888	-1739
992.967	-1050
993.046	-1467
993.125	-757
993.203	-1457
993.282	-233
993.361	-699
993.440	-867
993.519	-1070
993.597	-1241
993.676	-1923
993.755	-1302
993.834	-702
993.912	-1135
993.991	-739
994.069	-393
994.148	-1314
994.226	-1353
994.305	-1022
994.384	-1572
994.462	-1226
994.540	-1258
994.619	-648
994.697	-1313
994.776	-760
994.854	-480
994.932	-1542
995.011	-870
995.089	-1101
995.167	-1726
995.245	-566
995.324	-1082
995.402	-905
995.480	-1316
995.558	-1010
995.636	-888
995.714	-1136
995.792	-981
995.870	-1580
995.948	-212
996.026	-1146
996.104	-1032
996.182	-1684
996.260	-1690
996.338	-1243
996.416	-985
996.494	-1409
996.572	-412
996.649	-924
996.727	-2368
996.805	-1146
996.883	-802
996.960	-1027
997.038	-933
997.116	-1176
997.193	-938
997.271	-853
997.348	-423
997.426	-747
997.504	-1293
997.581	-703
997.658	-440
997.736	-800
997.813	-1564
997.891	-1941
997.968	-874
998.046	-1194
998.123	-897
998.200	-1652
998.277	-1763
998.355	-1302
998.432	-1099
998.509	-963
998.586	-992
998.663	-1266
998.741	-1505
998.818	-1479
998.895	-985
998.972	-979
999.049	-1033
999.126	-1228
999.203	-1238
999.280	-211
999.357	-2285
999.434	-766
999.511	-535
999.587	-666
999.664	-1270
999.741	-1399
999.818	-1134
999.895	-859
999.971	-1127
1000.048	-1802
1000.125	-879
1000.202	-1783
1000.278	-544
1000.355	-1248
1000.431	-892
1000.508	-1174
1000.584	-1499
1000.661	-1497
1000.738	-856
1000.814	-1612
1000.890	-951
1000.967	-633
1001.043	-1407
1001.120	-2029
1001.196	-996
1001.272	-1358
1001.349	-1344
1001.425	-2285
1001.501	-500
1001.577	-1604
1001.654	-1232
1001.730	15
1001.806	-860
1001.882	-1181
1001.958	-1152
1002.034	-954
1002.110	-1293
1002.186	-1479
1002.262	-1725
1002.338	-1074
1002.414	-1636
1002.490	-1166
1002.566	-1770
1002.642	-1408
1002.718	-1339
1002.794	-611
1002.870	-917
1002.945	-1482
1003.021	-925
1003.097	-1534
1003.173	-1046
1003.248	-1519
1003.324	-549
1003.400	-1604
1003.475	-262
1003.551	-1132
1003.626	-1781
1003.702	-1467
1003.777	-230
1003.853	-1682
1003.928	-115
1004.004	-1932
1004.079	-847
1004.155	-1040
1004.230	-1206
1004.305	-1539
1004.381	-1305
1004.456	-892
1004.531	-809
1004.607	-668
1004.682	-570
1004.757	-1362
1004.832	-898
1004.907	-1635
1004.982	-1105
1005.057	-661
1005.133	-521
1005.208	-1514
1005.283	-703
1005.358	-1464
1005.433	-1308
1005.508	-1052
1005.583	-304
1005.657	-1153
1005.732	-1539
1005.807	-1542
1005.882	-552
1005.957	-1497
1006.032	-1451
1006.106	-1773
1006.181	-996
1006.256	-1018
1006.331	-1346
1006.405	-1236
1006.480	-1490
1006.554	-1748
1006.629	-1247
1006.704	-1240
1006.778	-784
1006.853	-662
1006.927	-1970
1007.002	-1340
1007.076	-1174
1007.150	-1224
1007.225	-1654
1007.299	-1182
1007.373	-1217
1007.448	-1163
1007.522	-1205
1007.596	-1811
1007.671	-1399
1007.745	-1304
1007.819	-1833
1007.893	-1096
1007.967	-769
1008.041	-1643
1008.115	-1058
1008.190	-1691
1008.264	-1325
1008.338	-1861
1008.412	-828
1008.486	-1704
1008.560	-1356
1008.633	-1531
1008.707	-1790
1008.781	-1341
1008.855	-1174
1008.929	-1347
1009.003	-897
1009.076	-2116
1009.150	-1295
1009.224	-1283
1009.298	-1792
1009.371	-1400
1009.445	-1210
1009.519	-1352
1009.592	-1499
1009.666	-663
1009.739	-1728
1009.813	-2033
1009.886	-1540
1009.960	-1808
1010.033	-1509
1010.107	-1666
1010.180	-1333
1010.253	-1398
1010.327	-1616
1010.400	-972
1010.473	-1247
1010.547	-1400
1010.620	-392
1010.693	-1589
1010.766	-2066
1010.840	-1715
1010.913	-1646
1010.986	-1394
1011.059	-1241
1011.132	-2549
1011.205	-1489
1011.278	-1800
1011.351	-1792
1011.424	-1653
1011.497	-1427
1011.570	-1763
1011.643	-1424
1011.716	-2037
1011.789	-983
1011.862	-2690
1011.934	-1466
1012.007	-1786
1012.080	-1619
1012.153	-1747
1012.225	-1578
1012.298	-2081
1012.371	-1912
1012.443	-1778
1012.516	-1851
1012.588	-2013
1012.661	-1820
1012.733	-1620
1012.806	-1679
1012.879	-2034
1012.951	-1913
1013.023	-2029
1013.096	-1317
1013.168	-1718
1013.241	-613
1013.313	-1739
1013.385	-1832
1013.458	-1371
1013.530	-1171
1013.602	-1194
1013.674	-1619
1013.746	-1604
1013.819	-1878
1013.891	-1365
1013.963	-2417
1014.035	-887
1014.107	-1142
1014.179	-1468
1014.251	-1688
1014.323	-694
1014.395	-1326
1014.467	-1405
1014.539	-989
1014.611	-1393
1014.683	-1639
1014.754	-2482
1014.826	-1948
1014.898	-1745
1014.970	-1782
1015.042	-1807
1015.113	-1544
1015.185	-1253
1015.257	-1404
1015.328	-1470
1015.400	-1584
1015.471	-1549
1015.543	-2119
1015.615	-2006
1015.686	-1655
1015.757	-1004
1015.829	-1639
1015.901	-1679
1015.972	-2004
1016.043	-2468
1016.115	-1863
1016.186	-1610
1016.257	-2194
1016.328	-1990
1016.400	-1625
1016.471	-1337
1016.542	-1624
1016.613	-1160
1016.685	-2135
1016.756	-1944
1016.827	-2451
1016.898	-2937
1016.969	-1481
1017.040	-1558
1017.111	-1545
1017.182	-2101
1017.253	-1272
1017.324	-1834
1017.395	-1425
1017.466	-1409
1017.537	-1450
1017.608	-1832
1017.678	-1446
1017.749	-1331
1017.820	-1350
1017.891	-1902
1017.961	-1413
1018.032	-1574
1018.103	-1048
1018.173	-1320
1018.244	-1598
1018.315	-1467
1018.385	-1951
1018.456	-1819
1018.526	-1559
1018.597	-1596
1018.667	-2240
1018.738	-1793
1018.808	-1518
1018.878	-1378
1018.949	-1628
1019.019	-1978
1019.089	-1400
1019.160	-1924
1019.230	-1273
1019.300	-2110
1019.371	-1982
1019.441	-1945
1019.511	-1678
1019.581	-2187
1019.651	-1034
1019.721	-1460
1019.791	-1718
1019.861	-2146
1019.931	-1665
1020.001	-1468
1020.071	-1262
1020.141	-1570
1020.211	-1413
1020.281	-2275
1020.351	-2100
1020.421	-1135
1020.491	-1429
1020.560	-1979
1020.630	-1066
1020.700	-2117
1020.770	-1883
1020.839	-2163
1020.909	-1616
1020.979	-1509
1021.048	-1098
1021.118	-1588
1021.187	-1265
1021.257	-2241
1021.326	-1141
1021.396	-1741
1021.465	-1727
1021.535	-1409
1021.604	-1898
1021.674	-866
1021.743	-1609
1021.812	-1566
1021.882	-1688
1021.951	-1625
1022.020	-2102
1022.089	-732
1022.159	-1539
1022.228	-1313
1022.297	-1250
1022.366	-1564
1022.435	-1847
1022.504	-2245
1022.573	-2089
1022.642	-1765
1022.711	-1356
1022.781	-1934
1022.849	-1655
1022.918	-1941
1022.987	-518
1023.056	-929
1023.125	-1535
1023.194	-1828
1023.263	-1454
1023.331	-2163
1023.400	-1484
1023.469	-2251
1023.538	-286
1023.606	-1433
1023.675	-1802
1023.744	-1992
1023.812	-1632
1023.881	-1966
1023.949	-1036
1024.018	-1940
1024.086	-2019
1024.155	-1647
1024.223	-1835
1024.292	-1108
1024.360	-1260
1024.429	-1990
1024.497	-1244
1024.565	-1383
1024.634	-1820
1024.702	-1331
1024.770	-1035
1024.838	-1849
1024.907	-1166
1024.975	-2410
1025.043	-1259
1025.111	-1768
1025.179	-1837
1025.247	-1499
1025.315	-1393
1025.383	-1875
1025.451	-1508
1025.519	-1763
1025.587	-1563
1025.655	-1946
1025.723	-1799
1025.791	-1746
1025.859	-2189
1025.927	-722
1025.995	-2154
1026.062	-1394
1026.130	-1332
1026.198	-2068
1026.266	-2462
1026.333	-1596
1026.401	-881
1026.469	-1630
1026.536	-2276
1026.604	-1815
1026.671	-2161
1026.739	-1411
1026.806	-1549
1026.874	-1621
1026.941	-1275
1027.009	-1299
1027.076	-1758
1027.144	-1419
1027.211	-2468
1027.278	-2396
1027.345	-2091
1027.413	-2138
1027.480	-1872
1027.547	-1744
1027.614	-2362
1027.682	-1785
1027.749	-1430
1027.816	-1427
1027.883	-1765
1027.950	-1271
1028.017	-1774
1028.084	-1159
1028.151	-2309
1028.218	-1504
1028.285	-1076
1028.352	-2195
1028.419	-1890
1028.486	-2003
1028.553	-1137
1028.619	-1519
1028.686	-1185
1028.753	-1823
1028.820	-2242
1028.886	-1527
1028.953	-1180
1029.020	-1642
1029.086	-1794
1029.153	-2356
1029.220	-1632
1029.286	-1366
1029.353	-1778
1029.419	-2020
1029.486	-2087
1029.552	-1365
1029.619	-1682
1029.685	-1135
1029.751	-1309
1029.818	-1705
1029.884	-2048
1029.951	-1232
1030.017	-1774
1030.083	-1132
1030.149	-1256
1030.216	-1875
1030.282	-1233
1030.348	-1663
1030.414	-2057
1030.480	-1229
1030.546	-1527
1030.612	-1533
1030.678	-1762
1030.744	-1459
1030.810	-1750
1030.876	-2541
1030.942	-1029
1031.008	-1308
1031.074	-2194
1031.140	-2423
1031.206	-588
1031.272	-1724
1031.337	-1849
1031.403	-1498
1031.469	-1295
1031.534	-2251
1031.600	-1564
1031.666	-2122
1031.731	-1573
1031.797	-1248
1031.863	-1880
1031.928	-2005
1031.994	-1094
1032.059	-1741
1032.125	-809
1032.190	-1799
1032.256	-1697
1032.321	-1938
1032.386	-1694
1032.452	-877
1032.517	-1617
1032.582	-2183
1032.647	-1858
1032.713	-1607
1032.778	-2124
1032.843	-1741
1032.908	-1649
1032.974	-2003
1033.039	-1434
1033.104	-1910
1033.169	-2080
1033.234	-1607
1033.299	-1484
1033.364	-1925
1033.429	-968
1033.494	-1302
1033.559	-1708
1033.624	-1876
1033.688	-936
1033.753	-2308
1033.818	-1389
1033.883	-1307
1033.948	-999
1034.013	-1628
1034.077	-2139
1034.142	-1143
1034.207	-1201
1034.271	-1680
1034.336	-958
1034.400	-1646
1034.465	-1113
1034.530	-1478
1034.594	-1049
1034.658	-832
1034.723	-1330
1034.787	-1312
1034.852	-1497
1034.916	-1735
1034.981	-1347
1035.045	-2057
1035.109	-2614
1035.173	-1363
1035.238	-1665
1035.302	-1748
1035.366	-1457
1035.430	-1406
1035.495	-2122
1035.559	-1187
1035.623	-1967
1035.687	-1630
1035.751	-1271
1035.815	-2786
1035.879	-2629
1035.943	-2155
1036.007	-1193
1036.071	-1160
1036.135	-2182
1036.198	-1830
1036.262	-1455
1036.326	-1134
1036.390	-927
1036.454	-1237
1036.517	-923
1036.581	-2105
1036.645	-1622
1036.709	-1745
1036.772	-1524
1036.836	-1650
1036.900	-1060
1036.963	-2343
1037.026	-2301
1037.090	-2439
1037.154	-2028
1037.217	-2114
1037.280	-1403
1037.344	-2881
1037.407	-393
1037.471	-1740
1037.534	-1967
1037.597	-2388
1037.661	-1755
1037.724	-1965
1037.787	-2249
1037.850	-1755
1037.913	-2283
1037.977	-1681
1038.040	-1493
1038.103	-2325
1038.166	-2323
1038.229	-1677
1038.292	-1967
1038.355	-1874
1038.418	-2237
1038.481	-1182
1038.544	-2415
1038.607	-1378
1038.670	-1670
1038.732	-1500
1038.795	-1865
1038.858	-1846
1038.921	-1430
1038.984	-2066
1039.046	-1507
1039.109	-1357
1039.172	-2393
1039.234	-1341
1039.297	-2078
1039.360	-1885
1039.422	-1290
1039.485	-2003
1039.547	-2118
1039.610	-1745
1039.672	-1802
1039.734	-1498
1039.797	-1220
1039.859	-1768
1039.922	-1767
1039.984	-1240
1040.046	-1854
1040.109	-2062
1040.171	-1929
1040.233	-1815
1040.295	-1910
1040.358	-1428
1040.420	-1623
1040.482	-2492
1040.544	-2625
1040.606	-1629
1040.668	-2171
1040.730	-2113
1040.792	-2181
1040.854	-1394
1040.916	-1549
1040.978	-1968
1041.040	-803
1041.102	-2005
1041.164	-1991
1041.225	-2561
1041.287	-1893
1041.349	-1921
1041.411	-2282
1041.472	-1164
1041.534	-2083
1041.596	-2270
1041.657	-2450
1041.719	-2294
1041.781	-1678
1041.842	-1991
1041.904	-1613
1041.965	-1913
1042.027	-1827
1042.088	-1687
1042.150	-1472
1042.211	-2006
1042.272	-2180
1042.334	-2224
1042.395	-2421
1042.456	-1279
1042.518	-1845
1042.579	-1023
1042.640	-2290
1042.701	-2423
1042.763	-2357
1042.824	-2174
1042.885	-2168
1042.946	-2003
1043.007	-1432
1043.068	-2174
1043.129	-1470
1043.190	-2308
1043.251	-1779
1043.312	-1594
1043.373	-1878
1043.434	-2187
1043.495	-1737
1043.556	-1610
1043.616	-2273
1043.677	-1923
1043.738	-2285
1043.799	-2334
1043.859	-1465
1043.920	-2377
1043.981	-2215
1044.041	-2383
1044.102	-1572
1044.162	-2607
1044.223	-2385
1044.284	-1735
1044.344	-1326
1044.405	-2439
1044.465	-1667
1044.525	-1793
1044.586	-2241
1044.646	-1949
1044.707	-1594
1044.767	-1211
1044.827	-1883
1044.887	-1549
1044.948	-2318
1045.008	-2403
1045.068	-2291
1045.128	-970
1045.188	-2188
1045.249	-1911
1045.309	-1617
1045.369	-1963
1045.429	-1783
1045.489	-1685
1045.549	-1232
1045.609	-1094
1045.669	-2135
1045.729	-1421
1045.789	-1572
1045.848	-2320
1045.908	-2318
1045.968	-2267
1046.028	-1937
1046.088	-1421
1046.147	-1794
1046.207	-1684
1046.267	-1853
1046.326	-1663
1046.386	-1626
1046.446	-585
1046.505	-1259
1046.565	-1409
1046.624	-995
1046.684	-1376
1046.743	-1102
1046.803	-427
1046.862	-69
1046.922	0
