'Start Wavelength	183.907
'End Wavelength	1046.922
'Gate Delay	5.000
'Gate Width (ms)	1.050
'Laser Output Level	0.000
'X Position	0.000
'Y Position	0.000
'Z Position	0.000
'Grid Point Number	1.000
'Shot Number	100.000
183.907	264.000
183.977	-337.000
184.047	-73
184.116	110
184.186	26
184.256	175
184.325	-579
184.395	-394
184.465	-395
184.534	181
184.604	233
184.674	434
184.743	381
184.813	-126
184.883	736
184.952	-18
185.022	69
185.092	25
185.161	127
185.231	-26
185.301	764
185.370	472
185.440	111
185.509	-126
185.579	-262
185.649	-483
185.718	331
185.788	307
185.857	447
185.927	83
185.996	28
186.066	-307
186.136	11
186.205	-230
186.275	316
186.344	422
186.414	664
186.483	684
186.553	505
186.622	958
186.692	491
186.761	160
186.831	619
186.900	416
186.970	45
187.039	193
187.109	1322
187.178	175
187.248	861
187.317	-416
187.387	-172
187.456	267
187.526	367
187.595	-545
187.664	122
187.734	645
187.803	505
187.873	54
187.942	540
188.012	389
188.081	767
188.150	167
188.220	457
188.289	284
188.358	605
188.428	342
188.497	533
188.567	-441
188.636	-364
188.705	285
188.775	-256
188.844	135
188.913	201
188.983	483
189.052	-97
189.121	296
189.191	-247
189.260	675
189.329	658
189.399	9
189.468	131
189.537	-3
189.606	473
189.676	362
189.745	404
189.814	862
189.883	-334
189.953	110
190.022	473
190.091	1163
190.161	1070
190.230	557
190.299	757
190.368	752
190.437	598
190.507	-216
190.576	-234
190.645	630
190.714	598
190.783	-693
190.853	570
190.922	1225
190.991	552
191.060	-124
191.129	202
191.198	-402
191.268	167
191.337	112
191.406	1044
191.475	-3
191.544	291
191.613	242
191.682	146
191.752	381
191.821	-32
191.890	367
191.959	221
192.028	472
192.097	520
192.166	289
192.235	-20
192.304	-96
192.373	-314
192.442	36
192.511	541
192.580	-241
192.650	529
192.719	893
192.788	585
192.857	-11
192.926	434
192.995	1127
193.064	207
193.133	1335
193.202	541
193.271	597
193.340	782
193.409	114
193.478	914
193.547	555
193.615	1801
193.684	1537
193.753	1102
193.822	335
193.891	591
193.960	835
194.029	347
194.098	270
194.167	-59
194.236	505
194.305	500
194.374	-669
194.443	-213
194.512	607
194.580	716
194.649	648
194.718	166
194.787	271
194.856	-431
194.925	206
194.994	975
195.062	748
195.131	361
195.200	476
195.269	621
195.338	155
195.407	640
195.475	690
195.544	1152
195.613	196
195.682	564
195.751	293
195.819	310
195.888	421
195.957	946
196.026	30
196.094	581
196.163	316
196.232	319
196.301	546
196.369	669
196.438	311
196.507	260
196.576	-232
196.644	-755
196.713	-242
196.782	445
196.850	535
196.919	418
196.988	332
197.056	599
197.125	807
197.194	300
197.262	-68
197.331	58
197.400	544
197.468	391
197.537	281
197.606	808
197.674	621
197.743	1585
197.812	192
197.880	1005
197.949	397
198.017	1064
198.086	968
198.155	-14
198.223	589
198.292	1265
198.360	755
198.429	304
198.497	318
198.566	1960
198.635	1192
198.703	902
198.772	450
198.840	1821
198.909	435
198.977	651
199.046	-246
199.114	526
199.183	259
199.251	438
199.320	383
199.388	70
199.457	327
199.525	390
199.594	186
199.662	303
199.731	778
199.799	531
199.867	72
199.936	575
200.004	100
200.073	981
200.141	325
200.210	248
200.278	631
200.346	995
200.415	134
200.483	705
200.552	100
200.620	709
200.688	855
200.757	36
200.825	376
200.893	649
200.962	-414
201.030	407
201.098	-5
201.167	644
201.235	171
201.303	923
201.372	402
201.440	713
201.508	188
201.577	515
201.645	701
201.713	558
201.781	509
201.850	226
201.918	653
201.986	50
202.055	640
202.123	489
202.191	423
202.259	442
202.327	136
202.396	378
202.464	859
202.532	889
202.600	1893
202.669	648
202.737	625
202.805	-538
202.873	499
202.941	352
203.009	482
203.078	823
203.146	-27
203.214	166
203.282	-563
203.350	731
203.418	-80
203.487	1187
203.555	-555
203.623	-56
203.691	850
203.759	404
203.827	-56
203.895	483
203.963	620
204.031	145
204.099	202
204.168	669
204.236	635
204.304	857
204.372	250
204.440	299
204.508	369
204.576	642
204.644	216
204.712	1066
204.780	747
204.848	636
204.916	881
204.984	34
205.052	523
205.120	1082
205.188	760
205.256	959
205.324	1135
205.392	721
205.460	111
205.528	373
205.596	-34
205.664	779
205.732	573
205.799	2185
205.867	1922
205.935	600
206.003	567
206.071	264
206.139	694
206.207	129
206.275	594
206.343	36
206.411	252
206.478	1113
206.546	924
206.614	475
206.682	1101
206.750	296
206.818	1656
206.885	991
206.953	355
207.021	1184
207.089	1082
207.157	1072
207.225	465
207.292	319
207.360	766
207.428	675
207.496	955
207.563	120
207.631	529
207.699	184
207.767	391
207.834	760
207.902	798
207.970	725
208.038	615
208.105	1177
208.173	545
208.241	1224
208.309	1050
208.376	998
208.444	1660
208.512	832
208.579	314
208.647	1131
208.715	728
208.782	865
208.850	1339
208.918	746
208.985	583
209.053	1108
209.120	821
209.188	979
209.256	618
209.323	883
209.391	1143
209.459	1550
209.526	836
209.594	391
209.661	597
209.729	1181
209.796	1082
209.864	683
209.932	353
209.999	1062
210.067	799
210.134	1267
210.202	1057
210.269	1105
210.337	1715
210.404	860
210.472	957
210.539	873
210.607	988
210.674	618
210.742	975
210.809	562
210.877	843
210.944	946
211.012	420
211.079	1898
211.146	468
211.214	797
211.281	1688
211.349	934
211.416	891
211.484	1274
211.551	177
211.618	1128
211.686	1384
211.753	388
211.821	863
211.888	567
211.955	617
212.023	744
212.090	1855
212.157	873
212.225	583
212.292	1852
212.359	3068
212.427	6637
212.494	1931
212.561	1047
212.629	881
212.696	903
212.763	949
212.831	1112
212.898	265
212.965	1056
213.032	1154
213.100	1727
213.167	1033
213.234	1293
213.301	832
213.369	1577
213.436	1206
213.503	715
213.570	1421
213.638	642
213.705	102
213.772	993
213.839	1260
213.906	632
213.973	1022
214.041	471
214.108	795
214.175	1154
214.242	41
214.309	1039
214.376	727
214.444	1039
214.511	43
214.578	1070
214.645	1418
214.712	1471
214.779	1440
214.846	952
214.913	1136
214.980	1263
215.048	1655
215.115	1918
215.182	1490
215.249	1404
215.316	1039
215.383	688
215.450	1476
215.517	1367
215.584	220
215.651	342
215.718	445
215.785	1140
215.852	802
215.919	1052
215.986	1599
216.053	1153
216.120	550
216.187	1596
216.254	1019
216.321	896
216.388	538
216.455	943
216.522	936
216.589	1276
216.656	2064
216.722	1675
216.789	1856
216.856	2692
216.923	1207
216.990	1024
217.057	1295
217.124	1538
217.191	1741
217.258	2994
217.324	2797
217.391	2697
217.458	2102
217.525	1651
217.592	1155
217.659	1337
217.725	1011
217.792	2222
217.859	1405
217.926	1046
217.993	583
218.059	644
218.126	672
218.193	691
218.260	33
218.327	72
218.393	473
218.460	518
218.527	-316
218.594	817
218.660	1380
218.727	1371
218.794	-454
218.860	514
218.927	459
218.994	708
219.061	991
219.127	693
219.194	1483
219.261	953
219.327	37
219.394	467
219.461	678
219.527	-63
219.594	635
219.661	842
219.727	642
219.794	886
219.860	555
219.927	1109
219.994	1175
220.060	3598
220.127	1189
220.193	1413
220.260	852
220.326	2534
220.393	4229
220.460	4494
220.526	2758
220.593	1724
220.659	1920
220.726	2018
220.792	4503
220.859	3732
220.925	6394
220.992	8220
221.058	7187
221.125	5112
221.191	3692
221.258	2075
221.324	1750
221.391	759
221.457	406
221.524	991
221.590	1263
221.657	4622
221.723	2039
221.789	3433
221.856	1735
221.922	1302
221.989	1217
222.055	943
222.121	-133
222.188	1688
222.254	1390
222.321	1164
222.387	69
222.453	871
222.520	788
222.586	700
222.652	565
222.719	320
222.785	713
222.851	291
222.918	650
222.984	299
223.050	65
223.116	820
223.183	741
223.249	488
223.315	266
223.382	237
223.448	973
223.514	296
223.580	86
223.647	709
223.713	234
223.779	513
223.845	646
223.911	563
223.978	37
224.044	343
224.110	191
224.176	466
224.242	192
224.309	78
224.375	-183
224.441	682
224.507	67
224.573	946
224.639	535
224.705	-203
224.772	191
224.838	932
224.904	900
224.970	600
225.036	332
225.102	1012
225.168	931
225.234	545
225.300	728
225.366	981
225.432	271
225.499	403
225.565	345
225.631	485
225.697	840
225.763	1515
225.829	1708
225.895	922
225.961	1456
226.027	1497
226.093	1630
226.159	2234
226.225	2860
226.291	9035
226.357	9840
226.423	4845
226.489	3531
226.554	1790
226.620	1676
226.686	2765
226.752	3733
226.818	6548
226.884	14065
226.950	10509
227.016	4403
227.082	2690
227.148	1862
227.214	1494
227.279	1206
227.345	1646
227.411	1180
227.477	2185
227.543	4339
227.609	3182
227.674	2066
227.740	1253
227.806	733
227.872	197
227.938	1307
228.003	2144
228.069	780
228.135	700
228.201	358
228.267	512
228.332	491
228.398	1434
228.464	798
228.530	-83
228.595	726
228.661	677
228.727	1935
228.792	1418
228.858	475
228.924	247
228.990	1060
229.055	1224
229.121	1176
229.187	146
229.252	1110
229.318	429
229.384	691
229.449	505
229.515	-152
229.581	223
229.646	1697
229.712	1120
229.777	2012
229.843	1696
229.909	1217
229.974	2068
230.040	1161
230.105	1611
230.171	1505
230.236	2346
230.302	2541
230.368	1592
230.433	1117
230.499	1049
230.564	1706
230.630	614
230.695	207
230.761	1845
230.826	48
230.892	1731
230.957	1240
231.023	412
231.088	523
231.154	1318
231.219	926
231.284	1435
231.350	570
231.415	452
231.481	944
231.546	720
231.612	638
231.677	243
231.742	-157
231.808	797
231.873	728
231.939	122
232.004	1729
232.069	641
232.135	843
232.200	807
232.265	377
232.331	718
232.396	294
232.461	-278
232.527	-197
232.592	60
232.657	253
232.723	1494
232.788	331
232.853	1276
232.918	10
232.984	196
233.049	453
233.114	1299
233.179	1980
233.245	2273
233.310	1724
233.375	765
233.440	169
233.506	39
233.571	170
233.636	58
233.701	615
233.766	1689
233.832	1362
233.897	1303
233.962	1184
234.027	1192
234.092	688
234.157	1009
234.222	1464
234.288	1941
234.353	5407
234.418	4255
234.483	2214
234.548	1435
234.613	1361
234.678	652
234.743	1622
234.808	5183
234.873	2273
234.938	1499
235.004	1016
235.069	1897
235.134	1319
235.199	481
235.264	745
235.329	44
235.394	844
235.459	1266
235.524	1592
235.589	1115
235.654	123
235.719	389
235.784	1913
235.849	1293
235.913	2304
235.978	3366
236.043	2823
236.108	584
236.173	764
236.238	1752
236.303	998
236.368	607
236.433	3026
236.498	3092
236.563	1535
236.627	6559
236.692	17535
236.757	9717
236.822	4416
236.887	3897
236.952	2771
237.017	2351
237.081	2646
237.146	3613
237.211	7661
237.276	18860
237.341	23080
237.405	10291
237.470	4981
237.535	3104
237.600	1819
237.664	1229
237.729	1517
237.794	3057
237.859	5083
237.923	2330
237.988	1135
238.053	2659
238.118	2554
238.182	7264
238.247	4462
238.312	2842
238.376	1477
238.441	407
238.506	1820
238.570	806
238.635	1549
238.700	1192
238.764	134
238.829	4574
238.893	2362
238.958	2412
239.023	1989
239.087	1046
239.152	974
239.216	748
239.281	769
239.346	537
239.410	781
239.475	1582
239.539	7347
239.604	2649
239.668	2236
239.733	976
239.797	2810
239.862	7289
239.926	5545
239.991	2317
240.055	1327
240.120	1148
240.184	1109
240.249	813
240.313	9
240.378	1144
240.442	5088
240.507	5044
240.571	1433
240.635	3249
240.700	2754
240.764	659
240.829	1060
240.893	355
240.957	997
241.022	4688
241.086	5897
241.151	2341
241.215	452
241.279	2529
241.344	2674
241.408	1629
241.472	1231
241.537	1695
241.601	1515
241.665	958
241.730	814
241.794	1445
241.858	1630
241.922	1081
241.987	1362
242.051	787
242.115	1323
242.179	976
242.244	554
242.308	1457
242.372	1009
242.436	2078
242.501	1097
242.565	756
242.629	873
242.693	1060
242.757	520
242.822	681
242.886	957
242.950	849
243.014	-381
243.078	2863
243.142	674
243.206	920
243.271	1463
243.335	733
243.399	1790
243.463	11743
243.527	19277
243.591	5146
243.655	2072
243.719	736
243.783	3110
243.847	3182
243.911	3381
243.975	4931
244.040	2126
244.104	2173
244.168	1533
244.232	2608
244.296	3018
244.360	3981
244.424	1465
244.488	1832
244.552	1584
244.615	-131
244.679	595
244.743	1289
244.807	1301
244.871	1010
244.935	865
244.999	612
245.063	874
245.127	1519
245.191	3073
245.255	2232
245.319	2006
245.383	707
245.446	1981
245.510	852
245.574	803
245.638	916
245.702	1934
245.766	4022
245.829	1976
245.893	1064
245.957	312
246.021	1854
246.085	2080
246.149	2639
246.212	5105
246.276	5571
246.340	3097
246.404	2355
246.467	2533
246.531	3266
246.595	2938
246.659	2302
246.722	1754
246.786	2310
246.850	2214
246.913	2750
246.977	905
247.041	1571
247.104	799
247.168	2489
247.232	5821
247.295	8738
247.359	2601
247.423	2364
247.486	3841
247.550	2031
247.614	1456
247.677	2427
247.741	1201
247.804	1446
247.868	1481
247.932	4377
247.995	6644
248.059	2257
248.122	865
248.186	3230
248.249	4219
248.313	16206
248.376	13016
248.440	7697
248.503	2408
248.567	4014
248.630	4733
248.694	6465
248.757	8775
248.821	15239
248.884	8624
248.948	8540
249.011	12381
249.075	18020
249.138	12593
249.202	5090
249.265	3259
249.328	4560
249.392	3433
249.455	2738
249.519	2085
249.582	3302
249.645	6377
249.709	3615
249.772	2463
249.835	3594
249.899	2419
249.962	2130
250.025	1585
250.089	6919
250.152	6846
250.215	3422
250.279	2170
250.342	2845
250.405	2167
250.468	2128
250.532	3674
250.595	6595
250.658	27416
250.721	26903
250.785	10010
250.848	5625
250.911	2800
250.974	3503
251.038	5360
251.101	8682
251.164	4174
251.227	5813
251.290	4403
251.354	8789
251.417	34250
251.480	20394
251.543	22553
251.606	55703
251.669	28648
251.732	13091
251.795	13128
251.859	16428
251.922	33194
251.985	13784
252.048	6511
252.111	3853
252.174	4334
252.237	11169
252.300	16634
252.363	25541
252.426	37260
252.489	13926
252.552	7592
252.615	4719
252.678	6974
252.741	13667
252.804	24170
252.867	40009
252.930	21291
252.993	11295
253.056	6873
253.119	4824
253.182	4018
253.245	6820
253.308	5164
253.371	4808
253.434	3656
253.497	5231
253.559	8745
253.622	5128
253.685	8836
253.748	6923
253.811	2878
253.874	5294
253.937	3648
254.000	2409
254.062	6943
254.125	7781
254.188	10270
254.251	5645
254.314	2767
254.376	7555
254.439	6325
254.502	5475
254.565	6470
254.628	10255
254.690	5911
254.753	2990
254.816	2297
254.878	3485
254.941	6688
255.004	3900
255.067	2920
255.129	2550
255.192	1775
255.255	784
255.317	2234
255.380	1059
255.443	1262
255.505	1185
255.568	462
255.631	1974
255.693	2065
255.756	685
255.819	1637
255.881	726
255.944	1096
256.006	682
256.069	1213
256.132	552
256.194	1665
256.257	5002
256.319	3585
256.382	2315
256.444	1682
256.507	1594
256.569	1400
256.632	1544
256.694	2767
256.757	14330
256.819	23949
256.882	6189
256.944	4038
257.007	3244
257.069	2897
257.132	2097
257.194	2334
257.257	2359
257.319	790
257.381	1739
257.444	9248
257.506	36946
257.569	27418
257.631	14107
257.693	7218
257.756	3946
257.818	2073
257.880	1297
257.943	2148
258.005	1204
258.067	478
258.130	1280
258.192	2372
258.254	4028
258.317	1683
258.379	2213
258.441	6181
258.503	4371
258.566	9089
258.628	7216
258.690	1192
258.753	3259
258.815	3976
258.877	2264
258.939	2212
259.001	1561
259.064	1189
259.126	2448
259.188	2557
259.250	2183
259.312	3653
259.375	8923
259.437	3056
259.499	1714
259.561	1779
259.623	892
259.685	1144
259.747	2017
259.809	8948
259.872	10726
259.934	22553
259.996	14251
260.058	3616
260.120	1518
260.182	1537
260.244	1502
260.306	454
260.368	1811
260.430	744
260.492	5144
260.554	8575
260.616	5104
260.678	11832
260.740	9284
260.802	1778
260.864	3145
260.926	893
260.988	1466
261.050	2459
261.112	6812
261.174	16337
261.236	7456
261.298	2295
261.359	7747
261.421	6319
261.483	2287
261.545	1603
261.607	826
261.669	1115
261.731	4254
261.793	7323
261.854	2104
261.916	2039
261.978	2034
262.040	2375
262.102	1837
262.164	3017
262.225	1919
262.287	1690
262.349	5232
262.411	2031
262.472	965
262.534	4632
262.596	6301
262.658	1784
262.719	924
262.781	3668
262.843	6378
262.904	1819
262.966	1595
263.028	1913
263.090	21253
263.151	31258
263.213	9581
263.275	6110
263.336	2221
263.398	1728
263.459	1346
263.521	1774
263.583	5254
263.644	1818
263.706	455
263.767	1033
263.829	647
263.891	415
263.952	676
264.014	640
264.075	3516
264.137	6072
264.198	2364
264.260	346
264.321	815
264.383	5858
264.444	9702
264.506	1210
264.567	1850
264.629	5436
264.690	7505
264.752	3204
264.813	1546
264.875	974
264.936	1772
264.998	849
265.059	563
265.120	820
265.182	2607
265.243	19571
265.305	9943
265.366	2108
265.427	1831
265.489	1113
265.550	124
265.611	1517
265.673	1045
265.734	459
265.795	798
265.857	530
265.918	264
265.979	5741
266.040	28499
266.102	12177
266.163	3880
266.224	3620
266.286	1712
266.347	518
266.408	1527
266.469	1213
266.530	-36
266.592	-167
266.653	3799
266.714	3298
266.775	680
266.836	655
266.898	1038
266.959	2029
267.020	1068
267.081	1416
267.142	-15
267.203	-132
267.264	789
267.326	1938
267.387	317
267.448	-294
267.509	941
267.570	242
267.631	387
267.692	-759
267.753	961
267.814	-790
267.875	3750
267.936	5461
267.997	3394
268.058	2293
268.119	1079
268.180	853
268.241	88
268.302	-192
268.363	343
268.424	487
268.485	838
268.546	663
268.607	-193
268.668	42
268.729	325
268.790	-34
268.851	605
268.912	4656
268.972	3541
269.033	1535
269.094	293
269.155	1204
269.216	1165
269.277	625
269.338	538
269.398	976
269.459	656
269.520	1516
269.581	2097
269.642	3360
269.702	816
269.763	1014
269.824	1226
269.885	2283
269.945	2336
270.006	677
270.067	610
270.128	-308
270.188	-77
270.249	136
270.310	407
270.370	945
270.431	449
270.492	-192
270.553	794
270.613	2977
270.674	5956
270.734	1330
270.795	963
270.856	2283
270.916	971
270.977	1425
271.038	2222
271.098	924
271.159	3312
271.219	1060
271.280	546
271.340	-358
271.401	727
271.462	4019
271.522	1388
271.583	519
271.643	733
271.704	711
271.764	1049
271.825	4868
271.885	17767
271.946	13431
272.006	4822
272.066	10535
272.127	11700
272.187	4296
272.248	1913
272.308	2421
272.369	9763
272.429	3274
272.489	4553
272.550	2897
272.610	5094
272.671	1585
272.731	3613
272.791	5426
272.852	1856
272.912	2421
272.972	930
273.033	1466
273.093	2998
273.153	3246
273.214	1446
273.274	1749
273.334	11616
273.394	13109
273.455	5195
273.515	7881
273.575	12462
273.635	3920
273.696	9477
273.756	12714
273.816	4482
273.876	2761
273.936	9424
273.997	10645
274.057	2112
274.117	1751
274.177	4733
274.237	20995
274.297	12536
274.358	10017
274.418	11833
274.478	6865
274.538	2208
274.598	2262
274.658	12224
274.718	9766
274.778	4072
274.838	966
274.898	8351
274.958	15612
275.018	14506
275.078	6219
275.138	3002
275.198	1611
275.258	850
275.318	2054
275.378	4737
275.438	3748
275.498	1996
275.558	11514
275.618	16251
275.678	7549
275.738	7892
275.798	3472
275.858	1647
275.918	464
275.978	2995
276.038	1289
276.098	1620
276.157	4891
276.217	10867
276.277	3589
276.337	3062
276.397	1531
276.457	2094
276.517	1600
276.576	1207
276.636	751
276.696	3320
276.756	7719
276.815	3354
276.875	1402
276.935	2125
276.995	1724
277.055	1098
277.114	1280
277.174	4418
277.234	8321
277.293	2929
277.353	1741
277.413	852
277.472	1041
277.532	1204
277.592	1752
277.651	12799
277.711	12637
277.771	5695
277.830	24511
277.890	10848
277.950	15936
278.009	29608
278.069	8219
278.128	15317
278.188	12881
278.248	7916
278.307	21421
278.367	7642
278.426	2570
278.486	1904
278.545	666
278.605	1165
278.664	948
278.724	1469
278.783	8903
278.843	12823
278.902	3775
278.962	2462
279.021	2778
279.081	3913
279.140	2987
279.199	3525
279.259	2642
279.318	2673
279.378	3784
279.437	8719
279.496	34184
279.556	102875
279.615	49173
279.675	15239
279.734	9513
279.793	15835
279.853	17777
279.912	5835
279.971	3743
280.031	3597
280.090	10653
280.149	11149
280.208	13565
280.268	78613
280.327	44606
280.386	10898
280.445	10944
280.505	6475
280.564	3616
280.623	2516
280.682	5572
280.742	7333
280.801	2558
280.860	1359
280.919	1501
280.978	1315
281.037	567
281.097	494
281.156	1267
281.215	1734
281.274	2927
281.333	12588
281.392	4759
281.451	1164
281.510	1203
281.569	1202
281.628	646
281.688	1299
281.747	2100
281.806	701
281.865	827
281.924	752
281.983	326
282.042	501
282.101	477
282.160	925
282.219	195
282.278	1081
282.337	7313
282.396	2945
282.454	1055
282.513	2991
282.572	9468
282.631	3663
282.690	1288
282.749	951
282.808	1520
282.867	2099
282.926	1835
282.985	1124
283.043	281
283.102	789
283.161	649
283.220	6490
283.279	9250
283.338	1964
283.396	1362
283.455	1049
283.514	1841
283.573	3314
283.631	1319
283.690	894
283.749	1529
283.808	4530
283.866	2902
283.925	1480
283.984	898
284.043	3391
284.101	2540
284.160	1667
284.219	2333
284.277	1366
284.336	4807
284.395	16502
284.453	7662
284.512	3499
284.570	4700
284.629	2711
284.688	3787
284.746	4305
284.805	5682
284.863	7846
284.922	8961
284.981	10313
285.039	15072
285.098	29871
285.156	72095
285.215	88429
285.273	89497
285.332	55379
285.390	30681
285.449	19357
285.507	13085
285.566	9528
285.624	6759
285.683	5185
285.741	3487
285.799	2860
285.858	2823
285.916	2705
285.975	1997
286.033	1891
286.091	1670
286.150	973
286.208	1533
286.267	1873
286.325	1791
286.383	4368
286.442	1465
286.500	1299
286.558	913
286.616	898
286.675	2079
286.733	2062
286.791	1395
286.850	1749
286.908	3029
286.966	4316
287.024	1192
287.083	767
287.141	149
287.199	1736
287.257	1732
287.315	1110
287.374	1534
287.432	5370
287.490	2549
287.548	1305
287.606	1119
287.664	1269
287.723	1997
287.781	2376
287.839	1822
287.897	1977
287.955	1243
288.013	2783
288.071	9612
288.129	65884
288.187	115680
288.245	35899
288.303	13432
288.361	8222
288.419	5740
288.477	3786
288.535	1622
288.593	1679
288.651	1289
288.709	736
288.767	1340
288.825	785
288.883	668
288.941	1194
288.999	-277
289.057	61
289.115	448
289.173	904
289.231	1010
289.289	1069
289.346	564
289.404	1447
289.462	2382
289.520	2417
289.578	1059
289.636	426
289.694	236
289.751	1262
289.809	415
289.867	535
289.925	944
289.983	756
290.040	518
290.098	136
290.156	215
290.214	2014
290.271	91
290.329	447
290.387	227
290.444	-209
290.502	-334
290.560	897
290.617	707
290.675	-21
290.733	382
290.790	917
290.848	241
290.906	526
290.963	1150
291.021	407
291.078	-8
291.136	849
291.194	8751
291.251	10111
291.309	2164
291.366	836
291.424	510
291.481	712
291.539	288
291.596	288
291.654	-76
291.711	214
291.769	1282
291.826	2398
291.884	1539
291.941	391
291.999	206
292.056	1140
292.114	589
292.171	474
292.228	700
292.286	1916
292.343	3067
292.401	3685
292.458	1977
292.515	1369
292.573	2362
292.630	1687
292.687	1846
292.745	658
292.802	2663
292.859	8224
292.917	11791
292.974	4256
293.031	1465
293.089	888
293.146	1272
293.203	771
293.260	-397
293.318	2791
293.375	2353
293.432	216
293.489	679
293.546	-171
293.604	1774
293.661	8365
293.718	16086
293.775	7092
293.832	3702
293.889	3024
293.947	2850
294.004	1406
294.061	2079
294.118	6968
294.175	14672
294.232	15707
294.289	4694
294.346	2883
294.403	2847
294.460	1896
294.517	1824
294.574	973
294.631	837
294.688	1231
294.745	6931
294.802	25608
294.859	21057
294.916	8464
294.973	4496
295.030	3456
295.087	2266
295.144	1796
295.201	879
295.258	936
295.315	1946
295.372	10964
295.429	12381
295.486	4608
295.542	3241
295.599	15883
295.656	16693
295.713	12894
295.770	12302
295.827	4366
295.883	2076
295.940	2483
295.997	5037
296.054	2879
296.111	1601
296.167	1789
296.224	723
296.281	1051
296.338	333
296.394	804
296.451	1190
296.508	9438
296.564	10775
296.621	8225
296.678	20006
296.734	18638
296.791	6142
296.848	3808
296.904	5604
296.961	11717
297.018	17494
297.074	9233
297.131	3621
297.187	2757
297.244	4354
297.301	21657
297.357	22607
297.414	7270
297.470	4091
297.527	2202
297.583	2149
297.640	2033
297.696	1460
297.753	925
297.809	266
297.866	515
297.922	533
297.979	489
298.035	1006
298.092	2688
298.148	11307
298.204	6239
298.261	2121
298.317	11005
298.374	19025
298.430	8285
298.486	4836
298.543	3346
298.599	2941
298.656	2666
298.712	8213
298.768	18785
298.824	9476
298.881	3228
298.937	1261
298.993	2528
299.050	2568
299.106	2175
299.162	1999
299.218	1801
299.275	1366
299.331	1023
299.387	5255
299.443	20961
299.500	18010
299.556	7480
299.612	3549
299.668	3972
299.724	8752
299.780	5779
299.837	2883
299.893	6106
299.949	21410
300.005	17360
300.061	20957
300.117	25811
300.173	9789
300.229	5660
300.285	6907
300.341	6214
300.397	2936
300.453	1381
300.510	728
300.566	1666
300.622	3799
300.678	18823
300.734	21066
300.790	17345
300.845	15627
300.901	15962
300.957	21517
301.013	10582
301.069	4942
301.125	4382
301.181	2912
301.237	2881
301.293	1176
301.349	835
301.405	990
301.461	1773
301.516	1505
301.572	2401
301.628	4921
301.684	3290
301.740	8199
301.796	9496
301.851	7757
301.907	11905
301.963	8539
302.019	23920
302.074	52435
302.130	39400
302.186	16591
302.242	6703
302.297	4245
302.353	6619
302.409	11527
302.464	7285
302.520	8685
302.576	20365
302.631	17814
302.687	9759
302.743	5127
302.798	2879
302.854	1431
302.910	2545
302.965	3187
303.021	5483
303.076	5382
303.132	8836
303.187	7486
303.243	4239
303.299	2181
303.354	2235
303.410	2290
303.465	1492
303.521	818
303.576	1198
303.632	1359
303.687	6364
303.743	16225
303.798	10172
303.853	4304
303.909	1918
303.964	1619
304.020	5815
304.075	5895
304.130	6996
304.186	11937
304.241	12170
304.297	8280
304.352	4221
304.358	4051
304.407	2666
304.449	3037
304.463	3167
304.518	2187
304.539	2070
304.573	1872
304.629	2074
304.630	2137
304.684	5050
304.720	11838
304.739	15312
304.794	14364
304.811	12393
304.850	7462
304.902	3596
304.905	3363
304.960	2816
304.992	3083
305.015	3248
305.071	2885
305.083	2689
305.126	1982
305.173	1048
305.181	893
305.236	1056
305.264	1269
305.292	1510
305.347	2316
305.354	2315
305.402	2368
305.445	3126
305.457	3312
305.512	3387
305.535	3302
305.567	3214
305.622	3235
305.626	3473
305.678	8048
305.716	17459
305.733	21200
305.788	17151
305.807	15607
305.843	12504
305.897	17527
305.898	17596
305.953	13256
305.988	9645
306.008	7541
306.063	4774
306.078	4265
306.118	3200
306.168	2394
306.173	2331
306.228	1472
306.259	1562
306.283	1633
306.338	1448
306.349	1566
306.393	2237
306.440	3073
306.448	3197
306.503	2759
306.530	3101
306.558	3969
306.613	10537
306.620	11172
306.668	15405
306.711	18811
306.723	19149
306.778	12877
306.801	10377
306.833	7152
306.888	3836
306.892	3653
306.943	2514
306.982	2438
306.997	2431
307.052	2527
307.072	2459
307.107	2319
307.162	3045
307.163	3067
307.217	5910
307.253	7728
307.272	8398
307.327	7511
307.343	6883
307.381	5080
307.434	4779
307.436	4909
307.491	11138
307.524	16314
307.546	18665
307.600	16169
307.614	14875
307.655	8850
307.704	4128
307.710	3955
307.765	5211
307.795	7248
307.819	9714
307.874	14770
307.885	14544
307.929	10217
307.975	7711
307.984	7797
308.038	9690
308.065	12386
308.093	19793
308.148	48629
308.156	54734
308.202	95980
308.246	108570
308.257	102981
308.312	56161
308.336	40017
308.366	31357
308.421	18631
308.426	17719
308.475	11734
308.517	8082
308.530	7476
308.585	5858
308.607	5549
308.639	5523
308.694	5799
308.697	5985
308.748	12066
308.787	17124
308.803	17676
308.857	13654
308.877	12158
308.912	9849
308.967	8663
308.967	8649
309.021	11549
309.058	14838
309.076	18445
309.130	32636
309.148	38950
309.185	65174
309.238	117345
309.239	118051
309.293	138367
309.328	133601
309.348	113375
309.402	57123
309.418	42773
309.457	29660
309.508	17815
309.511	17537
309.566	15343
309.598	15497
309.620	18524
309.674	28670
309.688	30828
309.729	30301
309.778	26027
309.783	25242
309.837	16129
309.868	11919
309.892	12472
309.946	16824
309.959	18207
310.001	26119
310.049	32249
310.055	31159
310.109	18783
310.139	12072
310.163	9483
310.218	5628
310.229	4983
310.272	4341
310.319	3533
310.326	3430
310.381	3242
310.409	3067
310.435	2901
310.489	2744
310.499	2709
310.543	2894
310.589	3148
310.598	3123
310.652	3009
310.679	2813
310.706	2746
310.760	2767
310.769	2765
310.814	2328
310.859	1833
310.868	1907
310.923	2511
310.948	2799
310.977	2908
311.031	3045
311.038	3063
311.085	3225
311.128	3263
311.139	3232
311.193	3162
311.218	3130
311.247	2878
311.301	2298
311.308	2238
311.356	2162
311.398	1965
311.410	1973
311.464	2116
311.488	2145
311.518	2214
311.572	2452
311.578	2478
311.626	3250
311.668	3842
311.680	3887
311.734	4086
311.758	4155
311.788	4078
311.842	3939
311.847	3923
311.896	4843
311.937	5637
311.950	5631
312.004	5569
312.027	5512
312.058	4458
312.112	2609
312.117	2427
312.165	2139
312.207	1905
312.297	3975
312.386	3684
312.476	2654
312.566	5379
312.656	3576
312.745	2715
312.835	2349
312.925	3290
313.015	3768
313.104	3364
313.194	3118
313.284	2653
313.374	3178
313.463	3693
313.553	3005
313.643	2714
313.732	2580
313.822	2646
313.912	3036
314.001	3053
314.091	4027
314.180	5487
314.270	4265
314.360	4309
314.449	4136
314.539	2768
314.628	3295
314.718	3429
314.808	3941
314.897	3262
314.987	3192
315.076	3837
315.166	5287
315.255	5159
315.345	3823
315.434	3619
315.524	3463
315.613	3760
315.703	4844
315.792	7749
315.881	24137
315.971	12997
316.060	6520
316.150	8941
316.239	9541
316.328	5348
316.418	3362
316.507	2419
316.597	4325
316.686	4397
316.775	5460
316.865	10793
316.954	3566
317.043	2958
317.133	2848
317.222	3351
317.311	3095
317.400	2322
317.490	3425
317.579	4817
317.668	3446
317.757	4918
317.847	12478
317.936	43583
318.025	20676
318.114	9668
318.203	6897
318.293	7252
318.382	15540
318.471	12686
318.560	15956
318.649	28385
318.738	8890
318.828	3990
318.917	3968
319.006	4382
319.095	11830
319.184	33365
319.273	21918
319.362	9808
319.451	3281
319.540	3126
319.629	5763
319.718	11421
319.807	4678
319.896	10073
319.985	39223
320.074	19584
320.163	4629
320.252	6124
320.341	5925
320.430	5765
320.519	5957
320.608	5005
320.697	4067
320.786	3978
320.875	4358
320.964	5232
321.053	7641
321.142	9637
321.230	13107
321.319	9102
321.408	21059
321.497	12518
321.586	9058
321.675	10152
321.764	9809
321.852	6768
321.941	11645
322.030	8618
322.119	7473
322.207	19867
322.296	16776
322.385	10068
322.474	9694
322.562	24230
322.651	17535
322.740	8935
322.829	13730
322.917	13235
323.006	9496
323.095	7197
323.183	5510
323.272	6983
323.361	11535
323.449	38183
323.538	16325
323.626	24915
323.715	22062
323.804	5768
323.892	22416
323.981	16691
324.069	3904
324.158	11348
324.246	16229
324.335	4557
324.424	7946
324.512	4096
324.601	3372
324.689	6449
324.778	12135
324.866	9282
324.954	3988
325.043	3827
325.131	5398
325.220	10739
325.308	13049
325.397	8913
325.485	6857
325.574	2362
325.662	2740
325.750	2513
325.839	3094
325.927	2159
326.015	2655
326.104	3582
326.192	6557
326.280	2629
326.369	2781
326.457	3285
326.545	6156
326.634	4235
326.722	2696
326.810	2382
326.898	2384
326.987	3100
327.075	5121
327.163	7297
327.251	3319
327.340	4771
327.428	6625
327.516	3143
327.604	2416
327.692	2278
327.781	2437
327.869	4941
327.957	3365
328.045	3198
328.133	2761
328.221	3340
328.309	3000
328.397	1884
328.485	2616
328.574	3708
328.662	12548
328.750	8654
328.838	3498
328.926	2942
329.014	1844
329.102	3237
329.190	7884
329.278	7362
329.366	2085
329.454	1486
329.542	1838
329.630	1507
329.718	2117
329.806	3105
329.893	3478
329.981	2715
330.069	3459
330.157	13105
330.245	48157
330.333	33645
330.421	6339
330.509	4012
330.597	13161
330.684	12124
330.772	4229
330.860	6070
330.948	7107
331.036	4815
331.123	2267
331.211	3086
331.299	2893
331.387	5726
331.475	12569
331.562	4208
331.650	1958
331.738	2121
331.825	3168
331.913	2158
332.001	2165
332.089	2285
332.176	5155
332.264	10902
332.352	11793
332.439	3383
332.527	3033
332.614	2067
332.702	3226
332.790	1809
332.877	5514
332.965	12812
333.052	5062
333.140	3865
333.228	11243
333.315	4353
333.403	2648
333.490	6695
333.578	7733
333.665	12058
333.753	7937
333.840	2790
333.928	3551
334.015	7049
334.103	11350
334.190	41451
334.278	17795
334.365	7048
334.452	7622
334.540	4356
334.627	3862
334.715	5632
334.802	8754
334.889	40528
334.977	63460
335.064	15077
335.151	5348
335.239	3957
335.326	4872
335.413	16572
335.501	36751
335.588	5262
335.675	4449
335.762	4729
335.850	8468
335.937	6720
336.024	13839
336.111	54576
336.199	42079
336.286	11886
336.373	5488
336.460	3175
336.547	3283
336.635	3492
336.722	3765
336.809	3030
336.896	3639
336.983	9865
337.070	30267
337.157	46559
337.245	30460
337.332	28574
337.419	4045
337.506	1784
337.593	3028
337.680	7680
337.767	31827
337.854	10215
337.941	9295
338.028	10884
338.115	5174
338.202	3459
338.289	7129
338.376	28686
338.463	14122
338.550	14524
338.637	24437
338.724	5087
338.811	10180
338.898	2074
338.984	2054
339.071	2814
339.158	3248
339.245	7173
339.332	5669
339.419	5170
339.506	8613
339.593	1341
339.679	2052
339.766	2143
339.853	2136
339.940	5871
340.027	3420
340.113	2048
340.200	3114
340.287	2226
340.374	2586
340.460	5393
340.547	2334
340.634	2917
340.720	11639
340.807	11313
340.894	1508
340.980	2594
341.067	2121
341.154	3089
341.240	2288
341.327	6908
341.414	3063
341.500	3098
341.587	1449
341.674	2072
341.760	4310
341.847	7015
341.933	2066
342.020	444
342.106	916
342.193	2164
342.279	4197
342.366	2031
342.452	4773
342.539	3181
342.625	4293
342.712	15215
342.798	7864
342.885	3137
342.971	1557
343.058	1613
343.144	1123
343.230	1715
343.317	1707
343.403	1192
343.490	1404
343.576	1187
343.662	1295
343.749	2366
343.835	2585
343.921	3894
344.008	17506
344.094	60338
344.180	19678
344.267	4501
344.353	13620
344.439	22154
344.525	8979
344.612	3948
344.698	2864
344.784	2066
344.870	1535
344.957	1441
345.043	2643
345.129	1596
345.215	4615
345.301	2237
345.387	1838
345.474	1752
345.560	1894
345.646	2012
345.732	2001
345.818	1725
345.904	2037
345.990	2171
346.076	2697
346.162	4283
346.249	2681
346.335	1294
346.421	1757
346.507	4368
346.593	24751
346.679	8965
346.765	2580
346.851	2775
346.937	2430
347.023	1643
347.108	1863
347.194	1112
347.280	1733
347.366	2317
347.452	6516
347.538	27290
347.624	23082
347.710	21133
347.796	4210
347.882	1832
347.967	1803
348.053	2672
348.139	2679
348.225	1395
348.311	1499
348.397	1507
348.482	1894
348.568	3188
348.654	1699
348.740	4162
348.825	5882
348.911	4089
348.997	8995
349.083	28356
349.168	6529
349.254	2168
349.340	1971
349.425	1355
349.511	1406
349.597	2667
349.682	4003
349.768	15548
349.854	11711
349.939	2580
350.025	1740
350.110	2082
350.196	1092
350.282	1346
350.367	1192
350.453	1569
350.538	3237
350.624	2324
350.709	2813
350.795	1176
350.880	1972
350.966	1954
351.051	2911
351.137	2209
351.222	2146
351.308	3696
351.393	16443
351.479	5840
351.564	1599
351.649	1854
351.735	1787
351.820	1275
351.906	1315
351.991	2183
352.076	7569
352.162	17266
352.247	3669
352.332	1775
352.418	3236
352.503	4786
352.588	16911
352.673	22667
352.759	4079
352.844	2419
352.929	2514
353.014	2721
353.100	3133
353.185	3613
353.270	5509
353.355	6718
353.441	2174
353.526	2697
353.611	3668
353.696	5876
353.781	3724
353.866	1850
353.952	1879
354.037	3439
354.122	9519
354.207	10312
354.292	5187
354.377	1791
354.462	1835
354.547	1759
354.632	2554
354.717	2558
354.802	5704
354.887	2970
354.972	1351
355.057	951
355.142	759
355.227	837
355.312	2482
355.397	5246
355.482	14973
355.567	10614
355.652	4990
355.737	6898
355.822	16500
355.907	22007
355.991	3760
356.076	1937
356.161	1385
356.246	1294
356.331	1294
356.416	3356
356.501	22548
356.585	41775
356.670	6838
356.755	3428
356.840	3956
356.924	14709
357.009	70516
357.094	41708
357.179	6352
357.263	5709
357.348	4299
357.433	4624
357.517	4231
357.602	3603
357.687	3021
357.771	3969
357.856	15645
357.941	13227
358.025	11257
358.110	61186
358.195	45936
358.279	6467
358.364	3777
358.448	9879
358.533	34295
358.617	32720
358.702	26688
358.787	14375
358.871	5165
358.956	6178
359.040	2150
359.125	1917
359.209	2170
359.294	5774
359.378	16339
359.462	6810
359.547	3872
359.631	1588
359.716	2099
359.800	2244
359.885	3929
359.969	2143
360.053	1580
360.138	1832
360.222	2522
360.306	4655
360.391	5213
360.475	6391
360.559	20384
360.644	13834
360.728	12746
360.812	12004
360.896	48904
360.981	25200
361.065	13523
361.149	3852
361.233	2663
361.318	2822
361.402	3497
361.486	3307
361.570	1476
361.654	1850
361.739	4844
361.823	21694
361.907	54377
361.991	13753
362.075	5026
362.159	10395
362.243	11156
362.327	12093
362.411	23070
362.495	11255
362.580	5018
362.664	3534
362.748	3269
362.832	4190
362.916	8120
363.000	25824
363.084	68010
363.168	78599
363.252	23132
363.336	6844
363.420	6599
363.503	22633
363.587	44188
363.671	8654
363.755	4404
363.839	6695
363.923	4825
364.007	5552
364.091	9386
364.175	9989
364.258	46598
364.342	53439
364.426	77130
364.510	57674
364.594	16073
364.677	10562
364.761	33551
364.845	40443
364.929	10763
365.013	9041
365.096	6507
365.180	8874
365.264	8085
365.347	44165
365.431	30083
365.515	7097
365.598	2156
365.682	2551
365.766	3836
365.849	6954
365.933	3742
366.017	4640
366.100	4437
366.184	1133
366.267	2042
366.351	2106
366.435	1409
366.518	1440
366.602	1690
366.685	1632
366.769	1552
366.852	4170
366.936	8003
367.019	5753
367.103	3301
367.186	7242
367.270	3710
367.353	1012
367.436	2266
367.520	2088
367.603	2592
367.687	3454
367.770	5830
367.853	4766
367.937	8292
368.020	23533
368.104	7977
368.187	3787
368.270	6841
368.353	6544
368.437	6603
368.520	17891
368.603	14227
368.687	10682
368.770	30646
368.853	10773
368.936	5798
369.020	8447
369.103	3040
369.186	1471
369.269	2299
369.352	3246
369.436	6043
369.519	4748
369.602	2029
369.685	2084
369.768	2603
369.851	1897
369.934	1828
370.018	1775
370.101	4925
370.184	4903
370.267	3025
370.350	5298
370.433	8494
370.516	17435
370.599	35714
370.682	12578
370.765	13097
370.848	17119
370.931	33566
371.014	19615
371.097	4017
371.180	2992
371.263	975
371.346	1241
371.429	1984
371.511	2019
371.594	3282
371.677	5928
371.760	8021
371.843	5960
371.926	15937
372.009	56367
372.091	27577
372.174	10767
372.257	29228
372.340	18504
372.423	8179
372.505	13104
372.588	6949
372.671	7237
372.754	29965
372.836	24788
372.919	10547
373.002	30238
373.085	12701
373.167	5288
373.250	11815
373.332	28400
373.415	33678
373.498	78328
373.580	41891
373.663	31810
373.746	64352
373.828	18188
373.911	6798
373.993	6110
374.076	21590
374.159	32845
374.241	9265
374.324	24534
374.406	23904
374.489	16100
374.571	60708
374.654	39755
374.736	11123
374.819	34795
374.901	52962
374.983	68447
375.066	17630
375.148	5951
375.231	14225
375.313	45403
375.395	22228
375.478	5582
375.560	3495
375.643	4273
375.725	9193
375.807	41568
375.890	49681
375.972	22271
376.054	9284
376.136	14794
376.219	9612
376.301	9707
376.383	42785
376.465	25899
376.548	9528
376.630	10291
376.712	34106
376.794	27176
376.877	3596
376.959	1455
377.041	2259
377.123	4449
377.205	8284
377.287	2221
377.369	1013
377.452	1937
377.534	2038
377.616	2125
377.698	1551
377.780	1258
377.862	2277
377.944	2139
378.026	1680
378.108	1275
378.190	2098
378.272	1531
378.354	714
378.436	888
378.518	2022
378.600	9714
378.682	10224
378.764	15563
378.846	20604
378.928	4551
379.010	6464
379.091	4292
379.173	2413
379.255	1583
379.337	2130
379.419	6702
379.501	26341
379.583	17016
379.664	3357
379.746	5664
379.828	16179
379.910	25724
379.991	27316
380.073	6401
380.155	2326
380.237	2796
380.318	1862
380.400	1490
380.482	3155
380.564	6827
380.645	6801
380.727	7375
380.809	4522
380.890	3362
380.972	2907
381.053	1387
381.135	2907
381.217	4313
381.298	19867
381.380	14266
381.461	7132
381.543	27079
381.624	55116
381.706	14547
381.787	4983
381.869	5102
381.951	10837
382.032	51750
382.113	52154
382.195	11690
382.276	7250
382.358	10667
382.439	30498
382.521	35996
382.602	59958
382.684	33945
382.765	41727
382.846	60837
382.928	91892
383.009	74150
383.090	30895
383.172	94271
383.253	218242
383.334	92810
383.416	55019
383.497	41611
383.578	15961
383.659	23828
383.741	75005
383.822	255809
383.903	202337
383.984	49311
384.066	65577
384.147	55607
384.228	14381
384.309	8068
384.390	7234
384.471	5949
384.553	5230
384.634	6003
384.715	6776
384.796	4379
384.877	3993
384.958	12853
385.039	26421
385.120	11795
385.201	4581
385.282	5525
385.363	6170
385.444	5641
385.525	6931
385.606	22100
385.687	30668
385.768	8334
385.849	6849
385.930	19112
386.011	50161
386.092	21413
386.173	4978
386.254	3424
386.335	4073
386.416	4055
386.496	9134
386.577	21485
386.658	10839
386.739	5173
386.820	4623
386.901	4920
386.981	4635
387.062	3724
387.143	4790
387.224	15728
387.304	23743
387.385	9390
387.466	5736
387.547	6737
387.627	5890
387.708	7154
387.789	27434
387.869	47212
387.950	18919
388.031	3577
388.111	1867
388.192	6471
388.273	11443
388.353	7642
388.434	4213
388.514	5039
388.595	23025
388.676	42687
388.756	24669
388.837	17617
388.917	15167
388.998	3937
389.078	3712
389.159	2804
389.239	1931
389.320	4006
389.400	4007
389.480	5506
389.561	19354
389.641	15476
389.722	4626
389.802	5505
389.883	7422
389.963	21422
390.043	21277
390.124	7275
390.204	5545
390.284	19888
390.365	19136
390.445	14038
390.525	38225
390.605	45718
390.686	17109
390.766	7220
390.846	2986
390.927	2447
391.007	2439
391.087	3824
391.167	3808
391.247	3193
391.328	4209
391.408	7143
391.488	6741
391.568	2609
391.648	4143
391.728	4846
391.808	5397
391.888	5637
391.969	8724
392.049	20581
392.129	12530
392.209	9087
392.289	22950
392.369	20202
392.449	13548
392.529	11185
392.609	8613
392.689	7970
392.769	21338
392.849	27742
392.929	17020
393.009	35574
393.089	40750
393.169	36087
393.248	85363
393.328	296832
393.408	447309
393.488	188263
393.568	51203
393.648	24334
393.728	15821
393.807	10986
393.887	9912
393.967	8369
394.047	8324
394.127	8832
394.206	11982
394.286	26931
394.366	126518
394.446	212384
394.525	71258
394.605	15641
394.685	9791
394.764	15746
394.844	30161
394.924	31623
395.003	11216
395.083	5736
395.163	6057
395.242	5066
395.322	6264
395.402	3939
395.481	5643
395.561	9453
395.640	33139
395.720	37442
395.799	38509
395.879	39954
395.958	18580
396.038	40585
396.117	169351
396.197	273354
396.276	109778
396.356	33235
396.435	21978
396.515	17288
396.594	16797
396.673	28992
396.753	80113
396.832	288305
396.912	321789
396.991	99288
397.070	26583
397.150	13220
397.229	9996
397.308	11539
397.388	26497
397.467	18625
397.546	6207
397.625	3051
397.705	5369
397.784	4882
397.863	3610
397.942	3008
398.022	2954
398.101	6580
398.180	29547
398.259	24240
398.338	5913
398.417	3104
398.497	3522
398.576	3584
398.655	1642
398.734	2059
398.813	2057
398.892	6035
398.971	29279
399.050	25508
399.129	2896
399.208	2107
399.287	1895
399.366	1966
399.445	1795
399.524	1671
399.603	888
399.682	2895
399.761	6461
399.840	27366
399.919	37946
399.998	6976
400.077	2012
400.156	513
400.235	2545
400.313	1183
400.392	1211
400.471	6497
400.550	16924
400.629	7295
400.708	2531
400.786	1607
400.865	5362
400.944	8728
401.023	5424
401.102	1008
401.180	961
401.259	824
401.338	1377
401.416	2030
401.495	2573
401.574	1958
401.652	1174
401.731	1221
401.810	2427
401.888	793
401.967	602
402.046	1971
402.124	1949
402.203	3090
402.281	2154
402.360	2888
402.438	7961
402.517	8569
402.596	3050
402.674	2019
402.753	1292
402.831	1688
402.910	1028
402.988	4360
403.066	25356
403.145	24177
403.223	7266
403.302	20675
403.380	21451
403.459	18592
403.537	11566
403.615	3261
403.694	804
403.772	820
403.850	323
403.929	528
404.007	178
404.085	2939
404.164	3792
404.242	1377
404.320	593
404.398	3086
404.477	5516
404.555	34490
404.633	54196
404.711	11574
404.789	2347
404.868	1585
404.946	1493
405.024	313
405.102	1173
405.180	370
405.258	-302
405.336	1792
405.415	255
405.493	2592
405.571	3383
405.649	544
405.727	-557
405.805	2230
405.883	1797
405.961	2515
406.039	2227
406.117	802
406.195	2626
406.273	5837
406.351	34553
406.429	36034
406.507	6422
406.585	1981
406.663	1116
406.740	1704
406.818	1829
406.896	583
406.974	1220
407.052	1931
407.130	15246
407.208	38388
407.285	12572
407.363	715
407.441	1780
407.519	849
407.596	1474
407.674	3056
407.752	10730
407.830	16671
407.907	7768
407.985	2186
408.063	1638
408.141	148
408.218	2550
408.296	2140
408.373	1653
408.451	1870
408.529	1363
408.606	19
408.684	909
408.762	148
408.839	170
408.917	-12
408.994	1248
409.072	57
409.149	413
409.227	2915
409.304	4080
409.382	4312
409.459	4170
409.537	7201
409.614	6533
409.692	3652
409.769	3538
409.846	5208
409.924	9459
410.001	6778
410.079	3948
410.156	2768
410.233	2556
410.311	1412
410.388	1448
410.465	1781
410.543	2128
410.620	1559
410.697	1237
410.775	2149
410.852	654
410.929	1683
411.006	2836
411.083	2063
411.161	2636
411.238	5361
411.315	2796
411.392	1456
411.469	1704
411.547	2273
411.624	604
411.701	1254
411.778	951
411.855	2121
411.932	1995
412.009	438
412.086	1119
412.163	1189
412.240	1171
412.317	1999
412.394	1763
412.471	937
412.548	396
412.625	726
412.702	1326
412.779	2507
412.856	3050
412.933	603
413.010	880
413.087	1296
413.164	5614
413.241	14659
413.318	5323
413.395	2520
413.471	2209
413.548	1945
413.625	382
413.702	229
413.779	1385
413.855	-176
413.932	470
414.009	-212
414.086	863
414.162	468
414.239	806
414.316	5305
414.393	19296
414.469	12113
414.546	879
414.623	279
414.699	-112
414.776	984
414.853	-96
414.929	651
415.006	412
415.082	684
415.159	909
415.236	634
415.312	429
415.389	802
415.465	2293
415.542	1570
415.618	-726
415.695	1671
415.771	1236
415.848	958
415.924	577
416.000	756
416.077	459
416.153	-271
416.230	-349
416.306	525
416.383	200
416.459	831
416.535	58
416.612	-87
416.688	207
416.764	282
416.841	-81
416.917	-120
416.993	104
417.069	647
417.146	886
417.222	2081
417.298	907
417.374	404
417.451	487
417.527	86
417.603	771
417.679	1462
417.755	672
417.831	-100
417.908	1456
417.984	84
418.060	692
418.136	1082
418.212	3610
418.288	2035
418.364	1013
418.440	-196
418.516	1171
418.592	1623
418.668	3109
418.744	5614
418.820	5819
418.896	2099
418.972	-7
419.048	130
419.124	2197
419.200	2363
419.276	988
419.352	245
419.428	1081
419.504	-131
419.579	2007
419.655	842
419.731	881
419.807	2606
419.883	5895
419.959	6465
420.034	2196
420.110	1704
420.186	9117
420.262	13798
420.337	3622
420.413	1797
420.489	1681
420.565	2092
420.640	500
420.716	1873
420.792	209
420.867	1846
420.943	479
421.019	1622
421.094	2577
421.170	2081
421.245	1939
421.321	2059
421.397	1823
421.472	3239
421.548	6858
421.623	8978
421.699	4037
421.774	3653
421.850	3057
421.925	4218
422.001	6027
422.076	5328
422.152	6954
422.227	9844
422.302	13444
422.378	19854
422.453	31230
422.529	65364
422.604	150151
422.679	223559
422.755	208896
422.830	130718
422.905	55772
422.981	30598
423.056	19019
423.131	14038
423.207	10552
423.282	7757
423.357	9177
423.432	7537
423.508	5740
423.583	8123
423.658	9385
423.733	4525
423.808	4035
423.883	4351
423.959	4131
424.034	3722
424.109	4563
424.184	2316
424.259	2408
424.334	1985
424.409	1865
424.484	1121
424.559	1580
424.634	1092
424.709	2018
424.784	2980
424.859	1899
424.934	1882
425.009	6136
425.084	15579
425.159	10464
425.234	1854
425.309	559
425.384	2583
425.459	7923
425.534	4184
425.609	1193
425.683	1031
425.758	591
425.833	485
425.908	1779
425.983	3102
426.058	13908
426.132	11525
426.207	2110
426.282	2603
426.357	2644
426.431	844
426.506	716
426.581	596
426.655	741
426.730	562
426.805	533
426.879	1102
426.954	721
427.029	1369
427.103	8002
427.178	32799
427.253	29181
427.327	4628
427.402	1658
427.476	6892
427.551	7863
427.625	1939
427.700	1262
427.774	434
427.849	1991
427.923	927
427.998	1204
428.072	1196
428.147	3540
428.221	10336
428.296	47926
428.370	53368
428.444	8642
428.519	3355
428.593	5568
428.667	7808
428.742	6331
428.816	8354
428.890	23275
428.965	66692
429.039	34372
429.113	9539
429.188	6018
429.262	1569
429.336	1483
429.410	6303
429.485	7659
429.559	5657
429.633	6371
429.707	2521
429.781	3870
429.855	23732
429.930	66247
430.004	37070
430.078	29903
430.152	36531
430.226	53697
430.300	97168
430.374	29979
430.448	5146
430.522	6676
430.596	27015
430.670	29839
430.744	36330
430.818	90965
430.892	34543
430.966	4023
431.040	1699
431.114	957
431.188	840
431.262	459
431.336	1442
431.410	1726
431.484	6745
431.557	8981
431.631	2340
431.705	1310
431.779	5322
431.853	37754
431.927	57265
432.000	11257
432.074	2405
432.148	1125
432.222	1098
432.295	942
432.369	-48
432.443	1069
432.516	7828
432.590	34396
432.664	27336
432.737	4031
432.811	463
432.885	-637
432.958	171
433.032	-201
433.106	-142
433.179	-100
433.253	-430
433.326	-306
433.400	-367
433.473	395
433.547	-1159
433.620	502
433.694	1109
433.767	2471
433.841	-175
433.914	-452
433.988	305
434.061	832
434.134	-220
434.208	-535
434.281	-105
434.355	-332
434.428	-865
434.501	-6
434.575	-62
434.648	-535
434.721	177
434.795	-276
434.868	177
434.941	-545
435.014	37
435.088	-554
435.161	221
435.234	910
435.307	2080
435.381	2075
435.454	1899
435.527	3128
435.600	3310
435.673	3296
435.746	1238
435.819	509
435.892	377
435.966	-15
436.039	318
436.112	666
436.185	-208
436.258	269
436.331	-517
436.404	157
436.477	10
436.550	-587
436.623	-1003
436.696	-426
436.769	-46
436.842	198
436.915	344
436.987	171
437.060	455
437.133	-393
437.206	-643
437.279	-216
437.352	-524
437.425	-626
437.498	59
437.570	588
437.643	1729
437.716	906
437.789	-491
437.861	466
437.934	4963
438.007	6074
438.080	673
438.152	145
438.225	1134
438.298	8487
438.370	47597
438.443	44022
438.516	10588
438.588	3338
438.661	203
438.734	-132
438.806	80
438.879	632
438.951	667
439.024	3534
439.096	1923
439.169	135
439.241	887
439.314	-236
439.386	357
439.459	1844
439.531	2947
439.604	2294
439.676	801
439.749	295
439.821	-20
439.893	685
439.966	-82
440.038	-81
440.110	1827
440.183	980
440.255	107
440.327	281
440.400	3464
440.472	24968
440.544	38007
440.617	8015
440.689	3047
440.761	2521
440.833	4765
440.905	5138
440.978	1298
441.050	-380
441.122	-515
441.194	-80
441.266	-265
441.338	-213
441.411	832
441.483	5711
441.555	19607
441.627	9444
441.699	2278
441.771	2103
441.843	614
441.915	443
441.987	484
442.059	262
442.131	1262
442.203	2222
442.275	2089
442.347	3977
442.419	4646
442.491	17936
442.563	76001
442.635	69566
442.706	17517
442.778	12761
442.850	5065
442.922	1557
442.994	1650
443.066	2423
443.137	3836
443.209	2303
443.281	4179
443.353	7681
443.425	23074
443.496	101424
443.568	175393
443.640	102513
443.711	25139
443.783	6143
443.855	3177
443.926	2306
443.998	1422
444.070	2092
444.141	2638
444.213	3369
444.285	3943
444.356	2603
444.428	2649
444.499	1327
444.571	1381
444.642	1193
444.714	679
444.785	2716
444.857	2832
444.928	5908
445.000	7933
445.071	5264
445.143	7824
445.214	6882
445.285	7661
445.357	19267
445.428	55922
445.500	177560
445.571	181285
445.642	114906
445.714	48558
445.785	21914
445.856	10227
445.928	5330
445.999	4336
446.070	4153
446.141	3352
446.213	3605
446.284	3122
446.355	2620
446.426	1753
446.497	490
446.569	1937
446.640	2977
446.711	4222
446.782	746
446.853	1067
446.924	1560
446.995	1054
447.066	1218
447.138	2744
447.209	3201
447.280	998
447.351	522
447.422	27
447.493	191
447.564	1760
447.635	1739
447.706	1578
447.777	254
447.847	457
447.918	-307
447.989	502
448.060	1355
448.131	3683
448.202	5445
448.273	4182
448.344	2998
448.414	1080
448.485	343
448.556	586
448.627	310
448.698	1000
448.768	10
448.839	70
448.910	1203
448.981	3476
449.051	1322
449.122	0
449.193	219
449.263	445
449.334	945
449.405	836
449.475	2692
449.546	3288
449.616	2867
449.687	4104
449.758	1794
449.828	1487
449.899	1348
449.969	305
450.040	944
450.110	2414
450.181	1183
450.251	1105
450.322	1359
450.392	974
450.463	772
450.533	600
450.604	597
450.674	299
450.744	1370
450.815	487
450.885	1624
450.955	837
451.026	202
451.096	1119
451.166	1254
451.237	2452
451.307	7383
451.377	7432
451.447	2257
451.518	901
451.588	460
451.658	248
451.728	1547
451.799	5177
451.869	12752
451.939	6835
452.009	1366
452.079	745
452.149	974
452.219	1269
452.289	7163
452.360	12250
452.430	4414
452.500	1469
452.570	2724
452.640	4073
452.710	8510
452.780	19512
452.850	14637
452.920	10690
452.990	6670
453.060	2176
453.129	2835
453.199	3099
453.269	5639
453.339	29829
453.409	54065
453.479	33802
453.549	52282
453.619	65015
453.688	47056
453.758	10857
453.828	1979
453.898	1978
453.968	1268
454.037	1510
454.087	1534
454.107	1537
454.168	2257
454.177	2349
454.247	603
454.249	633
454.316	1119
454.330	1289
454.386	1847
454.411	2392
454.456	3026
454.492	6269
454.525	9129
454.574	6963
454.595	6075
454.655	2349
454.665	1743
454.734	1460
454.736	1525
454.804	2773
454.817	3633
454.873	6323
454.898	8865
454.943	13309
454.979	10223
455.013	7670
455.060	4412
455.082	3026
455.141	2236
455.152	2016
455.221	4643
455.222	4802
455.291	11691
455.303	11353
455.360	10500
455.384	8388
455.430	4610
455.465	4923
455.499	4996
455.546	6602
455.569	6917
455.627	8591
455.638	9073
455.707	4506
455.708	4503
455.777	1769
455.789	1809
455.846	2060
455.869	1932
455.916	1609
455.950	1579
455.985	1533
456.031	1481
456.054	1467
456.112	1922
456.124	2006
456.193	1716
456.193	1703
456.262	1069
456.274	1321
456.332	2342
456.355	2367
456.401	2183
456.436	2061
456.470	1933
456.516	1737
456.540	1764
456.597	1636
456.609	1520
456.678	1196
456.678	1188
456.747	1091
456.759	1124
456.817	1114
456.840	1091
456.886	1259
456.920	1563
456.955	1648
457.001	1856
457.024	2073
457.082	2372
457.093	2410
457.162	2713
457.163	2731
457.232	2905
457.243	2911
457.301	2822
457.324	2305
457.370	1653
457.405	2002
457.439	2302
457.485	2050
457.508	1935
457.566	3034
457.577	3295
457.646	4299
457.647	4318
457.715	6565
457.727	7280
457.784	12270
457.808	15045
457.853	17266
457.889	21807
457.922	23117
457.969	18354
457.991	19623
458.050	20571
458.060	21002
458.129	30826
458.130	31322
458.198	32122
458.211	30036
458.267	24665
458.292	18409
458.336	12182
458.372	10329
458.405	11071
458.453	14997
458.474	18718
458.533	32681
458.543	33403
458.611	47729
458.614	48433
458.680	40557
458.694	33594
458.749	21223
458.775	15283
458.818	7446
458.855	5574
458.887	4083
458.936	3584
458.955	3459
459.016	3323
459.024	3296
459.093	2953
459.097	2971
459.162	3225
459.177	3211
459.230	3251
459.257	3708
459.299	4303
459.338	4269
459.368	4179
459.418	4315
459.437	4114
459.499	3499
459.505	3541
459.574	3193
459.579	3176
459.643	2690
459.659	2702
459.711	2508
459.740	2700
459.780	3476
459.820	3901
459.849	3893
459.900	3822
459.917	3796
459.981	3826
459.986	3799
460.054	3496
460.061	3442
460.123	3993
460.141	4246
460.191	4583
460.222	4723
460.260	4916
460.302	5284
460.328	5102
460.382	5095
460.397	5161
460.462	4224
460.465	4293
460.534	6450
460.543	6748
460.602	14067
460.623	16873
460.671	26700
460.703	34798
460.739	29339
460.783	25265
460.808	24045
460.864	10631
460.876	9716
460.944	3887
460.945	3810
461.013	3378
461.024	3286
461.081	3467
461.104	3737
461.150	3484
461.184	3010
461.218	3168
461.264	3814
461.286	3834
461.345	3011
461.355	2932
461.423	3442
461.425	3444
461.491	3726
461.505	3811
461.559	6535
461.585	7666
461.628	11401
461.665	15270
461.696	16330
461.745	19081
461.764	16645
461.825	8151
461.832	8284
461.901	4962
461.905	4880
461.969	3782
461.985	3810
462.037	4247
462.065	4217
462.105	4183
462.145	4357
462.173	5780
462.225	8596
462.241	9534
462.305	13735
462.310	13340
462.378	7754
462.385	6935
462.446	5953
462.465	5373
462.514	4121
462.545	4045
462.582	4050
462.625	3810
462.650	3728
462.705	3775
462.718	3878
462.785	4272
462.786	4306
462.854	6134
462.865	6480
462.922	7096
462.945	7463
462.990	6216
463.025	4957
463.058	4636
463.104	3967
463.126	4018
463.184	3939
463.194	3830
463.262	3381
463.264	3380
463.330	4129
463.344	4281
463.398	4621
463.424	4629
463.466	4449
463.504	4385
463.533	4646
463.583	4927
463.601	4886
463.663	4940
463.669	5045
463.737	6184
463.743	6293
463.805	9872
463.823	10914
463.873	16527
463.903	19974
463.940	19786
463.982	20120
464.008	16371
464.062	7951
464.076	7848
464.142	5269
464.144	5226
464.211	4343
464.221	4357
464.279	4435
464.301	4399
464.347	4796
464.381	5089
464.414	5571
464.461	6210
464.482	6312
464.540	6683
464.550	6533
464.617	5351
464.620	5304
464.685	6106
464.699	6231
464.753	8080
464.779	9075
464.820	9733
464.859	10458
464.888	10246
464.938	9736
464.956	9608
465.018	8917
465.023	8818
465.091	7561
465.098	7396
465.158	7220
465.177	7246
465.226	7646
465.257	7783
465.293	7643
465.336	7557
465.361	8228
465.416	9516
465.428	9968
465.495	12785
465.496	12854
465.563	20877
465.575	22274
465.631	25673
465.654	27318
465.698	17524
465.734	9121
465.765	8894
465.813	7694
465.833	7383
465.893	7157
465.900	7140
465.968	7099
465.972	7083
466.035	7231
466.052	7280
466.102	7871
466.131	8173
466.170	7871
466.210	7516
466.237	7786
466.290	8379
466.304	8584
466.369	9340
466.372	9348
466.439	9232
466.449	9203
466.506	10515
466.528	11001
466.573	14714
466.607	17433
466.641	23195
466.687	31187
466.708	33519
466.766	39879
466.775	37063
466.842	15587
466.845	14545
466.909	12197
466.925	11601
466.977	11344
467.004	11284
467.044	11175
467.083	11088
467.111	12257
467.163	14401
467.178	14583
467.242	15245
467.245	15159
467.312	12950
467.321	12642
467.379	12872
467.400	12925
467.446	13703
467.480	14233
467.559	11847
467.638	11610
467.717	10886
467.796	11322
467.875	12237
467.955	11729
468.034	18360
468.113	37363
468.192	51206
468.271	14213
468.350	13213
468.429	17768
468.508	18046
468.588	12753
468.667	10391
468.746	11040
468.825	10145
468.904	8292
468.983	11092
469.062	14900
469.141	17126
469.220	9335
469.299	8018
469.378	10641
469.456	12536
469.535	11178
469.614	9922
469.693	10290
469.772	13603
469.851	18817
469.930	11814
470.009	9980
470.088	9273
470.166	11329
470.245	14470
470.324	16191
470.403	12272
470.482	10381
470.560	9619
470.639	10004
470.718	10693
470.797	9384
470.875	11309
470.954	14914
471.033	13711
471.111	7890
471.190	7948
471.269	7849
471.347	8036
471.426	8891
471.505	9836
471.583	10948
471.662	9547
471.740	9488
471.819	9505
471.898	9044
471.976	9151
472.055	8091
472.133	9858
472.212	12054
472.290	12655
472.369	8819
472.447	7697
472.526	7594
472.604	8316
472.683	9898
472.761	8052
472.839	8954
472.918	8403
472.996	8915
473.075	9413
473.153	9238
473.231	7914
473.310	9627
473.388	9759
473.466	9235
473.545	9546
473.623	11762
473.701	11388
473.780	8421
473.858	8849
473.936	10270
474.014	9113
474.093	9354
474.171	12644
474.249	17712
474.327	11046
474.405	7412
474.484	7349
474.562	7909
474.640	8632
474.718	8452
474.796	8534
474.874	7732
474.952	6386
475.030	7587
475.108	8712
475.187	9008
475.265	9712
475.343	12650
475.421	12770
475.499	7916
475.577	8644
475.655	10027
475.733	18693
475.811	30704
475.889	28461
475.966	16708
476.044	8725
476.122	9999
476.200	12336
476.278	9712
476.356	7309
476.434	8518
476.512	8866
476.590	10779
476.667	9863
476.745	5928
476.823	8343
476.901	7371
476.979	6824
477.056	7893
477.134	7159
477.212	8129
477.290	7287
477.367	6346
477.445	6072
477.523	6987
477.601	6793
477.678	6734
477.756	9520
477.834	9055
477.911	6553
477.989	7116
478.066	6469
478.144	8679
478.222	8959
478.299	13353
478.377	10892
478.454	7483
478.532	6319
478.609	6679
478.687	7177
478.764	5961
478.842	6565
478.919	7456
478.997	6325
479.074	6904
479.152	8436
479.229	9659
479.307	6346
479.384	5607
479.461	5796
479.539	6139
479.616	7498
479.694	6391
479.771	7023
479.848	7785
479.926	9730
480.003	9837
480.080	6292
480.157	5981
480.235	5673
480.312	6574
480.389	7137
480.467	10775
480.544	13701
480.621	7704
480.698	6761
480.775	8534
480.853	7939
480.930	6657
481.007	6917
481.084	8332
481.161	8754
481.238	7780
481.315	6214
481.392	6346
481.470	6755
481.547	7158
481.624	6394
481.701	6209
481.778	5822
481.855	8212
481.932	10379
482.009	17861
482.086	10947
482.163	7749
482.240	10878
482.317	17374
482.393	12361
482.470	7620
482.547	7214
482.624	6711
482.701	6550
482.778	6502
482.855	5252
482.932	5910
483.009	5993
483.085	6985
483.162	8622
483.239	8801
483.316	7231
483.393	7761
483.469	6715
483.546	7479
483.623	7501
483.699	6350
483.776	5856
483.853	6709
483.930	10754
484.006	26296
484.083	46221
484.160	25589
484.236	39765
484.313	28581
484.389	22381
484.466	18951
484.543	19516
484.619	20881
484.696	22360
484.772	20416
484.849	21743
484.925	17471
485.002	17533
485.078	19170
485.155	18125
485.231	16789
485.308	15835
485.384	18048
485.461	20414
485.537	29957
485.614	33113
485.690	16449
485.766	15265
485.843	16894
485.919	19334
485.995	20171
486.072	13987
486.148	14557
486.224	14704
486.301	16369
486.377	17522
486.453	17811
486.530	17287
486.606	23180
486.682	24418
486.758	28128
486.835	30021
486.911	25147
486.987	37902
487.063	34398
487.139	39688
487.215	30315
487.292	18190
487.368	17046
487.444	19259
487.520	25690
487.596	27742
487.672	49495
487.748	126730
487.824	185996
487.900	50042
487.976	22551
488.052	19530
488.128	21524
488.204	18925
488.280	15925
488.356	19272
488.432	33714
488.508	48164
488.584	17826
488.660	13537
488.736	13566
488.812	13872
488.888	18020
488.964	21429
489.039	37197
489.115	51879
489.191	31037
489.267	14219
489.343	14069
489.418	12853
489.494	11581
489.570	11402
489.646	12664
489.722	12163
489.797	13277
489.873	18457
489.949	37254
490.024	28723
490.100	11372
490.176	12158
490.251	13051
490.327	16770
490.403	11269
490.478	10987
490.554	10526
490.629	10122
490.705	9914
490.781	11290
490.856	10345
490.932	11525
491.007	10461
491.083	12207
491.158	11509
491.234	15032
491.309	28108
491.385	26167
491.460	10630
491.536	11460
491.611	9678
491.686	10463
491.762	13974
491.837	23229
491.913	38527
491.988	50753
492.063	60690
492.139	20087
492.214	14059
492.289	7994
492.365	8704
492.440	10097
492.515	10318
492.590	9850
492.666	8428
492.741	10569
492.816	16703
492.891	9580
492.967	7442
493.042	6827
493.117	7791
493.192	6773
493.267	9076
493.342	12052
493.418	12175
493.493	7330
493.568	7043
493.643	7480
493.718	9824
493.793	12607
493.868	14457
493.943	8719
494.018	7688
494.093	7351
494.168	7447
494.243	7195
494.318	6562
494.393	6586
494.468	6996
494.543	6349
494.618	7568
494.693	6387
494.768	6732
494.842	6730
494.917	6012
494.992	6736
495.067	5859
495.142	6171
495.217	6758
495.292	5658
495.366	8411
495.441	8777
495.516	12148
495.591	16612
495.665	46860
495.740	105599
495.815	36633
495.890	9922
495.964	8046
496.039	9066
496.114	9164
496.188	9720
496.263	9703
496.338	8818
496.412	8822
496.487	10575
496.561	10820
496.636	10499
496.710	10092
496.785	10078
496.860	11361
496.934	8508
497.009	9615
497.083	9942
497.158	10019
497.232	11246
497.307	14374
497.381	11078
497.455	14924
497.530	18113
497.604	12668
497.679	13716
497.753	21747
497.827	28063
497.902	26444
497.976	32361
498.050	75419
498.125	253385
498.199	233139
498.273	39984
498.348	29964
498.422	23937
498.496	21897
498.570	17195
498.645	14502
498.719	13250
498.793	15516
498.867	23896
498.941	37301
499.016	102060
499.090	269495
499.164	74856
499.238	11109
499.312	10441
499.386	12479
499.460	10136
499.534	9765
499.609	12183
499.683	18333
499.757	20056
499.831	48917
499.905	175626
499.979	147866
500.053	21885
500.127	20174
500.201	13816
500.275	9122
500.349	8846
500.422	11222
500.496	16431
500.570	36456
500.644	93861
500.718	173062
500.792	30062
500.866	9136
500.940	12831
501.013	9346
501.087	9132
501.161	17459
501.235	24257
501.309	58384
501.382	153726
501.456	119157
501.530	27352
501.603	46441
501.677	15631
501.751	8231
501.825	10425
501.898	20426
501.972	58813
502.046	31127
502.119	11094
502.193	26029
502.266	63372
502.340	27986
502.413	28993
502.487	53434
502.561	28198
502.634	9671
502.708	7745
502.781	6849
502.855	5374
502.928	5659
503.002	5162
503.075	5609
503.149	5909
503.222	6920
503.295	6457
503.369	8492
503.442	14297
503.516	43406
503.589	106933
503.662	62929
503.736	20255
503.809	50473
503.882	40188
503.956	64375
504.029	62027
504.102	68791
504.175	93057
504.249	29027
504.322	13706
504.395	10202
504.468	7188
504.542	6851
504.615	5776
504.688	5696
504.761	4957
504.834	6637
504.907	6951
504.980	12132
505.053	6796
505.127	8198
505.200	9136
505.273	9381
505.346	5796
505.419	5483
505.492	4632
505.565	3877
505.638	5053
505.711	4946
505.784	3533
505.857	3385
505.930	4190
506.003	4470
506.076	5020
506.149	6106
506.221	8221
506.294	9339
506.367	25627
506.440	81290
506.513	36084
506.586	9034
506.659	5208
506.731	5304
506.804	5833
506.877	7966
506.950	5363
507.022	5308
507.095	6574
507.168	7320
507.241	4301
507.313	3443
507.386	4405
507.459	6005
507.531	3969
507.604	3590
507.677	3694
507.749	3657
507.822	5534
507.894	12604
507.967	15224
508.040	9160
508.112	7578
508.185	7752
508.257	7387
508.330	10031
508.402	6772
508.475	6279
508.547	6578
508.620	7010
508.692	10555
508.765	7356
508.837	5216
508.909	6294
508.982	5396
509.054	6463
509.127	4897
509.199	4870
509.271	4934
509.344	5175
509.416	5143
509.488	5215
509.560	5572
509.633	5131
509.705	5845
509.777	5981
509.849	7664
509.922	6098
509.994	5753
510.066	5107
510.138	6802
510.210	14233
510.283	12297
510.355	9607
510.427	8457
510.499	7890
510.571	7239
510.643	7324
510.715	10046
510.787	9551
510.859	8576
510.931	9655
511.003	10452
511.076	9848
511.148	6438
511.219	7727
511.291	12309
511.363	12854
511.435	6986
511.507	7312
511.579	5881
511.651	6652
511.723	6755
511.795	5733
511.867	6423
511.939	7554
512.010	14723
512.082	11262
512.154	6539
512.226	7216
512.298	10349
512.369	15895
512.441	11851
512.513	10884
512.585	8492
512.656	8297
512.728	9286
512.800	8424
512.871	7810
512.943	7353
513.015	7252
513.086	6824
513.158	7760
513.230	8215
513.301	10808
513.373	11459
513.444	7268
513.516	6412
513.588	7141
513.659	7838
513.731	9128
513.802	8110
513.874	14588
513.945	22065
514.016	8378
514.088	6004
514.159	8324
514.231	9035
514.302	13889
514.374	11021
514.445	10246
514.516	18306
514.588	13451
514.659	9725
514.730	16208
514.802	12052
514.873	9997
514.944	10936
515.016	8576
515.087	9795
515.158	12611
515.229	17293
515.301	11667
515.372	14056
515.443	9919
515.514	8424
515.585	6269
515.656	7211
515.728	6536
515.799	6634
515.870	6262
515.941	7354
516.012	7826
516.083	10168
516.154	9623
516.225	12754
516.296	9815
516.367	9484
516.438	10481
516.509	15169
516.580	24367
516.651	68587
516.722	215532
516.793	83420
516.864	16911
516.935	16052
517.006	19595
517.077	32900
517.148	80498
517.219	259993
517.289	377249
517.360	105758
517.431	31636
517.502	10723
517.573	10713
517.643	10581
517.714	12024
517.785	12035
517.856	11278
517.926	13172
517.997	13768
518.068	18355
518.138	27920
518.209	57313
518.280	186778
518.350	584910
518.421	198863
518.492	22691
518.562	16188
518.633	18044
518.703	21871
518.774	45347
518.845	112294
518.915	103381
518.986	27144
519.056	18077
519.127	25704
519.197	39342
519.268	84060
519.338	52353
519.408	14328
519.479	14929
519.549	11074
519.620	8340
519.690	7061
519.760	7542
519.831	7420
519.901	8009
519.971	6075
520.042	7140
520.112	8681
520.182	8128
520.253	9615
520.323	7554
520.393	8805
520.463	12915
520.534	8888
520.604	15682
520.674	8690
520.744	8809
520.814	18460
520.885	20242
520.955	31855
521.025	100186
521.095	34726
521.165	7513
521.235	6777
521.305	6281
521.375	5133
521.445	6843
521.515	7294
521.585	9593
521.655	8891
521.725	7096
521.795	7270
521.865	5742
521.935	10032
522.005	8833
522.075	5731
522.145	6772
522.215	6916
522.285	9588
522.355	12981
522.424	24329
522.494	20735
522.564	10301
522.634	19607
522.704	47713
522.774	18320
522.843	6062
522.913	5887
522.983	7847
523.053	6266
523.122	6577
523.192	9651
523.262	25895
523.331	23536
523.401	6676
523.471	4857
523.540	5292
523.610	4036
523.680	5401
523.749	5664
523.819	7080
523.888	6244
523.958	4830
524.027	5254
524.097	5989
524.166	4673
524.236	5399
524.305	6286
524.375	5548
524.444	4893
524.514	5310
524.583	5897
524.653	7069
524.722	8499
524.791	4936
524.861	4898
524.930	5254
524.999	4973
525.069	7541
525.138	5989
525.207	7955
525.277	5739
525.346	5617
525.415	5458
525.484	7085
525.554	7587
525.623	7580
525.692	6754
525.761	7430
525.830	8230
525.900	10656
525.969	18663
526.038	38597
526.107	82614
526.176	220197
526.245	169846
526.314	53296
526.383	114272
526.452	160330
526.522	242398
526.591	227082
526.660	39734
526.729	22107
526.797	31071
526.867	69429
526.935	228572
527.004	480479
527.073	265939
527.142	21929
527.211	10896
527.280	10320
527.349	8199
527.418	5605
527.487	5518
527.555	4486
527.624	5265
527.693	3875
527.762	5450
527.831	3737
527.899	4206
527.968	4495
528.037	3769
528.106	5421
528.174	9255
528.243	8832
528.312	11398
528.380	13676
528.449	4412
528.518	4501
528.586	2449
528.655	3988
528.723	3972
528.792	3766
528.861	4061
528.929	2996
528.998	3667
529.066	3254
529.135	3275
529.203	3334
529.272	2467
529.340	4031
529.409	4074
529.477	4016
529.545	5711
529.614	6042
529.682	5627
529.751	7448
529.819	8058
529.887	5398
529.956	3109
530.024	4610
530.092	3120
530.161	4823
530.229	6244
530.297	3962
530.365	4520
530.434	4027
530.502	2614
530.570	4432
530.638	2260
530.707	4500
530.775	4640
530.843	4147
530.911	2883
530.979	3306
531.047	3729
531.115	4373
531.183	3866
531.252	4010
531.320	4045
531.388	4132
531.456	3362
531.524	3747
531.592	4155
531.660	4323
531.728	3983
531.796	4003
531.864	4096
531.932	3680
532.000	3823
532.067	3835
532.135	4442
532.203	5737
532.271	5077
532.339	9058
532.407	18368
532.475	11625
532.542	6283
532.610	8469
532.678	12587
532.746	41922
532.814	92887
532.881	22553
532.949	5905
533.017	4733
533.084	5454
533.152	4886
533.220	3677
533.287	4845
533.355	5072
533.423	4466
533.490	4057
533.558	4278
533.625	4865
533.693	4657
533.761	4735
533.828	5249
533.896	4336
533.963	8493
534.031	8938
534.098	14746
534.166	7497
534.233	5750
534.300	6581
534.368	5973
534.435	5504
534.503	5991
534.570	6014
534.637	7274
534.705	8853
534.772	14166
534.840	27565
534.907	97954
534.974	124367
535.041	14081
535.109	7348
535.176	5287
535.243	5310
535.310	5351
535.378	5986
535.445	5513
535.512	5332
535.579	5283
535.646	4327
535.714	6949
535.781	7384
535.848	7331
535.915	6169
535.982	5961
536.049	5404
536.116	6309
536.183	6431
536.250	5353
536.317	5780
536.384	5786
536.451	8332
536.518	9429
536.585	7087
536.652	8639
536.719	9642
536.786	7434
536.853	7690
536.920	10362
536.987	15652
537.053	17012
537.120	47055
537.187	40376
537.254	7372
537.321	5449
537.388	6663
537.454	5492
537.521	5128
537.588	6059
537.654	6769
537.721	9056
537.788	8350
537.855	5782
537.921	6514
537.988	6858
538.055	6104
538.121	5872
538.188	6040
538.254	8876
538.321	12972
538.388	10431
538.454	7043
538.521	6931
538.587	6174
538.654	6283
538.720	5633
538.787	6061
538.853	6558
538.920	7501
538.986	6774
539.053	6233
539.119	6274
539.185	7079
539.252	6986
539.318	9836
539.385	9295
539.451	8599
539.517	8743
539.583	11263
539.650	17073
539.716	36475
539.782	12195
539.849	7244
539.915	7070
539.981	7148
540.047	7646
540.114	7931
540.180	7091
540.246	7404
540.312	8964
540.378	14319
540.444	16318
540.510	18124
540.576	39644
540.643	14804
540.709	6304
540.775	7191
540.841	7081
540.907	9014
540.973	12634
541.039	9935
541.105	10505
541.171	8153
541.237	6751
541.303	7142
541.369	8112
541.435	9428
541.500	13463
541.566	9470
541.632	6530
541.698	6327
541.764	6264
541.830	6227
541.896	5561
541.961	6497
542.027	6934
542.093	7161
542.159	7299
542.224	7442
542.290	10248
542.356	13375
542.421	15214
542.487	7735
542.553	6886
542.618	8258
542.684	6595
542.750	7576
542.815	10108
542.881	13684
542.947	35048
543.012	27165
543.078	7395
543.143	6941
543.209	6487
543.274	6828
543.340	8959
543.405	15120
543.471	22744
543.536	8657
543.602	7143
543.667	6901
543.732	6672
543.798	6559
543.863	7457
543.928	6024
543.994	6082
544.059	6379
544.124	7039
544.190	6773
544.255	7117
544.320	7456
544.386	7301
544.451	9644
544.516	9638
544.581	12000
544.646	23383
544.712	35370
544.777	10209
544.842	9552
544.907	9389
544.972	8255
545.037	8766
545.102	9374
545.168	8620
545.233	10011
545.298	9645
545.363	12207
545.428	13176
545.493	15779
545.558	29410
545.623	15572
545.688	9723
545.753	9588
545.818	9455
545.883	10278
545.947	9821
546.012	10194
546.077	10770
546.142	11785
546.207	10782
546.272	13264
546.337	12436
546.401	12601
546.466	12863
546.531	12046
546.596	13104
546.661	12642
546.725	13316
546.790	13394
546.855	14444
546.919	14819
546.984	16696
547.049	18183
547.113	20589
547.178	21623
547.243	24714
547.307	28290
547.372	31106
547.436	32338
547.501	31789
547.565	34829
547.630	31397
547.695	30625
547.759	32062
547.823	31660
547.888	30498
547.952	32193
548.017	31332
548.081	35470
548.146	37361
548.210	35727
548.274	35129
548.339	33974
548.403	32285
548.468	29330
548.532	29467
548.596	30286
548.660	30932
548.725	34626
548.789	36948
548.853	37701
548.917	34916
548.982	35606
549.046	32550
549.110	27711
549.174	28412
549.238	31378
549.303	35416
549.367	35786
549.431	33589
549.495	32605
549.559	32231
549.623	37956
549.687	42596
549.751	43562
549.815	48709
549.879	49370
549.943	45862
550.007	48264
550.071	48103
550.135	44762
550.199	41217
550.263	41568
550.327	38921
550.391	42411
550.455	42774
550.519	45106
550.582	49443
550.646	56075
550.710	57102
550.774	54335
550.838	54614
550.901	55650
550.965	59220
551.029	61982
551.093	68712
551.156	76658
551.220	94122
551.284	108911
551.347	78905
551.411	75782
551.475	76798
551.538	59725
551.602	55554
551.666	52062
551.729	48444
551.793	47053
551.856	47335
551.920	46084
551.983	46455
552.047	46072
552.110	46381
552.174	46125
552.237	47288
552.301	43427
552.364	42866
552.428	41069
552.491	43803
552.554	44233
552.618	43839
552.681	44850
552.745	44508
552.808	49753
552.871	57144
552.934	48371
552.998	44287
553.061	43067
553.124	41498
553.187	39570
553.251	42092
553.314	42869
553.377	41379
553.440	45808
553.503	48450
553.567	50639
553.630	45671
553.693	45361
553.756	46224
553.819	44816
553.882	42887
553.945	42966
554.008	42211
554.071	42362
554.134	44658
554.197	41529
554.260	40077
554.323	42516
554.386	41767
554.449	42862
554.512	44038
554.575	42612
554.638	41296
554.701	41176
554.764	41486
554.827	39421
554.889	36694
554.952	36275
555.015	35632
555.078	35544
555.141	36442
555.203	35322
555.266	36391
555.329	35255
555.391	34598
555.454	34756
555.517	32779
555.580	31521
555.642	29378
555.705	29185
555.768	30123
555.830	29206
555.893	27429
555.955	26942
556.018	26491
556.080	27837
556.143	26087
556.206	27980
556.268	26997
556.330	26148
556.393	25474
556.455	25429
556.518	27204
556.580	26711
556.643	23060
556.705	22906
556.767	21367
556.830	22130
556.892	22983
556.955	24498
557.017	22171
557.079	21759
557.142	21017
557.204	21341
557.266	26205
557.328	24210
557.391	18090
557.453	18783
557.515	18652
557.577	18568
557.639	19399
557.701	17528
557.764	17205
557.826	18123
557.888	20609
557.950	21634
558.012	25342
558.074	35225
558.136	63243
558.198	147289
558.260	55346
558.322	18704
558.384	18300
558.446	21105
558.508	22904
558.570	31257
558.632	45593
558.694	73156
558.756	112408
558.818	246219
558.880	582549
558.942	206379
559.003	146853
559.065	76401
559.127	27344
559.189	31581
559.251	41704
559.312	69772
559.374	129212
559.436	383547
559.498	206468
559.559	31648
559.621	30842
559.683	45254
559.744	75632
559.806	180612
559.868	290891
559.929	59696
559.991	38329
560.052	55237
560.114	142496
560.176	104895
560.237	78392
560.299	134740
560.360	32385
560.422	13329
560.483	11152
560.545	12519
560.606	11308
560.667	10829
560.729	10108
560.790	9782
560.852	9749
560.913	10939
560.974	10446
561.036	10465
561.097	10551
561.158	9935
561.220	9250
561.281	10133
561.342	10582
561.403	12011
561.465	12995
561.526	19851
561.587	24764
561.648	10949
561.709	9801
561.771	9654
561.832	9519
561.893	9139
561.954	9414
562.015	8580
562.076	8774
562.137	8787
562.198	9253
562.259	9604
562.320	8935
562.381	10203
562.442	11229
562.503	11034
562.564	9298
562.625	7919
562.686	7502
562.747	8696
562.808	8803
562.869	8738
562.930	10700
562.991	9379
563.051	9399
563.112	9211
563.173	8939
563.234	7901
563.294	8521
563.355	8746
563.416	8520
563.477	8178
563.537	9302
563.598	8847
563.659	8757
563.720	8303
563.780	8692
563.841	9004
563.901	8646
563.962	8609
564.023	7453
564.083	8819
564.144	9123
564.204	9317
564.265	8657
564.325	10231
564.386	15216
564.446	14108
564.507	7763
564.567	7975
564.628	8569
564.688	8502
564.749	7814
564.809	9620
564.869	9963
564.930	8344
564.990	8482
565.050	8048
565.111	9082
565.171	7632
565.231	8216
565.292	8440
565.352	7074
565.412	9000
565.472	8399
565.532	8619
565.593	8339
565.653	7891
565.713	7702
565.773	9234
565.833	8569
565.893	12356
565.953	8176
566.013	8864
566.074	9796
566.134	11498
566.194	14064
566.254	14955
566.314	11613
566.374	8374
566.434	9499
566.494	9267
566.554	9395
566.614	10177
566.673	10245
566.733	11723
566.793	10674
566.853	11714
566.913	11154
566.973	12641
567.033	12066
567.092	12396
567.152	11677
567.212	12193
567.272	11713
567.331	12736
567.391	11985
567.451	13769
567.511	15211
567.570	15534
567.630	11916
567.690	12151
567.749	12757
567.809	12655
567.868	13796
567.928	16373
567.988	17767
568.047	21709
568.107	27120
568.166	36034
568.226	52954
568.285	75248
568.345	58915
568.404	45865
568.464	37815
568.523	36306
568.582	37434
568.642	44974
568.701	58735
568.761	81939
568.820	126918
568.879	120186
568.939	82954
568.998	58335
569.057	43006
569.116	34812
569.176	27706
569.235	24445
569.294	20759
569.353	19322
569.413	17132
569.472	16056
569.531	14864
569.590	13377
569.649	13108
569.708	12678
569.767	12248
569.827	13556
569.886	11858
569.945	11052
570.004	10018
570.063	10618
570.122	10641
570.181	10784
570.240	10942
570.299	12304
570.358	11787
570.417	9985
570.475	8934
570.534	10798
570.593	9582
570.652	10143
570.711	10248
570.770	10102
570.829	10547
570.887	9738
570.946	10921
571.005	8851
571.064	9100
571.122	9073
571.181	10067
571.240	9425
571.299	8581
571.357	9653
571.416	9126
571.475	9947
571.533	9913
571.592	9068
571.650	9012
571.709	9262
571.768	8741
571.826	9532
571.885	9184
571.943	8522
572.002	8479
572.060	8747
572.119	7647
572.177	8527
572.236	7278
572.294	7433
572.352	8295
572.411	8919
572.469	7963
572.528	8288
572.586	8657
572.644	9875
572.703	10692
572.761	9859
572.819	8063
572.877	7903
572.936	7528
572.994	7574
573.052	7106
573.110	9069
573.169	7573
573.227	8430
573.285	8546
573.343	7760
573.401	7560
573.459	8957
573.517	7616
573.576	8717
573.634	8321
573.692	8124
573.750	8121
573.808	8088
573.866	7671
573.924	9023
573.982	8691
574.040	8005
574.098	7969
574.155	7188
574.213	6528
574.271	7824
574.329	7548
574.387	7998
574.445	7456
574.503	6371
574.560	6482
574.618	6804
574.676	7381
574.734	6738
574.792	6723
574.849	6930
574.907	6199
574.965	7239
575.022	6021
575.080	6896
575.138	6722
575.195	7035
575.253	7310
575.311	7915
575.368	6341
575.426	7042
575.483	6796
575.541	6622
575.598	6999
575.656	6341
575.713	7465
575.771	7890
575.828	6807
575.886	6955
575.943	7437
576.001	7791
576.058	6580
576.115	7844
576.173	7678
576.230	8901
576.287	8748
576.345	8092
576.402	8046
576.459	7179
576.517	7517
576.574	9008
576.631	7799
576.688	7149
576.746	6660
576.803	7766
576.860	7380
576.917	7604
576.974	7372
577.031	7990
577.089	7243
577.146	7729
577.203	7342
577.260	7805
577.317	7948
577.374	8344
577.431	6592
577.488	7900
577.545	6861
577.602	7499
577.659	7572
577.716	7158
577.773	6420
577.830	6939
577.886	6715
577.943	7487
578.000	6869
578.057	7444
578.114	7250
578.171	6749
578.227	7285
578.284	7431
578.341	7078
578.398	8700
578.454	7939
578.511	7885
578.568	8410
578.625	7643
578.681	7146
578.738	7971
578.794	7268
578.851	7660
578.908	8257
578.964	7546
579.021	8424
579.077	7924
579.134	8330
579.190	8102
579.247	7047
579.303	8052
579.360	7570
579.416	7335
579.473	7350
579.529	8044
579.586	7168
579.642	8318
579.698	6889
579.755	7798
579.811	7721
579.867	8697
579.924	7804
579.980	7984
580.036	8450
580.093	7749
580.149	7991
580.205	8049
580.261	8129
580.317	8850
580.374	9107
580.430	9017
580.486	8888
580.542	8057
580.598	8227
580.619	8333
580.654	8523
580.692	8644
580.710	8716
580.765	8423
580.767	8420
580.823	8295
580.838	8516
580.879	9111
580.911	8848
580.935	8669
580.984	8221
580.991	8162
581.047	8985
581.057	9082
581.103	9539
581.130	9181
581.159	8812
581.203	9336
581.215	9484
581.270	9286
581.276	9237
581.326	8805
581.349	8995
581.382	9296
581.422	9439
581.438	9492
581.494	9381
581.494	9373
581.550	8892
581.567	8965
581.606	9078
581.640	9474
581.661	9717
581.713	9948
581.717	9974
581.773	9397
581.786	9468
581.829	9712
581.859	9593
581.885	9445
581.932	9590
581.940	9632
581.996	9864
582.004	9894
582.052	10055
582.077	10135
582.107	10214
582.150	10012
582.163	9971
582.219	10400
582.223	10319
582.274	9258
582.296	9702
582.330	10468
582.368	10551
582.386	10603
582.441	10600
582.441	10600
582.497	9834
582.514	10062
582.552	10776
582.587	10420
582.608	10164
582.659	9991
582.663	9974
582.719	11152
582.732	11090
582.774	10901
582.805	10797
582.830	10675
582.877	10586
582.885	10582
582.941	10879
582.950	10830
582.996	10644
583.023	11096
583.052	11521
583.095	11271
583.107	11242
583.162	11063
583.168	11147
583.218	11654
583.240	11573
583.273	11583
583.313	11350
583.328	11248
583.384	11800
583.385	11798
583.439	11773
583.458	11896
583.494	12070
583.531	11853
583.549	11751
583.603	11763
583.605	11766
583.660	12524
583.676	12134
583.715	11044
583.748	11581
583.770	12055
583.820	12569
583.825	12606
583.881	12920
583.893	12845
583.936	12523
583.965	12669
583.991	12850
584.038	12715
584.046	12724
584.101	13413
584.110	13361
584.156	12787
584.183	13165
584.211	13797
584.255	13352
584.266	13152
584.321	13201
584.328	13189
584.376	13386
584.400	13732
584.431	14086
584.472	13832
584.486	13858
584.541	14581
584.545	14619
584.596	14857
584.617	14795
584.651	14841
584.689	15016
584.706	15119
584.761	15848
584.762	15842
584.816	15847
584.834	16206
584.871	16712
584.906	16581
584.926	16598
584.978	17463
584.980	17504
585.035	17351
585.051	17645
585.090	18886
585.123	19545
585.145	19929
585.195	21065
585.200	21217
585.254	22828
585.267	23445
585.309	24899
585.340	25818
585.364	27033
585.412	31275
585.419	31874
585.473	38420
585.484	40336
585.528	49778
585.556	56618
585.583	67782
585.628	90162
585.637	101189
585.692	193044
585.700	212933
585.747	342780
585.772	341661
585.801	245214
585.845	114895
585.856	94356
585.910	43445
585.917	37909
585.965	32391
585.989	30489
586.019	29659
586.061	27519
586.074	27199
586.128	27402
586.133	27413
586.183	27883
586.205	27910
586.237	28228
586.277	28646
586.292	28748
586.346	28985
586.349	29039
586.401	30365
586.421	30052
586.455	29802
586.493	31058
586.509	32128
586.564	34783
586.565	34871
586.618	42815
586.637	44822
586.672	45145
586.709	42431
586.727	40590
586.781	39662
586.781	39700
586.835	38123
586.853	37805
586.889	36677
586.925	35936
586.944	36284
586.996	37057
586.998	37116
587.052	38690
587.068	38923
587.106	39773
587.140	40575
587.161	41197
587.212	43150
587.215	43284
587.269	44861
587.284	45299
587.323	46437
587.356	47084
587.377	47988
587.427	50590
587.431	50767
587.485	52482
587.499	52740
587.539	54512
587.571	56453
587.593	57877
587.643	60668
587.648	61068
587.702	65334
587.715	66291
587.755	69509
587.786	71872
587.810	73747
587.858	77320
587.864	78029
587.917	85134
587.930	86626
587.971	92238
588.001	96769
588.025	100894
588.073	108570
588.079	109714
588.133	120230
588.145	122498
588.187	133895
588.217	142234
588.241	150161
588.288	166218
588.295	168875
588.348	191541
588.360	196468
588.402	219999
588.431	237458
588.456	255176
588.503	291231
588.510	298021
588.564	355185
588.575	367685
588.617	430626
588.646	476076
588.671	530932
588.718	638777
588.725	662223
588.778	846532
588.789	884660
588.832	1060176
588.861	1178740
588.886	1210211
588.932	1219092
588.939	1193965
588.993	933622
589.004	902428
589.047	1100198
589.075	1204060
589.100	1213724
589.147	1184952
589.154	1157503
589.207	936466
589.218	892579
589.261	797014
589.290	736379
589.314	733799
589.361	736369
589.368	750390
589.421	870517
589.433	897571
589.475	1052677
589.504	1155730
589.528	1154228
589.576	1088878
589.582	1085484
589.635	1085450
589.647	1077068
589.689	1061129
589.718	1031466
589.742	904649
589.790	655375
589.795	638487
589.849	477537
589.861	440841
589.902	375946
589.932	327879
589.955	303300
590.004	251751
590.009	248623
590.062	212471
590.075	203393
590.115	186093
590.146	172523
590.168	165173
590.218	148543
590.222	147841
590.275	135745
590.289	132548
590.328	125842
590.360	119606
590.381	116105
590.431	107873
590.435	107629
590.488	100551
590.503	98358
590.541	94969
590.574	91758
590.594	89933
590.645	85112
590.647	85126
590.700	81326
590.716	80048
590.753	78344
590.787	76719
590.806	75946
590.859	73192
590.859	73290
590.912	70966
590.930	70040
590.965	68563
591.001	67024
591.018	66772
591.071	65676
591.072	65534
591.124	64207
591.143	63576
591.177	62290
591.214	60702
591.230	60866
591.283	60927
591.285	60804
591.336	59036
591.356	58149
591.389	57826
591.427	57001
591.442	56679
591.495	55179
591.498	54960
591.547	54556
591.569	54140
591.600	54025
591.640	53618
591.653	53442
591.706	52196
591.711	51961
591.759	51582
591.782	51203
591.811	52869
591.853	55013
591.864	54782
591.917	53004
591.924	52605
591.969	51357
591.995	50518
592.022	50480
592.066	50110
592.075	50413
592.127	51558
592.137	51672
592.180	53873
592.208	55033
592.233	54042
592.279	51774
592.285	51713
592.338	50174
592.350	49706
592.390	48973
592.421	48241
592.443	48599
592.491	48996
592.495	49147
592.548	49587
592.562	49584
592.600	49490
592.633	49193
592.653	48935
592.704	47683
592.705	47953
592.775	47751
592.846	48088
592.916	48142
592.987	48517
593.058	48560
593.128	47491
593.199	46387
593.270	46703
593.341	45614
593.411	47229
593.482	48310
593.553	48369
593.623	47401
593.694	47390
593.764	49463
593.835	49426
593.906	47801
593.976	47756
594.047	49157
594.117	51846
594.188	54072
594.258	51021
594.329	49546
594.399	50075
594.470	50409
594.540	50823
594.611	51802
594.681	51468
594.751	51696
594.822	53034
594.892	55121
594.963	56109
595.033	56837
595.103	57878
595.174	57680
595.244	61151
595.314	71772
595.384	65020
595.455	59503
595.525	62200
595.595	63711
595.665	64668
595.736	63548
595.806	62651
595.876	63700
595.946	63856
596.016	64428
596.087	67270
596.157	66731
596.227	67270
596.297	69287
596.367	72277
596.437	77241
596.507	80180
596.577	85219
596.647	82028
596.717	81075
596.787	82337
596.857	82414
596.927	81793
596.997	83564
597.067	81789
597.137	84041
597.207	86892
597.277	86386
597.347	83045
597.417	80470
597.487	82333
597.557	82111
597.626	84537
597.696	85649
597.766	88433
597.836	90165
597.906	82921
597.975	75895
598.045	76362
598.115	76910
598.185	80650
598.254	89233
598.324	96841
598.394	100540
598.464	99873
598.533	97105
598.603	92590
598.672	88688
598.742	89235
598.812	89127
598.881	90969
598.951	90814
599.020	90682
599.090	93300
599.159	97180
599.229	93266
599.299	89563
599.368	91736
599.437	93111
599.507	90316
599.576	82354
599.646	81445
599.715	81236
599.785	79819
599.854	79546
599.924	78528
599.993	78373
600.062	78340
600.132	79037
600.201	81223
600.270	91659
600.340	102445
600.409	98984
600.478	98867
600.547	99320
600.617	101001
600.686	80615
600.755	72376
600.824	68746
600.894	67452
600.963	64956
601.032	65751
601.101	63939
601.170	61414
601.239	59067
601.308	59855
601.378	60368
601.447	58484
601.516	59659
601.585	60808
601.654	62010
601.723	61144
601.792	60702
601.861	63480
601.930	66358
601.999	67282
602.068	67512
602.137	68013
602.206	69649
602.275	67408
602.343	69604
602.412	71925
602.481	70595
602.550	71575
602.619	71238
602.688	72366
602.756	72683
602.825	74168
602.894	74225
602.963	76173
603.032	77255
603.100	78382
603.169	75825
603.238	77305
603.307	78537
603.375	77996
603.444	79923
603.513	81372
603.581	81493
603.650	83459
603.719	82038
603.787	81030
603.856	84858
603.924	86274
603.993	89094
604.061	91259
604.130	93996
604.198	98051
604.267	99463
604.335	99568
604.404	100656
604.472	103740
604.541	103262
604.609	105259
604.678	106565
604.746	105088
604.815	107862
604.883	111697
604.951	111193
605.020	111903
605.088	112912
605.156	115872
605.225	117021
605.293	117083
605.361	118186
605.429	119124
605.498	120495
605.566	123795
605.634	127569
605.702	133245
605.771	137039
605.839	138670
605.907	136708
605.975	134249
606.043	129457
606.111	130059
606.180	129340
606.248	128618
606.316	124262
606.384	125972
606.452	127610
606.520	129389
606.588	134070
606.656	132415
606.724	132729
606.792	125689
606.860	116407
606.928	103917
606.996	99455
607.064	96045
607.132	98090
607.200	100426
607.267	107181
607.335	107853
607.403	112244
607.471	112154
607.539	103288
607.607	107981
607.674	97920
607.742	93173
607.810	93570
607.878	94254
607.946	93633
608.013	96953
608.081	101899
608.149	102811
608.216	104191
608.284	109253
608.352	109399
608.419	110108
608.487	108547
608.555	107202
608.622	106064
608.690	109551
608.757	120107
608.825	129941
608.893	126465
608.960	122527
609.028	118454
609.095	117827
609.163	115527
609.230	107869
609.298	93822
609.365	94950
609.432	102339
609.500	108431
609.567	121992
609.635	141084
609.702	154273
609.769	152296
609.837	134579
609.904	103943
609.971	102707
610.039	110885
610.106	133883
610.173	216606
610.241	495268
610.308	623697
610.375	233327
610.442	132030
610.509	110120
610.577	105854
610.644	105477
610.711	108727
610.778	110946
610.845	113547
610.912	120865
610.980	126341
611.047	128667
611.114	127027
611.181	123365
611.248	120482
611.315	124112
611.382	129820
611.449	130930
611.516	137526
611.583	135679
611.650	135349
611.717	137534
611.784	141112
611.851	143896
611.918	153660
611.984	171064
612.051	218297
612.118	358584
612.185	830599
612.252	1113875
612.319	325116
612.386	191983
612.452	172989
612.519	159429
612.586	156646
612.653	157707
612.719	158185
612.786	156930
612.853	147897
612.919	139121
612.986	141802
613.053	135860
613.120	127385
613.186	121207
613.253	121707
613.319	121086
613.386	122368
613.453	124189
613.519	126855
613.586	126535
613.652	130193
613.719	128633
613.785	128942
613.852	126863
613.918	126238
613.985	124692
614.051	128821
614.118	131633
614.184	128560
614.250	122901
614.317	126172
614.383	124787
614.449	128484
614.516	126676
614.582	127862
614.648	127036
614.715	124265
614.781	124018
614.847	121999
614.914	123667
614.980	120413
615.046	118090
615.112	121394
615.179	124759
615.245	125901
615.311	129901
615.377	139849
615.443	161957
615.509	141248
615.575	135086
615.642	133678
615.708	133233
615.774	139251
615.840	148510
615.906	161325
615.972	190427
616.038	273061
616.104	480215
616.170	933235
616.236	1459643
616.302	506267
616.368	255285
616.434	200511
616.500	161276
616.565	163535
616.631	201695
616.697	198841
616.763	173270
616.829	216592
616.895	379435
616.961	516237
617.026	287002
617.092	151793
617.158	132976
617.224	130077
617.289	122691
617.355	115326
617.421	113393
617.487	114339
617.552	108861
617.618	104046
617.684	105157
617.749	106230
617.815	103281
617.880	99212
617.946	99170
618.012	100676
618.077	103075
618.143	101167
618.208	99336
618.274	104145
618.339	110995
618.405	97939
618.470	88307
618.536	90552
618.601	90148
618.667	87829
618.732	81519
618.798	78830
618.863	78101
618.928	77524
618.994	78472
619.059	78395
619.124	82905
619.190	83017
619.255	78180
619.320	76807
619.386	77341
619.451	76685
619.516	75244
619.581	74913
619.647	76899
619.712	79302
619.777	75617
619.842	74215
619.907	77087
619.972	78011
620.038	77544
620.103	75286
620.168	74372
620.233	75344
620.298	75333
620.363	76869
620.428	78019
620.493	81222
620.558	82068
620.623	80593
620.688	84084
620.753	81972
620.818	82343
620.883	82533
620.948	83500
621.013	82296
621.078	82279
621.143	82006
621.207	84465
621.272	82168
621.337	82080
621.402	80476
621.467	82966
621.532	84065
621.596	83496
621.661	80512
621.726	76010
621.791	78101
621.855	77918
621.920	78465
621.985	78706
622.049	82608
622.114	82285
622.179	82022
622.243	83129
622.308	85577
622.373	87571
622.437	89443
622.502	83439
622.566	80358
622.631	81282
622.695	83033
622.760	83499
622.824	82833
622.889	81927
622.953	82735
623.018	87597
623.082	98248
623.147	88188
623.211	86375
623.276	85359
623.340	82655
623.404	79020
623.469	79154
623.533	79637
623.597	79148
623.662	77594
623.726	76060
623.790	69466
623.854	67688
623.919	68577
623.983	68767
624.047	71166
624.111	68964
624.176	71010
624.240	72521
624.304	76721
624.368	73980
624.432	71599
624.496	72831
624.560	75102
624.625	79390
624.689	77066
624.753	77703
624.817	78336
624.881	75075
624.945	71007
625.009	65888
625.073	66169
625.137	68385
625.201	73677
625.265	77110
625.329	70956
625.393	69859
625.456	71103
625.520	71589
625.584	75006
625.648	77133
625.712	84084
625.776	105154
625.839	125865
625.903	99486
625.967	63649
626.031	66221
626.095	89384
626.158	84239
626.222	60059
626.286	52763
626.349	49995
626.413	46692
626.477	46967
626.540	47206
626.604	46302
626.668	47519
626.731	46060
626.795	44516
626.858	46422
626.922	46941
626.986	44760
627.049	44362
627.113	45412
627.176	45386
627.240	44025
627.303	44110
627.366	44220
627.430	44372
627.493	44409
627.557	44190
627.620	44277
627.684	44657
627.747	47059
627.810	45733
627.874	40423
627.937	37235
628.000	39675
628.064	40728
628.127	36525
628.190	33870
628.253	34464
628.317	34217
628.380	31241
628.443	32002
628.506	32372
628.569	30060
628.632	29624
628.696	27800
628.759	28929
628.822	27959
628.885	27240
628.948	26800
629.011	27008
629.074	26082
629.137	25840
629.200	24872
629.263	26373
629.326	24970
629.389	24259
629.452	24823
629.515	25049
629.578	24517
629.641	25217
629.704	25160
629.767	24698
629.830	24710
629.892	23158
629.955	22981
630.018	24107
630.081	23846
630.144	26622
630.207	24225
630.269	24655
630.332	23525
630.395	23744
630.458	23076
630.520	21733
630.583	22802
630.646	20868
630.708	22362
630.771	21904
630.834	22646
630.896	22566
630.959	22602
631.021	22411
631.084	21891
631.146	22214
631.209	23999
631.272	23081
631.334	22439
631.397	22028
631.459	22490
631.522	23070
631.584	23728
631.646	24924
631.709	25851
631.771	28472
631.834	26725
631.896	24559
631.958	23228
632.021	23015
632.083	21877
632.145	22617
632.208	21514
632.270	22019
632.332	21150
632.395	20834
632.457	20761
632.519	20849
632.581	20872
632.643	21301
632.706	20439
632.768	20150
632.830	19987
632.892	19994
632.954	20836
633.016	21827
633.078	20017
633.141	20477
633.203	20629
633.265	21235
633.327	19586
633.389	20859
633.451	20088
633.513	21652
633.575	22701
633.637	22379
633.698	21587
633.760	21201
633.822	21770
633.884	21850
633.946	22256
634.008	22855
634.070	23598
634.132	24201
634.193	25152
634.255	27580
634.317	27836
634.379	28449
634.441	25931
634.502	25284
634.564	22472
634.626	21281
634.687	20921
634.749	19903
634.811	19225
634.873	19055
634.934	20062
634.996	18938
635.057	19381
635.119	19173
635.181	20259
635.242	19842
635.304	19955
635.365	20276
635.427	18996
635.488	19094
635.550	19401
635.611	19339
635.673	19145
635.734	20902
635.796	21579
635.857	22307
635.918	23485
635.980	24787
636.041	26419
636.102	28810
636.164	29418
636.225	30031
636.286	26897
636.348	24804
636.409	20872
636.470	20346
636.531	19291
636.593	20782
636.654	20600
636.715	18096
636.776	17270
636.838	17432
636.899	16337
636.960	16522
637.021	16105
637.082	16262
637.143	15492
637.204	16257
637.265	16039
637.326	16681
637.387	15620
637.448	15980
637.509	15685
637.570	15659
637.631	15693
637.692	15265
637.753	14843
637.814	14952
637.875	14927
637.936	15225
637.997	14858
638.058	15362
638.119	15256
638.179	15275
638.240	14299
638.301	14909
638.362	15095
638.423	13958
638.483	14694
638.544	13437
638.605	14353
638.666	13384
638.726	14131
638.787	13744
638.848	14030
638.908	13996
638.969	13149
639.030	12735
639.090	12794
639.151	13332
639.211	14042
639.272	14217
639.332	16848
639.393	17136
639.453	13589
639.514	14770
639.574	14213
639.635	12692
639.695	12456
639.756	12278
639.816	12883
639.877	12551
639.937	14761
639.997	18827
640.058	15468
640.118	13210
640.178	12006
640.239	12292
640.299	11699
640.359	13000
640.420	12658
640.480	13694
640.540	14839
640.600	16914
640.661	14334
640.721	12883
640.781	15534
640.841	14601
640.901	13219
640.961	13350
641.021	13262
641.082	13914
641.142	15093
641.202	14640
641.262	11761
641.322	11533
641.382	11865
641.442	11812
641.502	11237
641.562	11781
641.622	12267
641.682	12671
641.742	14468
641.802	14502
641.861	12451
641.921	11815
641.981	11946
642.041	11265
642.101	11942
642.161	12698
642.221	11420
642.280	11197
642.340	9595
642.400	11542
642.460	11969
642.519	10847
642.579	11163
642.639	12085
642.698	10783
642.758	12616
642.818	11502
642.877	11329
642.937	11185
642.997	11941
643.056	12827
643.116	12618
643.175	12034
643.235	11974
643.294	12576
643.354	12355
643.414	12711
643.473	14791
643.532	16995
643.592	23098
643.651	32297
643.711	54991
643.770	100256
643.830	201187
643.889	580799
643.948	452997
644.008	61728
644.067	26268
644.126	19159
644.186	16115
644.245	14389
644.304	12204
644.363	12826
644.423	12676
644.482	11691
644.541	12112
644.600	12762
644.659	14180
644.719	17227
644.778	24754
644.837	37684
644.896	67956
644.955	172582
645.014	178009
645.073	28106
645.132	16191
645.191	14148
645.250	12408
645.309	13055
645.368	13894
645.427	15690
645.486	21462
645.545	47109
645.604	33954
645.663	12913
645.722	11236
645.781	12941
645.840	13729
645.898	16708
645.957	20822
646.016	30705
646.075	52787
646.134	94436
646.192	198368
646.251	543642
646.310	255358
646.369	36872
646.427	22044
646.486	18743
646.545	13697
646.603	12618
646.662	11947
646.721	11028
646.779	10500
646.838	10459
646.896	12669
646.955	15847
647.014	23724
647.072	39233
647.131	97233
647.189	145052
647.248	23686
647.306	11124
647.365	9690
647.423	8292
647.481	8844
647.540	7583
647.598	8927
647.657	7650
647.715	8245
647.773	8641
647.832	8258
647.890	7130
647.948	7383
648.007	8237
648.065	7067
648.123	6820
648.181	8030
648.240	7531
648.298	7446
648.356	7136
648.414	7097
648.472	7810
648.531	8150
648.589	7279
648.647	7205
648.705	6682
648.763	7065
648.821	7473
648.879	7758
648.937	7784
648.995	9929
649.053	11266
649.111	15863
649.169	24973
649.227	45581
649.285	82587
649.343	220208
649.401	336643
649.459	54482
649.516	23704
649.574	12657
649.632	12270
649.690	11977
649.748	13238
649.806	17585
649.863	30968
649.921	61890
649.979	122280
650.037	26335
650.094	8032
650.152	7861
650.210	6731
650.268	7171
650.325	5882
650.383	6428
650.440	5472
650.498	6050
650.556	5678
650.613	4954
650.671	5742
650.728	6028
650.786	6432
650.843	6167
650.901	7250
650.958	6180
651.016	5111
651.073	5128
651.131	4365
651.188	3563
651.246	4889
651.303	3996
651.360	4798
651.418	4806
651.475	5142
651.532	4524
651.590	4927
651.647	3626
651.704	3921
651.762	4503
651.819	5282
651.876	4573
651.933	4592
651.990	4729
652.048	4256
652.105	3434
652.162	4954
652.219	4257
652.276	3962
652.333	3809
652.390	4259
652.448	4673
652.505	4291
652.562	4678
652.619	3269
652.676	4180
652.733	4828
652.790	4165
652.847	2951
652.904	4507
652.961	3647
653.017	4011
653.074	4136
653.131	3895
653.188	3047
653.245	3862
653.302	3169
653.359	3259
653.415	4299
653.472	3240
653.529	3486
653.586	2484
653.642	2854
653.699	3552
653.756	3438
653.813	3610
653.869	4002
653.926	3460
653.983	4016
654.039	3847
654.096	3205
654.152	3788
654.209	3036
654.266	3469
654.322	3997
654.379	3879
654.435	4212
654.492	4121
654.548	4410
654.605	6373
654.661	6321
654.717	3778
654.774	3765
654.830	3672
654.887	3612
654.943	3239
655.000	3952
655.056	3625
655.112	3866
655.168	4077
655.225	3482
655.281	4654
655.337	4233
655.394	6225
655.450	7031
655.506	4755
655.562	5207
655.618	8006
655.675	3799
655.731	4663
655.787	3163
655.843	4194
655.899	3008
655.955	3845
656.011	3378
656.067	2478
656.123	4158
656.179	3645
656.235	4254
656.291	3094
656.347	3957
656.403	3908
656.459	3979
656.515	3583
656.571	4258
656.627	4522
656.683	3305
656.739	4407
656.795	4182
656.850	3534
656.906	3872
656.962	4489
657.018	3579
657.074	3626
657.129	4805
657.185	7113
657.241	10656
657.297	16239
657.352	5109
657.408	3326
657.464	4224
657.519	3253
657.575	2376
657.630	3635
657.686	3923
657.742	2893
657.797	3706
657.853	3226
657.908	4586
657.964	3512
658.019	3636
658.075	3982
658.130	3535
658.186	3514
658.241	2369
658.297	2679
658.352	2004
658.407	2961
658.463	1888
658.518	4059
658.573	3104
658.629	3331
658.684	3469
658.739	2933
658.795	2762
658.850	4266
658.905	2382
658.960	3684
659.016	2467
659.071	2780
659.126	3389
659.181	3317
659.236	4036
659.291	5413
659.346	3739
659.401	4529
659.457	3375
659.512	3295
659.567	3466
659.622	3251
659.677	2881
659.732	2594
659.787	3715
659.842	3344
659.897	3556
659.952	3984
660.007	2701
660.061	1668
660.116	2929
660.171	2963
660.226	3257
660.281	3411
660.336	2529
660.391	3143
660.445	3018
660.500	2969
660.555	2868
660.610	2940
660.664	3854
660.719	2571
660.774	2447
660.828	3067
660.883	3590
660.938	3037
660.992	2626
661.047	3510
661.101	2058
661.156	3176
661.211	2299
661.265	2495
661.320	3035
661.374	2931
661.429	2615
661.483	3481
661.538	3244
661.592	1881
661.647	3039
661.701	3343
661.755	2801
661.810	3029
661.864	1957
661.919	3160
661.973	2655
662.027	2910
662.081	2425
662.136	2317
662.190	2455
662.244	3413
662.299	2317
662.353	2861
662.407	2949
662.461	2850
662.515	3273
662.569	2803
662.624	3402
662.678	2367
662.732	2099
662.786	1947
662.840	3272
662.894	3528
662.948	2764
663.002	2947
663.056	3088
663.110	3250
663.164	2016
663.218	2818
663.272	2583
663.326	2667
663.380	3401
663.434	3085
663.488	2656
663.542	2421
663.595	2672
663.649	2726
663.703	3454
663.757	2497
663.811	2126
663.864	1947
663.918	3452
663.972	2148
664.026	2583
664.079	2196
664.133	2567
664.187	3236
664.240	2554
664.294	2835
664.348	2933
664.401	2767
664.455	3165
664.508	1864
664.562	1731
664.615	2083
664.669	1641
664.722	2555
664.776	2201
664.829	2133
664.883	1647
664.936	2076
664.990	2876
665.043	2860
665.097	2125
665.150	2765
665.203	2736
665.257	2693
665.310	2961
665.363	2824
665.417	3048
665.470	3005
665.523	2701
665.576	2802
665.630	3092
665.683	2726
665.736	2674
665.789	2791
665.842	2295
665.895	2889
665.949	2880
666.002	2083
666.055	3048
666.108	2706
666.161	2615
666.214	2554
666.267	3477
666.320	2806
666.373	2962
666.426	2575
666.479	3124
666.532	2815
666.585	2781
666.638	3815
666.691	2701
666.744	3487
666.796	2963
666.849	3270
666.902	3638
666.955	2768
667.008	2389
667.060	2400
667.113	2083
667.166	2213
667.219	2437
667.271	2519
667.324	2578
667.377	2615
667.430	3277
667.482	2478
667.535	2692
667.587	2763
667.640	2656
667.693	2444
667.745	3686
667.798	5158
667.850	3206
667.903	2713
667.955	2156
668.008	1986
668.060	3133
668.113	2292
668.165	2753
668.218	3499
668.270	3295
668.322	2141
668.375	2925
668.427	2459
668.479	1283
668.532	2883
668.584	2972
668.636	2641
668.689	3329
668.741	3405
668.793	2966
668.845	2925
668.898	3133
668.950	2691
669.002	3766
669.054	2392
669.106	2546
669.158	3589
669.211	2090
669.263	3019
669.315	3023
669.367	2765
669.419	3295
669.471	3747
669.523	3498
669.575	3959
669.627	4216
669.679	2721
669.731	3001
669.783	3679
669.835	3526
669.886	3614
669.938	3793
669.990	2747
670.042	2852
670.094	3344
670.146	3321
670.197	3250
670.249	4139
670.301	4454
670.353	6792
670.404	8718
670.456	11330
670.508	17300
670.560	28322
670.611	48007
670.663	83341
670.715	154103
670.766	358029
670.818	310908
670.869	63286
670.921	19994
670.972	11249
671.024	8526
671.075	6656
671.127	6190
671.178	4822
671.230	4680
671.281	4754
671.333	4205
671.384	4443
671.436	5342
671.487	6078
671.538	7566
671.590	9930
671.641	16581
671.692	26172
671.744	52346
671.795	71437
671.846	29420
671.897	10742
671.949	7350
672.000	5551
672.051	5188
672.102	4185
672.153	3061
672.204	3246
672.256	3090
672.307	3478
672.358	3087
672.409	3258
672.460	3350
672.511	2505
672.562	2623
672.613	2483
672.664	2038
672.715	2642
672.766	3230
672.817	2298
672.868	2353
672.919	2088
672.970	1791
673.021	2472
673.071	3056
673.122	2423
673.173	2577
673.224	1563
673.275	2503
673.326	1846
673.376	2342
673.427	2171
673.478	2422
673.528	2748
673.579	2397
673.630	2532
673.680	2440
673.731	1507
673.782	2242
673.832	2047
673.883	2436
673.934	1716
673.984	2648
674.035	2484
674.085	2082
674.136	2987
674.186	2291
674.237	2932
674.287	3588
674.338	4417
674.388	2557
674.438	2355
674.489	2358
674.539	2662
674.589	2577
674.640	2994
674.690	2445
674.740	2592
674.791	2707
674.841	2782
674.891	2145
674.942	1815
674.992	1308
675.042	1666
675.092	1116
675.142	2312
675.193	1731
675.243	2563
675.293	1994
675.343	1774
675.393	2270
675.443	2574
675.493	2112
675.543	1319
675.593	2340
675.643	2385
675.693	2317
675.743	2712
675.793	2412
675.843	1545
675.893	1454
675.943	1959
675.993	1968
676.043	1864
676.093	2069
676.142	2207
676.192	1600
676.242	1368
676.292	2374
676.341	1869
676.391	2771
676.441	2017
676.491	1838
676.540	2338
676.590	1491
676.640	1447
676.689	1435
676.739	2121
676.789	1715
676.838	1120
676.888	1378
676.937	1604
676.987	1647
677.037	1247
677.086	1312
677.136	1454
677.185	1605
677.235	1679
677.284	1043
677.333	969
677.383	1454
677.432	1155
677.482	1216
677.531	1537
677.580	1078
677.630	1369
677.679	1335
677.728	1807
677.778	846
677.827	1202
677.876	1577
677.925	1575
677.975	1098
678.024	773
678.073	1664
678.122	1229
678.171	1799
678.220	1661
678.269	2129
678.319	2241
678.368	1416
678.417	1576
678.466	2478
678.515	1410
678.564	1042
678.613	2415
678.662	1348
678.711	1279
678.760	1899
678.809	733
678.857	998
678.906	949
678.955	1259
679.004	2439
679.053	1469
679.102	468
679.151	1190
679.199	1445
679.248	1199
679.297	653
679.346	1845
679.394	1434
679.443	1290
679.492	939
679.540	1400
679.589	934
679.638	1251
679.686	1291
679.735	699
679.784	2081
679.832	1663
679.881	1761
679.929	1038
679.978	720
680.026	957
680.075	1831
680.123	429
680.172	1217
680.220	1190
680.268	840
680.317	1046
680.365	699
680.414	515
680.462	1019
680.510	1888
680.559	900
680.607	663
680.655	856
680.703	679
680.752	27
680.800	1008
680.848	300
680.896	719
680.945	414
680.993	862
681.041	399
681.089	967
681.137	677
681.185	58
681.233	130
681.258	362
681.281	530
681.329	516
681.377	951
681.380	1005
681.425	933
681.473	1527
681.502	1484
681.521	1366
681.569	1649
681.617	1089
681.624	1277
681.665	2044
681.713	1873
681.745	2039
681.761	2035
681.809	2236
681.857	2192
681.867	2269
681.904	2299
681.952	2387
681.989	2378
682.000	2318
682.048	2344
682.096	2716
682.111	2894
682.143	3078
682.191	2983
682.233	3312
682.239	3308
682.286	2866
682.334	3339
682.354	3532
682.382	3676
682.430	3621
682.476	4199
682.477	4162
682.525	3866
682.572	3784
682.598	3889
682.620	3906
682.667	4038
682.715	3733
682.720	3834
682.763	4309
682.810	4814
682.841	4594
682.857	4415
682.905	4861
682.952	4639
682.963	4932
683.000	5709
683.047	5106
683.085	5693
683.095	5817
683.142	5195
683.190	5097
683.206	4978
683.237	4587
683.284	5352
683.328	5591
683.332	5571
683.379	5788
683.426	5574
683.449	5981
683.473	6311
683.521	6108
683.568	5513
683.571	5639
683.615	6719
683.662	6019
683.693	6307
683.709	6468
683.757	6637
683.804	6918
683.814	6921
683.851	6619
683.898	6795
683.936	7087
683.945	7141
683.992	7143
684.039	6880
684.057	7177
684.086	7588
684.133	8415
684.179	7660
684.180	7600
684.227	8103
684.274	8730
684.300	8272
684.321	7814
684.368	7993
684.415	7959
684.422	7973
684.462	7918
684.509	8375
684.543	8297
684.556	8230
684.603	8633
684.649	8134
684.665	8204
684.696	8285
684.743	8197
684.786	9018
684.790	9076
684.837	9070
684.883	9651
684.908	9900
684.930	9994
684.977	10527
685.023	10203
685.029	10289
685.070	10688
685.117	9474
685.150	10166
685.164	10431
685.210	10926
685.257	10996
685.272	11043
685.303	11113
685.350	10691
685.393	11003
685.396	10988
685.443	11541
685.490	11157
685.514	11513
685.536	11849
685.583	11616
685.629	11579
685.636	11653
685.675	11816
685.722	11866
685.757	11782
685.768	11775
685.815	11883
685.861	11239
685.878	11683
685.908	12400
685.954	11676
686.000	12554
686.000	12556
686.047	12849
686.093	13126
686.121	13417
686.139	13618
686.185	13515
686.232	13617
686.242	13685
686.278	13435
686.324	13126
686.363	13047
686.370	13045
686.416	12798
686.463	12997
686.484	12827
686.509	12799
686.555	12870
686.601	13128
686.606	13213
686.647	13581
686.693	13161
686.727	13000
686.739	13014
686.785	13203
686.831	13524
686.848	13425
686.877	13172
686.923	13537
686.969	13286
686.969	13283
687.015	13357
687.061	13643
687.090	13592
687.107	13582
687.153	13783
687.199	14350
687.211	14311
687.245	14058
687.291	13931
687.332	13910
687.336	13931
687.382	14672
687.428	14540
687.453	14874
687.474	15017
687.520	14513
687.565	14536
687.574	14533
687.611	14755
687.657	14924
687.695	14957
687.702	14979
687.748	15419
687.794	15839
687.816	16086
687.839	16352
687.885	15902
687.931	16268
687.937	16285
687.976	15780
688.022	15555
688.058	15278
688.067	15367
688.113	15788
688.158	15820
688.179	16039
688.204	16107
688.249	15782
688.295	15857
688.300	15794
688.340	15846
688.386	16284
688.421	16670
688.431	16730
688.477	16452
688.522	17147
688.542	17237
688.567	17323
688.613	16758
688.658	17013
688.663	16952
688.703	16755
688.749	17423
688.784	17424
688.794	17407
688.839	17723
688.884	17520
688.905	17467
688.930	17333
688.975	17136
689.020	17149
689.026	17078
689.065	16978
689.110	17005
689.146	17190
689.155	17262
689.201	17211
689.246	17517
689.267	17620
689.291	17707
689.336	17651
689.381	17524
689.388	17499
689.426	17508
689.471	17588
689.509	17984
689.516	18056
689.561	17468
689.606	17247
689.630	17302
689.651	17453
689.696	17163
689.741	17258
689.750	17263
689.785	17676
689.830	18443
689.871	18487
689.875	18439
689.920	17700
689.965	17441
689.992	17244
690.010	17434
690.054	17611
690.099	17854
690.112	17950
690.144	18141
690.189	17767
690.233	18066
690.233	18092
690.278	17959
690.323	17661
690.354	17714
690.367	17838
690.412	17744
690.457	18187
690.474	18205
690.501	18173
690.546	18031
690.590	18001
690.595	17925
690.635	17736
690.680	17764
690.716	17790
690.724	17842
690.769	18303
690.813	18680
690.836	18596
690.857	18495
690.902	18493
690.946	18494
690.957	18549
690.991	19402
691.035	19503
691.077	20493
691.080	20575
691.124	21064
691.168	21735
691.198	21950
691.213	21789
691.257	21932
691.301	21747
691.318	21414
691.346	20852
691.390	20062
691.434	19272
691.439	19181
691.478	19331
691.522	19801
691.559	19223
691.567	19200
691.611	19522
691.655	20106
691.680	20419
691.699	20615
691.743	20272
691.787	20385
691.800	20341
691.831	20481
691.875	20739
691.919	21221
691.921	21182
691.964	21263
692.008	21820
692.041	21836
692.052	21831
692.096	21968
692.139	21975
692.162	21964
692.183	21914
692.227	21520
692.271	21347
692.282	21252
692.315	21425
692.359	21308
692.402	21537
692.403	21581
692.447	21730
692.490	21755
692.523	21770
692.534	21832
692.578	21804
692.622	21938
692.643	21864
692.666	21862
692.709	21611
692.753	21811
692.763	21772
692.797	21643
692.840	21368
692.884	21238
692.884	21284
692.928	21250
692.971	21530
693.004	21591
693.015	21703
693.059	21818
693.102	22330
693.124	22350
693.146	22227
693.189	22007
693.233	21918
693.245	21825
693.276	22005
693.320	22291
693.363	22228
693.365	22186
693.407	22345
693.450	22639
693.485	22630
693.493	22684
693.537	22746
693.580	22722
693.605	22658
693.624	22794
693.667	23089
693.710	23506
693.725	23590
693.753	24272
693.797	25090
693.840	25933
693.845	25996
693.883	27093
693.926	28070
693.966	29089
693.970	28975
694.013	27228
694.056	25084
694.086	23804
694.099	23835
694.142	23532
694.185	23474
694.206	23157
694.229	23097
694.272	23088
694.315	23228
694.326	23207
694.358	23464
694.401	23667
694.444	24048
694.446	24001
694.487	24085
694.530	24273
694.566	24167
694.573	24138
694.616	23662
694.659	23437
694.686	23001
694.702	22962
694.745	23090
694.787	22936
694.806	22898
694.830	23008
694.873	22957
694.916	22881
694.926	22826
694.959	22957
695.002	23129
695.044	23097
695.046	23049
695.087	23326
695.130	23392
695.166	23325
695.172	23391
695.215	23671
695.258	23609
695.286	23767
695.301	23959
695.343	24098
695.386	24421
695.406	24438
695.428	24295
695.471	23955
695.514	23642
695.526	23511
695.556	24204
695.599	24886
695.641	25803
695.646	25825
695.684	25745
695.726	25698
695.766	25524
695.769	25584
695.811	25404
695.854	25494
695.886	25460
695.896	25537
695.938	25432
695.981	25366
696.005	25331
696.023	25513
696.065	25562
696.108	25728
696.125	25778
696.150	26142
696.192	26556
696.235	27064
696.245	27081
696.277	27199
696.319	27492
696.361	27528
696.365	27471
696.404	27386
696.446	27229
696.485	26939
696.488	26998
696.530	27036
696.572	26830
696.604	26685
696.614	26782
696.656	26896
696.698	27054
696.724	27039
696.740	26934
696.783	26547
696.825	26062
696.844	25768
696.867	25926
696.909	26215
696.951	26433
696.964	26410
696.992	26497
697.034	26683
697.076	26761
697.083	26709
697.118	27234
697.160	27674
697.202	28293
697.203	28232
697.244	28217
697.286	28280
697.323	28077
697.327	28103
697.369	27775
697.411	27452
697.442	27074
697.453	27240
697.494	27673
697.536	28081
697.562	28319
697.578	28396
697.620	28277
697.661	28193
697.682	28097
697.703	28453
697.744	28957
697.786	29559
697.801	29664
697.828	30007
697.869	30485
697.911	30845
697.921	30883
697.952	30662
697.994	30189
698.035	29700
698.040	29566
698.077	29538
698.118	29411
698.160	29239
698.160	29158
698.201	29081
698.243	28821
698.279	28590
698.284	28759
698.325	29590
698.367	30400
698.399	30953
698.408	30974
698.449	30714
698.491	30429
698.518	30161
698.532	30316
698.573	30520
698.614	30755
698.638	30791
698.656	30867
698.697	30873
698.738	30856
698.757	30764
698.779	30836
698.820	30825
698.862	30810
698.877	30720
698.903	31089
698.944	31547
698.985	32006
698.996	32047
699.026	31926
699.067	31637
699.116	31206
699.235	31443
699.354	30691
699.474	29786
699.593	30485
699.713	31085
699.832	30195
699.951	31123
700.070	30775
700.190	28953
700.309	28631
700.428	28955
700.547	29696
700.667	27335
700.786	28836
700.905	28874
701.024	26802
701.143	29226
701.262	26994
701.381	27773
701.500	26194
701.619	27609
701.738	27966
701.857	27605
701.976	26139
702.095	25164
702.214	26633
702.333	28232
702.452	25828
702.571	27104
702.690	26943
702.809	26516
702.928	25773
703.047	25418
703.165	25390
703.284	25174
703.403	24136
703.522	24618
703.640	24904
703.759	25722
703.878	28743
703.997	27865
704.115	24757
704.234	24501
704.353	23638
704.471	24381
704.590	23209
704.708	23080
704.827	23237
704.946	22557
705.064	22891
705.183	23731
705.301	23894
705.420	28872
705.538	33372
705.656	28845
705.775	26007
705.893	26353
706.012	28977
706.130	28278
706.249	27633
706.367	27202
706.485	27310
706.604	28189
706.722	27044
706.840	27502
706.958	31014
707.077	30064
707.195	26661
707.313	25672
707.431	24623
707.549	25118
707.668	24382
707.786	24992
707.904	24552
708.022	23583
708.140	24246
708.258	24651
708.376	24068
708.494	24505
708.612	23695
708.730	29677
708.848	35031
708.966	30207
709.084	29243
709.202	28500
709.320	27515
709.438	28484
709.556	29096
709.674	28332
709.791	27686
709.909	26968
710.027	27282
710.145	27515
710.263	27285
710.380	27281
710.498	26247
710.616	27423
710.733	25985
710.851	26159
710.969	26318
711.086	25923
711.204	26117
711.322	24711
711.439	24503
711.557	26340
711.674	24927
711.792	24747
711.909	24335
712.027	23787
712.144	23449
712.262	23759
712.379	24453
712.497	28818
712.614	36817
712.732	32359
712.849	30380
712.966	29331
713.084	31271
713.201	32528
713.318	30215
713.436	30438
713.553	29888
713.670	29990
713.787	30755
713.905	31891
714.022	29609
714.139	28993
714.256	31545
714.373	33448
714.490	44862
714.608	73678
714.725	209521
714.842	735692
714.959	223913
715.076	42249
715.193	32549
715.310	29288
715.427	27181
715.544	25856
715.661	25589
715.778	24990
715.895	27107
716.011	26851
716.128	26381
716.245	25163
716.362	25758
716.479	27263
716.596	25486
716.713	23684
716.829	23769
716.946	24359
717.063	22342
717.180	22911
717.296	23178
717.413	22274
717.530	22214
717.646	21508
717.763	21698
717.880	21901
717.996	21635
718.113	21919
718.229	21010
718.346	21675
718.462	19456
718.579	21606
718.695	23926
718.812	28850
718.928	23334
719.045	23542
719.161	19750
719.277	19736
719.394	20409
719.510	19335
719.626	20689
719.743	23494
719.859	28346
719.975	34304
720.092	74468
720.208	287260
720.324	246007
720.440	32755
720.557	23030
720.673	23983
720.789	27366
720.905	36350
721.021	46300
721.137	20338
721.253	18526
721.369	18516
721.486	19759
721.602	21338
721.718	21975
721.834	17314
721.950	16840
722.066	17155
722.181	17632
722.297	17979
722.413	18244
722.529	16197
722.645	17021
722.761	15730
722.877	16914
722.993	16019
723.108	17529
723.224	18672
723.340	16634
723.456	16650
723.571	15376
723.687	16108
723.803	15257
723.918	16022
724.034	15798
724.150	16540
724.265	16094
724.381	18039
724.497	29997
724.612	20462
724.728	15455
724.843	14787
724.959	15644
725.074	16997
725.190	27791
725.305	18816
725.421	15330
725.536	14438
725.651	13736
725.767	14342
725.882	13482
725.997	13357
726.113	13765
726.228	13770
726.343	13128
726.459	12450
726.574	13829
726.689	14419
726.804	12639
726.920	13649
727.035	13536
727.150	13740
727.265	13617
727.380	13424
727.495	13209
727.610	13496
727.725	13225
727.841	12702
727.956	12378
728.071	13771
728.186	13867
728.301	12540
728.416	11937
728.531	12929
728.645	11382
728.760	11022
728.875	13156
728.990	12441
729.105	11514
729.220	12253
729.335	12856
729.449	12332
729.564	11598
729.679	10609
729.794	11975
729.908	11790
730.023	11066
730.138	11367
730.253	10724
730.367	11305
730.482	11249
730.596	11016
730.711	12004
730.826	12714
730.940	12855
731.055	11878
731.169	11137
731.284	11637
731.398	11478
731.513	12361
731.627	12813
731.742	12501
731.856	15660
731.970	14626
732.085	15234
732.199	18683
732.313	24922
732.428	44664
732.542	124138
732.656	255240
732.771	68943
732.885	23645
732.999	17019
733.113	17206
733.227	16462
733.342	16425
733.456	14680
733.570	15222
733.684	13262
733.798	13576
733.912	14563
734.026	13274
734.140	13069
734.254	14667
734.368	14484
734.482	20257
734.596	15996
734.710	13133
734.824	12877
734.938	13250
735.052	12776
735.166	13214
735.280	13128
735.393	12445
735.507	12534
735.621	14105
735.735	15750
735.849	18374
735.962	12421
736.076	12238
736.190	12334
736.303	13054
736.417	16590
736.531	13228
736.644	11688
736.758	12048
736.872	12037
736.985	11002
737.099	12006
737.212	10405
737.326	11417
737.439	10318
737.553	11788
737.666	10775
737.780	10807
737.893	10619
738.007	10103
738.120	10025
738.233	11146
738.347	10634
738.460	9831
738.573	10878
738.687	11325
738.800	11393
738.913	10355
739.026	12056
739.140	10683
739.253	9962
739.366	9288
739.479	9720
739.592	10011
739.705	9880
739.818	10072
739.932	10234
740.045	10326
740.158	9792
740.271	10230
740.384	10603
740.497	9175
740.610	9554
740.723	9646
740.836	9797
740.949	9571
741.062	10252
741.174	11404
741.287	9594
741.400	10240
741.513	9249
741.626	9647
741.739	10333
741.851	9069
741.964	9727
742.077	9260
742.189	9156
742.302	9281
742.415	9785
742.527	8845
742.640	9794
742.753	9119
742.865	8659
742.978	8602
743.090	9552
743.203	7686
743.316	9346
743.428	7962
743.541	8794
743.653	8306
743.766	8073
743.878	8857
743.990	8033
744.103	10032
744.215	8499
744.327	7959
744.440	9224
744.552	10580
744.664	10001
744.777	7729
744.889	9521
745.001	7602
745.113	8177
745.226	8597
745.338	8000
745.450	7897
745.562	8281
745.674	7448
745.786	7946
745.898	7963
746.010	7550
746.122	7971
746.234	8219
746.347	8390
746.459	8597
746.570	6786
746.682	7436
746.794	7839
746.906	7716
747.018	7106
747.130	8116
747.242	7840
747.354	7535
747.466	8198
747.577	7940
747.689	7727
747.801	7570
747.913	7221
748.024	6858
748.136	7061
748.248	6733
748.359	7557
748.471	7120
748.583	7686
748.694	6688
748.806	6799
748.918	7314
749.029	8508
749.141	7238
749.252	7693
749.364	7108
749.475	8537
749.587	9983
749.698	7901
749.809	7543
749.921	7553
750.032	7040
750.144	6309
750.255	6684
750.366	7234
750.478	6511
750.589	6250
750.700	6322
750.811	6390
750.923	7567
751.034	7840
751.145	12595
751.256	8452
751.367	6410
751.479	6381
751.590	6815
751.701	6498
751.812	6122
751.923	6562
752.034	6298
752.145	7194
752.256	5754
752.367	6907
752.478	6027
752.589	7243
752.700	6443
752.811	5717
752.922	5490
753.032	5235
753.143	6824
753.254	6698
753.365	6817
753.476	6437
753.586	7009
753.697	5970
753.808	5832
753.919	5743
754.029	5673
754.140	6423
754.251	6083
754.361	6080
754.472	6368
754.582	5663
754.693	5602
754.804	5316
754.914	5617
755.025	4986
755.135	5610
755.246	5845
755.356	5257
755.466	6361
755.577	5469
755.687	5349
755.798	5596
755.908	5888
756.018	5791
756.129	4670
756.239	5569
756.349	5953
756.460	6099
756.570	6812
756.680	5480
756.790	4866
756.900	5977
757.011	5311
757.121	6256
757.231	5019
757.341	5726
757.451	5327
757.561	5230
757.671	5597
757.781	5211
757.891	5520
758.001	4564
758.111	5447
758.221	5355
758.331	5428
758.441	6176
758.551	5657
758.661	7457
758.771	6799
758.880	6051
758.990	5828
759.100	6207
759.210	6426
759.320	6157
759.429	5614
759.539	5438
759.649	6393
759.758	6739
759.868	6698
759.978	6349
760.087	6860
760.197	6774
760.307	7109
760.416	6537
760.526	5961
760.635	6983
760.745	6959
760.854	7183
760.964	7859
761.073	7951
761.182	7338
761.292	7006
761.401	6948
761.511	7046
761.620	5476
761.729	6337
761.839	5748
761.948	6620
762.057	5895
762.166	6381
762.276	4723
762.385	5768
762.494	5794
762.603	5594
762.712	5663
762.822	6051
762.931	6464
763.040	5304
763.149	5721
763.258	4608
763.367	5367
763.476	5782
763.585	5804
763.694	5981
763.803	5930
763.912	6340
764.021	5265
764.130	5823
764.238	5929
764.347	5368
764.456	6207
764.565	6171
764.674	6494
764.783	6755
764.891	5962
765.000	6409
765.109	6514
765.217	6725
765.326	7149
765.435	7427
765.543	8909
765.652	9212
765.761	9762
765.869	11027
765.978	16773
766.086	23534
766.195	40473
766.303	87838
766.412	244267
766.520	558395
766.629	311376
766.737	74479
766.846	34413
766.954	21988
767.062	17099
767.171	13592
767.279	11778
767.387	9885
767.496	8554
767.604	7687
767.712	7429
767.820	7451
767.928	7413
768.037	6397
768.145	6424
768.253	7714
768.361	6292
768.469	6334
768.577	5485
768.685	7041
768.793	6790
768.901	7242
769.009	7999
769.117	7300
769.225	7759
769.333	9696
769.441	12405
769.549	19121
769.657	33863
769.765	83326
769.873	285145
769.981	385527
770.088	85121
770.196	25681
770.304	16141
770.412	12424
770.519	10418
770.627	9319
770.735	8278
770.842	7952
770.950	7816
771.058	7151
771.165	6797
771.273	7101
771.380	7763
771.488	7364
771.595	8942
771.703	8617
771.810	8256
771.918	7734
772.025	8788
772.133	8443
772.240	9373
772.348	8544
772.455	9514
772.562	8174
772.670	8287
772.777	8603
772.884	8030
772.991	7744
773.099	7353
773.206	8478
773.313	7142
773.420	8069
773.528	7872
773.635	7541
773.742	8013
773.849	7453
773.956	6582
774.063	8350
774.170	7307
774.277	7684
774.384	7822
774.491	7063
774.598	7104
774.705	7714
774.812	7708
774.919	9157
775.026	7490
775.133	6559
775.239	8637
775.346	7231
775.453	6915
775.560	7806
775.667	6599
775.773	6470
775.880	7441
775.987	6541
776.093	7157
776.200	7571
776.307	6936
776.413	6901
776.520	7019
776.627	7818
776.733	6233
776.840	6748
776.946	7307
777.053	7414
777.159	6216
777.266	6575
777.372	6871
777.478	6705
777.585	7309
777.691	7299
777.798	6211
777.904	7731
778.010	6895
778.117	8463
778.223	7554
778.329	6216
778.435	6974
778.542	6408
778.648	6908
778.754	5780
778.860	5719
778.966	6222
779.072	6885
779.178	6277
779.284	6192
779.391	5769
779.497	5953
779.603	6324
779.708	5978
779.815	7301
779.920	6915
780.026	16550
780.132	15449
780.238	6790
780.344	5471
780.450	6078
780.556	5984
780.661	4753
780.767	6212
780.873	6134
780.979	4881
781.085	6094
781.190	5892
781.296	5404
781.402	4938
781.507	6130
781.613	5215
781.719	4380
781.824	5309
781.930	5848
782.035	4746
782.141	5818
782.246	5510
782.352	4904
782.457	4809
782.563	4313
782.668	5230
782.773	5591
782.879	5101
782.984	5220
783.090	5675
783.195	5618
783.300	6751
783.405	5994
783.511	4739
783.616	5697
783.721	5117
783.826	6160
783.932	5296
784.037	5258
784.142	5468
784.247	5947
784.352	5019
784.457	5153
784.562	4859
784.667	5176
784.772	4800
784.877	4749
784.982	5151
785.087	4860
785.192	4625
785.297	4808
785.402	4089
785.507	4427
785.611	4344
785.716	4239
785.821	4070
785.926	4332
786.031	4160
786.135	4783
786.240	5080
786.345	4805
786.450	4403
786.554	4007
786.659	4518
786.763	4003
786.868	4017
786.973	4975
787.077	4314
787.182	4026
787.286	3636
787.391	4312
787.495	4535
787.600	4375
787.704	3828
787.809	4600
787.913	3601
788.017	4244
788.122	3752
788.226	4802
788.330	3926
788.435	3459
788.539	4469
788.643	4085
788.747	2893
788.852	3867
788.956	3484
789.060	3792
789.164	4239
789.268	3767
789.372	4178
789.476	4097
789.580	3506
789.684	4056
789.788	3374
789.892	4267
789.996	4281
790.100	4613
790.204	3495
790.308	3670
790.412	4581
790.516	3759
790.620	3077
790.724	4281
790.828	4298
790.931	3299
791.035	3697
791.139	4086
791.242	3356
791.346	3397
791.450	3679
791.554	3941
791.657	2957
791.761	3318
791.864	3702
791.968	3712
792.072	3552
792.175	3539
792.279	3204
792.382	2741
792.486	3789
792.589	3909
792.693	3583
792.796	3616
792.899	3514
793.003	3586
793.106	3360
793.209	3344
793.313	3405
793.416	2728
793.519	3416
793.623	3808
793.726	5688
793.829	5317
793.932	2971
794.035	3373
794.138	3436
794.242	4059
794.345	3747
794.448	4151
794.551	3575
794.654	6351
794.757	7601
794.860	7907
794.963	4373
795.066	2493
795.169	3568
795.272	3317
795.375	3307
795.477	4222
795.580	2836
795.683	2470
795.786	3665
795.889	2965
795.991	3091
796.094	2673
796.197	2974
796.300	3505
796.402	2510
796.505	2940
796.608	3105
796.710	2837
796.813	2461
796.915	3602
797.018	3611
797.120	3012
797.223	2887
797.326	2776
797.428	2954
797.530	2550
797.633	2793
797.735	4108
797.838	2802
797.940	5759
798.042	3998
798.145	4123
798.247	3390
798.349	2292
798.452	2038
798.554	2334
798.656	3082
798.758	3906
798.860	2937
798.962	3327
799.065	3132
799.167	3065
799.269	3173
799.371	3193
799.473	3578
799.575	3511
799.677	3549
799.779	3469
799.881	3500
799.983	4412
800.085	3137
800.187	3192
800.289	2123
800.390	3495
800.492	3616
800.594	4102
800.696	2318
800.798	2276
800.899	2179
801.001	2440
801.103	2472
801.205	2781
801.306	2853
801.408	2756
801.509	2703
801.611	2413
801.713	3026
801.814	2302
801.916	2331
802.017	2401
802.119	1684
802.220	2819
802.322	1959
802.423	3280
802.525	2832
802.626	3000
802.727	2367
802.829	3001
802.930	2342
803.031	3176
803.133	1836
803.234	2286
803.335	2683
803.436	2590
803.538	2520
803.639	1768
803.740	3177
803.841	2748
803.942	1999
804.043	3241
804.144	2281
804.245	2875
804.346	3381
804.447	2324
804.548	2485
804.649	3718
804.750	2430
804.851	2677
804.952	1618
805.053	2951
805.154	1191
805.255	2491
805.355	2272
805.456	2646
805.557	2230
805.658	2278
805.758	1813
805.859	2265
805.960	1634
806.061	2536
806.161	2242
806.262	2822
806.362	1734
806.463	2216
806.564	2295
806.664	2513
806.765	2137
806.865	3309
806.966	1919
807.066	2208
807.166	2437
807.267	2359
807.367	1949
807.468	1927
807.568	1594
807.668	2529
807.769	1948
807.869	2522
807.969	1340
808.069	2307
808.170	1519
808.270	1473
808.370	1724
808.470	2080
808.570	2565
808.670	2648
808.770	2414
808.870	1605
808.970	2106
809.070	1680
809.170	1993
809.271	1865
809.370	1855
809.470	2284
809.570	1922
809.670	1516
809.770	1818
809.870	1724
809.970	2328
810.070	2060
810.169	2734
810.269	829
810.369	2912
810.469	1167
810.568	2024
810.668	2455
810.768	2695
810.867	1994
810.967	1341
811.066	2548
811.166	2369
811.265	2502
811.365	2025
811.464	1917
811.564	2352
811.663	1965
811.763	2030
811.862	2607
811.962	2749
812.061	1694
812.160	3105
812.260	1940
812.359	2453
812.458	2647
812.557	5477
812.657	10547
812.756	11460
812.855	4267
812.954	2719
813.053	3298
813.153	2097
813.252	2333
813.351	2060
813.450	3355
813.549	2080
813.648	2772
813.747	2325
813.846	2616
813.945	2116
814.044	2933
814.143	2457
814.242	3196
814.341	3055
814.439	3091
814.538	2920
814.637	3206
814.736	2310
814.835	3632
814.933	3170
815.032	3902
815.131	2749
815.229	4434
815.328	5617
815.427	6634
815.525	4781
815.624	4936
815.722	4980
815.821	5282
815.919	5401
816.018	5628
816.116	5977
816.215	5744
816.313	5508
816.412	6552
816.510	6887
816.609	8364
816.707	7811
816.805	9347
816.904	8282
817.002	8894
817.100	9677
817.198	10078
817.296	10698
817.395	11974
817.493	14190
817.591	15141
817.689	18418
817.787	22763
817.885	31315
817.983	46931
818.081	80414
818.179	152732
818.277	306482
818.375	500059
818.473	355975
818.571	156247
818.669	81972
818.767	59692
818.865	52500
818.963	53390
819.061	63715
819.158	88751
819.256	142077
819.354	253366
819.452	451589
819.549	566365
819.647	394595
819.745	204087
819.842	110475
819.940	71909
820.038	50387
820.135	37125
820.233	30742
820.330	24655
820.428	19952
820.525	18099
820.623	15564
820.720	12445
820.818	12370
820.915	11229
821.012	11496
821.110	9478
821.207	8618
821.304	8581
821.402	7808
821.499	8265
821.596	7599
821.693	6662
821.791	7272
821.888	6706
821.985	6773
822.082	8584
822.179	7007
822.276	5832
822.373	6512
822.470	4674
822.567	6094
822.664	4527
822.761	6036
822.858	4651
822.955	5640
823.052	4531
823.149	4848
823.246	5224
823.343	4318
823.440	4363
823.536	3207
823.633	4035
823.730	4089
823.827	4126
823.923	4632
824.020	4273
824.117	3650
824.213	3468
824.310	4602
824.407	3589
824.503	3601
824.600	4393
824.696	3791
824.793	3889
824.889	3383
824.986	3789
825.082	2890
825.179	2807
825.275	2616
825.371	3874
825.468	3940
825.564	2725
825.660	3104
825.757	4067
825.853	3883
825.949	3049
826.045	2936
826.142	2364
826.238	3525
826.334	3744
826.430	2346
826.526	4035
826.622	2092
826.718	2855
826.814	2577
826.910	4362
827.006	1569
827.102	2140
827.198	2696
827.294	2298
827.390	3190
827.486	3488
827.582	2204
827.678	1935
827.774	2271
827.869	3265
827.965	2977
828.061	2537
828.157	2582
828.252	2633
828.348	2505
828.444	3396
828.539	2633
828.635	2904
828.731	2621
828.826	2159
828.922	2743
829.017	2876
829.113	3791
829.208	2579
829.304	1707
829.399	3283
829.495	3589
829.590	3208
829.685	2659
829.781	2735
829.876	2490
829.971	2687
830.066	1593
830.162	1538
830.257	1256
830.352	2774
830.447	2895
830.543	1180
830.638	1779
830.733	3007
830.828	2286
830.923	1890
831.018	1920
831.113	2629
831.208	2751
831.303	2088
831.398	1702
831.493	1352
831.588	2411
831.683	2611
831.778	3255
831.873	1410
831.967	2919
832.062	2700
832.157	2751
832.252	2650
832.346	2056
832.441	2871
832.536	3570
832.631	3590
832.725	5642
832.820	3630
832.914	2781
833.009	1825
833.104	1846
833.198	2711
833.293	1980
833.387	2160
833.482	2150
833.576	987
833.670	2500
833.765	1751
833.859	2660
833.954	2985
834.048	1773
834.142	2277
834.237	1252
834.331	829
834.425	2175
834.519	2408
834.613	2355
834.708	1312
834.802	1996
834.896	1732
834.990	2344
835.084	2143
835.178	1535
835.272	1732
835.366	2414
835.460	2558
835.554	1556
835.648	2107
835.742	1283
835.836	1567
835.930	1800
836.024	1851
836.117	2293
836.211	2327
836.305	2862
836.399	2428
836.493	2385
836.586	2360
836.680	1265
836.774	2193
836.867	1637
836.961	511
837.055	801
837.148	619
837.242	1404
837.335	1982
837.429	1994
837.522	1527
837.616	1697
837.709	2353
837.803	3734
837.896	2691
837.989	2024
838.083	2036
838.176	2195
838.269	4479
838.363	3194
838.456	2079
838.549	1139
838.642	3702
838.735	3480
838.829	5374
838.922	2598
839.015	1500
839.108	1641
839.201	2002
839.294	1430
839.387	2095
839.480	1100
839.573	2043
839.666	2280
839.759	2393
839.852	2122
839.945	1236
840.038	1054
840.131	736
840.223	835
840.316	2453
840.409	1683
840.502	698
840.594	2267
840.687	828
840.780	1120
840.873	557
840.965	1353
841.058	2702
841.150	2830
841.243	3376
841.336	2067
841.428	1432
841.521	1273
841.613	1095
841.706	2070
841.798	1809
841.890	1482
841.983	1314
842.075	1666
842.167	2374
842.260	918
842.352	2355
842.444	2458
842.537	2793
842.629	4455
842.721	4027
842.813	1221
842.905	1952
842.997	1504
843.090	1688
843.182	1478
843.274	2883
843.366	4930
843.458	8946
843.550	14228
843.642	7148
843.734	1893
843.826	854
843.918	2062
844.009	2036
844.101	1184
844.193	1400
844.285	725
844.377	2257
844.469	1455
844.560	901
844.652	1187
844.744	1313
844.835	887
844.927	1411
845.019	1276
845.110	2065
845.202	1465
845.293	1777
845.385	321
845.476	1964
845.568	1692
845.659	2350
845.751	2358
845.842	720
845.934	843
846.025	707
846.116	833
846.208	1256
846.299	1094
846.390	1365
846.482	1652
846.573	1888
846.664	2481
846.755	2436
846.846	2867
846.937	1858
847.029	1322
847.120	1168
847.211	1099
847.302	1873
847.393	661
847.484	1187
847.575	624
847.666	1731
847.757	1615
847.847	1090
847.938	1440
848.029	1439
848.120	1294
848.211	1361
848.302	880
848.392	1222
848.483	1255
848.574	1304
848.664	859
848.755	1264
848.846	1426
848.936	1239
849.027	1043
849.118	1269
849.208	1858
849.299	2303
849.389	2468
849.480	3890
849.570	7154
849.661	11282
849.751	19907
849.841	27946
849.932	7634
850.022	1342
850.112	1169
850.203	1715
850.293	852
850.383	1376
850.474	599
850.564	726
850.654	732
850.744	863
850.834	919
850.924	1052
851.014	788
851.104	1603
851.194	1042
851.284	1440
851.374	2134
851.464	2138
851.554	830
851.644	1618
851.734	1772
851.824	2320
851.914	875
852.004	1511
852.094	834
852.183	1099
852.273	827
852.363	1439
852.452	1103
852.542	994
852.632	297
852.721	460
852.811	866
852.901	1592
852.990	1644
853.080	1146
853.169	1233
853.259	1756
853.348	2314
853.438	1480
853.527	2425
853.617	2696
853.706	4453
853.795	7528
853.885	14944
853.974	31195
854.063	53661
854.152	100122
854.242	123983
854.331	35321
854.420	7933
854.509	4247
854.598	3339
854.687	2859
854.777	1893
854.866	2583
854.955	2209
855.044	934
855.133	1462
855.222	990
855.311	765
855.400	1235
855.488	1116
855.577	1266
855.666	674
855.755	1291
855.844	1367
855.933	990
856.021	1452
856.110	1666
856.199	93
856.288	452
856.376	634
856.465	520
856.554	1277
856.642	388
856.731	1869
856.819	1114
856.908	1051
856.996	1525
857.085	1394
857.173	555
857.262	498
857.350	781
857.438	1165
857.527	1229
857.615	1168
857.703	1193
857.792	1458
857.880	740
857.968	906
858.056	1345
858.145	1268
858.233	1104
858.321	609
858.409	645
858.497	1178
858.585	1096
858.673	1100
858.761	1077
858.849	732
858.937	1182
859.025	1577
859.113	954
859.201	530
859.289	1139
859.377	833
859.465	327
859.552	1032
859.640	42
859.728	524
859.816	1842
859.903	826
859.991	301
860.079	595
860.166	1190
860.254	831
860.342	761
860.429	309
860.517	703
860.604	228
860.692	633
860.779	183
860.867	276
860.954	597
861.042	1202
861.129	2287
861.216	1486
861.304	828
861.391	1825
861.478	974
861.565	127
861.653	1208
861.740	514
861.827	773
861.914	991
862.001	440
862.089	1416
862.176	1053
862.263	1660
862.350	626
862.437	930
862.524	592
862.611	542
862.698	553
862.785	698
862.871	407
862.958	1105
863.045	1100
863.132	917
863.219	1009
863.306	640
863.392	1177
863.479	661
863.566	870
863.652	834
863.739	1063
863.826	305
863.912	1567
863.999	395
864.086	925
864.172	710
864.259	705
864.345	895
864.432	1097
864.518	754
864.604	1364
864.691	1400
864.777	1666
864.863	1486
864.950	1337
865.036	2206
865.122	3589
865.209	5348
865.295	3949
865.381	4406
865.467	3819
865.553	3777
865.639	3765
865.726	6613
865.812	9932
865.898	17720
865.984	30567
866.070	40483
866.156	77811
866.242	64664
866.328	15818
866.414	5971
866.499	4534
866.585	4093
866.671	3641
866.757	3530
866.843	4360
866.928	3512
867.014	3068
867.100	3695
867.186	2632
867.271	3771
867.357	3312
867.442	3608
867.528	4244
867.614	2470
867.699	2504
867.785	2851
867.870	2685
867.956	2771
868.041	3796
868.127	3953
868.212	3060
868.297	4108
868.383	3417
868.468	3173
868.553	4115
868.639	5194
868.724	5580
868.809	7937
868.894	5875
868.979	2639
869.065	2865
869.150	3067
869.235	2494
869.320	2182
869.405	2080
869.490	1802
869.575	2027
869.660	2183
869.745	1906
869.830	2847
869.915	2036
870.000	2254
870.085	2412
870.169	2196
870.254	2301
870.339	2857
870.424	1482
870.509	2123
870.593	1874
870.678	2154
870.763	1986
870.847	2015
870.932	985
871.016	2758
871.101	2264
871.186	1593
871.270	2268
871.355	2300
871.439	2436
871.523	2451
871.608	2815
871.692	1398
871.777	2144
871.861	1690
871.945	2154
872.030	2154
872.114	1956
872.198	2601
872.282	1439
872.367	1542
872.451	1894
872.535	2116
872.619	1782
872.703	2193
872.787	2090
872.871	1708
872.955	1750
873.039	1196
873.123	1551
873.207	2606
873.291	2178
873.375	1887
873.459	1788
873.543	2170
873.627	1506
873.711	2139
873.794	1835
873.878	1510
873.962	1885
874.045	1227
874.129	1094
874.137	1172
874.213	1946
874.245	1721
874.296	1357
874.352	1276
874.380	1235
874.460	1252
874.464	1254
874.547	1628
874.568	1537
874.631	1276
874.676	1347
874.714	1391
874.784	1918
874.798	2028
874.881	3032
874.892	2815
874.965	1337
874.999	1434
875.048	1553
875.107	1475
875.131	1435
875.215	1727
875.215	1726
875.298	1348
875.323	1242
875.381	1066
875.430	1351
875.465	1509
875.538	1411
875.548	1394
875.631	2559
875.646	2257
875.714	889
875.753	674
875.798	402
875.861	843
875.881	972
875.964	1461
875.968	1438
876.047	1121
876.076	1385
876.130	1780
876.183	1388
876.213	1213
876.291	1469
876.296	1485
876.379	1465
876.398	1411
876.462	1235
876.506	1159
876.545	1067
876.613	1018
876.628	1014
876.711	2345
876.721	2236
876.794	1480
876.828	1322
876.877	1022
876.935	1206
876.960	1280
877.043	1225
877.043	1221
877.125	373
877.150	678
877.208	1297
877.258	1734
877.291	2067
877.365	1321
877.374	1214
877.456	902
877.472	855
877.539	795
877.579	1093
877.622	1402
877.687	1937
877.704	2066
877.787	2064
877.794	2008
877.869	1278
877.901	1104
877.952	956
878.008	1669
878.034	1990
878.115	856
878.117	833
878.199	1444
878.222	1468
878.282	1527
878.329	1713
878.364	1792
878.437	1054
878.447	954
878.529	866
878.544	812
878.611	691
878.651	723
878.694	710
878.758	1185
878.776	1351
878.858	1383
878.865	1404
878.941	1360
878.972	1116
879.023	909
879.078	1025
879.105	1009
879.185	925
879.187	926
879.269	1574
879.292	1489
879.351	1245
879.399	995
879.433	804
879.506	1191
879.516	1217
879.598	502
879.613	429
879.680	588
879.720	960
879.762	987
879.827	807
879.844	845
879.926	763
879.933	748
880.007	596
880.040	843
880.089	1149
880.147	1365
880.171	1476
880.253	1591
880.254	1599
880.335	2775
880.360	2759
880.417	2899
880.467	3765
880.499	4433
880.574	7257
880.580	7403
880.662	6246
880.680	5267
880.744	1808
880.787	1190
880.825	948
880.893	939
880.907	928
880.989	1162
881.000	1115
881.070	658
881.106	651
881.152	907
881.213	1592
881.233	1612
881.315	472
881.319	454
881.396	974
881.426	1170
881.478	1005
881.532	714
881.559	774
881.639	576
881.641	564
881.722	514
881.745	404
881.803	610
881.852	1251
881.885	1340
881.958	983
881.966	964
882.047	742
882.064	764
882.129	1117
882.171	1205
882.210	1115
882.277	1038
882.291	1059
882.372	1779
882.383	1745
882.454	1666
882.489	1480
882.535	995
882.596	980
882.616	981
882.697	983
882.702	960
882.778	1041
882.808	1008
882.859	628
882.914	740
882.940	812
883.020	490
883.021	492
883.102	854
883.127	860
883.183	485
883.233	660
883.264	910
883.339	373
883.345	319
883.426	213
883.445	231
883.507	486
883.551	604
883.587	314
883.657	-180
883.668	-90
883.749	681
883.763	760
883.830	730
883.869	639
883.910	430
883.975	333
883.991	403
884.072	777
884.081	795
884.152	730
884.187	747
884.233	653
884.292	592
884.314	676
884.394	1119
884.398	1115
884.475	424
884.504	229
884.555	336
884.610	600
884.636	646
884.716	769
884.716	772
884.797	907
884.821	1001
884.877	846
884.927	410
884.958	322
885.033	710
885.038	737
885.118	603
885.139	708
885.199	873
885.244	730
885.279	578
885.350	391
885.359	417
885.439	1081
885.456	1090
885.520	855
885.561	671
885.600	598
885.667	894
885.680	860
885.760	572
885.773	473
885.840	405
885.878	419
885.920	506
885.984	847
886.000	884
886.080	753
886.089	749
886.160	371
886.195	266
886.240	700
886.300	1066
886.320	1012
886.400	960
886.406	952
886.480	1022
886.511	1067
886.560	920
886.616	678
886.640	675
886.720	775
886.722	770
886.800	136
886.827	47
886.879	287
886.932	444
886.959	563
887.038	1052
887.039	1052
887.119	837
887.143	779
887.198	591
887.248	425
887.278	531
887.354	649
887.358	658
887.437	1065
887.459	1114
887.517	1000
887.564	1002
887.596	1059
887.669	1104
887.676	1074
887.755	709
887.774	585
887.835	368
887.880	299
887.914	446
887.985	780
887.994	775
888.073	640
888.090	631
888.153	867
888.195	890
888.232	605
888.300	220
888.311	246
888.391	486
888.405	507
888.470	484
888.510	535
888.549	456
888.615	281
888.628	272
888.708	226
888.720	227
888.787	768
888.825	1019
888.866	932
888.930	895
888.945	824
889.024	424
889.035	373
889.103	338
889.140	313
889.182	416
889.245	576
889.261	554
889.340	494
889.349	484
889.419	804
889.454	994
889.498	931
889.559	835
889.577	786
889.656	582
889.664	566
889.735	484
889.768	449
889.814	868
889.873	1423
889.978	-190
890.083	1074
890.187	215
890.292	389
890.397	734
890.501	772
890.606	50
890.710	878
890.815	844
890.919	1461
891.024	391
891.128	893
891.233	103
891.337	626
891.442	61
891.546	524
891.650	-167
891.755	655
891.859	1241
891.963	526
892.068	616
892.172	687
892.276	541
892.380	627
892.484	616
892.589	1390
892.693	146
892.797	332
892.901	61
893.005	955
893.109	542
893.213	1084
893.317	1015
893.421	-94
893.525	526
893.629	370
893.733	748
893.837	676
893.941	641
894.045	1041
894.148	-407
894.252	1142
894.356	799
894.460	1509
894.564	1163
894.667	-10
894.771	629
894.875	92
894.978	1101
895.082	727
895.186	641
895.289	824
895.393	1268
895.496	1120
895.600	446
895.703	783
895.807	438
895.910	604
896.014	338
896.117	473
896.221	363
896.324	836
896.427	-399
896.531	544
896.634	544
896.737	919
896.840	349
896.944	870
897.047	-134
897.150	1132
897.253	625
897.356	797
897.460	377
897.563	678
897.666	281
897.769	1270
897.872	280
897.975	382
898.078	574
898.181	579
898.284	361
898.387	756
898.490	965
898.593	963
898.695	378
898.798	294
898.901	962
899.004	669
899.107	159
899.209	189
899.312	9
899.415	912
899.518	1025
899.620	486
899.723	387
899.826	304
899.928	1854
900.031	2
900.133	706
900.236	1074
900.338	158
900.441	80
900.543	313
900.646	331
900.748	788
900.851	1237
900.953	286
901.055	734
901.158	627
901.260	678
901.362	725
901.465	680
901.567	534
901.669	868
901.771	496
901.873	-10
901.976	345
902.078	-278
902.180	414
902.282	354
902.384	536
902.486	643
902.588	484
902.690	551
902.792	-177
902.894	20
902.996	560
903.098	265
903.200	271
903.302	-55
903.404	94
903.505	251
903.607	389
903.709	500
903.811	-644
903.913	710
904.014	1490
904.116	809
904.218	477
904.319	773
904.421	-272
904.523	670
904.624	698
904.726	838
904.827	-578
904.929	188
905.030	504
905.132	109
905.233	561
905.335	129
905.436	-115
905.537	516
905.639	121
905.740	551
905.841	436
905.943	63
906.044	-67
906.145	1040
906.247	258
906.348	612
906.449	-167
906.550	-560
906.651	169
906.752	632
906.854	171
906.955	295
907.056	-348
907.157	685
907.258	-248
907.359	-168
907.460	-301
907.561	918
907.662	-762
907.762	606
907.863	440
907.964	603
908.065	116
908.166	963
908.267	344
908.367	589
908.468	85
908.569	-150
908.670	829
908.770	449
908.871	817
908.971	-244
909.072	-245
909.173	-33
909.273	264
909.374	817
909.474	537
909.575	969
909.675	-398
909.776	685
909.876	356
909.977	124
910.077	680
910.177	320
910.278	-230
910.378	-92
910.478	-11
910.579	592
910.679	114
910.779	575
910.879	650
910.980	197
911.080	-309
911.180	-50
911.280	-296
911.380	103
911.480	-50
911.580	55
911.680	-498
911.780	514
911.880	809
911.980	-109
912.080	441
912.180	235
912.280	541
912.380	-119
912.480	-74
912.580	77
912.679	389
912.779	913
912.879	90
912.979	131
913.078	140
913.178	408
913.278	-480
913.377	179
913.477	-169
913.577	455
913.676	550
913.776	-370
913.875	29
913.975	531
914.074	378
914.174	356
914.273	-327
914.373	671
914.472	-14
914.572	-249
914.671	-371
914.770	1183
914.870	-572
914.969	652
915.068	341
915.167	33
915.267	215
915.366	813
915.465	103
915.564	360
915.663	-49
915.763	1082
915.862	203
915.961	156
916.060	282
916.159	-76
916.258	-424
916.357	38
916.456	-140
916.555	406
916.654	80
916.752	315
916.851	230
916.950	490
917.049	233
917.148	-84
917.247	696
917.345	108
917.444	283
917.543	255
917.642	58
917.740	134
917.839	-94
917.937	-148
918.036	-37
918.135	508
918.233	508
918.332	156
918.430	172
918.529	103
918.627	66
918.726	-117
918.824	546
918.923	98
919.021	-352
919.119	271
919.218	-224
919.316	539
919.414	-644
919.512	110
919.611	29
919.709	252
919.807	282
919.905	764
920.003	-235
920.102	-193
920.200	-165
920.298	263
920.396	180
920.494	246
920.592	400
920.690	1016
920.788	266
920.886	542
920.984	41
921.082	409
921.180	549
921.277	786
921.375	280
921.473	804
921.571	263
921.669	219
921.766	912
921.864	1257
921.962	958
922.060	428
922.157	573
922.255	818
922.352	757
922.450	827
922.548	951
922.645	534
922.743	661
922.840	1059
922.938	1760
923.035	2035
923.133	1015
923.230	1310
923.327	1695
923.425	2068
923.522	1689
923.619	2562
923.717	1883
923.814	1480
923.911	1610
924.008	2013
924.106	1665
924.203	1909
924.300	1148
924.397	1995
924.494	1551
924.591	1525
924.688	2225
924.786	2246
924.883	1314
924.979	1853
925.077	1668
925.173	1363
925.270	1634
925.367	1249
925.464	1096
925.561	1740
925.658	1843
925.755	1628
925.852	785
925.948	1610
926.045	1108
926.142	1617
926.239	1137
926.335	1464
926.432	1141
926.529	865
926.625	1164
926.722	1886
926.818	1376
926.915	1318
927.011	1599
927.108	1509
927.204	1190
927.301	2022
927.397	1745
927.494	1782
927.590	1563
927.687	1159
927.783	988
927.879	1713
927.976	1573
928.072	1614
928.168	836
928.264	991
928.361	1315
928.457	1727
928.553	1234
928.649	1845
928.745	1198
928.841	1260
928.937	1397
929.033	1275
929.129	877
929.225	1774
929.321	1568
929.417	1020
929.513	1502
929.609	1767
929.705	1389
929.801	1255
929.897	616
929.993	1101
930.089	908
930.184	1389
930.280	639
930.376	1615
930.471	1477
930.567	1868
930.663	1161
930.758	1313
930.854	595
930.950	1417
931.045	754
931.141	1632
931.236	145
931.332	1672
931.427	839
931.523	920
931.618	1114
931.714	750
931.809	1425
931.905	810
932.000	853
932.095	713
932.191	1079
932.286	1420
932.381	1184
932.476	1162
932.572	544
932.667	1774
932.762	818
932.857	1005
932.952	605
933.047	1611
933.142	409
933.237	102
933.332	1026
933.427	1911
933.522	327
933.617	932
933.712	390
933.807	1044
933.902	367
933.997	1377
934.092	861
934.187	1105
934.282	909
934.376	940
934.471	547
934.566	1426
934.661	254
934.755	549
934.850	374
934.945	1044
935.039	777
935.134	1092
935.228	498
935.323	872
935.417	1365
935.512	139
935.606	725
935.701	1067
935.795	273
935.890	1310
935.984	629
936.079	868
936.173	-153
936.267	343
936.362	1092
936.456	420
936.550	1314
936.644	1180
936.738	724
936.833	417
936.927	612
937.021	743
937.115	-512
937.209	891
937.303	1176
937.397	-26
937.491	687
937.585	1484
937.679	17
937.773	807
937.867	96
937.961	1318
938.055	392
938.149	1108
938.243	-71
938.337	307
938.430	94
938.524	1244
938.618	529
938.712	1063
938.805	842
938.899	660
938.993	734
939.086	1158
939.180	565
939.274	166
939.367	803
939.461	1393
939.554	358
939.648	487
939.741	-1111
939.835	565
939.928	806
940.022	1322
940.115	345
940.208	211
940.302	1735
940.395	1004
940.488	658
940.582	1482
940.675	-24
940.768	1072
940.861	26
940.954	744
941.048	921
941.141	173
941.234	215
941.327	-481
941.420	1323
941.513	899
941.606	384
941.699	661
941.792	302
941.885	500
941.978	1061
942.071	694
942.164	174
942.257	28
942.349	321
942.442	892
942.535	-213
942.628	722
942.721	500
942.813	97
942.906	444
942.999	485
943.091	553
943.184	584
943.277	379
943.369	613
943.462	700
943.554	1469
943.647	211
943.739	985
943.832	171
943.924	947
944.017	0
944.109	181
944.201	316
944.294	834
944.386	227
944.478	363
944.571	-315
944.663	570
944.755	-36
944.847	431
944.940	1052
945.032	1180
945.124	110
945.216	163
945.308	130
945.400	727
945.492	-368
945.584	757
945.676	474
945.768	202
945.860	-226
945.952	661
946.044	567
946.136	-215
946.228	-453
946.320	495
946.412	186
946.503	846
946.595	157
946.687	1074
946.779	29
946.870	-177
946.962	-626
947.054	441
947.145	-503
947.237	432
947.329	54
947.420	-12
947.512	607
947.603	848
947.695	163
947.786	-275
947.878	439
947.969	822
948.061	-273
948.152	-78
948.243	570
948.335	-109
948.426	359
948.517	-66
948.609	76
948.700	-453
948.791	-649
948.882	-389
948.973	-296
949.065	-439
949.156	-870
949.247	-17
949.338	607
949.429	682
949.520	-227
949.611	-121
949.702	451
949.793	693
949.884	-229
949.975	542
950.066	-44
950.157	-486
950.247	-414
950.338	-201
950.429	-925
950.520	341
950.611	-361
950.701	439
950.792	969
950.883	554
950.973	-393
951.064	-187
951.155	41
951.245	32
951.336	544
951.427	53
951.517	-374
951.608	517
951.698	107
951.788	81
951.879	-290
951.969	-506
952.060	-63
952.150	158
952.240	-262
952.331	-68
952.421	-157
952.511	-264
952.602	-120
952.692	-205
952.782	-252
952.872	-236
952.962	106
953.052	405
953.143	-943
953.233	-76
953.323	245
953.413	757
953.503	-332
953.593	172
953.683	-26
953.773	-518
953.863	-21
953.953	-624
954.042	-176
954.132	-387
954.222	-54
954.312	492
954.402	-103
954.492	257
954.581	-142
954.671	765
954.761	-28
954.850	137
954.940	-69
955.030	-182
955.119	-541
955.209	-395
955.298	-86
955.388	671
955.477	996
955.567	-542
955.656	31
955.746	-301
955.835	-495
955.925	-417
956.014	-552
956.103	-597
956.193	-156
956.282	393
956.371	-356
956.461	-454
956.550	294
956.639	781
956.728	-839
956.817	-272
956.906	-86
956.995	-885
957.085	-216
957.174	301
957.263	-550
957.352	-455
957.441	51
957.530	1065
957.619	-876
957.708	-140
957.796	-251
957.885	189
957.974	223
958.063	-593
958.152	-385
958.241	-378
958.329	-587
958.418	-469
958.507	-727
958.596	-154
958.684	-685
958.773	-449
958.861	-769
958.950	173
959.039	-538
959.127	-202
959.216	-985
959.304	-852
959.393	-1636
959.481	-1312
959.570	-1083
959.658	-192
959.746	-488
959.835	-22
959.923	-869
960.011	-215
960.100	62
960.188	30
960.276	-404
960.365	-1135
960.453	-547
960.541	-732
960.629	-222
960.717	199
960.805	-961
960.893	-783
960.981	-339
961.069	-582
961.158	-566
961.245	289
961.333	-286
961.421	-4
961.509	-701
961.597	-609
961.685	-212
961.773	-316
961.861	-837
961.949	-66
962.036	-592
962.124	-1006
962.212	-655
962.299	-982
962.387	-219
962.475	-265
962.562	-1437
962.650	525
962.738	-203
962.825	-602
962.913	-1358
963.000	-356
963.088	-477
963.175	137
963.263	-288
963.350	-991
963.438	-262
963.525	-858
963.612	216
963.700	400
963.787	1188
963.874	3111
963.962	806
964.049	-488
964.136	-881
964.223	-665
964.310	-827
964.398	-577
964.485	-347
964.572	-349
964.659	-260
964.746	-90
964.833	-63
964.920	-490
965.007	-1031
965.094	-70
965.181	-6
965.268	-319
965.355	-631
965.441	-323
965.528	-1433
965.615	19
965.702	-726
965.789	-514
965.875	-460
965.962	-1039
966.049	-1344
966.136	-86
966.222	-519
966.309	-519
966.395	-836
966.482	117
966.569	-85
966.655	-332
966.742	-570
966.828	-187
966.915	-913
967.001	6
967.087	-1212
967.174	-45
967.260	-403
967.347	-102
967.433	118
967.519	767
967.605	1229
967.692	-294
967.778	-1637
967.864	-1296
967.950	-892
968.036	-231
968.123	-290
968.209	-630
968.295	-586
968.381	-415
968.467	-1284
968.553	-257
968.639	-789
968.725	-417
968.811	-645
968.897	-145
968.983	1
969.069	-815
969.154	-1111
969.240	-55
969.326	-1819
969.412	-797
969.497	-1125
969.583	-683
969.669	-462
969.755	-1300
969.840	-634
969.926	-907
970.012	-804
970.097	-495
970.183	-217
970.268	-546
970.354	-944
970.439	-56
970.525	570
970.610	452
970.696	-1006
970.781	185
970.866	-640
970.952	-1085
971.037	-1198
971.122	-759
971.208	-200
971.293	-593
971.378	-832
971.463	-1161
971.549	-1019
971.634	-392
971.719	-869
971.804	-514
971.889	-564
971.974	-270
972.059	-198
972.144	-609
972.229	-687
972.314	-1144
972.399	-132
972.484	-701
972.569	-572
972.654	-642
972.739	-240
972.824	8
972.908	23
972.993	-660
973.078	-983
973.163	-676
973.247	-1039
973.332	-740
973.417	-384
973.501	-1361
973.586	-34
973.671	-226
973.755	-410
973.840	248
973.924	-894
974.009	-314
974.093	-775
974.178	-545
974.262	-27
974.346	-279
974.431	0
974.515	-823
974.600	-489
974.684	-437
974.768	-879
974.852	-959
974.937	-605
975.021	64
975.105	-507
975.189	-136
975.273	-778
975.358	305
975.442	-1082
975.526	-361
975.610	-207
975.694	-321
975.778	-150
975.862	-1095
975.946	-1637
976.030	184
976.114	-1747
976.198	-669
976.281	-495
976.365	7
976.449	-312
976.533	-1060
976.617	-314
976.700	-1211
976.784	-352
976.868	-440
976.951	-352
977.035	-652
977.119	-682
977.202	-529
977.286	-1676
977.369	-8
977.453	-358
977.536	-150
977.620	-1077
977.703	-701
977.787	-1420
977.870	209
977.953	-844
978.037	-569
978.120	-573
978.203	-1141
978.287	-95
978.370	-136
978.453	-49
978.536	-1024
978.620	20
978.703	-503
978.786	-981
978.869	417
978.952	-890
979.035	-368
979.118	-818
979.201	-699
979.284	-483
979.367	-793
979.450	-467
979.533	-98
979.616	-690
979.699	-903
979.782	-233
979.865	-1056
979.948	-816
980.030	-624
980.113	-544
980.196	-1144
980.279	-834
980.361	-1032
980.444	-880
980.526	-215
980.609	-1073
980.692	-60
980.774	-383
980.857	-460
980.939	-421
981.022	-630
981.104	-919
981.187	478
981.269	-256
981.352	-628
981.434	-729
981.516	-713
981.599	31
981.681	227
981.763	-1081
981.846	-720
981.928	-1210
982.010	97
982.092	-1360
982.174	-625
982.256	-466
982.339	-812
982.421	-561
982.503	-489
982.585	-256
982.667	-22
982.749	-361
982.831	-804
982.913	-825
982.995	12
983.077	-1014
983.158	-412
983.240	-1159
983.322	164
983.404	-107
983.486	9
983.568	-148
983.649	-530
983.731	-355
983.813	-1013
983.894	-346
983.976	458
984.058	-1233
984.139	115
984.221	-1230
984.302	132
984.384	-924
984.465	-240
984.547	-286
984.628	-125
984.710	-965
984.791	-782
984.872	-704
984.954	-282
985.035	-851
985.116	-335
985.198	-537
985.279	189
985.360	-578
985.441	-656
985.522	-322
985.604	406
985.685	-1624
985.766	-102
985.847	-224
985.928	-610
986.009	-274
986.090	-338
986.171	-507
986.252	-631
986.333	-990
986.414	-302
986.495	223
986.576	-863
986.656	-287
986.737	-638
986.818	-697
986.899	86
986.980	-467
987.060	-421
987.141	-311
987.222	-46
987.302	419
987.383	103
987.464	-352
987.544	199
987.625	-44
987.705	-73
987.786	-364
987.866	223
987.947	-25
988.027	342
988.108	-528
988.188	-564
988.268	-380
988.349	-356
988.429	-885
988.509	102
988.589	-896
988.670	-996
988.750	-199
988.830	-411
988.910	-699
988.990	-328
989.070	-702
989.151	-495
989.231	-326
989.311	-595
989.391	-391
989.471	-484
989.551	37
989.631	-482
989.711	142
989.791	-863
989.870	-81
989.950	-366
990.030	-662
990.110	621
990.190	-1455
990.269	-279
990.349	-732
990.429	10
990.509	391
990.588	-986
990.668	-403
990.747	-348
990.827	-725
990.907	13
990.986	-1014
991.066	-230
991.145	-76
991.225	-59
991.304	-48
991.383	-46
991.463	-1048
991.542	-101
991.622	-501
991.701	-991
991.780	-217
991.859	-959
991.939	-817
992.018	-662
992.097	-747
992.176	0
992.256	-1072
992.335	-1001
992.414	17
992.493	-180
992.572	-133
992.651	-245
992.730	-1132
992.809	-602
992.888	-327
992.967	-1006
993.046	-506
993.125	-355
993.203	-759
993.282	-258
993.361	-1023
993.440	-938
993.519	-1286
993.597	-137
993.676	-50
993.755	-550
993.834	-1214
993.912	-1748
993.991	-430
994.069	-487
994.148	-721
994.226	-567
994.305	-52
994.384	-783
994.462	-110
994.540	-574
994.619	-1156
994.697	-599
994.776	-1298
994.854	-793
994.932	-861
995.011	-237
995.089	-1020
995.167	-814
995.245	-238
995.324	-1269
995.402	-664
995.480	-905
995.558	-415
995.636	-511
995.714	-876
995.792	-728
995.870	-965
995.948	-802
996.026	-251
996.104	-973
996.182	-619
996.260	-985
996.338	-673
996.416	-862
996.494	-1044
996.572	-396
996.649	-1244
996.727	-1348
996.805	-1405
996.883	-890
996.960	-1659
997.038	-502
997.116	-676
997.193	-888
997.271	-882
997.348	-632
997.426	-611
997.504	-328
997.581	-822
997.658	101
997.736	-1987
997.813	-869
997.891	13
997.968	-1101
998.046	-724
998.123	-940
998.200	-475
998.277	-1670
998.355	-216
998.432	-1863
998.509	-947
998.586	-269
998.663	-289
998.741	-908
998.818	-1518
998.895	-200
998.972	-746
999.049	-661
999.126	-1325
999.203	191
999.280	-512
999.357	-1067
999.434	-1413
999.511	-596
999.587	-900
999.664	-1469
999.741	-1091
999.818	-966
999.895	-1252
999.971	-1207
1000.048	-1068
1000.125	-1063
1000.202	-1191
1000.278	-674
1000.355	-970
1000.431	-460
1000.508	-1579
1000.584	-1084
1000.661	-1070
1000.738	-596
1000.814	-1339
1000.890	-684
1000.967	-1335
1001.043	-783
1001.120	-780
1001.196	-101
1001.272	-1889
1001.349	-1407
1001.425	-1493
1001.501	-1395
1001.577	-1407
1001.654	-825
1001.730	-1244
1001.806	-1238
1001.882	-1376
1001.958	-837
1002.034	-921
1002.110	-1100
1002.186	-1217
1002.262	-1243
1002.338	-1422
1002.414	-594
1002.490	-1079
1002.566	-1007
1002.642	-893
1002.718	-617
1002.794	-842
1002.870	-791
1002.945	-1490
1003.021	-1066
1003.097	-1346
1003.173	-1427
1003.248	-1934
1003.324	-1311
1003.400	-1635
1003.475	-890
1003.551	-1293
1003.626	-1026
1003.702	-1671
1003.777	-765
1003.853	-1708
1003.928	-1913
1004.004	-328
1004.079	352
1004.155	-1110
1004.230	-1520
1004.305	-687
1004.381	-1409
1004.456	-1657
1004.531	-533
1004.607	-1177
1004.682	-1465
1004.757	-1887
1004.832	-1136
1004.907	-1738
1004.982	-872
1005.057	-1416
1005.133	-713
1005.208	-1346
1005.283	-400
1005.358	-841
1005.433	-859
1005.508	-638
1005.583	-1343
1005.657	-1865
1005.732	-575
1005.807	-1909
1005.882	-993
1005.957	-1089
1006.032	-1306
1006.106	-1475
1006.181	-1703
1006.256	-1550
1006.331	-1713
1006.405	-1816
1006.480	-776
1006.554	-771
1006.629	-1502
1006.704	-1212
1006.778	-844
1006.853	-996
1006.927	-39
1007.002	-1266
1007.076	-1382
1007.150	-1100
1007.225	-1393
1007.299	-786
1007.373	-1244
1007.448	-1286
1007.522	-1505
1007.596	-1420
1007.671	-914
1007.745	-670
1007.819	-1281
1007.893	-2400
1007.967	-1167
1008.041	-2061
1008.115	-1117
1008.190	-1052
1008.264	-1151
1008.338	-2172
1008.412	-1230
1008.486	-568
1008.560	-1338
1008.633	-1710
1008.707	-1173
1008.781	-1519
1008.855	-1852
1008.929	-962
1009.003	-487
1009.076	-1507
1009.150	-868
1009.224	-1258
1009.298	-1235
1009.371	-1727
1009.445	-832
1009.519	-816
1009.592	-1400
1009.666	-724
1009.739	-2060
1009.813	-1857
1009.886	-1809
1009.960	-2423
1010.033	-1789
1010.107	-1663
1010.180	-2045
1010.253	-1540
1010.327	-2686
1010.400	-1203
1010.473	-1191
1010.547	-785
1010.620	-307
1010.693	-1161
1010.766	-1299
1010.840	-1687
1010.913	-1351
1010.986	-1349
1011.059	-1011
1011.132	-2049
1011.205	-512
1011.278	-2180
1011.351	-2213
1011.424	-1841
1011.497	-1220
1011.570	-1671
1011.643	-1247
1011.716	-1660
1011.789	-1361
1011.862	-2293
1011.934	-1006
1012.007	-2210
1012.080	-574
1012.153	-1639
1012.225	-1369
1012.298	-1278
1012.371	-861
1012.443	-812
1012.516	-1239
1012.588	-1162
1012.661	-899
1012.733	-1592
1012.806	-886
1012.879	-1849
1012.951	-1965
1013.023	-1187
1013.096	-979
1013.168	-1574
1013.241	-1237
1013.313	-910
1013.385	-1929
1013.458	-1668
1013.530	-753
1013.602	-1937
1013.674	-1782
1013.746	-2225
1013.819	-1406
1013.891	-1370
1013.963	-1799
1014.035	-1541
1014.107	-368
1014.179	-1349
1014.251	-1102
1014.323	-1233
1014.395	-2319
1014.467	-1406
1014.539	-1852
1014.611	-1893
1014.683	-1109
1014.754	-1583
1014.826	-1503
1014.898	-1851
1014.970	-1504
1015.042	-717
1015.113	-1276
1015.185	-1796
1015.257	-1915
1015.328	-1670
1015.400	-1764
1015.471	-1356
1015.543	-2235
1015.615	-1657
1015.686	-2421
1015.757	-1748
1015.829	-1380
1015.901	-1489
1015.972	-2311
1016.043	-2126
1016.115	-1378
1016.186	-1128
1016.257	-1678
1016.328	-2149
1016.400	-2283
1016.471	-1484
1016.542	-830
1016.613	-1456
1016.685	-1284
1016.756	-1552
1016.827	-1631
1016.898	-2018
1016.969	-1539
1017.040	-1331
1017.111	-2086
1017.182	-1661
1017.253	-1362
1017.324	-1807
1017.395	-1708
1017.466	-996
1017.537	-2160
1017.608	-1162
1017.678	-1640
1017.749	-1539
1017.820	-1345
1017.891	-2167
1017.961	-1664
1018.032	-1604
1018.103	-1340
1018.173	-1371
1018.244	-2061
1018.315	-1850
1018.385	-1236
1018.456	-1534
1018.526	-1398
1018.597	-1670
1018.667	-1097
1018.738	-1390
1018.808	-1426
1018.878	-2335
1018.949	-1444
1019.019	-1450
1019.089	-1024
1019.160	-2408
1019.230	-1523
1019.300	-1235
1019.371	-2122
1019.441	-1469
1019.511	-1664
1019.581	-1907
1019.651	-1808
1019.721	-657
1019.791	-1314
1019.861	-1474
1019.931	-1398
1020.001	-1979
1020.071	-1353
1020.141	-2502
1020.211	-1946
1020.281	-2692
1020.351	-1619
1020.421	-1670
1020.491	-1203
1020.560	-2318
1020.630	-1020
1020.700	-1526
1020.770	-1746
1020.839	-2079
1020.909	-1169
1020.979	-1674
1021.048	-1156
1021.118	-1847
1021.187	-2094
1021.257	-1925
1021.326	-1252
1021.396	-1740
1021.465	-1320
1021.535	-2079
1021.604	-2334
1021.674	-2006
1021.743	-1426
1021.812	-1943
1021.882	-1540
1021.951	-1014
1022.020	-962
1022.089	-2045
1022.159	-2093
1022.228	-1319
1022.297	-1603
1022.366	-1879
1022.435	-1226
1022.504	-1758
1022.573	-1882
1022.642	-986
1022.711	-1367
1022.781	-1649
1022.849	-572
1022.918	-2082
1022.987	-1584
1023.056	-2069
1023.125	-1301
1023.194	-1500
1023.263	-1238
1023.331	-2057
1023.400	-1195
1023.469	-1820
1023.538	-850
1023.606	-2227
1023.675	-1430
1023.744	-2119
1023.812	-2219
1023.881	-1602
1023.949	-1376
1024.018	-939
1024.086	-1910
1024.155	-1904
1024.223	-1346
1024.292	-1883
1024.360	-1957
1024.429	-1521
1024.497	-1756
1024.565	-1541
1024.634	-1176
1024.702	-1592
1024.770	-1340
1024.838	-2022
1024.907	-1448
1024.975	-1568
1025.043	-1076
1025.111	-2442
1025.179	-1369
1025.247	-1421
1025.315	-1461
1025.383	-1822
1025.451	-1244
1025.519	-2414
1025.587	-1519
1025.655	-1504
1025.723	-2134
1025.791	-1375
1025.859	-1548
1025.927	-1217
1025.995	-1814
1026.062	-1582
1026.130	-1354
1026.198	-2960
1026.266	-2298
1026.333	-2658
1026.401	-873
1026.469	-1734
1026.536	-1559
1026.604	-2174
1026.671	-2314
1026.739	-1953
1026.806	-1802
1026.874	-1651
1026.941	-1152
1027.009	-1317
1027.076	-1800
1027.144	-1784
1027.211	-2001
1027.278	-2148
1027.345	-1259
1027.413	-1269
1027.480	-1420
1027.547	-1892
1027.614	-1834
1027.682	-2038
1027.749	-1693
1027.816	-952
1027.883	-2266
1027.950	-2496
1028.017	-1582
1028.084	-1643
1028.151	-1679
1028.218	-1490
1028.285	-1257
1028.352	-2101
1028.419	-2070
1028.486	-2329
1028.553	-1698
1028.619	-1994
1028.686	-1595
1028.753	-2028
1028.820	-1500
1028.886	-2046
1028.953	-1893
1029.020	-1985
1029.086	-1294
1029.153	-2026
1029.220	-1822
1029.286	-2048
1029.353	-1571
1029.419	-1203
1029.486	-1917
1029.552	-1609
1029.619	-1756
1029.685	-1496
1029.751	-1459
1029.818	-1658
1029.884	-1761
1029.951	-998
1030.017	-2160
1030.083	-2124
1030.149	-1427
1030.216	-1738
1030.282	-1571
1030.348	-1897
1030.414	-1408
1030.480	-1881
1030.546	-1947
1030.612	-2137
1030.678	-1864
1030.744	-2736
1030.810	-1836
1030.876	-2433
1030.942	-2066
1031.008	-1396
1031.074	-1322
1031.140	-1469
1031.206	-1857
1031.272	-2128
1031.337	-1562
1031.403	-1425
1031.469	-1385
1031.534	-1539
1031.600	-466
1031.666	-1828
1031.731	-2626
1031.797	-2362
1031.863	-1591
1031.928	-2982
1031.994	-1487
1032.059	-2351
1032.125	-1462
1032.190	-2085
1032.256	-1532
1032.321	-2283
1032.386	-1421
1032.452	-2316
1032.517	-2366
1032.582	-1771
1032.647	-1336
1032.713	-2020
1032.778	-1752
1032.843	-1256
1032.908	-2064
1032.974	-1901
1033.039	-1794
1033.104	-1927
1033.169	-1900
1033.234	-2258
1033.299	-1358
1033.364	-2406
1033.429	-1748
1033.494	-1928
1033.559	-2075
1033.624	-2120
1033.688	-2138
1033.753	-2731
1033.818	-1629
1033.883	-2520
1033.948	-1586
1034.013	-1942
1034.077	-1843
1034.142	-1572
1034.207	-912
1034.271	-1454
1034.336	-461
1034.400	-1119
1034.465	-1435
1034.530	-1665
1034.594	-1412
1034.658	-2032
1034.723	-2266
1034.787	-1866
1034.852	-1851
1034.916	-1884
1034.981	-2522
1035.045	-1076
1035.109	-1791
1035.173	-1736
1035.238	-1684
1035.302	-1068
1035.366	-1866
1035.430	-2195
1035.495	-2204
1035.559	-1744
1035.623	-2133
1035.687	-2115
1035.751	-1884
1035.815	-1827
1035.879	-984
1035.943	-1648
1036.007	-2110
1036.071	-1431
1036.135	-2120
1036.198	-2384
1036.262	-1852
1036.326	-1810
1036.390	-1681
1036.454	-1559
1036.517	-1792
1036.581	-2306
1036.645	-1507
1036.709	-819
1036.772	-1739
1036.836	-2327
1036.900	-1911
1036.963	-2310
1037.026	-1943
1037.090	-2589
1037.154	-1211
1037.217	-1694
1037.280	-1330
1037.344	-2310
1037.407	-2342
1037.471	-2063
1037.534	-1493
1037.597	-2118
1037.661	-2136
1037.724	-1344
1037.787	-2144
1037.850	-2483
1037.913	-1797
1037.977	-1349
1038.040	-1855
1038.103	-1137
1038.166	-2012
1038.229	-1846
1038.292	-2169
1038.355	-2413
1038.418	-1269
1038.481	-1778
1038.544	-1674
1038.607	-2003
1038.670	-1972
1038.732	-2415
1038.795	-1841
1038.858	-1517
1038.921	-986
1038.984	-1458
1039.046	-1706
1039.109	-2047
1039.172	-1659
1039.234	-2473
1039.297	-2358
1039.360	-2249
1039.422	-1301
1039.485	-1926
1039.547	-2036
1039.610	-1911
1039.672	-1221
1039.734	-1515
1039.797	-1760
1039.859	-1865
1039.922	-2380
1039.984	-2304
1040.046	-1487
1040.109	-2155
1040.171	-2249
1040.233	-2301
1040.295	-1902
1040.358	-2045
1040.420	-1782
1040.482	-1871
1040.544	-2292
1040.606	-2433
1040.668	-2092
1040.730	-1926
1040.792	-1867
1040.854	-1798
1040.916	-1950
1040.978	-2250
1041.040	-700
1041.102	-2587
1041.164	-2020
1041.225	-2032
1041.287	-1554
1041.349	-2464
1041.411	-979
1041.472	-1673
1041.534	-1424
1041.596	-2064
1041.657	-2282
1041.719	-1584
1041.781	-1240
1041.842	-2027
1041.904	-1844
1041.965	-1779
1042.027	-1220
1042.088	-1576
1042.150	-1549
1042.211	-1598
1042.272	-1941
1042.334	-1871
1042.395	-1615
1042.456	-2345
1042.518	-1843
1042.579	-2014
1042.640	-1874
1042.701	-2250
1042.763	-2216
1042.824	-3003
1042.885	-2293
1042.946	-1503
1043.007	-2290
1043.068	-1872
1043.129	-1709
1043.190	-2347
1043.251	-1317
1043.312	-1915
1043.373	-1566
1043.434	-2300
1043.495	-1917
1043.556	-2036
1043.616	-1702
1043.677	-2110
1043.738	-1132
1043.799	-2108
1043.859	-2119
1043.920	-2397
1043.981	-1488
1044.041	-1881
1044.102	-1819
1044.162	-1685
1044.223	-2648
1044.284	-2609
1044.344	-1640
1044.405	-2369
1044.465	-2005
1044.525	-2029
1044.586	-2522
1044.646	-1782
1044.707	-1208
1044.767	-1509
1044.827	-1671
1044.887	-1694
1044.948	-1797
1045.008	-2331
1045.068	-1813
1045.128	-1178
1045.188	-1902
1045.249	-2287
1045.309	-1621
1045.369	-1686
1045.429	-1861
1045.489	-1653
1045.549	-1186
1045.609	-2006
1045.669	-1206
1045.729	-1783
1045.789	-1339
1045.848	-2017
1045.908	-1156
1045.968	-1711
1046.028	-1234
1046.088	-1585
1046.147	-1124
1046.207	-1520
1046.267	-1435
1046.326	-2118
1046.386	-1638
1046.446	-1831
1046.505	-1092
1046.565	-830
1046.624	-1500
1046.684	-990
1046.743	-399
1046.803	-1264
1046.862	-501
1046.922	0
