'Start Wavelength	183.907
'End Wavelength	1046.922
'Gate Delay	5.000
'Gate Width (ms)	1.050
'Laser Output Level	0.000
'X Position	0.000
'Y Position	0.000
'Z Position	0.000
'Grid Point Number	1.000
'Shot Number	100.000
183.907	322.000
183.977	-152.000
184.047	642
184.116	190
184.186	47
184.256	-3
184.325	-393
184.395	458
184.465	324
184.534	-85
184.604	333
184.674	370
184.743	-317
184.813	-311
184.883	140
184.952	-240
185.022	481
185.092	122
185.161	-479
185.231	-549
185.301	604
185.370	292
185.440	-205
185.509	-828
185.579	-338
185.649	139
185.718	489
185.788	166
185.857	-13
185.927	-208
185.996	-601
186.066	-107
186.136	177
186.205	-87
186.275	522
186.344	555
186.414	-10
186.483	-128
186.553	46
186.622	319
186.692	91
186.761	-273
186.831	-186
186.900	-54
186.970	404
187.039	243
187.109	494
187.178	75
187.248	351
187.317	-67
187.387	422
187.456	0
187.526	545
187.595	239
187.664	113
187.734	87
187.803	313
187.873	79
187.942	865
188.012	-455
188.081	265
188.150	198
188.220	503
188.289	-180
188.358	-385
188.428	-292
188.497	-539
188.567	-100
188.636	-304
188.705	494
188.775	-42
188.844	424
188.913	91
188.983	-176
189.052	76
189.121	-40
189.191	-9
189.260	309
189.329	554
189.399	313
189.468	-158
189.537	113
189.606	402
189.676	358
189.745	526
189.814	1226
189.883	-271
189.953	216
190.022	841
190.091	806
190.161	440
190.230	380
190.299	-360
190.368	-3
190.437	-21
190.507	179
190.576	-330
190.645	-10
190.714	-43
190.783	-150
190.853	-496
190.922	231
190.991	617
191.060	-86
191.129	197
191.198	-159
191.268	615
191.337	449
191.406	217
191.475	519
191.544	-191
191.613	606
191.682	590
191.752	-72
191.821	18
191.890	-234
191.959	-647
192.028	20
192.097	567
192.166	74
192.235	294
192.304	595
192.373	-310
192.442	-387
192.511	171
192.580	-367
192.650	132
192.719	-399
192.788	-309
192.857	-51
192.926	524
192.995	321
193.064	220
193.133	242
193.202	627
193.271	718
193.340	56
193.409	1283
193.478	413
193.547	641
193.615	187
193.684	764
193.753	240
193.822	353
193.891	816
193.960	-170
194.029	326
194.098	608
194.167	-61
194.236	137
194.305	4
194.374	10
194.443	107
194.512	251
194.580	79
194.649	441
194.718	-304
194.787	143
194.856	-570
194.925	103
194.994	-207
195.062	-42
195.131	-46
195.200	134
195.269	-43
195.338	321
195.407	-18
195.475	445
195.544	371
195.613	-19
195.682	643
195.751	892
195.819	-10
195.888	156
195.957	688
196.026	586
196.094	895
196.163	833
196.232	81
196.301	77
196.369	1
196.438	-80
196.507	1052
196.576	-71
196.644	-135
196.713	952
196.782	-341
196.850	172
196.919	268
196.988	121
197.056	-584
197.125	-322
197.194	-486
197.262	-38
197.331	-97
197.400	-112
197.468	86
197.537	-349
197.606	221
197.674	476
197.743	949
197.812	771
197.880	704
197.949	534
198.017	659
198.086	551
198.155	451
198.223	439
198.292	1468
198.360	504
198.429	346
198.497	369
198.566	1360
198.635	485
198.703	125
198.772	411
198.840	1977
198.909	765
198.977	-6
199.046	711
199.114	27
199.183	81
199.251	-348
199.320	583
199.388	-218
199.457	710
199.525	-66
199.594	90
199.662	171
199.731	427
199.799	55
199.867	356
199.936	-671
200.004	-120
200.073	110
200.141	160
200.210	348
200.278	-576
200.346	390
200.415	465
200.483	-483
200.552	-51
200.620	396
200.688	46
200.757	177
200.825	-81
200.893	279
200.962	553
201.030	197
201.098	299
201.167	585
201.235	-96
201.303	95
201.372	210
201.440	166
201.508	178
201.577	-284
201.645	-32
201.713	366
201.781	729
201.850	-196
201.918	406
201.986	-289
202.055	304
202.123	533
202.191	176
202.259	680
202.327	126
202.396	55
202.464	513
202.532	1084
202.600	2275
202.669	-286
202.737	230
202.805	-800
202.873	-212
202.941	338
203.009	-14
203.078	152
203.146	187
203.214	198
203.282	-570
203.350	-134
203.418	-29
203.487	-388
203.555	-215
203.623	585
203.691	-122
203.759	238
203.827	-248
203.895	-573
203.963	1070
204.031	126
204.099	-289
204.168	711
204.236	79
204.304	-585
204.372	-481
204.440	580
204.508	387
204.576	-62
204.644	-68
204.712	-186
204.780	-283
204.848	-23
204.916	538
204.984	568
205.052	-336
205.120	690
205.188	443
205.256	19
205.324	310
205.392	127
205.460	301
205.528	-418
205.596	457
205.664	-583
205.732	390
205.799	2398
205.867	533
205.935	129
206.003	79
206.071	299
206.139	259
206.207	69
206.275	46
206.343	7
206.411	239
206.478	437
206.546	178
206.614	-152
206.682	62
206.750	193
206.818	651
206.885	186
206.953	277
207.021	72
207.089	-31
207.157	706
207.225	-99
207.292	395
207.360	125
207.428	275
207.496	166
207.563	-172
207.631	149
207.699	-250
207.767	-338
207.834	238
207.902	33
207.970	257
208.038	-38
208.105	-337
208.173	844
208.241	289
208.309	292
208.376	332
208.444	1099
208.512	-63
208.579	-212
208.647	473
208.715	164
208.782	332
208.850	356
208.918	-268
208.985	162
209.053	-63
209.120	-93
209.188	142
209.256	125
209.323	513
209.391	234
209.459	91
209.526	171
209.594	-78
209.661	-340
209.729	-235
209.796	382
209.864	-78
209.932	11
209.999	289
210.067	753
210.134	-170
210.202	384
210.269	600
210.337	350
210.404	522
210.472	-5
210.539	87
210.607	378
210.674	1070
210.742	195
210.809	322
210.877	517
210.944	-388
211.012	737
211.079	1162
211.146	156
211.214	-168
211.281	601
211.349	224
211.416	-591
211.484	-409
211.551	204
211.618	645
211.686	280
211.753	-349
211.821	297
211.888	-174
211.955	-12
212.023	109
212.090	211
212.157	845
212.225	-385
212.292	1422
212.359	4414
212.427	6937
212.494	1894
212.561	1057
212.629	411
212.696	343
212.763	374
212.831	32
212.898	154
212.965	430
213.032	797
213.100	682
213.167	736
213.234	17
213.301	463
213.369	572
213.436	376
213.503	150
213.570	818
213.638	-207
213.705	-243
213.772	469
213.839	1044
213.906	184
213.973	271
214.041	-5
214.108	-575
214.175	943
214.242	536
214.309	-461
214.376	336
214.444	772
214.511	124
214.578	918
214.645	333
214.712	144
214.779	424
214.846	436
214.913	202
214.980	173
215.048	-299
215.115	1207
215.182	1106
215.249	889
215.316	-326
215.383	473
215.450	601
215.517	367
215.584	342
215.651	168
215.718	-470
215.785	726
215.852	580
215.919	288
215.986	492
216.053	346
216.120	-244
216.187	848
216.254	377
216.321	423
216.388	-93
216.455	805
216.522	324
216.589	767
216.656	2256
216.722	1244
216.789	826
216.856	347
216.923	563
216.990	343
217.057	494
217.124	715
217.191	48
217.258	1002
217.324	1417
217.391	974
217.458	1155
217.525	-384
217.592	521
217.659	266
217.725	780
217.792	1697
217.859	452
217.926	136
217.993	-302
218.059	432
218.126	-542
218.193	82
218.260	-528
218.327	-49
218.393	328
218.460	-277
218.527	260
218.594	1122
218.660	1744
218.727	1554
218.794	-265
218.860	596
218.927	-184
218.994	65
219.061	-324
219.127	1037
219.194	1343
219.261	522
219.327	-275
219.394	28
219.461	-70
219.527	1010
219.594	1073
219.661	282
219.727	-37
219.794	223
219.860	345
219.927	-169
219.994	1226
220.060	1576
220.127	-132
220.193	102
220.260	544
220.326	662
220.393	1699
220.460	1640
220.526	885
220.593	47
220.659	819
220.726	1800
220.792	4115
220.859	1517
220.925	3137
220.992	4039
221.058	5902
221.125	5306
221.191	2798
221.258	566
221.324	444
221.391	44
221.457	210
221.524	1049
221.590	1450
221.657	5736
221.723	1813
221.789	4076
221.856	1794
221.922	1022
221.989	14
222.055	418
222.121	-590
222.188	981
222.254	829
222.321	200
222.387	148
222.453	-142
222.520	-288
222.586	-607
222.652	-174
222.719	-290
222.785	347
222.851	-52
222.918	255
222.984	621
223.050	341
223.116	-356
223.183	293
223.249	-438
223.315	-129
223.382	-413
223.448	139
223.514	-384
223.580	-157
223.647	-343
223.713	280
223.779	-262
223.845	98
223.911	-73
223.978	425
224.044	-363
224.110	-275
224.176	410
224.242	-115
224.309	-722
224.375	32
224.441	94
224.507	140
224.573	587
224.639	-287
224.705	-723
224.772	-168
224.838	270
224.904	494
224.970	-187
225.036	467
225.102	-384
225.168	-19
225.234	-15
225.300	326
225.366	-705
225.432	268
225.499	-459
225.565	195
225.631	-191
225.697	371
225.763	519
225.829	-369
225.895	129
225.961	1287
226.027	-15
226.093	1076
226.159	495
226.225	1538
226.291	4977
226.357	5150
226.423	1887
226.489	1002
226.554	616
226.620	1015
226.686	1218
226.752	2295
226.818	3676
226.884	10318
226.950	4251
227.016	831
227.082	1037
227.148	1195
227.214	1152
227.279	353
227.345	434
227.411	323
227.477	966
227.543	2152
227.609	1906
227.674	800
227.740	29
227.806	676
227.872	-131
227.938	526
228.003	-4
228.069	37
228.135	122
228.201	-204
228.267	37
228.332	859
228.398	-22
228.464	212
228.530	73
228.595	83
228.661	-9
228.727	1079
228.792	-305
228.858	-156
228.924	145
228.990	277
229.055	239
229.121	93
229.187	-159
229.252	15
229.318	559
229.384	434
229.449	-140
229.515	57
229.581	-854
229.646	191
229.712	872
229.777	3404
229.843	1798
229.909	616
229.974	1138
230.040	646
230.105	177
230.171	699
230.236	1214
230.302	1642
230.368	1366
230.433	-277
230.499	-55
230.564	617
230.630	-562
230.695	-229
230.761	146
230.826	402
230.892	867
230.957	179
231.023	498
231.088	-434
231.154	-223
231.219	-303
231.284	1345
231.350	123
231.415	-332
231.481	225
231.546	-51
231.612	-234
231.677	16
231.742	-290
231.808	-45
231.873	434
231.939	-557
232.004	1184
232.069	197
232.135	-77
232.200	261
232.265	215
232.331	606
232.396	-318
232.461	-210
232.527	324
232.592	-154
232.657	392
232.723	2053
232.788	575
232.853	-441
232.918	-29
232.984	-466
233.049	411
233.114	2273
233.179	600
233.245	4565
233.310	1661
233.375	369
233.440	-172
233.506	173
233.571	95
233.636	163
233.701	711
233.766	3211
233.832	996
233.897	767
233.962	657
234.027	234
234.092	591
234.157	867
234.222	440
234.288	3977
234.353	7875
234.418	4241
234.483	1709
234.548	848
234.613	517
234.678	698
234.743	2977
234.808	8259
234.873	2308
234.938	930
235.004	377
235.069	205
235.134	727
235.199	284
235.264	462
235.329	212
235.394	333
235.459	916
235.524	721
235.589	546
235.654	161
235.719	-250
235.784	1169
235.849	1855
235.913	3287
235.978	5473
236.043	2635
236.108	-153
236.173	966
236.238	844
236.303	831
236.368	783
236.433	3209
236.498	2711
236.563	1636
236.627	4761
236.692	12714
236.757	4735
236.822	3946
236.887	2298
236.952	1328
237.017	1189
237.081	1242
237.146	1737
237.211	4654
237.276	18426
237.341	17142
237.405	5156
237.470	3649
237.535	1432
237.600	774
237.664	1555
237.729	29
237.794	1331
237.859	1554
237.923	1976
237.988	1052
238.053	3350
238.118	3656
238.182	13319
238.247	5704
238.312	3760
238.376	1676
238.441	1475
238.506	1383
238.570	853
238.635	708
238.700	894
238.764	644
238.829	6720
238.893	3164
238.958	1626
239.023	1055
239.087	458
239.152	548
239.216	721
239.281	878
239.346	717
239.410	94
239.475	2578
239.539	13431
239.604	3169
239.668	1209
239.733	200
239.797	1344
239.862	4951
239.926	6158
239.991	1149
240.055	74
240.120	599
240.184	-90
240.249	282
240.313	939
240.378	1550
240.442	8864
240.507	6220
240.571	2151
240.635	5842
240.700	2949
240.764	659
240.829	574
240.893	124
240.957	1393
241.022	9545
241.086	8570
241.151	2113
241.215	82
241.279	3040
241.344	3613
241.408	1007
241.472	656
241.537	1123
241.601	372
241.665	192
241.730	687
241.794	346
241.858	491
241.922	-57
241.987	312
242.051	72
242.115	130
242.179	138
242.244	-71
242.308	987
242.372	1283
242.436	635
242.501	-157
242.565	-84
242.629	500
242.693	492
242.757	179
242.822	285
242.886	397
242.950	528
243.014	106
243.078	754
243.142	535
243.206	1044
243.271	668
243.335	966
243.399	937
243.463	15169
243.527	15318
243.591	3114
243.655	1724
243.719	881
243.783	1070
243.847	2220
243.911	3053
243.975	3981
244.040	596
244.104	657
244.168	726
244.232	2197
244.296	1898
244.360	2137
244.424	1618
244.488	441
244.552	610
244.615	304
244.679	995
244.743	1115
244.807	102
244.871	501
244.935	19
244.999	83
245.063	834
245.127	1415
245.191	2039
245.255	1006
245.319	1295
245.383	869
245.446	1095
245.510	-330
245.574	1044
245.638	273
245.702	2474
245.766	2833
245.829	1036
245.893	977
245.957	100
246.021	694
246.085	1235
246.149	1439
246.212	7581
246.276	6640
246.340	1981
246.404	1471
246.467	2834
246.531	2338
246.595	1271
246.659	1042
246.722	1327
246.786	1208
246.850	3326
246.913	1535
246.977	628
247.041	1428
247.104	1437
247.168	1763
247.232	9030
247.295	11225
247.359	3006
247.423	2702
247.486	3711
247.550	711
247.614	1850
247.677	1959
247.741	781
247.804	1618
247.868	2307
247.932	8635
247.995	8645
248.059	2324
248.122	1256
248.186	1933
248.249	7849
248.313	24002
248.376	15829
248.440	8168
248.503	2619
248.567	2343
248.630	5051
248.694	5548
248.757	12698
248.821	16806
248.884	6941
248.948	13917
249.011	16893
249.075	26064
249.138	12385
249.202	5628
249.265	3731
249.328	4994
249.392	3010
249.455	1703
249.519	1578
249.582	2748
249.645	4736
249.709	2910
249.772	1803
249.835	1635
249.899	2378
249.962	2022
250.025	1332
250.089	11549
250.152	6658
250.215	3413
250.279	2826
250.342	2829
250.405	2226
250.468	2061
250.532	2837
250.595	6357
250.658	37376
250.721	22289
250.785	7103
250.848	5336
250.911	2651
250.974	2938
251.038	9694
251.101	9446
251.164	4882
251.227	4689
251.290	4063
251.354	11685
251.417	40780
251.480	16667
251.543	28595
251.606	61099
251.669	21092
251.732	11911
251.795	15960
251.859	21335
251.922	34497
251.985	10579
252.048	5468
252.111	4652
252.174	4877
252.237	15730
252.300	19465
252.363	36307
252.426	38467
252.489	12777
252.552	8047
252.615	5515
252.678	9340
252.741	18717
252.804	33698
252.867	41474
252.930	21193
252.993	10359
253.056	7188
253.119	4834
253.182	3546
253.245	5607
253.308	5155
253.371	5021
253.434	4616
253.497	6471
253.559	11265
253.622	5858
253.685	8780
253.748	4594
253.811	4248
253.874	5754
253.937	3471
254.000	3094
254.062	10746
254.125	9458
254.188	10028
254.251	4256
254.314	3595
254.376	7335
254.439	6429
254.502	4669
254.565	11920
254.628	9493
254.690	5964
254.753	2595
254.816	3058
254.878	4446
254.941	11705
255.004	5004
255.067	3628
255.129	1857
255.192	1109
255.255	1374
255.317	1394
255.380	766
255.443	997
255.505	1013
255.568	913
255.631	680
255.693	548
255.756	629
255.819	1312
255.881	192
255.944	446
256.006	282
256.069	680
256.132	57
256.194	3310
256.257	7068
256.319	5209
256.382	2208
256.444	1491
256.507	1038
256.569	1062
256.632	1906
256.694	2564
256.757	10645
256.819	11680
256.882	3337
256.944	1768
257.007	2429
257.069	2530
257.132	738
257.194	967
257.257	570
257.319	912
257.381	1136
257.444	7689
257.506	24199
257.569	16925
257.631	10022
257.693	4331
257.756	2466
257.818	2914
257.880	1115
257.943	683
258.005	1109
258.067	853
258.130	253
258.192	2955
258.254	4473
258.317	1012
258.379	1665
258.441	7136
258.503	3768
258.566	16977
258.628	7250
258.690	1577
258.753	2339
258.815	3334
258.877	567
258.939	1500
259.001	451
259.064	307
259.126	3123
259.188	2305
259.250	1662
259.312	3522
259.375	8437
259.437	1489
259.499	1506
259.561	963
259.623	516
259.685	452
259.747	1690
259.809	17256
259.872	16532
259.934	32941
259.996	11560
260.058	3034
260.120	2020
260.182	1029
260.244	412
260.306	726
260.368	239
260.430	525
260.492	3633
260.554	8403
260.616	4945
260.678	19850
260.740	10250
260.802	3096
260.864	1994
260.926	793
260.988	1255
261.050	1815
261.112	6289
261.174	23133
261.236	7318
261.298	3076
261.359	13054
261.421	5619
261.483	1731
261.545	1482
261.607	308
261.669	1319
261.731	8514
261.793	8216
261.854	1819
261.916	997
261.978	1588
262.040	1762
262.102	1533
262.164	4346
262.225	1236
262.287	2110
262.349	4903
262.411	2000
262.472	1004
262.534	10707
262.596	7539
262.658	1990
262.719	543
262.781	6254
262.843	9575
262.904	2661
262.966	1737
263.028	3599
263.090	36418
263.151	29119
263.213	8618
263.275	3516
263.336	2056
263.398	870
263.459	662
263.521	2353
263.583	4144
263.644	1376
263.706	789
263.767	681
263.829	-126
263.891	173
263.952	-227
264.014	-225
264.075	1834
264.137	2172
264.198	113
264.260	-267
264.321	225
264.383	4867
264.444	3809
264.506	1109
264.567	233
264.629	3025
264.690	2481
264.752	477
264.813	580
264.875	-192
264.936	-528
264.998	-323
265.059	82
265.120	-122
265.182	1252
265.243	9005
265.305	2038
265.366	718
265.427	405
265.489	-22
265.550	-94
265.611	-16
265.673	407
265.734	-41
265.795	646
265.857	65
265.918	-702
265.979	4201
266.040	15170
266.102	3903
266.163	1985
266.224	1568
266.286	-87
266.347	112
266.408	114
266.469	539
266.530	313
266.592	668
266.653	3190
266.714	1513
266.775	260
266.836	229
266.898	724
266.959	500
267.020	113
267.081	364
267.142	636
267.203	-61
267.264	-177
267.326	452
267.387	-571
267.448	-714
267.509	-48
267.570	-229
267.631	-118
267.692	-440
267.753	-184
267.814	-953
267.875	4037
267.936	3367
267.997	1289
268.058	593
268.119	710
268.180	60
268.241	-179
268.302	-463
268.363	-470
268.424	-51
268.485	92
268.546	-321
268.607	-251
268.668	317
268.729	-12
268.790	290
268.851	1050
268.912	4189
268.972	1786
269.033	507
269.094	-683
269.155	330
269.216	-849
269.277	366
269.338	-260
269.398	131
269.459	-57
269.520	220
269.581	1916
269.642	672
269.702	304
269.763	-93
269.824	-69
269.885	532
269.945	988
270.006	242
270.067	191
270.128	-208
270.188	-309
270.249	258
270.310	-312
270.370	8
270.431	-280
270.492	-449
270.553	696
270.613	2948
270.674	3948
270.734	363
270.795	341
270.856	1717
270.916	-479
270.977	714
271.038	1202
271.098	172
271.159	2011
271.219	1069
271.280	705
271.340	-370
271.401	3189
271.462	4553
271.522	715
271.583	568
271.643	518
271.704	88
271.764	1416
271.825	5682
271.885	26418
271.946	14563
272.006	5113
272.066	19102
272.127	12933
272.187	3306
272.248	1250
272.308	6232
272.369	14065
272.429	3766
272.489	4085
272.550	2698
272.610	3469
272.671	1710
272.731	5842
272.791	4357
272.852	1337
272.912	1802
272.972	1669
273.033	2064
273.093	2036
273.153	2141
273.214	1052
273.274	2146
273.334	15815
273.394	12439
273.455	4592
273.515	9688
273.575	9960
273.635	4280
273.696	15833
273.756	14747
273.816	4373
273.876	3102
273.936	19703
273.997	11316
274.057	3072
274.117	2181
274.177	8465
274.237	26205
274.297	16422
274.358	12642
274.418	14686
274.478	6043
274.538	3322
274.598	6145
274.658	22174
274.718	15122
274.778	3824
274.838	2910
274.898	19657
274.958	27117
275.018	22777
275.078	6696
275.138	3627
275.198	1668
275.258	1674
275.318	3162
275.378	3762
275.438	3079
275.498	2963
275.558	23008
275.618	21527
275.678	7822
275.738	6733
275.798	3192
275.858	1572
275.918	492
275.978	2213
276.038	877
276.098	947
276.157	6053
276.217	7793
276.277	3032
276.337	2137
276.397	1758
276.457	2188
276.517	112
276.576	1172
276.636	1116
276.696	2382
276.756	6992
276.815	2773
276.875	1987
276.935	2148
276.995	1266
277.055	845
277.114	716
277.174	4884
277.234	7222
277.293	2167
277.353	1766
277.413	1245
277.472	1045
277.532	462
277.592	2054
277.651	14980
277.711	8616
277.771	6924
277.830	21174
277.890	8082
277.950	23947
278.009	28616
278.069	7503
278.128	16397
278.188	10404
278.248	8868
278.307	18054
278.367	5820
278.426	2833
278.486	2346
278.545	1322
278.605	475
278.664	941
278.724	1657
278.783	15615
278.843	14386
278.902	2896
278.962	2489
279.021	3629
279.081	5960
279.140	3821
279.199	2966
279.259	2854
279.318	3316
279.378	4228
279.437	14350
279.496	57919
279.556	136557
279.615	47372
279.675	17134
279.734	11834
279.793	24188
279.853	20247
279.912	6170
279.971	4122
280.031	4197
280.090	14267
280.149	11297
280.208	26666
280.268	107948
280.327	42930
280.386	13640
280.445	12345
280.505	6255
280.564	4515
280.623	2471
280.682	7103
280.742	5472
280.801	1728
280.860	1591
280.919	2311
280.978	1331
281.037	2112
281.097	1292
281.156	2052
281.215	1506
281.274	3935
281.333	14602
281.392	4092
281.451	1633
281.510	1710
281.569	577
281.628	482
281.688	788
281.747	1260
281.806	1237
281.865	590
281.924	290
281.983	1123
282.042	433
282.101	368
282.160	418
282.219	204
282.278	1815
282.337	6128
282.396	1663
282.454	880
282.513	3484
282.572	8646
282.631	2566
282.690	703
282.749	1156
282.808	1691
282.867	1189
282.926	1056
282.985	386
283.043	-144
283.102	379
283.161	1169
283.220	9098
283.279	7571
283.338	2095
283.396	1311
283.455	1833
283.514	1142
283.573	2427
283.631	1683
283.690	765
283.749	1310
283.808	4808
283.866	2416
283.925	282
283.984	1428
284.043	2070
284.101	1174
284.160	1810
284.219	1951
284.277	1537
284.336	5596
284.395	14939
284.453	6078
284.512	3320
284.570	4161
284.629	2944
284.688	3732
284.746	3410
284.805	4888
284.863	6952
284.922	6791
284.981	8047
285.039	12336
285.098	26925
285.156	86310
285.215	157252
285.273	95351
285.332	45762
285.390	25717
285.449	15428
285.507	10704
285.566	7461
285.624	5197
285.683	3542
285.741	3010
285.799	2774
285.858	2715
285.916	2506
285.975	1711
286.033	1595
286.091	1535
286.150	772
286.208	1530
286.267	2133
286.325	1821
286.383	3218
286.442	2016
286.500	466
286.558	1081
286.616	776
286.675	1942
286.733	1561
286.791	935
286.850	1902
286.908	3622
286.966	3688
287.024	1650
287.083	697
287.141	366
287.199	1272
287.257	1444
287.315	1056
287.374	2336
287.432	5115
287.490	1262
287.548	1634
287.606	602
287.664	1096
287.723	2448
287.781	2161
287.839	1514
287.897	1224
287.955	1725
288.013	1958
288.071	11450
288.129	98282
288.187	116354
288.245	31281
288.303	11979
288.361	7457
288.419	5231
288.477	3364
288.535	2460
288.593	1270
288.651	811
288.709	731
288.767	1837
288.825	530
288.883	716
288.941	546
288.999	415
289.057	297
289.115	447
289.173	-68
289.231	815
289.289	462
289.346	1905
289.404	835
289.462	2277
289.520	1741
289.578	426
289.636	127
289.694	283
289.751	-285
289.809	12
289.867	275
289.925	1880
289.983	409
290.040	306
290.098	-205
290.156	728
290.214	1441
290.271	244
290.329	259
290.387	-220
290.444	13
290.502	-155
290.560	133
290.617	36
290.675	472
290.733	550
290.790	968
290.848	434
290.906	904
290.963	661
291.021	613
291.078	428
291.136	554
291.194	8520
291.251	7485
291.309	1306
291.366	641
291.424	316
291.481	495
291.539	440
291.596	361
291.654	-278
291.711	123
291.769	1905
291.826	1943
291.884	702
291.941	-39
291.999	444
292.056	952
292.114	-411
292.171	-240
292.228	800
292.286	917
292.343	3035
292.401	3403
292.458	1550
292.515	1197
292.573	1195
292.630	1465
292.687	1660
292.745	509
292.802	2254
292.859	8399
292.917	12180
292.974	4063
293.031	1007
293.089	561
293.146	794
293.203	-104
293.260	538
293.318	1734
293.375	1057
293.432	288
293.489	-55
293.546	88
293.604	2248
293.661	18879
293.718	20750
293.775	8252
293.832	4509
293.889	4163
293.947	3576
294.004	1610
294.061	1822
294.118	8637
294.175	12232
294.232	10167
294.289	3963
294.346	1457
294.403	1454
294.460	1533
294.517	402
294.574	372
294.631	-104
294.688	1428
294.745	14014
294.802	30759
294.859	17581
294.916	8782
294.973	5047
295.030	3514
295.087	2383
295.144	1749
295.201	1693
295.258	903
295.315	2750
295.372	18125
295.429	15281
295.486	4975
295.542	3887
295.599	12349
295.656	11730
295.713	16270
295.770	13242
295.827	4266
295.883	2372
295.940	2658
295.997	5139
296.054	2965
296.111	1324
296.167	554
296.224	-113
296.281	1079
296.338	578
296.394	534
296.451	2350
296.508	12734
296.564	10772
296.621	10800
296.678	35257
296.734	22505
296.791	7941
296.848	4122
296.904	6280
296.961	15393
297.018	23522
297.074	9526
297.131	4137
297.187	2946
297.244	8122
297.301	42091
297.357	31261
297.414	9493
297.470	4263
297.527	2807
297.583	1911
297.640	1461
297.696	1410
297.753	1056
297.809	703
297.866	-64
297.922	942
297.979	577
298.035	1596
298.092	5805
298.148	14484
298.204	8214
298.261	4687
298.317	20082
298.374	28941
298.430	11678
298.486	6705
298.543	4216
298.599	3340
298.656	3445
298.712	11179
298.768	18130
298.824	8019
298.881	2906
298.937	1382
298.993	2765
299.050	2287
299.106	1524
299.162	1579
299.218	2122
299.275	633
299.331	2009
299.387	12286
299.443	33618
299.500	18743
299.556	6834
299.612	4490
299.668	3453
299.724	4504
299.780	3097
299.837	2097
299.893	8218
299.949	24180
300.005	17636
300.061	29841
300.117	29981
300.173	11637
300.229	6694
300.285	8556
300.341	6716
300.397	4069
300.453	2033
300.510	1670
300.566	1160
300.622	3933
300.678	13069
300.734	18889
300.790	26378
300.845	20753
300.901	16474
300.957	21311
301.013	11197
301.069	5207
301.125	3976
301.181	3766
301.237	2171
301.293	1306
301.349	1401
301.405	1200
301.461	1589
301.516	1644
301.572	3107
301.628	4648
301.684	4013
301.740	10671
301.796	9761
301.851	10209
301.907	12229
301.963	13436
302.019	48469
302.074	90503
302.130	58625
302.186	23588
302.242	10264
302.297	7234
302.353	9435
302.409	13842
302.464	9672
302.520	14469
302.576	31431
302.631	24744
302.687	12179
302.743	4900
302.798	3147
302.854	1976
302.910	2339
302.965	4345
303.021	6605
303.076	6013
303.132	9384
303.187	8446
303.243	3942
303.299	1639
303.354	1067
303.410	1794
303.465	1605
303.521	576
303.576	1175
303.632	1897
303.687	14086
303.743	27387
303.798	14553
303.853	6059
303.909	3398
303.964	3040
304.020	6107
304.075	6112
304.130	8023
304.186	13823
304.241	12881
304.297	8793
304.352	4825
304.358	4604
304.407	2810
304.449	3151
304.463	3267
304.518	2722
304.539	2539
304.573	2241
304.629	2657
304.630	2780
304.684	8399
304.720	21843
304.739	28797
304.794	22611
304.811	19230
304.850	10652
304.902	4427
304.905	4046
304.960	3598
304.992	2986
305.015	2569
305.071	2338
305.083	2141
305.126	1400
305.173	877
305.181	802
305.236	419
305.264	1229
305.292	1994
305.347	2280
305.354	2295
305.402	2488
305.445	2988
305.457	3129
305.512	4083
305.535	3695
305.567	3109
305.622	3820
305.626	4286
305.678	12369
305.716	23532
305.733	28281
305.788	22029
305.807	21677
305.843	20183
305.897	28097
305.898	28216
305.953	20253
305.988	14869
306.008	11241
306.063	6084
306.078	5115
306.118	3520
306.168	2438
306.173	2353
306.228	1943
306.259	1596
306.283	1310
306.338	1355
306.349	1537
306.393	2354
306.440	2030
306.448	1961
306.503	2461
306.530	3371
306.558	4828
306.613	11769
306.620	12614
306.668	18214
306.711	22905
306.723	23657
306.778	15264
306.801	12713
306.833	8947
306.888	4476
306.892	4267
306.943	3124
306.982	2776
306.997	2631
307.052	2271
307.072	2393
307.107	2863
307.162	4098
307.163	4122
307.217	7031
307.253	9327
307.272	10182
307.327	9683
307.343	9030
307.381	6519
307.434	5466
307.436	5600
307.491	13857
307.524	19520
307.546	22199
307.600	19075
307.614	17601
307.655	10412
307.704	4674
307.710	4468
307.765	5504
307.795	8441
307.819	11891
307.874	17703
307.885	17511
307.929	11650
307.975	7417
307.984	7106
308.038	6303
308.065	7876
308.093	12303
308.148	36995
308.156	42320
308.202	81993
308.246	88680
308.257	83082
308.312	44643
308.336	31860
308.366	25319
308.421	16290
308.426	15632
308.475	10075
308.517	6898
308.530	6311
308.585	4575
308.607	4378
308.639	4591
308.694	5149
308.697	5452
308.748	14051
308.787	19603
308.803	20323
308.857	15929
308.877	14864
308.912	11301
308.967	7374
308.967	7331
309.021	8558
309.058	10938
309.076	13264
309.130	22952
309.148	28668
309.185	49759
309.238	100044
309.239	100947
309.293	128235
309.328	127787
309.348	105480
309.402	46736
309.418	32145
309.457	21094
309.508	12503
309.511	12265
309.566	11594
309.598	13060
309.620	15650
309.674	25353
309.688	26838
309.729	26664
309.778	22455
309.783	21691
309.837	13747
309.868	10530
309.892	10799
309.946	15372
309.959	16998
310.001	25732
310.049	31063
310.055	30079
310.109	18986
310.139	13290
310.163	10324
310.218	5660
310.229	4851
310.272	3999
310.319	3557
310.326	3516
310.381	3153
310.409	3135
310.435	2852
310.489	2390
310.499	2297
310.543	2762
310.589	3377
310.598	3460
310.652	3688
310.679	3900
310.706	3171
310.760	1750
310.769	1486
310.814	1205
310.859	1081
310.868	1138
310.923	1609
310.948	1789
310.977	1939
311.031	2446
311.038	2482
311.085	2481
311.128	2500
311.139	2514
311.193	2626
311.218	2620
311.247	2183
311.301	1483
311.308	1400
311.356	1543
311.398	1626
311.410	1644
311.464	1667
311.488	1741
311.518	1702
311.572	1574
311.578	1571
311.626	1878
311.668	2084
311.680	2112
311.734	2261
311.758	2319
311.788	2664
311.842	3291
311.847	3360
311.896	3750
311.937	4127
311.950	4028
312.004	3575
312.027	3367
312.058	3011
312.112	2416
312.117	2360
312.165	2309
312.207	2272
312.297	2762
312.386	2296
312.476	1586
312.566	4276
312.656	3393
312.745	2173
312.835	1522
312.925	1834
313.015	2099
313.104	3554
313.194	2020
313.284	1855
313.374	1882
313.463	2446
313.553	1709
313.643	1308
313.732	1739
313.822	1683
313.912	1817
314.001	1958
314.091	2480
314.180	3014
314.270	2709
314.360	3417
314.449	3043
314.539	1527
314.628	1786
314.718	2148
314.808	3221
314.897	1924
314.987	2001
315.076	1997
315.166	3047
315.255	3435
315.345	2275
315.434	3133
315.524	2353
315.613	2877
315.703	3402
315.792	5211
315.881	12486
315.971	8182
316.060	5794
316.150	9966
316.239	11116
316.328	5822
316.418	1434
316.507	1859
316.597	2182
316.686	2428
316.775	3695
316.865	12263
316.954	4178
317.043	973
317.133	2906
317.222	1453
317.311	1933
317.400	1317
317.490	2155
317.579	2613
317.668	2504
317.757	2885
317.847	7424
317.936	23321
318.025	15252
318.114	6279
318.203	4427
318.293	4229
318.382	7599
318.471	6718
318.560	9955
318.649	16553
318.738	7677
318.828	3622
318.917	3679
319.006	4031
319.095	11358
319.184	20424
319.273	17915
319.362	8112
319.451	3219
319.540	2793
319.629	4430
319.718	9201
319.807	3806
319.896	6566
319.985	26956
320.074	17798
320.163	3483
320.252	6932
320.341	5257
320.430	3412
320.519	5055
320.608	3959
320.697	2300
320.786	2280
320.875	3535
320.964	4249
321.053	6153
321.142	8122
321.230	10493
321.319	6757
321.408	14826
321.497	9397
321.586	6655
321.675	8745
321.764	12298
321.852	6255
321.941	8522
322.030	7683
322.119	5292
322.207	16613
322.296	18896
322.385	7874
322.474	6126
322.562	16623
322.651	14803
322.740	6486
322.829	12875
322.917	16094
323.006	10734
323.095	6186
323.183	5461
323.272	6305
323.361	11861
323.449	46571
323.538	25767
323.626	27464
323.715	32508
323.804	6565
323.892	25776
323.981	24746
324.069	4342
324.158	12594
324.246	23798
324.335	3781
324.424	6132
324.512	2906
324.601	3020
324.689	5075
324.778	14825
324.866	13252
324.954	5137
325.043	3104
325.131	5824
325.220	12488
325.308	16344
325.397	9419
325.485	8959
325.574	1674
325.662	2262
325.750	1971
325.839	2397
325.927	2287
326.015	2860
326.104	3387
326.192	9671
326.280	1640
326.369	1607
326.457	2395
326.545	4256
326.634	2976
326.722	1368
326.810	1653
326.898	1547
326.987	1398
327.075	3083
327.163	6670
327.251	4387
327.340	4198
327.428	7956
327.516	2645
327.604	1660
327.692	1961
327.781	3014
327.869	4492
327.957	4428
328.045	3171
328.133	2071
328.221	2035
328.309	2127
328.397	1373
328.485	2781
328.574	2464
328.662	8254
328.750	8474
328.838	4620
328.926	1849
329.014	1787
329.102	2016
329.190	4218
329.278	4962
329.366	1505
329.454	1439
329.542	1335
329.630	780
329.718	730
329.806	2265
329.893	1796
329.981	1792
330.069	1496
330.157	4834
330.245	20245
330.333	15507
330.421	3557
330.509	2684
330.597	9948
330.684	10600
330.772	3285
330.860	3416
330.948	5252
331.036	2343
331.123	1296
331.211	554
331.299	1568
331.387	3068
331.475	7282
331.562	3716
331.650	2060
331.738	1287
331.825	3727
331.913	1603
332.001	1156
332.089	2239
332.176	4698
332.264	12046
332.352	17934
332.439	2516
332.527	2152
332.614	1974
332.702	3366
332.790	2421
332.877	4251
332.965	17195
333.052	6003
333.140	3045
333.228	8856
333.315	3387
333.403	1569
333.490	6637
333.578	10673
333.665	7352
333.753	5738
333.840	1596
333.928	2150
334.015	6979
334.103	11548
334.190	36363
334.278	17676
334.365	3675
334.452	3397
334.540	1947
334.627	2057
334.715	4716
334.802	4962
334.889	41130
334.977	83721
335.064	10981
335.151	2698
335.239	2203
335.326	2317
335.413	9176
335.501	26609
335.588	4132
335.675	2244
335.762	1450
335.850	4407
335.937	2544
336.024	6741
336.111	47818
336.199	38872
336.286	3890
336.373	2133
336.460	1696
336.547	1483
336.635	1890
336.722	2686
336.809	1632
336.896	2770
336.983	5824
337.070	17201
337.157	33761
337.245	31869
337.332	42133
337.419	4473
337.506	1958
337.593	2189
337.680	3226
337.767	18144
337.854	7363
337.941	6626
338.028	11758
338.115	6765
338.202	1830
338.289	5336
338.376	35221
338.463	20552
338.550	7604
338.637	15137
338.724	4804
338.811	14413
338.898	3741
338.984	1164
339.071	1670
339.158	1880
339.245	5141
339.332	4725
339.419	4612
339.506	10025
339.593	1556
339.679	827
339.766	927
339.853	1547
339.940	4175
340.027	2115
340.113	1277
340.200	1367
340.287	2767
340.374	897
340.460	4429
340.547	1501
340.634	1815
340.720	9848
340.807	10709
340.894	1387
340.980	792
341.067	1608
341.154	972
341.240	1806
341.327	5507
341.414	2885
341.500	2966
341.587	1364
341.674	1253
341.760	3574
341.847	4811
341.933	1883
342.020	491
342.106	509
342.193	1011
342.279	3199
342.366	1855
342.452	3903
342.539	2751
342.625	3748
342.712	11849
342.798	7765
342.885	2497
342.971	588
343.058	576
343.144	695
343.230	808
343.317	1478
343.403	711
343.490	800
343.576	485
343.662	1429
343.749	1220
343.835	1927
343.921	2370
344.008	17883
344.094	89593
344.180	33531
344.267	4601
344.353	11441
344.439	25677
344.525	8560
344.612	3373
344.698	1533
344.784	2030
344.870	522
344.957	1118
345.043	2573
345.129	1639
345.215	3675
345.301	2421
345.387	2145
345.474	1198
345.560	619
345.646	1093
345.732	1709
345.818	1132
345.904	1722
345.990	1929
346.076	1660
346.162	4933
346.249	2713
346.335	519
346.421	920
346.507	3519
346.593	26417
346.679	12135
346.765	1410
346.851	1660
346.937	2048
347.023	1474
347.108	1666
347.194	1777
347.280	971
347.366	1228
347.452	4193
347.538	27359
347.624	28330
347.710	20638
347.796	5092
347.882	1371
347.967	1209
348.053	1456
348.139	1609
348.225	1610
348.311	1064
348.397	1135
348.482	1379
348.568	1362
348.654	514
348.740	536
348.825	1356
348.911	1819
348.997	7695
349.083	35730
349.168	12102
349.254	1453
349.340	1131
349.425	647
349.511	1653
349.597	1972
349.682	2766
349.768	12828
349.854	12490
349.939	831
350.025	1221
350.110	868
350.196	449
350.282	529
350.367	940
350.453	2527
350.538	4130
350.624	1290
350.709	1755
350.795	782
350.880	1322
350.966	1363
351.051	2212
351.137	3623
351.222	1288
351.308	1774
351.393	12319
351.479	5466
351.564	1380
351.649	570
351.735	929
351.820	398
351.906	770
351.991	1423
352.076	5175
352.162	15135
352.247	4235
352.332	1379
352.418	2064
352.503	2813
352.588	12667
352.673	19653
352.759	4585
352.844	1753
352.929	1007
353.014	2140
353.100	1576
353.185	2363
353.270	3989
353.355	5589
353.441	1571
353.526	1810
353.611	3554
353.696	6137
353.781	2971
353.866	1651
353.952	984
354.037	2692
354.122	8835
354.207	8751
354.292	4994
354.377	1309
354.462	1595
354.547	1134
354.632	1739
354.717	1831
354.802	4453
354.887	2300
354.972	1300
355.057	345
355.142	1174
355.227	1182
355.312	1897
355.397	4408
355.482	12566
355.567	10911
355.652	3944
355.737	6410
355.822	12176
355.907	22400
355.991	3651
356.076	1280
356.161	1175
356.246	1671
356.331	1401
356.416	2559
356.501	20743
356.585	53763
356.670	8620
356.755	2646
356.840	2984
356.924	10645
357.009	76973
357.094	61445
357.179	6501
357.263	4643
357.348	2985
357.433	4629
357.517	3379
357.602	2721
357.687	2122
357.771	1759
357.856	5010
357.941	4703
358.025	8112
358.110	70247
358.195	72946
358.279	7835
358.364	3395
358.448	7247
358.533	27748
358.617	28796
358.702	22896
358.787	14284
358.871	3936
358.956	4540
359.040	2253
359.125	733
359.209	1775
359.294	2307
359.378	5541
359.462	3567
359.547	2818
359.631	1543
359.716	1458
359.800	1292
359.885	1628
359.969	2026
360.053	1082
360.138	788
360.222	1563
360.306	4056
360.391	3996
360.475	3552
360.559	10712
360.644	10897
360.728	11743
360.812	9221
360.896	52188
360.981	32150
361.065	11358
361.149	2867
361.233	2201
361.318	1645
361.402	2754
361.486	2421
361.570	1924
361.654	1411
361.739	4116
361.823	19393
361.907	67425
361.991	19051
362.075	3232
362.159	7681
362.243	7953
362.327	4102
362.411	5695
362.495	3824
362.580	3302
362.664	1418
362.748	1054
362.832	2358
362.916	1866
363.000	5934
363.084	21930
363.168	70760
363.252	27792
363.336	4055
363.420	4404
363.503	12212
363.587	30706
363.671	7346
363.755	2711
363.839	3702
363.923	2814
364.007	2701
364.091	5387
364.175	5097
364.258	24419
364.342	28722
364.426	15371
364.510	13108
364.594	6257
364.677	5737
364.761	31081
364.845	53461
364.929	10085
365.013	7655
365.096	5229
365.180	7122
365.264	4553
365.347	27435
365.431	25196
365.515	4317
365.598	1944
365.682	1861
365.766	2059
365.849	4335
365.933	1926
366.017	2874
366.100	1261
366.184	1448
366.267	1637
366.351	974
366.435	1064
366.518	389
366.602	960
366.685	467
366.769	781
366.852	2171
366.936	4559
367.019	4078
367.103	2127
367.186	3129
367.270	1917
367.353	303
367.436	1624
367.520	760
367.603	1089
367.687	1768
367.770	5312
367.853	3214
367.937	6155
368.020	22415
368.104	8384
368.187	2562
368.270	5137
368.353	4407
368.437	6093
368.520	21274
368.603	19447
368.687	7880
368.770	26041
368.853	10646
368.936	3847
369.020	5107
369.103	2426
369.186	921
369.269	1246
369.352	1952
369.436	5115
369.519	3405
369.602	2335
369.685	1342
369.768	1406
369.851	1414
369.934	1733
370.018	1256
370.101	4045
370.184	3984
370.267	2762
370.350	3080
370.433	5339
370.516	13192
370.599	36472
370.682	12402
370.765	9320
370.848	13475
370.931	28579
371.014	20809
371.097	3316
371.180	2129
371.263	1361
371.346	1058
371.429	1346
371.511	1188
371.594	2500
371.677	4480
371.760	4690
371.843	4029
371.926	13260
372.009	75730
372.091	42629
372.174	9468
372.257	28862
372.340	22809
372.423	5877
372.505	8496
372.588	4667
372.671	4578
372.754	24416
372.836	25730
372.919	6546
373.002	17023
373.085	9845
373.167	4173
373.250	8972
373.332	26428
373.415	32987
373.498	94857
373.580	63037
373.663	26110
373.746	83393
373.828	27767
373.911	5469
373.993	3947
374.076	11847
374.159	22063
374.241	8912
374.324	18929
374.406	23663
374.489	13414
374.571	71983
374.654	57400
374.736	11887
374.819	35278
374.901	61528
374.983	93600
375.066	27876
375.148	4006
375.231	7507
375.313	29444
375.395	17004
375.478	4674
375.560	2551
375.643	2415
375.725	6802
375.807	43237
375.890	69157
375.972	31571
376.054	11476
376.136	18315
376.219	14367
376.301	6941
376.383	43427
376.465	35336
376.548	8718
376.630	9928
376.712	29867
376.794	33376
376.877	4033
376.959	1433
377.041	1850
377.123	2007
377.205	4371
377.287	2382
377.369	1536
377.452	1528
377.534	1233
377.616	885
377.698	1359
377.780	874
377.862	894
377.944	1525
378.026	673
378.108	1150
378.190	787
378.272	1040
378.354	414
378.436	862
378.518	1354
378.600	5501
378.682	6688
378.764	11057
378.846	18563
378.928	5309
379.010	4705
379.091	3691
379.173	1810
379.255	1836
379.337	1962
379.419	3692
379.501	20144
379.583	18054
379.664	2300
379.746	4301
379.828	11786
379.910	20189
379.991	25731
380.073	7596
380.155	2433
380.237	2322
380.318	973
380.400	2126
380.482	3051
380.564	5766
380.645	5553
380.727	6380
380.809	4053
380.890	2559
380.972	2176
381.053	2346
381.135	2198
381.217	3359
381.298	15149
381.380	13995
381.461	6031
381.543	21312
381.624	63403
381.706	19882
381.787	4553
381.869	4739
381.951	8037
382.032	56782
382.113	78770
382.195	14866
382.276	5730
382.358	7292
382.439	28406
382.521	38620
382.602	70012
382.684	46463
382.765	32973
382.846	52386
382.928	55288
383.009	52568
383.090	18686
383.172	45118
383.253	143577
383.334	74684
383.416	48047
383.497	48902
383.578	12246
383.659	14225
383.741	36026
383.822	157066
383.903	165440
383.984	36974
384.066	53467
384.147	56233
384.228	14389
384.309	5713
384.390	5323
384.471	3698
384.553	4170
384.634	5283
384.715	5734
384.796	3592
384.877	3525
384.958	8667
385.039	22814
385.120	10455
385.201	4188
385.282	4166
385.363	3701
385.444	3571
385.525	4355
385.606	16869
385.687	35478
385.768	9427
385.849	4836
385.930	14740
386.011	65722
386.092	35917
386.173	4943
386.254	1926
386.335	2526
386.416	2275
386.496	5615
386.577	16429
386.658	9517
386.739	3240
386.820	2875
386.901	2719
386.981	1992
387.062	1547
387.143	2453
387.224	9672
387.304	20244
387.385	7107
387.466	2980
387.547	3583
387.627	3232
387.708	3081
387.789	17522
387.869	43674
387.950	22434
388.031	2701
388.111	762
388.192	2601
388.273	6032
388.353	5032
388.434	3041
388.514	2896
388.595	18935
388.676	52119
388.756	26489
388.837	12307
388.917	14115
388.998	3141
389.078	2116
389.159	1613
389.239	1777
389.320	2310
389.400	2852
389.480	3410
389.561	13484
389.641	14929
389.722	3736
389.802	4144
389.883	4999
389.963	16440
390.043	23028
390.124	7455
390.204	3857
390.284	13435
390.365	16846
390.445	7643
390.525	22556
390.605	31597
390.686	13695
390.766	5123
390.846	1606
390.927	1417
391.007	1723
391.087	2115
391.167	2030
391.247	1674
391.328	3211
391.408	4290
391.488	3803
391.568	1847
391.648	1253
391.728	3545
391.808	3983
391.888	3955
391.969	4712
392.049	15826
392.129	10508
392.209	4415
392.289	17108
392.369	17586
392.449	7317
392.529	5788
392.609	3812
392.689	4669
392.769	13535
392.849	25948
392.929	9384
393.009	19882
393.089	30753
393.169	14963
393.248	26828
393.328	135061
393.408	326756
393.488	126665
393.568	22559
393.648	9461
393.728	6736
393.807	4532
393.887	4070
393.967	3730
394.047	3685
394.127	4153
394.206	4519
394.286	10787
394.366	60225
394.446	158311
394.525	53484
394.605	8859
394.685	4742
394.764	7418
394.844	14518
394.924	17898
395.003	6639
395.083	3517
395.163	4132
395.242	2502
395.322	3353
395.402	2542
395.481	2686
395.561	4094
395.640	15170
395.720	19595
395.799	16946
395.879	24340
395.958	9632
396.038	13195
396.117	77589
396.197	202369
396.276	75454
396.356	14767
396.435	9196
396.515	7139
396.594	6868
396.673	11325
396.753	26534
396.832	149928
396.912	241187
396.991	70440
397.070	13939
397.150	5229
397.229	4351
397.308	3110
397.388	6139
397.467	4952
397.546	2547
397.625	1081
397.705	2714
397.784	2462
397.863	1982
397.942	1376
398.022	2100
398.101	2165
398.180	14780
398.259	15340
398.338	4618
398.417	1968
398.497	1832
398.576	1465
398.655	1087
398.734	719
398.813	1676
398.892	2321
398.971	14898
399.050	18734
399.129	2519
399.208	420
399.287	1048
399.366	167
399.445	-75
399.524	694
399.603	418
399.682	1291
399.761	3695
399.840	14096
399.919	26217
399.998	5305
400.077	458
400.156	-435
400.235	881
400.313	-40
400.392	688
400.471	3088
400.550	13340
400.629	6929
400.708	1114
400.786	1193
400.865	1401
400.944	3327
401.023	3015
401.102	-197
401.180	-266
401.259	851
401.338	590
401.416	533
401.495	782
401.574	1199
401.652	63
401.731	607
401.810	1161
401.888	585
401.967	-549
402.046	-107
402.124	-22
402.203	1716
402.281	1547
402.360	604
402.438	3151
402.517	4600
402.596	1249
402.674	812
402.753	253
402.831	-105
402.910	464
402.988	1427
403.066	13008
403.145	18844
403.223	4490
403.302	10440
403.380	13805
403.459	9718
403.537	7435
403.615	1679
403.694	709
403.772	415
403.850	-338
403.929	392
404.007	-361
404.085	1103
404.164	2152
404.242	130
404.320	1304
404.398	726
404.477	2720
404.555	24727
404.633	64643
404.711	17797
404.789	1488
404.868	987
404.946	988
405.024	193
405.102	-298
405.180	7
405.258	-542
405.336	553
405.415	666
405.493	1101
405.571	1924
405.649	266
405.727	35
405.805	1058
405.883	399
405.961	850
406.039	1138
406.117	915
406.195	941
406.273	2928
406.351	25838
406.429	40538
406.507	8062
406.585	113
406.663	1102
406.740	648
406.818	1102
406.896	712
406.974	484
407.052	506
407.130	8578
407.208	35664
407.285	16450
407.363	1435
407.441	725
407.519	-121
407.596	544
407.674	1430
407.752	6287
407.830	14367
407.907	5684
407.985	1233
408.063	58
408.141	-348
408.218	349
408.296	1130
408.373	245
408.451	3
408.529	540
408.606	-461
408.684	-263
408.762	-611
408.839	-633
408.917	-473
408.994	-575
409.072	-54
409.149	78
409.227	-472
409.304	562
409.382	322
409.459	-311
409.537	978
409.614	1007
409.692	519
409.769	568
409.846	489
409.924	1691
410.001	637
410.079	832
410.156	423
410.233	-113
410.311	-265
410.388	-237
410.465	-574
410.543	-263
410.620	467
410.697	-391
410.775	-560
410.852	-310
410.929	212
411.006	977
411.083	-57
411.161	636
411.238	1891
411.315	1022
411.392	-453
411.469	-359
411.547	889
411.624	213
411.701	-450
411.778	26
411.855	1285
411.932	1497
412.009	234
412.086	-157
412.163	-196
412.240	-155
412.317	273
412.394	646
412.471	466
412.548	-490
412.625	-384
412.702	-66
412.779	336
412.856	745
412.933	97
413.010	-822
413.087	-512
413.164	1577
413.241	10822
413.318	5227
413.395	516
413.471	952
413.548	1211
413.625	-346
413.702	-175
413.779	245
413.855	-462
413.932	-90
414.009	-761
414.086	-57
414.162	-802
414.239	-286
414.316	2401
414.393	12959
414.469	12771
414.546	1156
414.623	-180
414.699	-1097
414.776	-540
414.853	-415
414.929	-529
415.006	-548
415.082	-258
415.159	-359
415.236	-17
415.312	-811
415.389	-320
415.465	1799
415.542	1081
415.618	-622
415.695	381
415.771	470
415.848	215
415.924	-308
416.000	47
416.077	-434
416.153	-1016
416.230	-560
416.306	-976
416.383	-441
416.459	-351
416.535	-1008
416.612	-939
416.688	-571
416.764	-916
416.841	-395
416.917	-210
416.993	-1000
417.069	-456
417.146	931
417.222	575
417.298	319
417.374	-257
417.451	10
417.527	-604
417.603	854
417.679	58
417.755	232
417.831	-757
417.908	-282
417.984	-69
418.060	-692
418.136	-264
418.212	2083
418.288	881
418.364	-97
418.440	-1063
418.516	331
418.592	-96
418.668	1935
418.744	3268
418.820	5256
418.896	1112
418.972	-200
419.048	-1017
419.124	334
419.200	2080
419.276	472
419.352	-681
419.428	-467
419.504	-862
419.579	-435
419.655	386
419.731	-198
419.807	349
419.883	3931
419.959	5690
420.034	2626
420.110	549
420.186	4815
420.262	12884
420.337	4141
420.413	50
420.489	321
420.565	-446
420.640	-745
420.716	256
420.792	-235
420.867	-639
420.943	212
421.019	-112
421.094	1072
421.170	327
421.245	-1029
421.321	622
421.397	257
421.472	827
421.548	3002
421.623	6837
421.699	2060
421.774	701
421.850	536
421.925	869
422.001	2137
422.076	1304
422.152	740
422.227	1376
422.302	3564
422.378	3820
422.453	6214
422.529	12349
422.604	35809
422.679	117220
422.755	138802
422.830	52858
422.905	15620
422.981	7337
423.056	4127
423.131	2835
423.207	1877
423.282	769
423.357	2222
423.432	3452
423.508	1786
423.583	3986
423.658	7411
423.733	2445
423.808	1094
423.883	1084
423.959	1247
424.034	1279
424.109	1071
424.184	-336
424.259	-114
424.334	-1023
424.409	-1042
424.484	130
424.559	-249
424.634	-938
424.709	288
424.784	1346
424.859	655
424.934	173
425.009	2922
425.084	11408
425.159	12020
425.234	1883
425.309	-38
425.384	162
425.459	1481
425.534	1112
425.609	179
425.683	-632
425.758	-590
425.833	-680
425.908	-56
425.983	1183
426.058	9135
426.132	14367
426.207	2427
426.282	1159
426.357	1217
426.431	116
426.506	692
426.581	-774
426.655	-297
426.730	-558
426.805	-26
426.879	-50
426.954	287
427.029	585
427.103	5213
427.178	24551
427.253	36544
427.327	7602
427.402	-107
427.476	2268
427.551	3049
427.625	1072
427.700	228
427.774	114
427.849	225
427.923	-343
427.998	647
428.072	-12
428.147	1128
428.221	2570
428.296	15798
428.370	26273
428.444	7153
428.519	1472
428.593	2888
428.667	4572
428.742	4192
428.816	5485
428.890	6890
428.965	24070
429.039	21099
429.113	5985
429.188	5082
429.262	512
429.336	247
429.410	3838
429.485	7424
429.559	3866
429.633	4444
429.707	1362
429.781	1320
429.855	6152
429.930	27793
430.004	26884
430.078	18382
430.152	25959
430.226	23070
430.300	50264
430.374	26101
430.448	2856
430.522	2829
430.596	13657
430.670	24905
430.744	15998
430.818	53001
430.892	43794
430.966	5671
431.040	1117
431.114	217
431.188	-542
431.262	-69
431.336	413
431.410	387
431.484	2335
431.557	9088
431.631	2721
431.705	-177
431.779	815
431.853	9725
431.927	27051
432.000	11609
432.074	865
432.148	160
432.222	249
432.295	656
432.369	-94
432.443	-183
432.516	3906
432.590	26206
432.664	39985
432.737	8824
432.811	452
432.885	-333
432.958	-569
433.032	-742
433.106	-649
433.179	-158
433.253	-739
433.326	-127
433.400	-1088
433.473	-445
433.547	-1273
433.620	-845
433.694	93
433.767	1458
433.841	345
433.914	158
433.988	-297
434.061	-869
434.134	-431
434.208	-681
434.281	-1179
434.355	-739
434.428	-489
434.501	-449
434.575	-1068
434.648	-1135
434.721	-737
434.795	-742
434.868	-1000
434.941	-1003
435.014	-1001
435.088	-1071
435.161	-541
435.234	226
435.307	1911
435.381	1934
435.454	309
435.527	152
435.600	760
435.673	589
435.746	394
435.819	221
435.892	-299
435.966	-261
436.039	-241
436.112	-191
436.185	-728
436.258	-847
436.331	-1007
436.404	-283
436.477	-362
436.550	-749
436.623	-596
436.696	-530
436.769	-769
436.842	-458
436.915	189
436.987	616
437.060	382
437.133	-372
437.206	-1151
437.279	-429
437.352	-465
437.425	-470
437.498	367
437.570	688
437.643	1869
437.716	1491
437.789	244
437.861	13
437.934	2929
438.007	7496
438.080	2562
438.152	363
438.225	176
438.298	5193
438.370	41211
438.443	74331
438.516	22158
438.588	5442
438.661	397
438.734	-630
438.806	210
438.879	674
438.951	262
439.024	2208
439.096	3071
439.169	842
439.241	100
439.314	-1215
439.386	-393
439.459	1099
439.531	2659
439.604	3681
439.676	1180
439.749	-381
439.821	7
439.893	-604
439.966	-207
440.038	-166
440.110	1720
440.183	1014
440.255	15
440.327	683
440.400	2031
440.472	17498
440.544	52463
440.617	24787
440.689	3482
440.761	2631
440.833	4893
440.905	7855
440.978	4172
441.050	616
441.122	-329
441.194	-397
441.266	-358
441.338	-75
441.411	9
441.483	2975
441.555	20497
441.627	22520
441.699	4293
441.771	2078
441.843	1490
441.915	434
441.987	-362
442.059	22
442.131	-487
442.203	1477
442.275	2421
442.347	3627
442.419	3105
442.491	5502
442.563	26120
442.635	47852
442.706	21757
442.778	13708
442.850	8529
442.922	1941
442.994	719
443.066	1802
443.137	2877
443.209	2546
443.281	1991
443.353	4170
443.425	10115
443.496	37670
443.568	98321
443.640	86605
443.711	32832
443.783	6938
443.855	2648
443.926	2337
443.998	1285
444.070	1744
444.141	2222
444.213	2040
444.285	3782
444.356	4305
444.428	4134
444.499	2699
444.571	1068
444.642	520
444.714	411
444.785	1648
444.857	3026
444.928	4944
445.000	9684
445.071	6286
445.143	7488
445.214	8023
445.285	6373
445.357	11890
445.428	30128
445.500	87584
445.571	148740
445.642	100343
445.714	49690
445.785	23222
445.856	16471
445.928	6884
445.999	5501
446.070	5022
446.141	3934
446.213	3937
446.284	4051
446.355	2705
446.426	2093
446.497	1524
446.569	1213
446.640	3537
446.711	6141
446.782	4658
446.853	1128
446.924	2249
446.995	2072
447.066	1736
447.138	1665
447.209	3468
447.280	1017
447.351	269
447.422	59
447.493	435
447.564	1188
447.635	2486
447.706	3819
447.777	1537
447.847	172
447.918	-136
447.989	-317
448.060	1610
448.131	2951
448.202	6709
448.273	7218
448.344	5168
448.414	828
448.485	725
448.556	1335
448.627	-197
448.698	57
448.768	-371
448.839	-322
448.910	959
448.981	3060
449.051	3233
449.122	1578
449.193	698
449.263	-61
449.334	74
449.405	251
449.475	2824
449.546	5819
449.616	4679
449.687	4390
449.758	3489
449.828	315
449.899	684
449.969	506
450.040	222
450.110	868
450.181	1022
450.251	1173
450.322	363
450.392	-92
450.463	605
450.533	590
450.604	636
450.674	-134
450.744	513
450.815	459
450.885	899
450.955	480
451.026	718
451.096	530
451.166	753
451.237	1907
451.307	6483
451.377	11955
451.447	4501
451.518	618
451.588	998
451.658	775
451.728	861
451.799	3052
451.869	15632
451.939	14233
452.009	3181
452.079	100
452.149	903
452.219	744
452.289	5526
452.360	16196
452.430	11990
452.500	2550
452.570	1844
452.640	3038
452.710	5872
452.780	15386
452.850	19708
452.920	16549
452.990	14761
453.060	4552
453.129	3298
453.199	4755
453.269	6628
453.339	40683
453.409	74794
453.479	63499
453.549	64634
453.619	95005
453.688	89485
453.758	36202
453.828	4783
453.898	2136
453.968	1599
454.037	1951
454.087	1759
454.107	1675
454.168	944
454.177	835
454.247	1978
454.249	1937
454.316	805
454.330	1050
454.386	1976
454.411	2109
454.456	2162
454.492	6362
454.525	10095
454.574	11330
454.595	11944
454.655	4909
454.665	3778
454.734	1528
454.736	1568
454.804	2358
454.817	3107
454.873	5830
454.898	10021
454.943	17521
454.979	17458
455.013	17631
455.060	10411
455.082	7229
455.141	3118
455.152	2334
455.221	4079
455.222	4225
455.291	12810
455.303	13840
455.360	19153
455.384	16893
455.430	12085
455.465	11958
455.499	12043
455.546	11409
455.569	10825
455.627	13715
455.638	14422
455.707	9564
455.708	9517
455.777	1644
455.789	1599
455.846	1252
455.869	1240
455.916	1273
455.950	1130
455.985	944
456.031	1509
456.054	1773
456.112	1237
456.124	1138
456.193	1336
456.193	1331
456.262	863
456.274	1037
456.332	1882
456.355	2148
456.401	2232
456.436	2437
456.470	2768
456.516	1760
456.540	1254
456.597	907
456.609	878
456.678	1314
456.678	1310
456.747	680
456.759	710
456.817	1092
456.840	1030
456.886	775
456.920	1099
456.955	1435
457.001	1034
457.024	922
457.082	1511
457.093	1635
457.162	2532
457.163	2550
457.232	3241
457.243	3213
457.301	3276
457.324	2837
457.370	2141
457.405	1606
457.439	1166
457.485	1442
457.508	1508
457.566	1247
457.577	1275
457.646	1762
457.647	1783
457.715	3587
457.727	3868
457.784	5834
457.808	6963
457.853	7692
457.889	10204
457.922	11781
457.969	12846
457.991	14637
458.050	13385
458.060	13294
458.129	15822
458.130	16032
458.198	16776
458.211	16940
458.267	20284
458.292	17135
458.336	12840
458.372	9393
458.405	7381
458.453	7733
458.474	8692
458.533	14166
458.543	14406
458.611	20608
458.614	21130
458.680	26327
458.694	24632
458.749	23445
458.775	17993
458.818	9856
458.855	6921
458.887	4477
458.936	3538
458.955	3182
459.016	2705
459.024	2659
459.093	3026
459.097	3016
459.162	2465
459.177	2471
459.230	3061
459.257	3450
459.299	3435
459.338	3469
459.368	3684
459.418	3916
459.437	3840
459.499	3796
459.505	3821
459.574	3669
459.579	3552
459.643	2351
459.659	2401
459.711	2780
459.740	2831
459.780	2677
459.820	2976
459.849	3309
459.900	3680
459.917	3725
459.981	3862
459.986	3854
460.054	3942
460.061	3899
460.123	3734
460.141	3635
460.191	4151
460.222	4836
460.260	5385
460.302	6258
460.328	6065
460.382	5987
460.397	6158
460.462	4919
460.465	4943
460.534	5666
460.543	5827
460.602	10597
460.623	12429
460.671	20602
460.703	27236
460.739	22229
460.783	21746
460.808	23108
460.864	14918
460.876	14426
460.944	4588
460.945	4479
461.013	2695
461.024	2758
461.081	3146
461.104	3416
461.150	3401
461.184	2939
461.218	2827
461.264	3077
461.286	3133
461.345	2477
461.355	2387
461.423	2836
461.425	2831
461.491	2560
461.505	2702
461.559	4584
461.585	5099
461.628	7495
461.665	10324
461.696	10982
461.745	13833
461.764	13008
461.825	10807
461.832	11219
461.901	7320
461.905	7048
461.969	3346
461.985	3309
462.037	2816
462.065	2671
462.105	3280
462.145	3348
462.173	3898
462.225	5643
462.241	6175
462.305	8571
462.310	8347
462.378	7718
462.385	7331
462.446	7080
462.465	5927
462.514	3726
462.545	3560
462.582	3321
462.625	3206
462.650	2912
462.705	2699
462.718	2931
462.785	3845
462.786	3850
462.854	3879
462.865	3901
462.922	4573
462.945	5280
462.990	4868
463.025	4214
463.058	4346
463.104	3476
463.126	3203
463.184	2794
463.194	2816
463.262	3294
463.264	3334
463.330	3487
463.344	3426
463.398	3650
463.424	3781
463.466	3533
463.504	3159
463.533	3221
463.583	3692
463.601	3817
463.663	3653
463.669	3739
463.737	5049
463.743	5190
463.805	7000
463.823	7514
463.873	10967
463.903	13162
463.940	13443
463.982	14665
464.008	12566
464.062	8280
464.076	8494
464.142	5402
464.144	5342
464.211	3298
464.221	3319
464.279	3430
464.301	3528
464.347	3666
464.381	3834
464.414	4128
464.461	4504
464.482	4653
464.540	5193
464.550	5106
464.617	4651
464.620	4618
464.685	5631
464.699	5803
464.753	5568
464.779	5684
464.820	6219
464.859	6543
464.888	6356
464.938	6105
464.956	6103
465.018	5862
465.023	5753
465.091	4538
465.098	4402
465.158	4519
465.177	4534
465.226	4594
465.257	4642
465.293	5222
465.336	5935
465.361	6071
465.416	6369
465.428	6656
465.495	8303
465.496	8337
465.563	12564
465.575	13283
465.631	15964
465.654	17476
465.698	11633
465.734	6615
465.765	6730
465.813	5536
465.833	5166
465.893	4357
465.900	4258
465.968	4255
465.972	4256
466.035	4402
466.052	4433
466.102	4729
466.131	4884
466.170	4775
466.210	4698
466.237	4718
466.290	4767
466.304	4891
466.369	5310
466.372	5337
466.439	6168
466.449	6269
466.506	6434
466.528	6524
466.573	8363
466.607	9700
466.641	13676
466.687	19236
466.708	21113
466.766	26329
466.775	24536
466.842	11513
466.845	10886
466.909	8536
466.925	7881
466.977	6564
467.004	6119
467.044	6122
467.083	6221
467.111	6797
467.163	7874
467.178	7971
467.242	8368
467.245	8317
467.312	7164
467.321	7011
467.379	6970
467.400	6941
467.446	7286
467.480	7531
467.559	7392
467.638	5506
467.717	6273
467.796	7017
467.875	8075
467.955	6789
468.034	9851
468.113	21214
468.192	30150
468.271	7867
468.350	7587
468.429	8371
468.508	9072
468.588	6566
468.667	6127
468.746	5831
468.825	5167
468.904	4857
468.983	6089
469.062	9182
469.141	11187
469.220	4974
469.299	5632
469.378	5253
469.456	6543
469.535	6139
469.614	5152
469.693	5758
469.772	8245
469.851	10719
469.930	6902
470.009	6164
470.088	6312
470.166	8369
470.245	14042
470.324	16207
470.403	9107
470.482	6557
470.560	6284
470.639	5902
470.718	7833
470.797	5523
470.875	6327
470.954	9243
471.033	9249
471.111	4530
471.190	4754
471.269	4295
471.347	4730
471.426	4671
471.505	5967
471.583	5909
471.662	5293
471.740	5213
471.819	4808
471.898	4953
471.976	5273
472.055	4169
472.133	5767
472.212	7175
472.290	7174
472.369	4817
472.447	4687
472.526	3749
472.604	5350
472.683	5098
472.761	5747
472.839	5265
472.918	5424
472.996	4710
473.075	5743
473.153	4475
473.231	4805
473.310	5223
473.388	5789
473.466	5238
473.545	6240
473.623	8320
473.701	8237
473.780	5149
473.858	5385
473.936	4968
474.014	4962
474.093	5422
474.171	7627
474.249	10511
474.327	6438
474.405	4209
474.484	4529
474.562	4699
474.640	4643
474.718	4617
474.796	5273
474.874	5049
474.952	4542
475.030	3804
475.108	4677
475.187	5097
475.265	6276
475.343	10057
475.421	10488
475.499	4383
475.577	4496
475.655	5665
475.733	11068
475.811	18611
475.889	18370
475.966	10095
476.044	5259
476.122	7526
476.200	9253
476.278	6125
476.356	4347
476.434	5228
476.512	5913
476.590	9632
476.667	7016
476.745	4609
476.823	5009
476.901	3749
476.979	5289
477.056	4508
477.134	4764
477.212	4319
477.290	4936
477.367	4001
477.445	3658
477.523	3981
477.601	4662
477.678	4545
477.756	5387
477.834	5362
477.911	4105
477.989	4398
478.066	4134
478.144	5669
478.222	6371
478.299	11861
478.377	8799
478.454	4002
478.532	3818
478.609	3627
478.687	4955
478.764	4441
478.842	4782
478.919	4978
478.997	4659
479.074	3179
479.152	4868
479.229	6385
479.307	4246
479.384	3341
479.461	3621
479.539	3566
479.616	5813
479.694	4417
479.771	4591
479.848	4948
479.926	7084
480.003	6671
480.080	3563
480.157	3037
480.235	4096
480.312	3438
480.389	4658
480.467	7143
480.544	9102
480.621	3495
480.698	4381
480.775	5697
480.853	4619
480.930	3800
481.007	5212
481.084	5365
481.161	6289
481.238	3982
481.315	3587
481.392	3752
481.470	4338
481.547	3855
481.624	4668
481.701	4026
481.778	4288
481.855	4291
481.932	5426
482.009	11077
482.086	6546
482.163	5119
482.240	8111
482.317	16149
482.393	9259
482.470	4835
482.547	4087
482.624	3489
482.701	5696
482.778	4388
482.855	4216
482.932	3560
483.009	3425
483.085	5029
483.162	5867
483.239	5622
483.316	5227
483.393	4212
483.469	4240
483.546	4627
483.623	3673
483.699	3615
483.776	3238
483.853	4847
483.930	7223
484.006	15665
484.083	28479
484.160	12820
484.236	18495
484.313	14466
484.389	11318
484.466	9857
484.543	10134
484.619	10174
484.696	11342
484.772	10289
484.849	10990
484.925	8955
485.002	8697
485.078	9549
485.155	9291
485.231	8140
485.308	8270
485.384	9169
485.461	11246
485.537	17154
485.614	19559
485.690	8745
485.766	8711
485.843	9427
485.919	14303
485.995	14381
486.072	8329
486.148	7124
486.224	7721
486.301	7774
486.377	9082
486.453	10595
486.530	9221
486.606	11581
486.682	12809
486.758	14815
486.835	17299
486.911	14883
486.987	24382
487.063	27900
487.139	37585
487.215	24110
487.292	10005
487.368	9353
487.444	9486
487.520	12538
487.596	12775
487.672	19122
487.748	51943
487.824	75487
487.900	20043
487.976	10307
488.052	11257
488.128	12784
488.204	10694
488.280	7945
488.356	10983
488.432	19216
488.508	29559
488.584	10880
488.660	8672
488.736	8175
488.812	8725
488.888	11004
488.964	15790
489.039	36708
489.115	58189
489.191	27699
489.267	8497
489.343	7600
489.418	7326
489.494	7810
489.570	6202
489.646	6632
489.722	6767
489.797	6581
489.873	10438
489.949	22818
490.024	16820
490.100	6280
490.176	6815
490.251	8439
490.327	12759
490.403	6800
490.478	6242
490.554	4614
490.629	5412
490.705	4997
490.781	6170
490.856	5785
490.932	7946
491.007	7315
491.083	7330
491.158	6323
491.234	8081
491.309	16910
491.385	16152
491.460	5461
491.536	6477
491.611	5721
491.686	6656
491.762	10102
491.837	23700
491.913	37899
491.988	53204
492.063	66849
492.139	15000
492.214	8505
492.289	5095
492.365	5637
492.440	6559
492.515	5871
492.590	6136
492.666	4287
492.741	6936
492.816	10413
492.891	5081
492.967	5182
493.042	5024
493.117	4634
493.192	5200
493.267	7357
493.342	16876
493.418	19289
493.493	5496
493.568	3855
493.643	4885
493.718	7035
493.793	9740
493.868	11363
493.943	7659
494.018	4423
494.093	4439
494.168	3864
494.243	5436
494.318	4306
494.393	4018
494.468	3341
494.543	4653
494.618	6002
494.693	4690
494.768	3899
494.842	5077
494.917	4249
494.992	4677
495.067	3977
495.142	4246
495.217	4151
495.292	4277
495.366	5307
495.441	7602
495.516	7776
495.591	15177
495.665	50465
495.740	126809
495.815	38417
495.890	7524
495.964	5385
496.039	5761
496.114	5647
496.188	6644
496.263	6880
496.338	4932
496.412	6142
496.487	8228
496.561	7921
496.636	8623
496.710	5836
496.785	7084
496.860	7806
496.934	6553
497.009	6067
497.083	6586
497.158	7467
497.232	7871
497.307	9047
497.381	7620
497.455	8754
497.530	10992
497.604	8122
497.679	8723
497.753	13441
497.827	17402
497.902	15945
497.976	19908
498.050	44618
498.125	165355
498.199	154293
498.273	30048
498.348	21892
498.422	16514
498.496	14945
498.570	13074
498.645	8065
498.719	8955
498.793	10166
498.867	15309
498.941	22975
499.016	61520
499.090	174771
499.164	46160
499.238	7370
499.312	7058
499.386	9235
499.460	7811
499.534	6558
499.609	8390
499.683	12164
499.757	12431
499.831	27943
499.905	109197
499.979	93245
500.053	14854
500.127	14541
500.201	12507
500.275	7261
500.349	6997
500.422	8102
500.496	13045
500.570	30636
500.644	58587
500.718	112830
500.792	19046
500.866	7508
500.940	8238
501.013	6199
501.087	7024
501.161	13732
501.235	17212
501.309	32307
501.382	93524
501.456	73365
501.530	16700
501.603	29480
501.677	10192
501.751	5434
501.825	7567
501.898	12651
501.972	35889
502.046	19255
502.119	8123
502.193	16627
502.266	40988
502.340	17003
502.413	17369
502.487	33333
502.561	18207
502.634	6285
502.708	6273
502.781	5462
502.855	3830
502.928	3377
503.002	3521
503.075	3967
503.149	4064
503.222	3570
503.295	4240
503.369	5292
503.442	8190
503.516	25185
503.589	66940
503.662	40132
503.736	13199
503.809	30568
503.882	23850
503.956	37344
504.029	34699
504.102	30875
504.175	39657
504.249	10294
504.322	6529
504.395	6035
504.468	4734
504.542	4336
504.615	3728
504.688	2599
504.761	4096
504.834	4511
504.907	6092
504.980	11032
505.053	5525
505.127	7081
505.200	6745
505.273	6108
505.346	3601
505.419	3400
505.492	2725
505.565	2263
505.638	3150
505.711	3079
505.784	2742
505.857	1499
505.930	3165
506.003	2014
506.076	3829
506.149	3831
506.221	5542
506.294	5461
506.367	15353
506.440	49045
506.513	23596
506.586	5202
506.659	4295
506.731	3463
506.804	4192
506.877	6461
506.950	3425
507.022	3195
507.095	4500
507.168	5002
507.241	3473
507.313	2170
507.386	3640
507.459	5849
507.531	3259
507.604	2576
507.677	3013
507.749	2432
507.822	4571
507.894	9720
507.967	9397
508.040	5243
508.112	4768
508.185	4311
508.257	4415
508.330	6899
508.402	4643
508.475	3574
508.547	4309
508.620	4731
508.692	7024
508.765	3757
508.837	2643
508.909	3624
508.982	3477
509.054	4860
509.127	3456
509.199	3266
509.271	2627
509.344	3021
509.416	3156
509.488	2359
509.560	3498
509.633	4060
509.705	5145
509.777	3854
509.849	6631
509.922	3447
509.994	3371
510.066	3565
510.138	3517
510.210	6482
510.283	6571
510.355	5222
510.427	4835
510.499	4400
510.571	4645
510.643	4701
510.715	8627
510.787	6653
510.859	4766
510.931	5125
511.003	7889
511.076	6030
511.148	4588
511.219	3692
511.291	6705
511.363	6774
511.435	3260
511.507	4296
511.579	2974
511.651	3842
511.723	3743
511.795	2839
511.867	4409
511.939	4175
512.010	8772
512.082	6965
512.154	4444
512.226	4596
512.298	5706
512.369	8936
512.441	6582
512.513	7076
512.585	4657
512.656	4598
512.728	6090
512.800	4799
512.871	4608
512.943	4900
513.015	3761
513.086	3997
513.158	5497
513.230	5268
513.301	8192
513.373	9839
513.444	5444
513.516	3966
513.588	4468
513.659	4670
513.731	6690
513.802	5592
513.874	12596
513.945	23650
514.016	6645
514.088	4294
514.159	5504
514.231	7252
514.302	8543
514.374	5516
514.445	5899
514.516	10510
514.588	7357
514.659	5781
514.730	10154
514.802	8121
514.873	7398
514.944	6654
515.016	6045
515.087	6520
515.158	7996
515.229	9728
515.301	7411
515.372	7738
515.443	5489
515.514	5132
515.585	4224
515.656	4192
515.728	3893
515.799	4053
515.870	4300
515.941	4988
516.012	5310
516.083	6357
516.154	6228
516.225	10730
516.296	8483
516.367	7240
516.438	8102
516.509	13330
516.580	23207
516.651	68960
516.722	236865
516.793	87827
516.864	14842
516.935	13636
517.006	17916
517.077	30097
517.148	82325
517.219	273925
517.289	405122
517.360	76565
517.431	22987
517.502	8935
517.573	8656
517.643	7883
517.714	8395
517.785	8094
517.856	8545
517.926	8960
517.997	10445
518.068	16637
518.138	26766
518.209	57126
518.280	190028
518.350	650062
518.421	211495
518.492	21719
518.562	12382
518.633	11445
518.703	12486
518.774	19117
518.845	43956
518.915	41148
518.986	13293
519.056	11547
519.127	20820
519.197	29926
519.268	53573
519.338	31818
519.408	8695
519.479	11443
519.549	9724
519.620	5758
519.690	4475
519.760	4877
519.831	4878
519.901	4608
519.971	4426
520.042	4755
520.112	5679
520.182	5672
520.253	7324
520.323	3773
520.393	6070
520.463	8840
520.534	6227
520.604	11537
520.674	5953
520.744	6479
520.814	13409
520.885	14686
520.955	16788
521.025	59020
521.095	22923
521.165	3919
521.235	4471
521.305	3487
521.375	4325
521.445	4109
521.515	6424
521.585	7507
521.655	7292
521.725	5730
521.795	5956
521.865	2744
521.935	5891
522.005	5228
522.075	3451
522.145	3347
522.215	4448
522.285	6388
522.355	8101
522.424	14795
522.494	13732
522.564	9123
522.634	18000
522.704	50869
522.774	18186
522.843	4666
522.913	4905
522.983	5144
523.053	4556
523.122	4462
523.192	9352
523.262	26956
523.331	27728
523.401	4056
523.471	3196
523.540	3788
523.610	2206
523.680	2560
523.749	3141
523.819	3627
523.888	4041
523.958	2929
524.027	2913
524.097	4520
524.166	2882
524.236	3113
524.305	3508
524.375	3484
524.444	2925
524.514	2820
524.583	3607
524.653	4643
524.722	4479
524.791	2408
524.861	3769
524.930	3388
524.999	3271
525.069	4836
525.138	4685
525.207	5280
525.277	3808
525.346	3103
525.415	3160
525.484	4188
525.554	4479
525.623	3529
525.692	4220
525.761	3258
525.830	3213
525.900	5038
525.969	7623
526.038	14950
526.107	29204
526.176	79026
526.245	64248
526.314	22069
526.383	42809
526.452	60517
526.522	92028
526.591	94679
526.660	28130
526.729	13517
526.797	18809
526.867	44612
526.935	161365
527.004	242390
527.073	124533
527.142	9911
527.211	6167
527.280	6003
527.349	6001
527.418	2894
527.487	3570
527.555	3123
527.624	3033
527.693	2653
527.762	2455
527.831	2733
527.899	3632
527.968	2957
528.037	3218
528.106	3544
528.174	8186
528.243	6291
528.312	8353
528.380	11736
528.449	3939
528.518	2763
528.586	1686
528.655	2246
528.723	2554
528.792	1640
528.861	2843
528.929	1157
528.998	2776
529.066	1494
529.135	1274
529.203	2235
529.272	1839
529.340	1596
529.409	2574
529.477	2446
529.545	2628
529.614	3470
529.682	4104
529.751	3793
529.819	4578
529.887	3066
529.956	2899
530.024	2720
530.092	2505
530.161	3441
530.229	6048
530.297	3536
530.365	2676
530.434	2291
530.502	2413
530.570	1791
530.638	1428
530.707	3139
530.775	2748
530.843	1964
530.911	2146
530.979	1095
531.047	2017
531.115	1782
531.183	1675
531.252	1987
531.320	2217
531.388	1738
531.456	1975
531.524	1476
531.592	2378
531.660	2504
531.728	1795
531.796	1297
531.864	1696
531.932	2701
532.000	1528
532.067	1977
532.135	3526
532.203	3350
532.271	4028
532.339	5836
532.407	20108
532.475	12117
532.542	4066
532.610	6378
532.678	11973
532.746	36330
532.814	94892
532.881	22105
532.949	4065
533.017	3267
533.084	2325
533.152	2255
533.220	2004
533.287	3189
533.355	1665
533.423	2522
533.490	2028
533.558	2129
533.625	3316
533.693	3130
533.761	3298
533.828	2712
533.896	3145
533.963	7467
534.031	7975
534.098	11530
534.166	6045
534.233	2800
534.300	3205
534.368	2434
534.435	1998
534.503	1953
534.570	2785
534.637	3122
534.705	3650
534.772	4746
534.840	10579
534.907	33542
534.974	47324
535.041	5786
535.109	4123
535.176	2828
535.243	1980
535.310	2440
535.378	2614
535.445	1493
535.512	2654
535.579	2273
535.646	2147
535.714	1863
535.781	3190
535.848	3385
535.915	2331
535.982	2974
536.049	2580
536.116	2970
536.183	3014
536.250	3229
536.317	3564
536.384	3950
536.451	6535
536.518	7513
536.585	4986
536.652	5528
536.719	8557
536.786	7391
536.853	5521
536.920	6527
536.987	14777
537.053	15203
537.120	41735
537.187	40885
537.254	3972
537.321	2648
537.388	3485
537.454	3314
537.521	2184
537.588	2181
537.654	3353
537.721	3559
537.788	3913
537.855	2836
537.921	2751
537.988	2653
538.055	3001
538.121	2591
538.188	4053
538.254	6109
538.321	14128
538.388	8704
538.454	2983
538.521	3456
538.587	2357
538.654	2140
538.720	3320
538.787	2517
538.853	3137
538.920	4078
538.986	4445
539.053	2982
539.119	3470
539.185	4475
539.252	4199
539.318	7309
539.385	4941
539.451	4570
539.517	5018
539.583	6790
539.650	12621
539.716	32804
539.782	9930
539.849	4387
539.915	3941
539.981	3164
540.047	5284
540.114	3381
540.180	4753
540.246	4376
540.312	6964
540.378	13628
540.444	15703
540.510	13939
540.576	37077
540.643	12830
540.709	3458
540.775	2175
540.841	3367
540.907	4649
540.973	7488
541.039	6961
541.105	8202
541.171	3990
541.237	3329
541.303	3726
541.369	5382
541.435	6378
541.500	11824
541.566	8426
541.632	3770
541.698	2770
541.764	3086
541.830	2247
541.896	2974
541.961	3317
542.027	3274
542.093	3203
542.159	3508
542.224	4524
542.290	7052
542.356	11505
542.421	15398
542.487	5722
542.553	3392
542.618	4300
542.684	4215
542.750	3810
542.815	5885
542.881	10155
542.947	31013
543.012	25282
543.078	3317
543.143	2554
543.209	4021
543.274	4225
543.340	5571
543.405	11711
543.471	20370
543.536	4191
543.602	3632
543.667	2858
543.732	3480
543.798	3145
543.863	3367
543.928	2750
543.994	2676
544.059	2940
544.124	3578
544.190	3304
544.255	3312
544.320	2706
544.386	3544
544.451	6245
544.516	8067
544.581	8581
544.646	18378
544.712	32666
544.777	6516
544.842	4544
544.907	4596
544.972	3996
545.037	4602
545.102	4334
545.168	4372
545.233	4283
545.298	5028
545.363	5918
545.428	7906
545.493	12495
545.558	26463
545.623	11884
545.688	4991
545.753	4244
545.818	4893
545.883	4919
545.947	4504
546.012	5491
546.077	3996
546.142	5125
546.207	4872
546.272	6818
546.337	7903
546.401	5626
546.466	6097
546.531	4990
546.596	6587
546.661	5323
546.725	6093
546.790	5176
546.855	6020
546.919	5611
546.984	7294
547.049	6972
547.113	7839
547.178	8505
547.243	10290
547.307	10872
547.372	12851
547.436	12940
547.501	12132
547.565	13095
547.630	13554
547.695	13116
547.759	13179
547.823	11560
547.888	11422
547.952	12233
548.017	12812
548.081	14166
548.146	15152
548.210	15147
548.274	13200
548.339	12404
548.403	12183
548.468	11692
548.532	11437
548.596	11237
548.660	11901
548.725	13883
548.789	16029
548.853	14652
548.917	13229
548.982	14418
549.046	13803
549.110	10562
549.174	11125
549.238	10842
549.303	11873
549.367	13942
549.431	13197
549.495	12958
549.559	11844
549.623	14345
549.687	15797
549.751	18058
549.815	18277
549.879	17898
549.943	17366
550.007	18958
550.071	17898
550.135	17716
550.199	16099
550.263	14835
550.327	15605
550.391	15803
550.455	16984
550.519	17041
550.582	19006
550.646	21605
550.710	23402
550.774	19587
550.838	20258
550.901	20217
550.965	21565
551.029	21660
551.093	26166
551.156	28032
551.220	36113
551.284	44465
551.347	31611
551.411	31583
551.475	34145
551.538	23166
551.602	20642
551.666	18671
551.729	17634
551.793	17802
551.856	16562
551.920	16958
551.983	17014
552.047	16541
552.110	16772
552.174	16723
552.237	17596
552.301	16371
552.364	15541
552.428	14698
552.491	15994
552.554	15703
552.618	16820
552.681	18125
552.745	18868
552.808	25368
552.871	31893
552.934	21367
552.998	17860
553.061	16444
553.124	16547
553.187	14688
553.251	16192
553.314	16220
553.377	16423
553.440	18233
553.503	21083
553.567	26325
553.630	17224
553.693	16981
553.756	15623
553.819	16694
553.882	16738
553.945	15372
554.008	15979
554.071	15127
554.134	15702
554.197	14840
554.260	14795
554.323	15693
554.386	15617
554.449	15809
554.512	16023
554.575	15410
554.638	16021
554.701	15645
554.764	15358
554.827	14215
554.889	14020
554.952	13530
555.015	12490
555.078	13928
555.141	14367
555.203	13102
555.266	13136
555.329	12827
555.391	13296
555.454	13257
555.517	13077
555.580	11347
555.642	10609
555.705	11099
555.768	11410
555.830	11092
555.893	10635
555.955	10549
556.018	10855
556.080	10530
556.143	11411
556.206	10804
556.268	11076
556.330	11168
556.393	10718
556.455	10312
556.518	11818
556.580	12048
556.643	9501
556.705	8924
556.767	8711
556.830	10321
556.892	10269
556.955	12611
557.017	11559
557.079	9468
557.142	10022
557.204	10639
557.266	16857
557.328	14831
557.391	8072
557.453	8447
557.515	7653
557.577	9393
557.639	9697
557.701	7339
557.764	7327
557.826	6426
557.888	8557
557.950	9586
558.012	11104
558.074	15380
558.136	24250
558.198	56532
558.260	26856
558.322	7986
558.384	8667
558.446	9787
558.508	12016
558.570	16868
558.632	27018
558.694	48947
558.756	61710
558.818	112762
558.880	281249
558.942	113337
559.003	58321
559.065	36372
559.127	12553
559.189	14113
559.251	21117
559.312	35105
559.374	60525
559.436	161151
559.498	107071
559.559	16358
559.621	15313
559.683	22330
559.744	36166
559.806	75051
559.868	131389
559.929	32395
559.991	19098
560.052	25361
560.114	57817
560.176	50708
560.237	32029
560.299	58851
560.360	18570
560.422	6145
560.483	7401
560.545	5858
560.606	5976
560.667	5716
560.729	5507
560.790	5158
560.852	5867
560.913	5361
560.974	5255
561.036	5459
561.097	5821
561.158	5292
561.220	5460
561.281	5573
561.342	7354
561.403	8788
561.465	10997
561.526	18338
561.587	29111
561.648	9070
561.709	5617
561.771	6180
561.832	5723
561.893	5484
561.954	5090
562.015	4215
562.076	5512
562.137	4066
562.198	5450
562.259	5678
562.320	6250
562.381	6698
562.442	9027
562.503	7841
562.564	4836
562.625	5110
562.686	5225
562.747	5826
562.808	5653
562.869	4982
562.930	6104
562.991	5687
563.051	4984
563.112	4981
563.173	5772
563.234	4663
563.294	5453
563.355	4338
563.416	5551
563.477	4526
563.537	5200
563.598	6260
563.659	5265
563.720	5182
563.780	6040
563.841	6149
563.901	5465
563.962	5181
564.023	5443
564.083	4940
564.144	4860
564.204	6263
564.265	6443
564.325	7538
564.386	10915
564.446	11359
564.507	6034
564.567	4515
564.628	5695
564.688	5336
564.749	5083
564.809	6789
564.869	6621
564.930	5851
564.990	5330
565.050	5076
565.111	5797
565.171	4474
565.231	5238
565.292	5163
565.352	4569
565.412	5721
565.472	6142
565.532	6466
565.593	6686
565.653	5768
565.713	6899
565.773	6698
565.833	7839
565.893	9908
565.953	6971
566.013	5426
566.074	7255
566.134	8454
566.194	11914
566.254	13394
566.314	9918
566.374	6977
566.434	6279
566.494	5604
566.554	6193
566.614	6242
566.673	7098
566.733	7585
566.793	8416
566.853	8545
566.913	7762
566.973	8360
567.033	9610
567.092	9164
567.152	8794
567.212	8867
567.272	9484
567.331	8937
567.391	9864
567.451	10133
567.511	11491
567.570	12839
567.630	9049
567.690	8927
567.749	8210
567.809	8246
567.868	10609
567.928	11999
567.988	13557
568.047	15618
568.107	20311
568.166	26723
568.226	36714
568.285	51164
568.345	44294
568.404	33362
568.464	29545
568.523	27357
568.582	31159
568.642	35055
568.701	44854
568.761	58791
568.820	88209
568.879	88193
568.939	63779
568.998	46344
569.057	35792
569.116	27925
569.176	23501
569.235	20183
569.294	17280
569.353	14797
569.413	13731
569.472	12314
569.531	11423
569.590	10721
569.649	10352
569.708	10038
569.767	11062
569.827	10881
569.886	10938
569.945	8440
570.004	8770
570.063	8568
570.122	9207
570.181	9523
570.240	8691
570.299	9525
570.358	10562
570.417	8678
570.475	7796
570.534	7467
570.593	8548
570.652	8258
570.711	8185
570.770	7694
570.829	8825
570.887	7576
570.946	8877
571.005	8091
571.064	8136
571.122	8569
571.181	7983
571.240	7636
571.299	6594
571.357	7320
571.416	7900
571.475	7403
571.533	9498
571.592	7688
571.650	7964
571.709	7217
571.768	7208
571.826	7289
571.885	6331
571.943	5970
572.002	6533
572.060	6880
572.119	5900
572.177	6589
572.236	5920
572.294	5484
572.352	6103
572.411	5846
572.469	6087
572.528	6444
572.586	7002
572.644	6307
572.703	10227
572.761	7841
572.819	6321
572.877	5834
572.936	6356
572.994	5691
573.052	5371
573.110	6091
573.169	6919
573.227	5966
573.285	6031
573.343	5129
573.401	5891
573.459	6186
573.517	5705
573.576	6118
573.634	6349
573.692	5744
573.750	7330
573.808	6023
573.866	6809
573.924	6858
573.982	8470
574.040	6381
574.098	5947
574.155	5715
574.213	5018
574.271	5062
574.329	6536
574.387	5603
574.445	5621
574.503	5327
574.560	4697
574.618	5544
574.676	6106
574.734	5281
574.792	5417
574.849	5165
574.907	5514
574.965	4987
575.022	5341
575.080	5732
575.138	6322
575.195	5284
575.253	5372
575.311	6760
575.368	6868
575.426	4957
575.483	5446
575.541	6093
575.598	6046
575.656	6085
575.713	6410
575.771	4899
575.828	6169
575.886	5215
575.943	5920
576.001	5700
576.058	6382
576.115	7059
576.173	7730
576.230	8526
576.287	9519
576.345	8700
576.402	6828
576.459	6359
576.517	6889
576.574	6912
576.631	7317
576.688	6599
576.746	6543
576.803	6201
576.860	6696
576.917	5719
576.974	5936
577.031	5943
577.089	6577
577.146	5827
577.203	6642
577.260	6079
577.317	7958
577.374	7605
577.431	7989
577.488	6318
577.545	6827
577.602	5458
577.659	6495
577.716	6212
577.773	6248
577.830	5774
577.886	6755
577.943	5818
578.000	6812
578.057	6374
578.114	7118
578.171	5692
578.227	5936
578.284	6431
578.341	6949
578.398	6879
578.454	8104
578.511	7624
578.568	8034
578.625	7951
578.681	5731
578.738	6112
578.794	6095
578.851	6237
578.908	6648
578.964	6133
579.021	7077
579.077	6597
579.134	6434
579.190	6248
579.247	6935
579.303	6187
579.360	5751
579.416	5984
579.473	5799
579.529	5815
579.586	6330
579.642	6279
579.698	7024
579.755	6707
579.811	7088
579.867	6403
579.924	6952
579.980	6512
580.036	6651
580.093	6730
580.149	7993
580.205	7212
580.261	7261
580.317	7543
580.374	8434
580.430	8417
580.486	9265
580.542	7659
580.598	7830
580.619	7835
580.654	7851
580.692	7342
580.710	7104
580.765	7001
580.767	7004
580.823	7283
580.838	7341
580.879	7513
580.911	7681
580.935	7814
580.984	6646
580.991	6491
581.047	7612
581.057	7458
581.103	6798
581.130	7201
581.159	7645
581.203	7613
581.215	7608
581.270	7577
581.276	7640
581.326	8345
581.349	8142
581.382	7800
581.422	8109
581.438	8264
581.494	7182
581.494	7183
581.550	7791
581.567	7847
581.606	7966
581.640	8012
581.661	8041
581.713	8449
581.717	8490
581.773	7149
581.786	7390
581.829	8182
581.859	7888
581.885	7652
581.932	8110
581.940	8186
581.996	8077
582.004	8081
582.052	8230
582.077	7799
582.107	7245
582.150	8132
582.163	8417
582.219	7985
582.223	8026
582.274	8486
582.296	8240
582.330	7944
582.368	8525
582.386	8777
582.441	8083
582.441	8084
582.497	8666
582.514	8517
582.552	8270
582.587	8376
582.608	8433
582.659	8337
582.663	8331
582.719	8273
582.732	8153
582.774	7809
582.805	8106
582.830	8294
582.877	8348
582.885	8373
582.941	8298
582.950	8311
582.996	8460
583.023	8646
583.052	8843
583.095	8657
583.107	8564
583.162	8579
583.168	8648
583.218	9503
583.240	9084
583.273	8325
583.313	8251
583.328	8272
583.384	8626
583.385	8629
583.439	8718
583.458	8657
583.494	8540
583.531	8365
583.549	8233
583.603	8651
583.605	8665
583.660	8813
583.676	8884
583.715	9156
583.748	9385
583.770	9534
583.820	9125
583.825	9094
583.881	9484
583.893	9507
583.936	9304
583.965	9237
583.991	9226
584.038	9205
584.046	9244
584.101	9727
584.110	9705
584.156	9160
584.183	8760
584.211	8600
584.255	9401
584.266	9541
584.321	8780
584.328	8898
584.376	9994
584.400	10155
584.431	10275
584.472	9700
584.486	9533
584.541	8867
584.545	8953
584.596	10258
584.617	10011
584.651	9715
584.689	10070
584.706	10114
584.761	10014
584.762	10015
584.816	10568
584.834	10739
584.871	10597
584.906	10386
584.926	10515
584.978	11550
584.980	11566
585.035	10592
585.051	10810
585.090	11749
585.123	12021
585.145	12168
585.195	13294
585.200	13399
585.254	14033
585.267	14350
585.309	15321
585.340	16195
585.364	17012
585.412	19702
585.419	20042
585.473	23953
585.484	25326
585.528	31271
585.556	36120
585.583	41599
585.628	50632
585.637	54356
585.692	89616
585.700	99866
585.747	174974
585.772	180034
585.801	150988
585.845	83659
585.856	66259
585.910	26830
585.917	23024
585.965	19197
585.989	18125
586.019	17501
586.061	16594
586.074	16395
586.128	16076
586.133	16043
586.183	16072
586.205	16464
586.237	17274
586.277	17860
586.292	17792
586.346	17306
586.349	17305
586.401	17454
586.421	17680
586.455	18287
586.493	19049
586.509	19558
586.564	21542
586.565	21663
586.618	28187
586.637	30096
586.672	33210
586.709	29806
586.727	26015
586.781	21815
586.781	21808
586.835	21054
586.853	20800
586.889	19950
586.925	19601
586.944	19537
586.996	19688
586.998	19693
587.052	19931
587.068	20048
587.106	20591
587.140	21187
587.161	21326
587.212	22093
587.215	22136
587.269	22428
587.284	22691
587.323	23327
587.356	23956
587.377	24344
587.427	25314
587.431	25365
587.485	25897
587.499	26164
587.539	26747
587.571	27475
587.593	28296
587.643	29312
587.648	29391
587.702	31858
587.715	32298
587.755	33300
587.786	34093
587.810	34898
587.858	37261
587.864	37486
587.917	39617
587.930	40300
587.971	43318
588.001	45754
588.025	47565
588.073	50793
588.079	51235
588.133	56351
588.145	57730
588.187	63187
588.217	67607
588.241	71583
588.288	80205
588.295	81434
588.348	92862
588.360	95947
588.402	108570
588.431	118411
588.456	127491
588.503	149071
588.510	152289
588.564	184527
588.575	192739
588.617	227051
588.646	254736
588.671	283388
588.718	346376
588.725	358551
588.778	466525
588.789	492132
588.832	648346
588.861	762050
588.886	908785
588.932	1164595
588.939	1188699
588.993	1287026
589.004	1315011
589.047	1275883
589.075	1243175
589.100	1137721
589.147	887249
589.154	850868
589.207	574334
589.218	522711
589.261	444453
589.290	401947
589.314	394648
589.361	393974
589.368	400034
589.421	468708
589.433	487585
589.475	645568
589.504	762370
589.528	912182
589.576	1167111
589.582	1171533
589.635	1166392
589.647	1163269
589.689	944187
589.718	767815
589.742	624604
589.790	353364
589.795	339945
589.849	231199
589.861	208312
589.902	173260
589.932	149682
589.955	137707
590.004	113632
590.009	111492
590.062	91151
590.075	86622
590.115	78386
590.146	72413
590.168	68822
590.218	62033
590.222	61626
590.275	56820
590.289	55874
590.328	52865
590.360	50168
590.381	48615
590.431	45624
590.435	45384
590.488	42114
590.503	41321
590.541	39918
590.574	38620
590.594	37650
590.645	35629
590.647	35557
590.700	34597
590.716	34352
590.753	33109
590.787	32156
590.806	31860
590.859	30794
590.859	30759
590.912	30395
590.930	30216
590.965	29802
591.001	29562
591.018	29110
591.071	27823
591.072	27828
591.124	27081
591.143	26875
591.177	26237
591.214	25575
591.230	25721
591.283	26294
591.285	26334
591.336	26073
591.356	26015
591.389	26491
591.427	27114
591.442	26733
591.495	25113
591.498	25016
591.547	24281
591.569	23996
591.600	23288
591.640	22289
591.653	22288
591.706	22422
591.711	22455
591.759	22266
591.782	22188
591.811	22952
591.853	24167
591.864	24273
591.917	24724
591.924	24780
591.969	23482
591.995	22809
592.022	22808
592.066	22811
592.075	22820
592.127	22885
592.137	22920
592.180	23934
592.208	24618
592.233	25151
592.279	25999
592.285	25707
592.338	23262
592.350	22704
592.390	22510
592.421	22377
592.443	22142
592.491	21637
592.495	21619
592.548	21446
592.562	21406
592.600	21516
592.633	21622
592.653	21299
592.704	20355
592.705	20480
592.775	20948
592.846	21667
592.916	21438
592.987	22188
593.058	23122
593.128	21320
593.199	20766
593.270	19624
593.341	20061
593.411	20808
593.482	20698
593.553	20536
593.623	21220
593.694	21147
593.764	22510
593.835	22057
593.906	21593
593.976	20670
594.047	22005
594.117	21927
594.188	25063
594.258	23787
594.329	22244
594.399	21451
594.470	22414
594.540	23081
594.611	21952
594.681	22011
594.751	23105
594.822	23149
594.892	25484
594.963	25507
595.033	25371
595.103	25550
595.174	25601
595.244	28224
595.314	34863
595.384	34732
595.455	26407
595.525	27259
595.595	27991
595.665	28735
595.736	28032
595.806	27245
595.876	28076
595.946	27795
596.016	27634
596.087	29396
596.157	28888
596.227	29510
596.297	29479
596.367	31688
596.437	32504
596.507	36231
596.577	40253
596.647	40027
596.717	34443
596.787	34582
596.857	35522
596.927	35794
596.997	36168
597.067	35693
597.137	35412
597.207	37195
597.277	37272
597.347	37763
597.417	35860
597.487	35226
597.557	34742
597.626	36535
597.696	36942
597.766	38897
597.836	41370
597.906	42085
597.975	34059
598.045	32475
598.115	32672
598.185	34380
598.254	35901
598.324	41070
598.394	43458
598.464	44328
598.533	42317
598.603	41692
598.672	37735
598.742	38492
598.812	37862
598.881	38536
598.951	38802
599.020	38859
599.090	38996
599.159	40584
599.229	40427
599.299	38772
599.368	37602
599.437	39004
599.507	37555
599.576	36110
599.646	35378
599.715	34174
599.785	34393
599.854	33653
599.924	33471
599.993	34504
600.062	33212
600.132	34263
600.201	33690
600.270	38138
600.340	42895
600.409	41978
600.478	41627
600.547	41824
600.617	42025
600.686	37039
600.755	31095
600.824	30179
600.894	29463
600.963	28080
601.032	27378
601.101	26921
601.170	26585
601.239	25832
601.308	25648
601.378	26226
601.447	25882
601.516	24886
601.585	24994
601.654	26807
601.723	28467
601.792	25389
601.861	26169
601.930	28221
601.999	30010
602.068	29518
602.137	28530
602.206	32003
602.275	28892
602.343	30019
602.412	33113
602.481	31702
602.550	28622
602.619	29049
602.688	30020
602.756	30361
602.825	30644
602.894	30220
602.963	30813
603.032	31873
603.100	31519
603.169	31002
603.238	32508
603.307	32244
603.375	31835
603.444	32635
603.513	32574
603.581	34122
603.650	33968
603.719	33872
603.787	33085
603.856	34834
603.924	35789
603.993	36305
604.061	37608
604.130	38923
604.198	39897
604.267	40110
604.335	40304
604.404	41035
604.472	41759
604.541	42932
604.609	42376
604.678	43194
604.746	43430
604.815	42790
604.883	44426
604.951	45820
605.020	44911
605.088	46010
605.156	47208
605.225	47723
605.293	47498
605.361	48151
605.429	48644
605.498	49145
605.566	50031
605.634	51373
605.702	53823
605.771	55639
605.839	56922
605.907	56079
605.975	54476
606.043	52811
606.111	52368
606.180	52082
606.248	52565
606.316	53203
606.384	51697
606.452	53807
606.520	56574
606.588	59279
606.656	55639
606.724	55451
606.792	53541
606.860	48934
606.928	44128
606.996	41900
607.064	39419
607.132	40224
607.200	41633
607.267	44453
607.335	44280
607.403	47511
607.471	46254
607.539	44856
607.607	44274
607.674	41987
607.742	39113
607.810	39584
607.878	40272
607.946	39497
608.013	40528
608.081	41837
608.149	43337
608.216	42704
608.284	45485
608.352	45154
608.419	45110
608.487	45274
608.555	47606
608.622	43923
608.690	44428
608.757	47345
608.825	53293
608.893	52065
608.960	52868
609.028	51349
609.095	51536
609.163	52200
609.230	46602
609.298	41511
609.365	37746
609.432	40315
609.500	44489
609.567	48998
609.635	55871
609.702	63241
609.769	64515
609.837	60878
609.904	47179
609.971	43388
610.039	47277
610.106	52496
610.173	75597
610.241	162458
610.308	329801
610.375	199696
610.442	97424
610.509	51035
610.577	45078
610.644	45027
610.711	44496
610.778	45252
610.845	46687
610.912	48720
610.980	51839
611.047	53105
611.114	53073
611.181	51811
611.248	50208
611.315	50432
611.382	52791
611.449	54436
611.516	56620
611.583	55384
611.650	55638
611.717	56604
611.784	57070
611.851	58876
611.918	61917
611.984	69319
612.051	82871
612.118	128124
612.185	286892
612.252	643269
612.319	214841
612.386	79993
612.452	71962
612.519	66479
612.586	65934
612.653	67333
612.719	64352
612.786	66690
612.853	62411
612.919	56767
612.986	57033
613.053	57012
613.120	53609
613.186	50075
613.253	49675
613.319	50109
613.386	50228
613.453	50218
613.519	51956
613.586	53458
613.652	57728
613.719	61357
613.785	58798
613.852	55170
613.918	51896
613.985	51903
614.051	53436
614.118	57670
614.184	66618
614.250	56299
614.317	52375
614.383	51702
614.449	50828
614.516	51484
614.582	52765
614.648	53381
614.715	51600
614.781	51567
614.847	49440
614.914	52212
614.980	51150
615.046	49867
615.112	49633
615.179	50330
615.245	51103
615.311	51891
615.377	55694
615.443	65736
615.509	61607
615.575	55437
615.642	55000
615.708	54592
615.774	57814
615.840	60717
615.906	66470
615.972	74216
616.038	102110
616.104	182058
616.170	353055
616.236	846933
616.302	396296
616.368	104599
616.434	86736
616.500	66644
616.565	65144
616.631	74577
616.697	83815
616.763	68549
616.829	76571
616.895	122184
616.961	197763
617.026	143138
617.092	64835
617.158	55050
617.224	53018
617.289	52458
617.355	48723
617.421	47543
617.487	48484
617.552	46539
617.618	44040
617.684	43672
617.749	45211
617.815	44529
617.880	41794
617.946	41809
618.012	40680
618.077	42840
618.143	43142
618.208	40930
618.274	42499
618.339	45494
618.405	45127
618.470	38810
618.536	38222
618.601	39312
618.667	39301
618.732	35586
618.798	34574
618.863	33534
618.928	33201
618.994	33167
619.059	34264
619.124	37439
619.190	42091
619.255	34466
619.320	33095
619.386	32817
619.451	33506
619.516	33071
619.581	31774
619.647	33211
619.712	33744
619.777	32613
619.842	32150
619.907	32216
619.972	32953
620.038	34000
620.103	32876
620.168	32743
620.233	32139
620.298	33048
620.363	32652
620.428	33354
620.493	33229
620.558	35075
620.623	34765
620.688	35953
620.753	34179
620.818	34951
620.883	35339
620.948	34937
621.013	34744
621.078	35334
621.143	34264
621.207	36822
621.272	35936
621.337	35909
621.402	35609
621.467	36591
621.532	39281
621.596	37697
621.661	37762
621.726	33155
621.791	33878
621.855	34398
621.920	35188
621.985	35036
622.049	36524
622.114	37741
622.179	36023
622.243	35759
622.308	36771
622.373	37305
622.437	38396
622.502	38570
622.566	35858
622.631	35159
622.695	35849
622.760	36810
622.824	36038
622.889	36310
622.953	37071
623.018	39817
623.082	50580
623.147	43737
623.211	38578
623.276	37543
623.340	37320
623.404	34365
623.469	34501
623.533	33968
623.597	35216
623.662	33456
623.726	33563
623.790	31381
623.854	29182
623.919	29784
623.983	30362
624.047	30678
624.111	30418
624.176	30369
624.240	31212
624.304	34076
624.368	33580
624.432	30862
624.496	30887
624.560	32695
624.625	36568
624.689	36356
624.753	33856
624.817	36182
624.881	31883
624.945	32757
625.009	29142
625.073	29486
625.137	29918
625.201	32868
625.265	35951
625.329	33364
625.393	30356
625.456	32163
625.520	32217
625.584	32090
625.648	35049
625.712	38407
625.776	47690
625.839	74745
625.903	70722
625.967	33230
626.031	29619
626.095	40498
626.158	49190
626.222	28769
626.286	23954
626.349	22700
626.413	20453
626.477	20516
626.540	21982
626.604	20543
626.668	20618
626.731	20079
626.795	20329
626.858	21133
626.922	20274
626.986	19651
627.049	19463
627.113	19911
627.176	19501
627.240	19431
627.303	19206
627.366	19369
627.430	19383
627.493	19165
627.557	18969
627.620	20135
627.684	18799
627.747	19383
627.810	20011
627.874	18593
627.937	16929
628.000	16689
628.064	17771
628.127	16670
628.190	14955
628.253	15368
628.317	15454
628.380	14485
628.443	14959
628.506	14458
628.569	14323
628.632	13489
628.696	13410
628.759	13347
628.822	11519
628.885	11542
628.948	12763
629.011	13003
629.074	12473
629.137	12445
629.200	11753
629.263	11677
629.326	11847
629.389	11279
629.452	11251
629.515	11526
629.578	11445
629.641	10922
629.704	11827
629.767	12233
629.830	11592
629.892	10759
629.955	10493
630.018	10219
630.081	10793
630.144	13079
630.207	13867
630.269	11079
630.332	11675
630.395	11473
630.458	10724
630.520	10283
630.583	10877
630.646	9803
630.708	9907
630.771	8905
630.834	10665
630.896	10480
630.959	10201
631.021	10264
631.084	10474
631.146	9747
631.209	10949
631.272	11043
631.334	9973
631.397	9766
631.459	9987
631.522	10391
631.584	10909
631.646	10833
631.709	10917
631.771	12153
631.834	14924
631.896	11157
631.958	9753
632.021	9934
632.083	10083
632.145	10475
632.208	10115
632.270	9964
632.332	8953
632.395	9458
632.457	9175
632.519	8959
632.581	8694
632.643	8136
632.706	9143
632.768	8944
632.830	8827
632.892	8313
632.954	9052
633.016	9127
633.078	9277
633.141	8805
633.203	7698
633.265	9229
633.327	8715
633.389	8441
633.451	8723
633.513	11053
633.575	11516
633.637	10722
633.698	12099
633.760	10844
633.822	9146
633.884	10015
633.946	9629
634.008	9774
634.070	9859
634.132	9503
634.193	11432
634.255	11697
634.317	11749
634.379	11985
634.441	11155
634.502	10800
634.564	10126
634.626	8817
634.687	9169
634.749	9038
634.811	8921
634.873	8449
634.934	8344
634.996	8120
635.057	8595
635.119	7981
635.181	8849
635.242	8329
635.304	7072
635.365	8623
635.427	8555
635.488	8725
635.550	8367
635.611	9113
635.673	7931
635.734	9072
635.796	8641
635.857	8934
635.918	10290
635.980	10361
636.041	11014
636.102	12153
636.164	12263
636.225	11659
636.286	11529
636.348	9914
636.409	8677
636.470	8478
636.531	8754
636.593	7683
636.654	8908
636.715	8465
636.776	7901
636.838	7056
636.899	6743
636.960	8187
637.021	6853
637.082	7048
637.143	7609
637.204	7694
637.265	5857
637.326	6363
637.387	6177
637.448	6606
637.509	6573
637.570	6628
637.631	6467
637.692	6312
637.753	6347
637.814	5870
637.875	6709
637.936	6173
637.997	5905
638.058	6478
638.119	6459
638.179	6789
638.240	6433
638.301	6047
638.362	6020
638.423	5946
638.483	6427
638.544	5608
638.605	5506
638.666	6201
638.726	6392
638.787	5962
638.848	5733
638.908	5316
638.969	5250
639.030	5436
639.090	6380
639.151	5676
639.211	6150
639.272	7011
639.332	8634
639.393	12024
639.453	7019
639.514	6131
639.574	6342
639.635	5243
639.695	5150
639.756	5526
639.816	6281
639.877	5981
639.937	7495
639.997	11739
640.058	12943
640.118	5567
640.178	4977
640.239	5005
640.299	4739
640.359	5304
640.420	5055
640.480	5055
640.540	5553
640.600	6926
640.661	6337
640.721	5579
640.781	6669
640.841	7330
640.901	6343
640.961	5187
641.021	5576
641.082	5679
641.142	7971
641.202	9284
641.262	5710
641.322	4723
641.382	4497
641.442	4589
641.502	4973
641.562	4353
641.622	4555
641.682	4608
641.742	5405
641.802	6461
641.861	5460
641.921	5210
641.981	5605
642.041	6385
642.101	5352
642.161	7286
642.221	5315
642.280	4607
642.340	4327
642.400	4677
642.460	4481
642.519	5409
642.579	4028
642.639	4593
642.698	4598
642.758	5510
642.818	4997
642.877	4281
642.937	5113
642.997	5420
643.056	6409
643.116	7955
643.175	5215
643.235	4454
643.294	5205
643.354	5540
643.414	5427
643.473	6534
643.532	6979
643.592	9758
643.651	13576
643.711	23517
643.770	43025
643.830	87473
643.889	219754
643.948	417273
644.008	67420
644.067	13839
644.126	9003
644.186	7486
644.245	6268
644.304	5266
644.363	5297
644.423	3875
644.482	4978
644.541	4958
644.600	4681
644.659	5510
644.719	5542
644.778	8274
644.837	12184
644.896	21242
644.955	44395
645.014	94087
645.073	23640
645.132	7050
645.191	5494
645.250	5227
645.309	5248
645.368	5466
645.427	5693
645.486	6263
645.545	12030
645.604	17954
645.663	6064
645.722	4546
645.781	5103
645.840	4936
645.898	6379
645.957	8207
646.016	11525
646.075	21036
646.134	38599
646.192	74199
646.251	218614
646.310	264064
646.369	29223
646.427	9954
646.486	7806
646.545	5502
646.603	5809
646.662	4423
646.721	4497
646.779	3654
646.838	3691
646.896	4834
646.955	5184
647.014	6647
647.072	11734
647.131	22319
647.189	61634
647.248	23137
647.306	5560
647.365	3950
647.423	2903
647.481	3445
647.540	3233
647.598	3452
647.657	3479
647.715	2739
647.773	3027
647.832	2974
647.890	2728
647.948	2766
648.007	2674
648.065	2944
648.123	2289
648.181	2776
648.240	2727
648.298	2719
648.356	3051
648.414	2674
648.472	2334
648.531	2656
648.589	2480
648.647	2633
648.705	2421
648.763	2562
648.821	2750
648.879	3126
648.937	3497
648.995	3731
649.053	3834
649.111	5808
649.169	9202
649.227	15868
649.285	28419
649.343	60435
649.401	179144
649.459	67287
649.516	17808
649.574	9703
649.632	6088
649.690	8408
649.748	8964
649.806	6144
649.863	9001
649.921	15194
649.979	42332
650.037	23453
650.094	3216
650.152	2074
650.210	2394
650.268	2790
650.325	2367
650.383	2932
650.440	2908
650.498	3413
650.556	1866
650.613	1898
650.671	2127
650.728	2263
650.786	2062
650.843	2916
650.901	2102
650.958	2381
651.016	2690
651.073	1901
651.131	1800
651.188	1445
651.246	2321
651.303	1991
651.360	1321
651.418	975
651.475	1748
651.532	1763
651.590	1230
651.647	1983
651.704	1837
651.762	2169
651.819	1039
651.876	1821
651.933	1877
651.990	1684
652.048	1207
652.105	1346
652.162	816
652.219	1640
652.276	1505
652.333	1166
652.390	1556
652.448	1098
652.505	1085
652.562	1674
652.619	1447
652.676	1313
652.733	1732
652.790	1133
652.847	1376
652.904	1666
652.961	893
653.017	1096
653.074	1947
653.131	2457
653.188	1271
653.245	1328
653.302	1211
653.359	806
653.415	1489
653.472	346
653.529	940
653.586	1083
653.642	1273
653.699	1370
653.756	1156
653.813	1489
653.869	1670
653.926	959
653.983	891
654.039	1847
654.096	910
654.152	1041
654.209	453
654.266	2205
654.322	268
654.379	1421
654.435	1350
654.492	1752
654.548	1161
654.605	3232
654.661	5686
654.717	1736
654.774	1635
654.830	1526
654.887	1426
654.943	1259
655.000	1262
655.056	1827
655.112	1395
655.168	1568
655.225	1243
655.281	1446
655.337	1318
655.394	2299
655.450	3901
655.506	2790
655.562	2034
655.618	4463
655.675	3264
655.731	1213
655.787	1105
655.843	1649
655.899	789
655.955	1224
656.011	1176
656.067	1404
656.123	1675
656.179	1033
656.235	1800
656.291	1146
656.347	1617
656.403	1909
656.459	1827
656.515	1130
656.571	1165
656.627	1975
656.683	1334
656.739	1899
656.795	1376
656.850	1339
656.906	1249
656.962	1790
657.018	1097
657.074	824
657.129	1909
657.185	1868
657.241	2254
657.297	5442
657.352	3148
657.408	1432
657.464	1805
657.519	2080
657.575	461
657.630	1398
657.686	338
657.742	600
657.797	1521
657.853	763
657.908	1339
657.964	1269
658.019	420
658.075	1626
658.130	635
658.186	785
658.241	1127
658.297	1064
658.352	362
658.407	1172
658.463	263
658.518	694
658.573	735
658.629	721
658.684	760
658.739	465
658.795	672
658.850	358
658.905	877
658.960	1792
659.016	1052
659.071	388
659.126	2070
659.181	789
659.236	1638
659.291	3380
659.346	2149
659.401	1240
659.457	932
659.512	554
659.567	1552
659.622	1550
659.677	732
659.732	1067
659.787	1256
659.842	163
659.897	1495
659.952	1527
660.007	864
660.061	1289
660.116	1253
660.171	447
660.226	1089
660.281	1236
660.336	191
660.391	600
660.445	807
660.500	717
660.555	819
660.610	565
660.664	1403
660.719	596
660.774	1123
660.828	909
660.883	769
660.938	928
660.992	897
661.047	1070
661.101	817
661.156	534
661.211	210
661.265	609
661.320	1349
661.374	1054
661.429	597
661.483	-24
661.538	777
661.592	240
661.647	610
661.701	507
661.755	422
661.810	969
661.864	1217
661.919	1254
661.973	967
662.027	1033
662.081	248
662.136	564
662.190	465
662.244	2102
662.299	682
662.353	1394
662.407	467
662.461	415
662.515	1136
662.569	1421
662.624	331
662.678	628
662.732	1070
662.786	658
662.840	1023
662.894	1353
662.948	617
663.002	332
663.056	869
663.110	-353
663.164	139
663.218	1331
663.272	1069
663.326	1386
663.380	1601
663.434	1647
663.488	579
663.542	1030
663.595	1270
663.649	88
663.703	1101
663.757	625
663.811	275
663.864	945
663.918	694
663.972	384
664.026	868
664.079	650
664.133	702
664.187	1284
664.240	1083
664.294	245
664.348	824
664.401	1037
664.455	1047
664.508	546
664.562	443
664.615	957
664.669	796
664.722	786
664.776	1300
664.829	754
664.883	400
664.936	570
664.990	1064
665.043	1179
665.097	1098
665.150	1726
665.203	1036
665.257	827
665.310	1147
665.363	809
665.417	1226
665.470	458
665.523	485
665.576	1291
665.630	823
665.683	437
665.736	449
665.789	1911
665.842	325
665.895	212
665.949	1110
666.002	759
666.055	1469
666.108	937
666.161	889
666.214	1446
666.267	1205
666.320	1677
666.373	2026
666.426	1268
666.479	1188
666.532	1198
666.585	1388
666.638	2070
666.691	1577
666.744	1018
666.796	962
666.849	1513
666.902	1643
666.955	477
667.008	317
667.060	-72
667.113	392
667.166	583
667.219	896
667.271	862
667.324	973
667.377	682
667.430	1315
667.482	487
667.535	1147
667.587	1010
667.640	1080
667.693	1315
667.745	961
667.798	3071
667.850	2830
667.903	1243
667.955	633
668.008	1365
668.060	1398
668.113	1222
668.165	1621
668.218	1274
668.270	1508
668.322	763
668.375	1233
668.427	637
668.479	979
668.532	1775
668.584	652
668.636	615
668.689	954
668.741	-68
668.793	1508
668.845	193
668.898	1428
668.950	1252
669.002	902
669.054	927
669.106	553
669.158	1464
669.211	220
669.263	1306
669.315	1441
669.367	1483
669.419	1287
669.471	1485
669.523	1044
669.575	1442
669.627	2407
669.679	2307
669.731	584
669.783	2025
669.835	1216
669.886	2387
669.938	1672
669.990	2314
670.042	1195
670.094	1167
670.146	1676
670.197	2356
670.249	2338
670.301	3341
670.353	4412
670.404	6322
670.456	9054
670.508	14818
670.560	24570
670.611	42085
670.663	74776
670.715	130964
670.766	285503
670.818	495856
670.869	184833
670.921	33095
670.972	15364
671.024	10136
671.075	6642
671.127	5825
671.178	3441
671.230	3992
671.281	2679
671.333	2442
671.384	2400
671.436	2396
671.487	3097
671.538	3851
671.590	3644
671.641	5443
671.692	7595
671.744	12536
671.795	26215
671.846	16877
671.897	5205
671.949	2419
672.000	2460
672.051	1915
672.102	1093
672.153	1088
672.204	1296
672.256	1332
672.307	854
672.358	1103
672.409	773
672.460	1260
672.511	995
672.562	1672
672.613	398
672.664	1488
672.715	927
672.766	635
672.817	1097
672.868	427
672.919	939
672.970	475
673.021	508
673.071	693
673.122	1208
673.173	813
673.224	1001
673.275	311
673.326	90
673.376	1314
673.427	895
673.478	-294
673.528	672
673.579	869
673.630	725
673.680	938
673.731	723
673.782	220
673.832	802
673.883	1042
673.934	1038
673.984	1053
674.035	297
674.085	1261
674.136	752
674.186	389
674.237	720
674.287	1570
674.338	2157
674.388	1810
674.438	204
674.489	1826
674.539	305
674.589	1175
674.640	453
674.690	813
674.740	1104
674.791	2195
674.841	1003
674.891	896
674.942	477
674.992	690
675.042	345
675.092	392
675.142	1032
675.193	534
675.243	516
675.293	387
675.343	1176
675.393	345
675.443	155
675.493	1441
675.543	-397
675.593	532
675.643	470
675.693	132
675.743	-236
675.793	519
675.843	508
675.893	667
675.943	307
675.993	581
676.043	881
676.093	570
676.142	272
676.192	592
676.242	381
676.292	316
676.341	-393
676.391	644
676.441	675
676.491	100
676.540	785
676.590	224
676.640	7
676.689	560
676.739	484
676.789	858
676.838	-123
676.888	554
676.937	305
676.987	592
677.037	169
677.086	-50
677.136	-633
677.185	238
677.235	830
677.284	656
677.333	-22
677.383	-121
677.432	10
677.482	176
677.531	260
677.580	-34
677.630	478
677.679	6
677.728	-320
677.778	246
677.827	153
677.876	542
677.925	88
677.975	227
678.024	-414
678.073	-230
678.122	124
678.171	-78
678.220	-10
678.269	644
678.319	419
678.368	-166
678.417	605
678.466	-134
678.515	-85
678.564	585
678.613	-174
678.662	705
678.711	-553
678.760	547
678.809	1
678.857	-223
678.906	180
678.955	517
679.004	-547
679.053	857
679.102	407
679.151	195
679.199	-36
679.248	-359
679.297	-215
679.346	-155
679.394	-288
679.443	-557
679.492	128
679.540	286
679.589	232
679.638	-319
679.686	213
679.735	-55
679.784	-77
679.832	278
679.881	-67
679.929	69
679.978	-814
680.026	381
680.075	-307
680.123	-764
680.172	-413
680.220	-515
680.268	-150
680.317	-769
680.365	25
680.414	-176
680.462	-516
680.510	-695
680.559	158
680.607	-629
680.655	-132
680.703	-260
680.752	-524
680.800	-546
680.848	375
680.896	68
680.945	33
680.993	-305
681.041	785
681.089	-35
681.137	49
681.185	-221
681.233	-333
681.258	93
681.281	462
681.329	-653
681.377	-281
681.380	-242
681.425	-188
681.473	337
681.502	162
681.521	-19
681.569	1079
681.617	27
681.624	185
681.665	975
681.713	-79
681.745	453
681.761	644
681.809	626
681.857	379
681.867	486
681.904	712
681.952	1053
681.989	1092
682.000	1066
682.048	415
682.096	1261
682.111	1281
682.143	1192
682.191	1213
682.233	1297
682.239	1274
682.286	876
682.334	1144
682.354	1411
682.382	1715
682.430	770
682.476	1431
682.477	1414
682.525	1450
682.572	1683
682.598	1429
682.620	1168
682.667	1464
682.715	2261
682.720	2273
682.763	2061
682.810	1293
682.841	2007
682.857	2370
682.905	2808
682.952	2383
682.963	2516
683.000	2689
683.047	1941
683.085	2555
683.095	2711
683.142	2588
683.190	2186
683.206	2171
683.237	2046
683.284	2850
683.328	2896
683.332	2874
683.379	2709
683.426	2956
683.449	2652
683.473	2311
683.521	2296
683.568	2600
683.571	2656
683.615	3029
683.662	3614
683.693	3109
683.709	2795
683.757	3336
683.804	3485
683.814	3383
683.851	2941
683.898	3308
683.936	4083
683.945	4266
683.992	4016
684.039	3788
684.057	3887
684.086	3984
684.133	4572
684.179	4010
684.180	3972
684.227	4216
684.274	4769
684.300	4991
684.321	5014
684.368	4742
684.415	5081
684.422	5086
684.462	5082
684.509	4556
684.543	4824
684.556	4834
684.603	4567
684.649	4663
684.665	4596
684.696	4642
684.743	4484
684.786	5092
684.790	5109
684.837	5003
684.883	4836
684.908	4691
684.930	4674
684.977	5785
685.023	5832
685.029	5869
685.070	5952
685.117	6369
685.150	6375
685.164	6261
685.210	5986
685.257	5553
685.272	5687
685.303	6220
685.350	6158
685.393	6091
685.396	6057
685.443	7231
685.490	6766
685.514	6779
685.536	6902
685.583	8010
685.629	8088
685.636	8064
685.675	7320
685.722	8000
685.757	7484
685.768	7307
685.815	7201
685.861	6996
685.878	6756
685.908	6549
685.954	7299
686.000	6952
686.000	6936
686.047	7114
686.093	8158
686.121	8031
686.139	8225
686.185	8835
686.232	9879
686.242	9980
686.278	9263
686.324	8305
686.363	8228
686.370	8251
686.416	7679
686.463	7670
686.484	7470
686.509	7344
686.555	7595
686.601	7779
686.606	7729
686.647	7305
686.693	7387
686.727	7407
686.739	7417
686.785	7774
686.831	7797
686.848	7648
686.877	7397
686.923	7826
686.969	7639
686.969	7635
687.015	7702
687.061	7541
687.090	7531
687.107	7676
687.153	8296
687.199	7965
687.211	7969
687.245	7775
687.291	8214
687.332	7828
687.336	7794
687.382	8030
687.428	8257
687.453	8323
687.474	8504
687.520	8303
687.565	8667
687.574	8742
687.611	8591
687.657	8342
687.695	8246
687.702	8318
687.748	8333
687.794	8698
687.816	8997
687.839	9369
687.885	9666
687.931	9955
687.937	9951
687.976	9297
688.022	9220
688.058	8602
688.067	8523
688.113	8642
688.158	8788
688.179	8835
688.204	9000
688.249	8785
688.295	9159
688.300	9166
688.340	9130
688.386	9040
688.421	9276
688.431	9440
688.477	9943
688.522	10055
688.542	10273
688.567	10204
688.613	9748
688.658	9608
688.663	9559
688.703	9478
688.749	9309
688.784	9689
688.794	9825
688.839	9835
688.884	10220
688.905	10137
688.930	9996
688.975	9613
689.020	10108
689.026	10052
689.065	9604
689.110	9433
689.146	9688
689.155	9874
689.201	9750
689.246	10239
689.267	10366
689.291	10248
689.336	10067
689.381	9821
689.388	9801
689.426	9835
689.471	9982
689.509	10047
689.516	10107
689.561	9761
689.606	9702
689.630	10038
689.651	10187
689.696	10078
689.741	9096
689.750	9133
689.785	9589
689.830	9257
689.871	9898
689.875	9976
689.920	10138
689.965	9750
689.992	10054
690.010	10197
690.054	9905
690.099	9984
690.112	9824
690.144	9620
690.189	9657
690.233	10000
690.233	10017
690.278	9951
690.323	10096
690.354	10081
690.367	10131
690.412	10462
690.457	10656
690.474	10724
690.501	10778
690.546	10785
690.590	11256
690.595	11189
690.635	10654
690.680	10419
690.716	10256
690.724	10233
690.769	10166
690.813	10204
690.836	9983
690.857	9964
690.902	10261
690.946	10542
690.957	10602
690.991	10843
691.035	11084
691.077	11361
691.080	11428
691.124	11889
691.168	12577
691.198	12876
691.213	12934
691.257	13535
691.301	13864
691.318	13953
691.346	13654
691.390	13381
691.434	12906
691.439	12845
691.478	12455
691.522	11849
691.559	11371
691.567	11431
691.611	11547
691.655	11653
691.680	11859
691.699	12108
691.743	12325
691.787	12815
691.800	12796
691.831	12418
691.875	12206
691.919	12196
691.921	12158
691.964	12154
692.008	12443
692.041	12488
692.052	12593
692.096	13085
692.139	13266
692.162	13534
692.183	13420
692.227	13014
692.271	12665
692.282	12520
692.315	12473
692.359	12354
692.402	12137
692.403	12163
692.447	12651
692.490	12561
692.523	12338
692.534	12296
692.578	12341
692.622	12163
692.643	12221
692.666	12566
692.709	12949
692.753	13543
692.763	13636
692.797	13533
692.840	13276
692.884	12939
692.884	12964
692.928	12714
692.971	12471
693.004	12232
693.015	12348
693.059	12734
693.102	13156
693.124	13397
693.146	13454
693.189	13128
693.233	13376
693.245	13375
693.276	13490
693.320	13181
693.363	12899
693.365	12870
693.407	13471
693.450	14074
693.485	14530
693.493	14549
693.537	14381
693.580	14155
693.605	14041
693.624	14225
693.667	14164
693.710	14939
693.725	14942
693.753	14758
693.797	14657
693.840	14816
693.845	14743
693.883	15941
693.926	17521
693.966	18744
693.970	18750
694.013	18782
694.056	18372
694.086	18136
694.099	17595
694.142	15825
694.185	14000
694.206	13022
694.229	13288
694.272	14027
694.315	14631
694.326	14710
694.358	14716
694.401	14975
694.444	15116
694.446	15075
694.487	15369
694.530	15933
694.566	16255
694.573	16250
694.616	16126
694.659	15902
694.686	15758
694.702	15538
694.745	14513
694.787	13695
694.806	13336
694.830	13335
694.873	13206
694.916	13024
694.926	12922
694.959	12912
695.002	13304
695.044	13322
695.046	13292
695.087	13379
695.130	13445
695.166	13488
695.172	13581
695.215	13955
695.258	14131
695.286	14305
695.301	14250
695.343	14189
695.386	13789
695.406	13621
695.428	13709
695.471	14082
695.514	14142
695.526	14111
695.556	14071
695.599	14201
695.641	14085
695.646	14036
695.684	14145
695.726	14254
695.766	14454
695.769	14483
695.811	14330
695.854	14045
695.886	13750
695.896	13793
695.938	14027
695.981	14058
696.005	14087
696.023	14111
696.065	14115
696.108	14073
696.125	14012
696.150	14117
696.192	14222
696.235	14455
696.245	14429
696.277	14565
696.319	14769
696.361	15048
696.365	15020
696.404	14913
696.446	14820
696.485	14751
696.488	14781
696.530	14463
696.572	14304
696.604	14148
696.614	14261
696.656	14561
696.698	14800
696.724	14934
696.740	14840
696.783	14454
696.825	14218
696.844	13998
696.867	14080
696.909	14109
696.951	14304
696.964	14291
696.992	14443
697.034	14628
697.076	14786
697.083	14777
697.118	14837
697.160	14895
697.202	14956
697.203	14915
697.244	14881
697.286	14870
697.323	14779
697.327	14820
697.369	14791
697.411	14809
697.442	14772
697.453	14845
697.494	14972
697.536	15091
697.562	15133
697.578	15377
697.620	15932
697.661	16452
697.682	16657
697.703	16671
697.744	16598
697.786	16592
697.801	16501
697.828	16761
697.869	17232
697.911	17568
697.921	17618
697.952	18146
697.994	18777
698.035	19425
698.040	19442
698.077	18292
698.118	16972
698.160	15622
698.160	15569
698.201	15658
698.243	15753
698.279	15775
698.284	15825
698.325	15852
698.367	15909
698.399	15877
698.408	15958
698.449	16145
698.491	16335
698.518	16416
698.532	16443
698.573	16377
698.614	16318
698.638	16222
698.656	16173
698.697	15964
698.738	15758
698.757	15620
698.779	15788
698.820	16006
698.862	16234
698.877	16268
698.903	16723
698.944	17385
698.985	18044
698.996	18176
699.026	18158
699.067	18058
699.116	17889
699.235	17396
699.354	16797
699.474	16542
699.593	16420
699.713	18479
699.832	18409
699.951	16360
700.070	19037
700.190	17185
700.309	15734
700.428	16094
700.547	17227
700.667	16298
700.786	16767
700.905	17553
701.024	15996
701.143	16215
701.262	17844
701.381	13908
701.500	14604
701.619	15734
701.738	18517
701.857	16821
701.976	15136
702.095	14425
702.214	13946
702.333	16238
702.452	17999
702.571	16190
702.690	15048
702.809	14494
702.928	14922
703.047	13953
703.165	14872
703.284	13622
703.403	14135
703.522	13734
703.640	15898
703.759	15612
703.878	17793
703.997	24944
704.115	15167
704.234	13962
704.353	13563
704.471	13329
704.590	13516
704.708	11984
704.827	12725
704.946	11858
705.064	12224
705.183	14530
705.301	13144
705.420	14641
705.538	18920
705.656	18683
705.775	15588
705.893	14808
706.012	17490
706.130	21542
706.249	16410
706.367	16495
706.485	16525
706.604	17098
706.722	16793
706.840	17073
706.958	21115
707.077	20654
707.195	17310
707.313	14627
707.431	14434
707.549	14392
707.668	14538
707.786	14481
707.904	15042
708.022	13665
708.140	14544
708.258	14033
708.376	14337
708.494	14552
708.612	14283
708.730	14724
708.848	20702
708.966	20801
709.084	19819
709.202	18756
709.320	16572
709.438	17494
709.556	17063
709.674	17283
709.791	16365
709.909	16934
710.027	16290
710.145	15718
710.263	16917
710.380	15845
710.498	16440
710.616	15881
710.733	15711
710.851	15841
710.969	17348
711.086	17536
711.204	16674
711.322	15503
711.439	16160
711.557	16092
711.674	16183
711.792	15250
711.909	16379
712.027	14907
712.144	15129
712.262	15077
712.379	14699
712.497	16691
712.614	21127
712.732	24231
712.849	20103
712.966	18399
713.084	19840
713.201	25924
713.318	21420
713.436	19753
713.553	18057
713.670	18583
713.787	18761
713.905	19741
714.022	21704
714.139	17890
714.256	18572
714.373	22192
714.490	25513
714.608	37966
714.725	73317
714.842	322832
714.959	562186
715.076	49540
715.193	23196
715.310	18684
715.427	19336
715.544	17152
715.661	15719
715.778	15377
715.895	16451
716.011	17295
716.128	17663
716.245	16817
716.362	16686
716.479	18746
716.596	22085
716.713	15999
716.829	15457
716.946	14882
717.063	15735
717.180	13830
717.296	14859
717.413	14547
717.530	13530
717.646	13665
717.763	15144
717.880	13352
717.996	13820
718.113	12178
718.229	15577
718.346	13533
718.462	13591
718.579	14082
718.695	17736
718.812	32366
718.928	26455
719.045	19669
719.161	16658
719.277	13101
719.394	13053
719.510	12039
719.626	13060
719.743	12813
719.859	16689
719.975	18980
720.092	28006
720.208	84766
720.324	281939
720.440	57488
720.557	15743
720.673	16842
720.789	24357
720.905	32659
721.021	59205
721.137	30981
721.253	12571
721.369	12565
721.486	13235
721.602	13977
721.718	19610
721.834	13634
721.950	10612
722.066	11507
722.181	10787
722.297	10694
722.413	12108
722.529	11016
722.645	10583
722.761	10453
722.877	9957
722.993	10328
723.108	10067
723.224	11529
723.340	10687
723.456	9874
723.571	9909
723.687	10526
723.803	9900
723.918	9348
724.034	9688
724.150	9986
724.265	9989
724.381	10321
724.497	19021
724.612	35421
724.728	11187
724.843	9132
724.959	9269
725.074	9965
725.190	18583
725.305	29791
725.421	10739
725.536	10771
725.651	8624
725.767	8338
725.882	8937
725.997	7295
726.113	8314
726.228	8853
726.343	8056
726.459	8485
726.574	8272
726.689	8870
726.804	8545
726.920	8041
727.035	8729
727.150	8274
727.265	8692
727.380	8407
727.495	8182
727.610	8430
727.725	7461
727.841	7522
727.956	8424
728.071	9360
728.186	10625
728.301	7659
728.416	7686
728.531	7855
728.645	7892
728.760	7424
728.875	8309
728.990	10167
729.105	8757
729.220	8240
729.335	9204
729.449	9409
729.564	7753
729.679	6821
729.794	6773
729.908	6972
730.023	9140
730.138	8382
730.253	6978
730.367	6874
730.482	7168
730.596	6099
730.711	7167
730.826	7401
730.940	7860
731.055	8130
731.169	8095
731.284	7094
731.398	6576
731.513	6971
731.627	8613
731.742	7623
731.856	7895
731.970	11360
732.085	8031
732.199	9641
732.313	10608
732.428	16033
732.542	34911
732.656	111995
732.771	111742
732.885	17690
732.999	9860
733.113	8717
733.227	9649
733.342	8555
733.456	7215
733.570	7029
733.684	6564
733.798	7162
733.912	7080
734.026	6278
734.140	6553
734.254	7067
734.368	6778
734.482	11483
734.596	18900
734.710	6748
734.824	6544
734.938	6858
735.052	6650
735.166	6519
735.280	8175
735.393	7143
735.507	6445
735.621	6223
735.735	8483
735.849	15521
735.962	10366
736.076	6066
736.190	6693
736.303	8121
736.417	7989
736.531	13242
736.644	6801
736.758	6175
736.872	6046
736.985	6532
737.099	5501
737.212	5402
737.326	5163
737.439	5906
737.553	6092
737.666	5947
737.780	5137
737.893	5253
738.007	5868
738.120	4744
738.233	6106
738.347	5520
738.460	5317
738.573	5171
738.687	6544
738.800	6603
738.913	6219
739.026	8519
739.140	6374
739.253	5044
739.366	4614
739.479	4995
739.592	4886
739.705	5110
739.818	5335
739.932	4777
740.045	5540
740.158	5464
740.271	5211
740.384	5735
740.497	4789
740.610	5007
740.723	5727
740.836	6490
740.949	5853
741.062	6103
741.174	8942
741.287	8594
741.400	5226
741.513	5783
741.626	5553
741.739	6617
741.851	5853
741.964	5821
742.077	4970
742.189	4404
742.302	5468
742.415	5965
742.527	6870
742.640	5025
742.753	5828
742.865	4735
742.978	4111
743.090	4532
743.203	4124
743.316	4683
743.428	3938
743.541	3976
743.653	4308
743.766	4637
743.878	4377
743.990	3867
744.103	6055
744.215	6441
744.327	5674
744.440	5252
744.552	5269
744.664	10051
744.777	7739
744.889	4231
745.001	4664
745.113	3009
745.226	3691
745.338	3851
745.450	3866
745.562	3622
745.674	4401
745.786	3918
745.898	3348
746.010	4108
746.122	3887
746.234	2775
746.347	3965
746.459	4109
746.570	3360
746.682	3498
746.794	3909
746.906	4103
747.018	4458
747.130	3495
747.242	3817
747.354	3470
747.466	3999
747.577	4308
747.689	3458
747.801	3939
747.913	4167
748.024	3529
748.136	3760
748.248	2934
748.359	3588
748.471	3695
748.583	3495
748.694	2689
748.806	3351
748.918	4176
749.029	4935
749.141	4665
749.252	5418
749.364	4513
749.475	5178
749.587	12422
749.698	10332
749.809	4138
749.921	3542
750.032	3389
750.144	3652
750.255	3314
750.366	2783
750.478	3345
750.589	3565
750.700	2817
750.811	4025
750.923	4247
751.034	4665
751.145	11901
751.256	18908
751.367	4971
751.479	3026
751.590	3122
751.701	3266
751.812	2958
751.923	2523
752.034	2862
752.145	2403
752.256	3242
752.367	2422
752.478	2427
752.589	2920
752.700	2610
752.811	2514
752.922	2451
753.032	2849
753.143	3780
753.254	4592
753.365	3104
753.476	2828
753.586	2610
753.697	1939
753.808	2424
753.919	2401
754.029	2486
754.140	3383
754.251	2790
754.361	1783
754.472	3394
754.582	2679
754.693	3353
754.804	2622
754.914	2970
755.025	2520
755.135	2638
755.246	2829
755.356	2077
755.466	3123
755.577	2252
755.687	2895
755.798	3163
755.908	3086
756.018	2176
756.129	2543
756.239	1788
756.349	2905
756.460	2591
756.570	3983
756.680	2745
756.790	2231
756.900	3475
757.011	3985
757.121	2356
757.231	1812
757.341	1953
757.451	2007
757.561	2274
757.671	2603
757.781	2061
757.891	2667
758.001	2889
758.111	2526
758.221	2958
758.331	3042
758.441	3765
758.551	4290
758.661	5268
758.771	6943
758.880	3354
758.990	3681
759.100	2882
759.210	3194
759.320	2652
759.429	2718
759.539	2699
759.649	2819
759.758	3438
759.868	3839
759.978	3270
760.087	3618
760.197	3886
760.307	4139
760.416	3252
760.526	3249
760.635	3529
760.745	3749
760.854	3005
760.964	3092
761.073	3856
761.182	3798
761.292	3584
761.401	3517
761.511	4109
761.620	3224
761.729	2401
761.839	2514
761.948	2995
762.057	3069
762.166	3902
762.276	2868
762.385	2963
762.494	1782
762.603	2333
762.712	1937
762.822	2500
762.931	2569
763.040	3104
763.149	1835
763.258	3254
763.367	2413
763.476	3389
763.585	3109
763.694	2546
763.803	3277
763.912	3271
764.021	3928
764.130	2100
764.238	2419
764.347	2701
764.456	3118
764.565	2964
764.674	2509
764.783	3386
764.891	3298
765.000	3223
765.109	3892
765.217	3044
765.326	4154
765.435	3795
765.543	5905
765.652	4981
765.761	6649
765.869	6186
765.978	8957
766.086	11487
766.195	20920
766.303	40056
766.412	94162
766.520	287933
766.629	399100
766.737	122491
766.846	34062
766.954	17897
767.062	12348
767.171	9750
767.279	8154
767.387	7352
767.496	5644
767.604	4560
767.712	4181
767.820	3843
767.928	4829
768.037	4321
768.145	4158
768.253	4031
768.361	3990
768.469	3600
768.577	3814
768.685	3849
768.793	3969
768.901	3703
769.009	3850
769.117	4015
769.225	4733
769.333	4655
769.441	7469
769.549	9476
769.657	15433
769.765	32888
769.873	100994
769.981	301062
770.088	178165
770.196	31527
770.304	13595
770.412	8554
770.519	7307
770.627	5874
770.735	5055
770.842	4888
770.950	4337
771.058	3793
771.165	4255
771.273	3865
771.380	3487
771.488	3560
771.595	3940
771.703	3185
771.810	3580
771.918	3493
772.025	3958
772.133	3953
772.240	4134
772.348	3457
772.455	3797
772.562	4287
772.670	3881
772.777	3531
772.884	3302
772.991	3757
773.099	3477
773.206	3121
773.313	3493
773.420	3766
773.528	4293
773.635	2736
773.742	3644
773.849	3047
773.956	3199
774.063	2786
774.170	2852
774.277	3307
774.384	3419
774.491	2699
774.598	3719
774.705	4113
774.812	4020
774.919	5031
775.026	3998
775.133	3452
775.239	3685
775.346	2306
775.453	3262
775.560	2721
775.667	2726
775.773	2249
775.880	3332
775.987	2839
776.093	3308
776.200	2112
776.307	2701
776.413	3524
776.520	2431
776.627	2366
776.733	2931
776.840	3207
776.946	2888
777.053	3354
777.159	2691
777.266	4166
777.372	5313
777.478	4206
777.585	5340
777.691	3810
777.798	3236
777.904	3050
778.010	3772
778.117	4527
778.223	6559
778.329	3427
778.435	3433
778.542	2810
778.648	2422
778.754	2588
778.860	2339
778.966	2881
779.072	3145
779.178	2934
779.284	3086
779.391	1763
779.497	1996
779.603	2064
779.708	2509
779.815	3441
779.920	2288
780.026	4267
780.132	10690
780.238	4122
780.344	2576
780.450	2537
780.556	3007
780.661	2827
780.767	2774
780.873	3235
780.979	2249
781.085	2099
781.190	3021
781.296	1431
781.402	1819
781.507	2693
781.613	2103
781.719	1430
781.824	2212
781.930	2518
782.035	2758
782.141	1897
782.246	2892
782.352	2276
782.457	2387
782.563	2296
782.668	2719
782.773	2561
782.879	2647
782.984	2893
783.090	2695
783.195	3774
783.300	5804
783.405	5023
783.511	2926
783.616	2844
783.721	2852
783.826	3170
783.932	2406
784.037	2385
784.142	2455
784.247	1849
784.352	3292
784.457	2663
784.562	2588
784.667	1972
784.772	2396
784.877	1860
784.982	2325
785.087	2082
785.192	2139
785.297	2098
785.402	2218
785.507	2061
785.611	1715
785.716	2038
785.821	1952
785.926	1718
786.031	1881
786.135	1780
786.240	2512
786.345	1981
786.450	1673
786.554	1577
786.659	1779
786.763	1020
786.868	2109
786.973	2088
787.077	2037
787.182	1486
787.286	1623
787.391	1636
787.495	1523
787.600	1385
787.704	1654
787.809	1058
787.913	2561
788.017	2454
788.122	2059
788.226	2059
788.330	1207
788.435	706
788.539	1442
788.643	1702
788.747	1315
788.852	2127
788.956	1650
789.060	975
789.164	2018
789.268	1965
789.372	1183
789.476	1343
789.580	849
789.684	517
789.788	1023
789.892	1424
789.996	1972
790.100	1987
790.204	1936
790.308	1030
790.412	2015
790.516	1240
790.620	1677
790.724	2169
790.828	2273
790.931	1813
791.035	1979
791.139	1555
791.242	1198
791.346	1530
791.450	1843
791.554	1199
791.657	1610
791.761	759
791.864	1754
791.968	1540
792.072	1610
792.175	1251
792.279	1471
792.382	1048
792.486	1608
792.589	1654
792.693	1080
792.796	2168
792.899	1635
793.003	1300
793.106	1323
793.209	1314
793.313	1364
793.416	1934
793.519	2023
793.623	1889
793.726	2576
793.829	6717
793.932	3602
794.035	1600
794.138	2307
794.242	1566
794.345	1929
794.448	2573
794.551	3357
794.654	5020
794.757	6193
794.860	5255
794.963	2550
795.066	2444
795.169	2217
795.272	1144
795.375	1291
795.477	1285
795.580	1358
795.683	693
795.786	1053
795.889	15
795.991	1010
796.094	1124
796.197	1341
796.300	1838
796.402	384
796.505	586
796.608	1333
796.710	544
796.813	553
796.915	905
797.018	1934
797.120	1426
797.223	1680
797.326	1789
797.428	1214
797.530	812
797.633	1029
797.735	1184
797.838	1958
797.940	3404
798.042	4334
798.145	619
798.247	1705
798.349	889
798.452	928
798.554	312
798.656	1364
798.758	1599
798.860	1157
798.962	788
799.065	519
799.167	1038
799.269	1848
799.371	1423
799.473	1813
799.575	1447
799.677	2048
799.779	2726
799.881	2642
799.983	5434
800.085	3096
800.187	703
800.289	1208
800.390	1057
800.492	1135
800.594	805
800.696	1173
800.798	1237
800.899	939
801.001	507
801.103	787
801.205	796
801.306	1060
801.408	673
801.509	972
801.611	1014
801.713	395
801.814	1013
801.916	487
802.017	943
802.119	789
802.220	856
802.322	70
802.423	1143
802.525	1866
802.626	2151
802.727	1078
802.829	305
802.930	1130
803.031	1376
803.133	1626
803.234	1120
803.335	330
803.436	1007
803.538	1203
803.639	560
803.740	552
803.841	300
803.942	514
804.043	351
804.144	325
804.245	1024
804.346	178
804.447	345
804.548	1117
804.649	2666
804.750	3160
804.851	1635
804.952	945
805.053	111
805.154	783
805.255	572
805.355	571
805.456	-14
805.557	632
805.658	-239
805.758	839
805.859	504
805.960	817
806.061	545
806.161	918
806.262	119
806.362	763
806.463	556
806.564	425
806.664	398
806.765	217
806.865	1406
806.966	2251
807.066	442
807.166	1387
807.267	907
807.367	460
807.468	1011
807.568	460
807.668	593
807.769	1116
807.869	1002
807.969	693
808.069	550
808.170	618
808.270	-274
808.370	24
808.470	646
808.570	1894
808.670	2632
808.770	746
808.870	533
808.970	177
809.070	173
809.170	727
809.271	179
809.370	349
809.470	782
809.570	54
809.670	934
809.770	1303
809.870	531
809.970	621
810.070	384
810.169	-52
810.269	282
810.369	474
810.469	893
810.568	142
810.668	462
810.768	622
810.867	568
810.967	258
811.066	753
811.166	929
811.265	729
811.365	-874
811.464	730
811.564	984
811.663	-343
811.763	971
811.862	773
811.962	189
812.061	-539
812.160	297
812.260	1151
812.359	699
812.458	1725
812.557	3836
812.657	8169
812.756	20758
812.855	8276
812.954	2329
813.053	1540
813.153	-52
813.252	783
813.351	185
813.450	643
813.549	615
813.648	459
813.747	561
813.846	601
813.945	605
814.044	273
814.143	270
814.242	1196
814.341	1610
814.439	168
814.538	762
814.637	608
814.736	367
814.835	422
814.933	1007
815.032	990
815.131	1252
815.229	860
815.328	1486
815.427	1924
815.525	1471
815.624	1553
815.722	1006
815.821	1984
815.919	2232
816.018	1144
816.116	1886
816.215	1750
816.313	2391
816.412	1605
816.510	1989
816.609	2488
816.707	2848
816.805	1878
816.904	2609
817.002	2252
817.100	3137
817.198	3371
817.296	3686
817.395	4257
817.493	3864
817.591	4700
817.689	6295
817.787	7727
817.885	10774
817.983	16697
818.081	30339
818.179	58676
818.277	134844
818.375	327740
818.473	451341
818.571	163085
818.669	53169
818.767	30107
818.865	23719
818.963	22009
819.061	25157
819.158	34976
819.256	57103
819.354	110428
819.452	240472
819.549	519402
819.647	552019
819.745	204500
819.842	75018
819.940	40079
820.038	26916
820.135	18758
820.233	14386
820.330	11166
820.428	9129
820.525	7167
820.623	7831
820.720	4967
820.818	5045
820.915	4782
821.012	4290
821.110	3600
821.207	3822
821.304	2615
821.402	3174
821.499	3523
821.596	2480
821.693	3709
821.791	3285
821.888	2858
821.985	4272
822.082	6308
822.179	8122
822.276	2900
822.373	1821
822.470	1900
822.567	1429
822.664	1343
822.761	1793
822.858	1038
822.955	1700
823.052	1585
823.149	1471
823.246	1011
823.343	2042
823.440	631
823.536	1056
823.633	1087
823.730	1377
823.827	877
823.923	514
824.020	1860
824.117	851
824.213	153
824.310	1324
824.407	1250
824.503	783
824.600	16
824.696	729
824.793	576
824.889	733
824.986	1305
825.082	1571
825.179	698
825.275	827
825.371	1217
825.468	1185
825.564	712
825.660	-15
825.757	767
825.853	1012
825.949	159
826.045	571
826.142	789
826.238	50
826.334	605
826.430	232
826.526	1095
826.622	210
826.718	74
826.814	477
826.910	461
827.006	1509
827.102	-44
827.198	439
827.294	309
827.390	1164
827.486	1026
827.582	57
827.678	263
827.774	922
827.869	-440
827.965	622
828.061	130
828.157	616
828.252	393
828.348	533
828.444	802
828.539	315
828.635	85
828.731	789
828.826	-212
828.922	696
829.017	133
829.113	433
829.208	159
829.304	320
829.399	1402
829.495	974
829.590	651
829.685	740
829.781	719
829.876	218
829.971	419
830.066	565
830.162	-276
830.257	312
830.352	655
830.447	1209
830.543	698
830.638	-110
830.733	1110
830.828	1187
830.923	-307
831.018	141
831.113	6
831.208	1181
831.303	551
831.398	285
831.493	755
831.588	313
831.683	-171
831.778	658
831.873	285
831.967	-195
832.062	353
832.157	178
832.252	770
832.346	625
832.441	868
832.536	1127
832.631	1884
832.725	4401
832.820	6549
832.914	1929
833.009	87
833.104	549
833.198	417
833.293	1144
833.387	1602
833.482	661
833.576	-98
833.670	588
833.765	446
833.859	909
833.954	990
834.048	898
834.142	533
834.237	539
834.331	-107
834.425	286
834.519	254
834.613	-189
834.708	327
834.802	797
834.896	244
834.990	-145
835.084	76
835.178	-90
835.272	-412
835.366	509
835.460	897
835.554	210
835.648	-344
835.742	42
835.836	-165
835.930	-285
836.024	598
836.117	-106
836.211	580
836.305	347
836.399	261
836.493	1733
836.586	981
836.680	188
836.774	225
836.867	533
836.961	-553
837.055	-40
837.148	361
837.242	124
837.335	-165
837.429	75
837.522	-201
837.616	-50
837.709	1201
837.803	1647
837.896	2023
837.989	617
838.083	668
838.176	1089
838.269	2467
838.363	4081
838.456	677
838.549	-1
838.642	1394
838.735	2651
838.829	6632
838.922	4606
839.015	249
839.108	-87
839.201	378
839.294	-179
839.387	357
839.480	-252
839.573	-279
839.666	1455
839.759	1556
839.852	86
839.945	-231
840.038	-274
840.131	-577
840.223	-260
840.316	-80
840.409	-449
840.502	18
840.594	142
840.687	245
840.780	52
840.873	-469
840.965	234
841.058	-336
841.150	719
841.243	2102
841.336	3516
841.428	40
841.521	-684
841.613	74
841.706	292
841.798	1060
841.890	-775
841.983	-308
842.075	-136
842.167	-1295
842.260	73
842.352	302
842.444	1102
842.537	1190
842.629	2582
842.721	5740
842.813	2216
842.905	-297
842.997	-221
843.090	-292
843.182	822
843.274	766
843.366	3072
843.458	6113
843.550	15608
843.642	14542
843.734	3374
843.826	510
843.918	419
844.009	1010
844.101	376
844.193	174
844.285	205
844.377	552
844.469	697
844.560	-19
844.652	416
844.744	400
844.835	-50
844.927	-563
845.019	-39
845.110	118
845.202	625
845.293	-497
845.385	-228
845.476	-893
845.568	2
845.659	-256
845.751	319
845.842	-578
845.934	-185
846.025	-78
846.116	-682
846.208	-267
846.299	-511
846.390	-186
846.482	-115
846.573	-250
846.664	86
846.755	783
846.846	1489
846.937	2567
847.029	517
847.120	-660
847.211	190
847.302	432
847.393	-264
847.484	-248
847.575	-121
847.666	-612
847.757	-124
847.847	-768
847.938	99
848.029	-55
848.120	-292
848.211	-178
848.302	-365
848.392	-416
848.483	-238
848.574	-771
848.664	-596
848.755	34
848.846	-723
848.936	-55
849.027	-400
849.118	-449
849.208	-259
849.299	-305
849.389	968
849.480	1532
849.570	4107
849.661	8386
849.751	16044
849.841	35921
849.932	23439
850.022	2589
850.112	872
850.203	541
850.293	8
850.383	120
850.474	-648
850.564	-596
850.654	-290
850.744	2
850.834	-660
850.924	-187
851.014	-232
851.104	-214
851.194	-226
851.284	203
851.374	377
851.464	409
851.554	462
851.644	372
851.734	314
851.824	792
851.914	655
852.004	-407
852.094	-33
852.183	-368
852.273	-127
852.363	148
852.452	709
852.542	-292
852.632	-76
852.721	148
852.811	-334
852.901	-769
852.990	150
853.080	-602
853.169	-133
853.259	317
853.348	-95
853.438	639
853.527	231
853.617	1061
853.706	2361
853.795	5678
853.885	11075
853.974	26303
854.063	55991
854.152	92601
854.242	191854
854.331	129969
854.420	21183
854.509	5701
854.598	2822
854.687	2261
854.777	1258
854.866	1615
854.955	700
855.044	776
855.133	570
855.222	89
855.311	265
855.400	24
855.488	-472
855.577	-224
855.666	16
855.755	-281
855.844	388
855.933	-520
856.021	-115
856.110	86
856.199	-373
856.288	190
856.376	-1042
856.465	-429
856.554	143
856.642	-190
856.731	-233
856.819	517
856.908	-391
856.996	-174
857.085	-409
857.173	-541
857.262	-245
857.350	-890
857.438	117
857.527	-1077
857.615	-694
857.703	-127
857.792	-142
857.880	-946
857.968	-604
858.056	-494
858.145	-29
858.233	-331
858.321	-866
858.409	-408
858.497	375
858.585	-948
858.673	-578
858.761	-882
858.849	-233
858.937	-667
859.025	-626
859.113	162
859.201	-625
859.289	99
859.377	-480
859.465	-256
859.552	-290
859.640	-298
859.728	-133
859.816	-96
859.903	401
859.991	-566
860.079	67
860.166	-469
860.254	-228
860.342	67
860.429	136
860.517	-666
860.604	-754
860.692	-187
860.779	17
860.867	-755
860.954	-92
861.042	5
861.129	-392
861.216	569
861.304	-600
861.391	15
861.478	-469
861.565	380
861.653	-605
861.740	-1334
861.827	-365
861.914	-787
862.001	-305
862.089	-1206
862.176	-40
862.263	-706
862.350	-221
862.437	-1292
862.524	-697
862.611	-581
862.698	-833
862.785	-695
862.871	-389
862.958	-194
863.045	-483
863.132	-69
863.219	161
863.306	-97
863.392	-32
863.479	-566
863.566	-184
863.652	-289
863.739	153
863.826	-604
863.912	-223
863.999	-1247
864.086	-171
864.172	-479
864.259	-367
864.345	194
864.432	155
864.518	-672
864.604	-379
864.691	326
864.777	64
864.863	25
864.950	-168
865.036	-402
865.122	947
865.209	1214
865.295	1201
865.381	797
865.467	813
865.553	1443
865.639	1861
865.726	3266
865.812	6288
865.898	12328
865.984	27359
866.070	46058
866.156	69426
866.242	123007
866.328	54512
866.414	7775
866.499	2665
866.585	2149
866.671	1788
866.757	1682
866.843	630
866.928	1236
867.014	590
867.100	396
867.186	421
867.271	874
867.357	413
867.442	1094
867.528	2876
867.614	981
867.699	7
867.785	139
867.870	1059
867.956	494
868.041	572
868.127	34
868.212	908
868.297	1847
868.383	1084
868.468	603
868.553	1983
868.639	1885
868.724	3303
868.809	5004
868.894	10856
868.979	2960
869.065	1125
869.150	-552
869.235	289
869.320	-605
869.405	174
869.490	-262
869.575	-279
869.660	39
869.745	56
869.830	-717
869.915	43
870.000	-59
870.085	-572
870.169	-65
870.254	0
870.339	-95
870.424	174
870.509	-581
870.593	-192
870.678	5
870.763	-145
870.847	-251
870.932	-553
871.016	-274
871.101	23
871.186	198
871.270	-304
871.355	-71
871.439	-430
871.523	-417
871.608	-326
871.692	-866
871.777	-42
871.861	495
871.945	-439
872.030	-868
872.114	769
872.198	-279
872.282	-251
872.367	-779
872.451	-469
872.535	-441
872.619	-224
872.703	-541
872.787	-964
872.871	-1379
872.955	-100
873.039	77
873.123	-1194
873.207	-418
873.291	-370
873.375	-39
873.459	-151
873.543	444
873.627	-13
873.711	-45
873.794	-269
873.878	-932
873.962	244
874.045	-534
874.129	-485
874.137	-481
874.213	-443
874.245	-286
874.296	-31
874.352	-864
874.380	-1271
874.460	-314
874.464	-277
874.547	-1123
874.568	-972
874.631	-508
874.676	-34
874.714	358
874.784	418
874.798	433
874.881	169
874.892	129
874.965	-169
874.999	-120
875.048	-39
875.107	-236
875.131	-319
875.215	471
875.215	471
875.298	269
875.323	68
875.381	-366
875.430	-205
875.465	-89
875.538	-168
875.548	-197
875.631	-910
875.646	-796
875.714	-115
875.753	-96
875.798	-56
875.861	-899
875.881	-1207
875.964	-213
875.968	-247
876.047	-701
876.076	-666
876.130	-631
876.183	-245
876.213	-43
876.291	223
876.296	245
876.379	351
876.398	248
876.462	-200
876.506	-423
876.545	-547
876.613	-220
876.628	-157
876.711	42
876.721	48
876.794	102
876.828	19
876.877	-158
876.935	-544
876.960	-660
877.043	-324
877.043	-322
877.125	77
877.150	56
877.208	54
877.258	106
877.291	93
877.365	377
877.374	434
877.456	390
877.472	408
877.539	206
877.579	-174
877.622	-508
877.687	332
877.704	578
877.787	846
877.794	792
877.869	241
877.901	323
877.952	354
878.008	-21
878.034	-166
878.115	204
878.117	213
878.199	-210
878.222	-207
878.282	-330
878.329	-393
878.364	-333
878.437	-170
878.447	-168
878.529	73
878.544	-33
878.611	-434
878.651	-410
878.694	-457
878.758	-486
878.776	-471
878.858	-416
878.865	-399
878.941	-139
878.972	-19
879.023	126
879.078	-227
879.105	-428
879.185	-28
879.187	-18
879.269	-45
879.292	-167
879.351	-236
879.399	314
879.433	453
879.506	-408
879.516	-458
879.598	-256
879.613	-268
879.680	-407
879.720	-108
879.762	72
879.827	6
879.844	34
879.926	-305
879.933	-285
880.007	-245
880.040	-284
880.089	-246
880.147	223
880.171	450
880.253	783
880.254	793
880.335	2418
880.360	3031
880.417	4516
880.467	5241
880.499	5845
880.574	8440
880.580	8596
880.662	14543
880.680	12962
880.744	6969
880.787	3699
880.825	1105
880.893	605
880.907	485
880.989	-238
881.000	-195
881.070	74
881.106	-173
881.152	-404
881.213	-312
881.233	-270
881.315	-347
881.319	-330
881.396	-41
881.426	-213
881.478	-615
881.532	-458
881.559	-294
881.639	-185
881.641	-183
881.722	-92
881.745	-126
881.803	-205
881.852	-249
881.885	-275
881.958	-242
881.966	-232
882.047	-44
882.064	93
882.129	531
882.171	578
882.210	618
882.277	446
882.291	438
882.372	1493
882.383	1460
882.454	1212
882.489	840
882.535	107
882.596	-343
882.616	-340
882.697	-196
882.702	-172
882.778	83
882.808	129
882.859	-23
882.914	-444
882.940	-527
883.020	-271
883.021	-265
883.102	-95
883.127	12
883.183	-164
883.233	-456
883.264	-356
883.339	514
883.345	524
883.426	-153
883.445	-269
883.507	-141
883.551	78
883.587	11
883.657	-369
883.668	-407
883.749	-654
883.763	-635
883.830	-260
883.869	-128
883.910	173
883.975	342
883.991	241
884.072	-185
884.081	-243
884.152	-675
884.187	-674
884.233	-281
884.292	105
884.314	105
884.394	-8
884.398	-23
884.475	-306
884.504	-305
884.555	-186
884.610	-201
884.636	-132
884.716	62
884.716	64
884.797	-216
884.821	-275
884.877	-165
884.927	183
884.958	306
885.033	-91
885.038	-111
885.118	-90
885.139	-99
885.199	-253
885.244	-496
885.279	-638
885.350	-855
885.359	-771
885.439	304
885.456	444
885.520	277
885.561	223
885.600	51
885.667	-240
885.680	-198
885.760	-134
885.773	-79
885.840	253
885.878	356
885.920	232
885.984	-45
886.000	-163
886.080	-541
886.089	-611
886.160	-27
886.195	346
886.240	184
886.300	-54
886.320	-23
886.400	92
886.406	86
886.480	83
886.511	92
886.560	202
886.616	464
886.640	407
886.720	96
886.722	85
886.800	121
886.827	145
886.879	210
886.932	245
886.959	297
887.038	517
887.039	518
887.119	166
887.143	49
887.198	128
887.248	165
887.278	169
887.354	148
887.358	144
887.437	-6
887.459	2
887.517	53
887.564	-94
887.596	-111
887.669	34
887.676	46
887.755	130
887.774	125
887.835	163
887.880	219
887.914	168
887.985	95
887.994	92
888.073	33
888.090	18
888.153	376
888.195	556
888.232	374
888.300	170
888.311	214
888.391	402
888.405	432
888.470	310
888.510	257
888.549	-7
888.615	-471
888.628	-337
888.708	449
888.720	575
888.787	-5
888.825	-351
888.866	-357
888.930	-342
888.945	-216
889.024	391
889.035	480
889.103	469
889.140	434
889.182	70
889.245	-469
889.261	-299
889.340	528
889.349	617
889.419	351
889.454	225
889.498	225
889.559	209
889.577	190
889.656	107
889.664	99
889.735	124
889.768	138
889.814	93
889.873	32
889.978	-41
890.083	342
890.187	-66
890.292	-67
890.397	211
890.501	-211
890.606	347
890.710	-96
890.815	-139
890.919	255
891.024	788
891.128	439
891.233	-201
891.337	-129
891.442	56
891.546	148
891.650	375
891.755	565
891.859	823
891.963	73
892.068	137
892.172	136
892.276	17
892.380	587
892.484	129
892.589	-90
892.693	-92
892.797	-273
892.901	615
893.005	31
893.109	205
893.213	568
893.317	-195
893.421	-1312
893.525	663
893.629	257
893.733	-478
893.837	243
893.941	-241
894.045	417
894.148	-392
894.252	118
894.356	-17
894.460	-427
894.564	41
894.667	44
894.771	208
894.875	-249
894.978	384
895.082	-944
895.186	-186
895.289	809
895.393	1047
895.496	93
895.600	-131
895.703	133
895.807	-142
895.910	480
896.014	307
896.117	158
896.221	397
896.324	541
896.427	-74
896.531	65
896.634	61
896.737	-187
896.840	-36
896.944	55
897.047	136
897.150	-80
897.253	-139
897.356	-480
897.460	338
897.563	-181
897.666	-632
897.769	-525
897.872	-103
897.975	18
898.078	224
898.181	61
898.284	257
898.387	180
898.490	214
898.593	-192
898.695	-119
898.798	-194
898.901	-45
899.004	-3
899.107	558
899.209	-192
899.312	10
899.415	-2
899.518	131
899.620	-92
899.723	189
899.826	-184
899.928	175
900.031	347
900.133	-179
900.236	36
900.338	-232
900.441	592
900.543	-18
900.646	-268
900.748	920
900.851	-35
900.953	54
901.055	-136
901.158	-302
901.260	610
901.362	343
901.465	-391
901.567	138
901.669	540
901.771	-448
901.873	78
901.976	-86
902.078	-433
902.180	-426
902.282	-650
902.384	-570
902.486	-299
902.588	-224
902.690	-715
902.792	-695
902.894	262
902.996	115
903.098	193
903.200	-249
903.302	-270
903.404	-242
903.505	-454
903.607	338
903.709	53
903.811	101
903.913	573
904.014	842
904.116	-766
904.218	-505
904.319	-489
904.421	-663
904.523	80
904.624	154
904.726	167
904.827	373
904.929	-259
905.030	-677
905.132	132
905.233	137
905.335	-602
905.436	-420
905.537	-703
905.639	-14
905.740	175
905.841	-453
905.943	471
906.044	564
906.145	-609
906.247	120
906.348	-551
906.449	-925
906.550	-103
906.651	-392
906.752	111
906.854	224
906.955	96
907.056	-388
907.157	-285
907.258	-69
907.359	-279
907.460	-141
907.561	169
907.662	-409
907.762	-616
907.863	-269
907.964	159
908.065	-347
908.166	-499
908.267	-196
908.367	20
908.468	-434
908.569	-301
908.670	-397
908.770	213
908.871	12
908.971	-196
909.072	590
909.173	-436
909.273	88
909.374	-681
909.474	-720
909.575	-125
909.675	-259
909.776	-316
909.876	-87
909.977	161
910.077	-205
910.177	-68
910.278	896
910.378	-32
910.478	-420
910.579	-517
910.679	-202
910.779	-153
910.879	302
910.980	423
911.080	78
911.180	-307
911.280	132
911.380	-546
911.480	-777
911.580	-799
911.680	-1133
911.780	151
911.880	-525
911.980	236
912.080	-565
912.180	12
912.280	428
912.380	-557
912.480	-20
912.580	-655
912.679	-371
912.779	-877
912.879	-9
912.979	231
913.078	124
913.178	-349
913.278	202
913.377	-405
913.477	-304
913.577	-274
913.676	-203
913.776	-351
913.875	-210
913.975	-248
914.074	5
914.174	379
914.273	-179
914.373	-7
914.472	97
914.572	-872
914.671	-603
914.770	-957
914.870	-189
914.969	-457
915.068	257
915.167	-480
915.267	-66
915.366	496
915.465	50
915.564	-45
915.663	-282
915.763	54
915.862	-415
915.961	-705
916.060	-703
916.159	-373
916.258	-347
916.357	-427
916.456	-60
916.555	-70
916.654	-391
916.752	-685
916.851	59
916.950	-422
917.049	-876
917.148	-452
917.247	27
917.345	221
917.444	-224
917.543	-275
917.642	-827
917.740	169
917.839	623
917.937	-578
918.036	-83
918.135	-57
918.233	-526
918.332	-600
918.430	-579
918.529	-536
918.627	-944
918.726	-39
918.824	-159
918.923	-703
919.021	-112
919.119	101
919.218	158
919.316	253
919.414	424
919.512	-1127
919.611	-545
919.709	-162
919.807	-589
919.905	-1083
920.003	-785
920.102	-627
920.200	-459
920.298	-356
920.396	-191
920.494	-429
920.592	-515
920.690	-374
920.788	-31
920.886	382
920.984	762
921.082	165
921.180	-50
921.277	-244
921.375	-48
921.473	-273
921.571	188
921.669	-701
921.766	-763
921.864	144
921.962	483
922.060	-606
922.157	-356
922.255	-588
922.352	143
922.450	-407
922.548	-21
922.645	2
922.743	-176
922.840	533
922.938	-447
923.035	377
923.133	-181
923.230	-582
923.327	-125
923.425	118
923.522	-72
923.619	-1457
923.717	-185
923.814	891
923.911	-309
924.008	22
924.106	-467
924.203	53
924.300	-195
924.397	-641
924.494	-82
924.591	-311
924.688	-192
924.786	647
924.883	-58
924.979	-1132
925.077	-66
925.173	69
925.270	-65
925.367	-223
925.464	-441
925.561	-145
925.658	-577
925.755	370
925.852	392
925.948	-643
926.045	-103
926.142	-591
926.239	-145
926.335	-150
926.432	-486
926.529	72
926.625	-252
926.722	172
926.818	-868
926.915	379
927.011	136
927.108	-270
927.204	-158
927.301	-909
927.397	-766
927.494	-241
927.590	159
927.687	-444
927.783	-609
927.879	227
927.976	-702
928.072	174
928.168	-286
928.264	-1053
928.361	-151
928.457	-807
928.553	-700
928.649	-569
928.745	-239
928.841	-844
928.937	-555
929.033	-507
929.129	-1007
929.225	-638
929.321	-274
929.417	-251
929.513	-819
929.609	-65
929.705	-315
929.801	-8
929.897	-161
929.993	-1020
930.089	-557
930.184	-543
930.280	-878
930.376	-455
930.471	442
930.567	-285
930.663	-888
930.758	-1054
930.854	539
930.950	-1112
931.045	-673
931.141	-78
931.236	-1122
931.332	-217
931.427	-350
931.523	-54
931.618	148
931.714	-889
931.809	-1183
931.905	-379
932.000	321
932.095	-589
932.191	-548
932.286	30
932.381	-259
932.476	-334
932.572	-658
932.667	101
932.762	86
932.857	-278
932.952	-303
933.047	36
933.142	-634
933.237	-385
933.332	-179
933.427	286
933.522	-483
933.617	-1154
933.712	-250
933.807	-13
933.902	68
933.997	-881
934.092	-925
934.187	-124
934.282	-544
934.376	-229
934.471	63
934.566	152
934.661	-979
934.755	-256
934.850	-537
934.945	-1230
935.039	-507
935.134	-1020
935.228	-315
935.323	-708
935.417	-1020
935.512	-426
935.606	-487
935.701	-231
935.795	-333
935.890	-614
935.984	303
936.079	-583
936.173	-411
936.267	-902
936.362	-402
936.456	-410
936.550	56
936.644	-744
936.738	-599
936.833	-621
936.927	-844
937.021	-1221
937.115	-502
937.209	-1111
937.303	-860
937.397	-401
937.491	-883
937.585	-231
937.679	-744
937.773	-337
937.867	-528
937.961	-797
938.055	-755
938.149	-328
938.243	76
938.337	-121
938.430	-1154
938.524	-405
938.618	445
938.712	-942
938.805	-62
938.899	-571
938.993	-1039
939.086	-1426
939.180	-1136
939.274	-449
939.367	-924
939.461	-1315
939.554	-1067
939.648	-901
939.741	-874
939.835	-580
939.928	-1302
940.022	-435
940.115	-1141
940.208	-760
940.302	-128
940.395	-60
940.488	-1095
940.582	-541
940.675	-667
940.768	-582
940.861	-790
940.954	-698
941.048	-902
941.141	-622
941.234	-890
941.327	-504
941.420	-449
941.513	169
941.606	-629
941.699	-1375
941.792	-1246
941.885	-359
941.978	-624
942.071	-607
942.164	-1546
942.257	-458
942.349	-78
942.442	-619
942.535	-396
942.628	-521
942.721	-392
942.813	-377
942.906	-654
942.999	-1137
943.091	-865
943.184	-328
943.277	-83
943.369	-492
943.462	-688
943.554	-729
943.647	-576
943.739	-1400
943.832	-420
943.924	-1362
944.017	-1226
944.109	-177
944.201	-934
944.294	-998
944.386	-1068
944.478	-1205
944.571	-873
944.663	-557
944.755	-552
944.847	-537
944.940	-936
945.032	-885
945.124	-699
945.216	-374
945.308	-739
945.400	-751
945.492	-557
945.584	-1320
945.676	-435
945.768	-380
945.860	-1100
945.952	-724
946.044	-1013
946.136	-1643
946.228	-509
946.320	-1696
946.412	56
946.503	-1265
946.595	-1018
946.687	-899
946.779	-798
946.870	-744
946.962	-304
947.054	-1045
947.145	-211
947.237	-1420
947.329	-1051
947.420	-888
947.512	-514
947.603	-659
947.695	-93
947.786	-1053
947.878	-865
947.969	-933
948.061	-846
948.152	-1227
948.243	-1168
948.335	-795
948.426	-750
948.517	-1748
948.609	-99
948.700	-861
948.791	-560
948.882	-642
948.973	-1206
949.065	-587
949.156	-938
949.247	-1018
949.338	-1195
949.429	-1187
949.520	-725
949.611	-732
949.702	-1334
949.793	-1843
949.884	-547
949.975	-932
950.066	-680
950.157	-484
950.247	-646
950.338	-995
950.429	-1220
950.520	-718
950.611	-1367
950.701	-961
950.792	-1059
950.883	-881
950.973	-1308
951.064	-873
951.155	-727
951.245	-334
951.336	-603
951.427	-927
951.517	-952
951.608	-471
951.698	-382
951.788	-530
951.879	-1398
951.969	-622
952.060	-568
952.150	-817
952.240	-219
952.331	-1503
952.421	-555
952.511	-772
952.602	-1797
952.692	-1201
952.782	-582
952.872	-1168
952.962	-1306
953.052	-60
953.143	-1209
953.233	-354
953.323	-455
953.413	-420
953.503	-819
953.593	-546
953.683	-826
953.773	-940
953.863	-800
953.953	-1220
954.042	-1039
954.132	-919
954.222	-1156
954.312	-775
954.402	-1163
954.492	-799
954.581	-905
954.671	-1044
954.761	-935
954.850	-857
954.940	-528
955.030	-1486
955.119	-542
955.209	-1152
955.298	-366
955.388	-661
955.477	-1118
955.567	-513
955.656	-1283
955.746	-657
955.835	-1195
955.925	-674
956.014	-842
956.103	-1405
956.193	-1069
956.282	-606
956.371	-1015
956.461	-1409
956.550	-1059
956.639	-1469
956.728	-1325
956.817	-1206
956.906	-1375
956.995	-925
957.085	-568
957.174	-1168
957.263	-2009
957.352	-981
957.441	-1285
957.530	-1107
957.619	-957
957.708	-75
957.796	-595
957.885	-581
957.974	-508
958.063	-1132
958.152	-526
958.241	-1124
958.329	-1339
958.418	-1118
958.507	-1318
958.596	-1872
958.684	-1153
958.773	-1085
958.861	-1047
958.950	-776
959.039	-615
959.127	-1185
959.216	-1357
959.304	-971
959.393	-568
959.481	-1164
959.570	-99
959.658	-1430
959.746	-865
959.835	-1016
959.923	-808
960.011	-1051
960.100	-916
960.188	-1334
960.276	-1070
960.365	-1138
960.453	-903
960.541	-1273
960.629	-1060
960.717	-1253
960.805	-1096
960.893	-1245
960.981	-975
961.069	-918
961.158	-1380
961.245	-666
961.333	-1298
961.421	-1025
961.509	-1747
961.597	-510
961.685	-996
961.773	-965
961.861	-1113
961.949	-1176
962.036	-405
962.124	-1032
962.212	-476
962.299	-822
962.387	-936
962.475	-871
962.562	-1117
962.650	-258
962.738	-1200
962.825	-1303
962.913	-515
963.000	-482
963.088	-1238
963.175	-977
963.263	-1439
963.350	-579
963.438	-1824
963.525	-1318
963.612	-804
963.700	-772
963.787	-606
963.874	-124
963.962	-895
964.049	-1321
964.136	-963
964.223	-1597
964.310	-1795
964.398	-2545
964.485	-1156
964.572	-636
964.659	-1024
964.746	-1132
964.833	-840
964.920	-698
965.007	-778
965.094	-1504
965.181	-1446
965.268	-1059
965.355	-796
965.441	-987
965.528	-1192
965.615	-680
965.702	-939
965.789	-1134
965.875	-1066
965.962	-1099
966.049	-1964
966.136	-1438
966.222	-977
966.309	-1478
966.395	-1704
966.482	-1029
966.569	-1804
966.655	-848
966.742	-1459
966.828	-1592
966.915	-1447
967.001	-1150
967.087	-1339
967.174	-1655
967.260	-835
967.347	-831
967.433	-460
967.519	-458
967.605	-729
967.692	-1766
967.778	-881
967.864	-1762
967.950	-1357
968.036	-1374
968.123	-477
968.209	-1514
968.295	-1537
968.381	-986
968.467	-1463
968.553	-784
968.639	-1357
968.725	-862
968.811	-566
968.897	-1035
968.983	-1098
969.069	-1342
969.154	-2032
969.240	-976
969.326	-1006
969.412	-1299
969.497	-637
969.583	-740
969.669	-708
969.755	-1705
969.840	-1410
969.926	-1565
970.012	-1656
970.097	-1223
970.183	-1560
970.268	-1059
970.354	-1274
970.439	-1315
970.525	-1004
970.610	-1441
970.696	-1217
970.781	-1306
970.866	-933
970.952	-1808
971.037	-1996
971.122	-162
971.208	-1609
971.293	-1357
971.378	-1180
971.463	-1244
971.549	-1252
971.634	-1338
971.719	-937
971.804	-809
971.889	-1366
971.974	-1367
972.059	-1066
972.144	-371
972.229	-1954
972.314	-823
972.399	-1442
972.484	-953
972.569	-549
972.654	-2386
972.739	-479
972.824	-1209
972.908	-819
972.993	-1303
973.078	-1280
973.163	-1575
973.247	-1699
973.332	-1713
973.417	-1090
973.501	-970
973.586	-640
973.671	-1379
973.755	-785
973.840	-644
973.924	-982
974.009	-1559
974.093	-1184
974.178	-1657
974.262	-1262
974.346	-685
974.431	-971
974.515	-734
974.600	-1183
974.684	-2084
974.768	-1892
974.852	-690
974.937	-1190
975.021	-1592
975.105	-2075
975.189	-887
975.273	-1040
975.358	-893
975.442	-1626
975.526	-715
975.610	-2076
975.694	-1646
975.778	-1034
975.862	-740
975.946	-1401
976.030	-1439
976.114	-1398
976.198	-1337
976.281	-973
976.365	-822
976.449	-1143
976.533	-1343
976.617	-2319
976.700	-985
976.784	-917
976.868	-1532
976.951	-1768
977.035	-1069
977.119	-1841
977.202	-1196
977.286	-1552
977.369	-1383
977.453	-1348
977.536	-1184
977.620	-1442
977.703	-1264
977.787	-1506
977.870	-1081
977.953	-827
978.037	-1396
978.120	-937
978.203	-1680
978.287	-1185
978.370	-610
978.453	-890
978.536	-788
978.620	-1211
978.703	-995
978.786	-1418
978.869	-1394
978.952	-2180
979.035	-414
979.118	-706
979.201	-1268
979.284	-1471
979.367	-1500
979.450	-1508
979.533	-1528
979.616	-1367
979.699	-1117
979.782	-1036
979.865	-1240
979.948	-1529
980.030	-1647
980.113	-1126
980.196	-2333
980.279	-1349
980.361	-993
980.444	-1250
980.526	-1585
980.609	-1459
980.692	-1109
980.774	-1438
980.857	-896
980.939	-1165
981.022	-1204
981.104	-1532
981.187	-2308
981.269	-1241
981.352	-1441
981.434	-1588
981.516	-1995
981.599	-1289
981.681	-1531
981.763	-1039
981.846	-1161
981.928	-2283
982.010	-2152
982.092	-1399
982.174	-1653
982.256	-1062
982.339	-1054
982.421	-1621
982.503	-1539
982.585	-526
982.667	-1621
982.749	-1029
982.831	-1540
982.913	-1737
982.995	-585
983.077	-668
983.158	-1487
983.240	-1665
983.322	-922
983.404	-2183
983.486	-1923
983.568	-739
983.649	-966
983.731	-995
983.813	-1723
983.894	-865
983.976	-1134
984.058	-1563
984.139	-1589
984.221	-1675
984.302	-1803
984.384	-1253
984.465	-1234
984.547	-1307
984.628	-1500
984.710	-1355
984.791	-1026
984.872	-1871
984.954	-1230
985.035	-1735
985.116	-1584
985.198	-803
985.279	-530
985.360	-2220
985.441	-1345
985.522	-1643
985.604	-1402
985.685	-2396
985.766	-775
985.847	-1309
985.928	-1088
986.009	-1410
986.090	-1286
986.171	-1161
986.252	-1337
986.333	-1091
986.414	-1395
986.495	-1114
986.576	-715
986.656	-1332
986.737	-1449
986.818	-1600
986.899	-1417
986.980	-482
987.060	-1503
987.141	-1591
987.222	-1056
987.302	-1182
987.383	-1386
987.464	-1100
987.544	-928
987.625	-1912
987.705	-1270
987.786	-1588
987.866	-1877
987.947	-1160
988.027	-1923
988.108	-1308
988.188	-2048
988.268	-1150
988.349	-1408
988.429	-1348
988.509	-1387
988.589	-1516
988.670	-2381
988.750	-1604
988.830	-1347
988.910	-1613
988.990	-2108
989.070	-1560
989.151	-1249
989.231	-1477
989.311	-1104
989.391	-1073
989.471	-1172
989.551	-1629
989.631	-1987
989.711	-1603
989.791	-2327
989.870	-2554
989.950	-1306
990.030	-1160
990.110	-1558
990.190	-1917
990.269	-1329
990.349	-1579
990.429	-1439
990.509	-1284
990.588	-1857
990.668	-873
990.747	-660
990.827	-1702
990.907	-2268
990.986	-1740
991.066	-1708
991.145	-995
991.225	-1851
991.304	-966
991.383	-1228
991.463	-1696
991.542	-1202
991.622	-1710
991.701	-1577
991.780	-1610
991.859	-1294
991.939	-1724
992.018	-2141
992.097	-1382
992.176	-1164
992.256	-1434
992.335	-1864
992.414	-1431
992.493	-1996
992.572	-1452
992.651	-939
992.730	-1587
992.809	-1268
992.888	-1586
992.967	-1375
993.046	-1887
993.125	-1831
993.203	-1866
993.282	-2034
993.361	-1935
993.440	-1741
993.519	-2019
993.597	-1072
993.676	-1520
993.755	-1575
993.834	-1623
993.912	-2162
993.991	-656
994.069	-1566
994.148	-908
994.226	-1864
994.305	-1607
994.384	-1970
994.462	-916
994.540	-1616
994.619	-1278
994.697	-1248
994.776	-1772
994.854	-1717
994.932	-1884
995.011	-1915
995.089	-1605
995.167	-2183
995.245	-1494
995.324	-1877
995.402	-1460
995.480	-1014
995.558	-1706
995.636	-1970
995.714	-1236
995.792	-1141
995.870	-2351
995.948	-1642
996.026	-2260
996.104	-1908
996.182	-1461
996.260	-1957
996.338	-1217
996.416	-1388
996.494	-2141
996.572	-1681
996.649	-2477
996.727	-1519
996.805	-1709
996.883	-1661
996.960	-1880
997.038	-1814
997.116	-894
997.193	-1704
997.271	-1814
997.348	-1810
997.426	-1603
997.504	-1357
997.581	-1976
997.658	-1506
997.736	-2300
997.813	-2643
997.891	-1488
997.968	-1909
998.046	-1988
998.123	-1963
998.200	-1923
998.277	-1434
998.355	-1330
998.432	-1998
998.509	-853
998.586	-2354
998.663	-1580
998.741	-2177
998.818	-1928
998.895	-2110
998.972	-1857
999.049	-1950
999.126	-2234
999.203	-1489
999.280	-1925
999.357	-1823
999.434	-2502
999.511	-1641
999.587	-2501
999.664	-2031
999.741	-716
999.818	-1803
999.895	-2037
999.971	-1548
1000.048	-2168
1000.125	-1789
1000.202	-1842
1000.278	-1728
1000.355	-1569
1000.431	-1862
1000.508	-2241
1000.584	-1646
1000.661	-1289
1000.738	-1522
1000.814	-1583
1000.890	-1734
1000.967	-2332
1001.043	-1393
1001.120	-2866
1001.196	-1766
1001.272	-2017
1001.349	-2037
1001.425	-1254
1001.501	-2086
1001.577	-2295
1001.654	-2112
1001.730	-1686
1001.806	-1912
1001.882	-2245
1001.958	-2104
1002.034	-1649
1002.110	-1846
1002.186	-1616
1002.262	-1925
1002.338	-2198
1002.414	-1577
1002.490	-2380
1002.566	-1439
1002.642	-2199
1002.718	-1354
1002.794	-1943
1002.870	-1856
1002.945	-1821
1003.021	-1783
1003.097	-1797
1003.173	-2227
1003.248	-1871
1003.324	-2654
1003.400	-1239
1003.475	-2333
1003.551	-2070
1003.626	-1792
1003.702	-1952
1003.777	-1345
1003.853	-2089
1003.928	-2276
1004.004	-2301
1004.079	-1475
1004.155	-2592
1004.230	-2045
1004.305	-2115
1004.381	-2348
1004.456	-2343
1004.531	-1661
1004.607	-2192
1004.682	-1658
1004.757	-2026
1004.832	-2010
1004.907	-1507
1004.982	-1689
1005.057	-1749
1005.133	-1890
1005.208	-2473
1005.283	-941
1005.358	-1404
1005.433	-1715
1005.508	-2210
1005.583	-1686
1005.657	-1863
1005.732	-1798
1005.807	-1885
1005.882	-1754
1005.957	-1987
1006.032	-2118
1006.106	-2225
1006.181	-1884
1006.256	-1823
1006.331	-2217
1006.405	-2112
1006.480	-2044
1006.554	-2298
1006.629	-2097
1006.704	-1412
1006.778	-2817
1006.853	-2223
1006.927	-2180
1007.002	-1633
1007.076	-2604
1007.150	-1682
1007.225	-1556
1007.299	-1717
1007.373	-2264
1007.448	-1800
1007.522	-1431
1007.596	-2416
1007.671	-2405
1007.745	-1816
1007.819	-2287
1007.893	-2260
1007.967	-1652
1008.041	-2117
1008.115	-1449
1008.190	-880
1008.264	-1837
1008.338	-2119
1008.412	-1943
1008.486	-1111
1008.560	-1900
1008.633	-1843
1008.707	-1883
1008.781	-1377
1008.855	-2505
1008.929	-2256
1009.003	-2090
1009.076	-2465
1009.150	-2292
1009.224	-2139
1009.298	-1367
1009.371	-1600
1009.445	-1691
1009.519	-1590
1009.592	-2164
1009.666	-1921
1009.739	-2327
1009.813	-2865
1009.886	-1088
1009.960	-2053
1010.033	-2225
1010.107	-1995
1010.180	-1841
1010.253	-1931
1010.327	-2876
1010.400	-1690
1010.473	-1176
1010.547	-1562
1010.620	-1805
1010.693	-2371
1010.766	-1958
1010.840	-2016
1010.913	-1978
1010.986	-1549
1011.059	-1642
1011.132	-1524
1011.205	-2660
1011.278	-1919
1011.351	-2291
1011.424	-1678
1011.497	-1537
1011.570	-2265
1011.643	-1708
1011.716	-2060
1011.789	-1784
1011.862	-1893
1011.934	-1853
1012.007	-1852
1012.080	-1329
1012.153	-1605
1012.225	-1509
1012.298	-1502
1012.371	-980
1012.443	-2354
1012.516	-1203
1012.588	-2090
1012.661	-1978
1012.733	-2489
1012.806	-1987
1012.879	-2062
1012.951	-2289
1013.023	-2617
1013.096	-1742
1013.168	-2013
1013.241	-2028
1013.313	-1724
1013.385	-3029
1013.458	-1610
1013.530	-1053
1013.602	-2077
1013.674	-1958
1013.746	-1549
1013.819	-2013
1013.891	-1346
1013.963	-2143
1014.035	-3026
1014.107	-1793
1014.179	-1505
1014.251	-2272
1014.323	-1391
1014.395	-1379
1014.467	-2465
1014.539	-2148
1014.611	-2279
1014.683	-2230
1014.754	-2277
1014.826	-2059
1014.898	-1139
1014.970	-1594
1015.042	-817
1015.113	-1939
1015.185	-2319
1015.257	-2608
1015.328	-1339
1015.400	-2046
1015.471	-2019
1015.543	-2248
1015.615	-2042
1015.686	-2119
1015.757	-1817
1015.829	-1420
1015.901	-2263
1015.972	-1618
1016.043	-1832
1016.115	-2233
1016.186	-1845
1016.257	-2275
1016.328	-1406
1016.400	-1886
1016.471	-2126
1016.542	-2803
1016.613	-1617
1016.685	-1580
1016.756	-1432
1016.827	-2611
1016.898	-2467
1016.969	-1787
1017.040	-1962
1017.111	-1221
1017.182	-1505
1017.253	-2486
1017.324	-2090
1017.395	-1380
1017.466	-2781
1017.537	-1663
1017.608	-1715
1017.678	-1522
1017.749	-1356
1017.820	-2329
1017.891	-2240
1017.961	-2009
1018.032	-2562
1018.103	-2079
1018.173	-1136
1018.244	-2268
1018.315	-1578
1018.385	-2432
1018.456	-2346
1018.526	-1501
1018.597	-2364
1018.667	-1908
1018.738	-2551
1018.808	-1874
1018.878	-1826
1018.949	-2405
1019.019	-1796
1019.089	-1617
1019.160	-2016
1019.230	-2013
1019.300	-1518
1019.371	-2300
1019.441	-1351
1019.511	-2249
1019.581	-1832
1019.651	-2133
1019.721	-2714
1019.791	-1714
1019.861	-1418
1019.931	-1492
1020.001	-2539
1020.071	-1623
1020.141	-2095
1020.211	-1814
1020.281	-2511
1020.351	-2094
1020.421	-1427
1020.491	-2694
1020.560	-2113
1020.630	-1873
1020.700	-2488
1020.770	-1467
1020.839	-1636
1020.909	-1844
1020.979	-2155
1021.048	-2763
1021.118	-1753
1021.187	-1612
1021.257	-2490
1021.326	-1942
1021.396	-2786
1021.465	-1146
1021.535	-1610
1021.604	-2523
1021.674	-2018
1021.743	-1851
1021.812	-1901
1021.882	-2335
1021.951	-1830
1022.020	-2291
1022.089	-1902
1022.159	-2080
1022.228	-2331
1022.297	-2114
1022.366	-1310
1022.435	-2524
1022.504	-2063
1022.573	-2075
1022.642	-1800
1022.711	-2157
1022.781	-2068
1022.849	-1793
1022.918	-2433
1022.987	-2202
1023.056	-1485
1023.125	-2069
1023.194	-1357
1023.263	-2327
1023.331	-1275
1023.400	-2169
1023.469	-2106
1023.538	-1364
1023.606	-2056
1023.675	-2202
1023.744	-1947
1023.812	-2572
1023.881	-1461
1023.949	-2371
1024.018	-2212
1024.086	-2379
1024.155	-2405
1024.223	-2596
1024.292	-2170
1024.360	-2297
1024.429	-1343
1024.497	-2460
1024.565	-2129
1024.634	-2482
1024.702	-1340
1024.770	-1270
1024.838	-2017
1024.907	-2342
1024.975	-2510
1025.043	-2603
1025.111	-1484
1025.179	-2662
1025.247	-1800
1025.315	-2152
1025.383	-2442
1025.451	-2428
1025.519	-2425
1025.587	-2064
1025.655	-2431
1025.723	-2696
1025.791	-1886
1025.859	-1702
1025.927	-1954
1025.995	-2356
1026.062	-2427
1026.130	-2237
1026.198	-2905
1026.266	-2489
1026.333	-2654
1026.401	-1378
1026.469	-2573
1026.536	-2014
1026.604	-1941
1026.671	-2586
1026.739	-2090
1026.806	-2210
1026.874	-2191
1026.941	-2256
1027.009	-2442
1027.076	-1968
1027.144	-1380
1027.211	-2899
1027.278	-2417
1027.345	-2363
1027.413	-1939
1027.480	-2262
1027.547	-1386
1027.614	-2619
1027.682	-1732
1027.749	-2578
1027.816	-1520
1027.883	-2181
1027.950	-2481
1028.017	-2344
1028.084	-2186
1028.151	-2451
1028.218	-2175
1028.285	-2725
1028.352	-2598
1028.419	-2460
1028.486	-2439
1028.553	-2497
1028.619	-2821
1028.686	-2353
1028.753	-1918
1028.820	-2545
1028.886	-2511
1028.953	-2053
1029.020	-2364
1029.086	-2776
1029.153	-2093
1029.220	-2734
1029.286	-1534
1029.353	-1757
1029.419	-1830
1029.486	-2320
1029.552	-2376
1029.619	-2022
1029.685	-2520
1029.751	-2225
1029.818	-2278
1029.884	-2587
1029.951	-1923
1030.017	-2475
1030.083	-2568
1030.149	-2588
1030.216	-2780
1030.282	-1524
1030.348	-2389
1030.414	-2479
1030.480	-2694
1030.546	-2095
1030.612	-2357
1030.678	-1768
1030.744	-2157
1030.810	-1790
1030.876	-2229
1030.942	-3138
1031.008	-1896
1031.074	-2646
1031.140	-1589
1031.206	-1951
1031.272	-1977
1031.337	-2319
1031.403	-2069
1031.469	-1877
1031.534	-2584
1031.600	-2337
1031.666	-2916
1031.731	-2702
1031.797	-2624
1031.863	-2171
1031.928	-2029
1031.994	-2302
1032.059	-1851
1032.125	-1816
1032.190	-2767
1032.256	-1465
1032.321	-2692
1032.386	-1991
1032.452	-1911
1032.517	-2219
1032.582	-2596
1032.647	-2467
1032.713	-2404
1032.778	-2342
1032.843	-2491
1032.908	-2164
1032.974	-2030
1033.039	-2528
1033.104	-1910
1033.169	-2390
1033.234	-2632
1033.299	-1535
1033.364	-2254
1033.429	-1850
1033.494	-2405
1033.559	-2411
1033.624	-1722
1033.688	-2414
1033.753	-2223
1033.818	-2418
1033.883	-2905
1033.948	-2113
1034.013	-2216
1034.077	-1950
1034.142	-1824
1034.207	-1380
1034.271	-1165
1034.336	-2504
1034.400	-2173
1034.465	-2227
1034.530	-2043
1034.594	-1524
1034.658	-1981
1034.723	-2327
1034.787	-2555
1034.852	-2802
1034.916	-1977
1034.981	-2281
1035.045	-1777
1035.109	-2367
1035.173	-1959
1035.238	-2434
1035.302	-2014
1035.366	-1862
1035.430	-2193
1035.495	-2363
1035.559	-2126
1035.623	-2028
1035.687	-1590
1035.751	-1676
1035.815	-1832
1035.879	-1978
1035.943	-2418
1036.007	-2609
1036.071	-1871
1036.135	-1980
1036.198	-1918
1036.262	-2417
1036.326	-2211
1036.390	-2194
1036.454	-2010
1036.517	-2236
1036.581	-1493
1036.645	-1637
1036.709	-1934
1036.772	-2483
1036.836	-2494
1036.900	-1597
1036.963	-1371
1037.026	-2107
1037.090	-1756
1037.154	-1558
1037.217	-2163
1037.280	-2196
1037.344	-2595
1037.407	-2323
1037.471	-1600
1037.534	-1776
1037.597	-1430
1037.661	-2480
1037.724	-2354
1037.787	-2538
1037.850	-1908
1037.913	-2643
1037.977	-1712
1038.040	-1717
1038.103	-1219
1038.166	-2254
1038.229	-2730
1038.292	-2373
1038.355	-1667
1038.418	-1919
1038.481	-1642
1038.544	-2287
1038.607	-2291
1038.670	-2372
1038.732	-1616
1038.795	-1914
1038.858	-2173
1038.921	-1379
1038.984	-2084
1039.046	-2340
1039.109	-2003
1039.172	-1924
1039.234	-1825
1039.297	-2385
1039.360	-2257
1039.422	-1709
1039.485	-1419
1039.547	-2482
1039.610	-1600
1039.672	-2548
1039.734	-2508
1039.797	-1739
1039.859	-2122
1039.922	-2038
1039.984	-1405
1040.046	-1824
1040.109	-1950
1040.171	-2183
1040.233	-2436
1040.295	-2127
1040.358	-2439
1040.420	-2757
1040.482	-1863
1040.544	-1374
1040.606	-2310
1040.668	-2228
1040.730	-2340
1040.792	-1960
1040.854	-1545
1040.916	-2723
1040.978	-2354
1041.040	-1727
1041.102	-1565
1041.164	-2469
1041.225	-2461
1041.287	-1818
1041.349	-2117
1041.411	-2088
1041.472	-2287
1041.534	-2264
1041.596	-2015
1041.657	-1971
1041.719	-1873
1041.781	-1967
1041.842	-2153
1041.904	-2219
1041.965	-1830
1042.027	-1853
1042.088	-1857
1042.150	-1664
1042.211	-2070
1042.272	-1773
1042.334	-1355
1042.395	-2424
1042.456	-1915
1042.518	-1975
1042.579	-2407
1042.640	-1905
1042.701	-2777
1042.763	-2179
1042.824	-1032
1042.885	-2145
1042.946	-2156
1043.007	-2160
1043.068	-2570
1043.129	-2040
1043.190	-1979
1043.251	-906
1043.312	-2852
1043.373	-2146
1043.434	-2089
1043.495	-2112
1043.556	-1974
1043.616	-2670
1043.677	-2252
1043.738	-2018
1043.799	-2329
1043.859	-1680
1043.920	-2044
1043.981	-2150
1044.041	-2229
1044.102	-1894
1044.162	-1940
1044.223	-1288
1044.284	-2398
1044.344	-1808
1044.405	-2366
1044.465	-2858
1044.525	-1938
1044.586	-2296
1044.646	-1745
1044.707	-1633
1044.767	-1602
1044.827	-1414
1044.887	-1923
1044.948	-1839
1045.008	-2569
1045.068	-1664
1045.128	-954
1045.188	-2370
1045.249	-1981
1045.309	-1739
1045.369	-1396
1045.429	-1926
1045.489	-2131
1045.549	-2013
1045.609	-2213
1045.669	-2556
1045.729	-2179
1045.789	-1710
1045.848	-1809
1045.908	-1910
1045.968	-2040
1046.028	-1725
1046.088	-2071
1046.147	-1419
1046.207	-1815
1046.267	-1567
1046.326	-1606
1046.386	-1863
1046.446	-1448
1046.505	-1047
1046.565	-1740
1046.624	-925
1046.684	-1563
1046.743	-1865
1046.803	-677
1046.862	-957
1046.922	0
