'Start Wavelength	183.907
'End Wavelength	1046.922
'Gate Delay	5.000
'Gate Width (ms)	1.050
'Laser Output Level	0.000
'X Position	0.000
'Y Position	0.000
'Z Position	0.000
'Grid Point Number	1.000
'Shot Number	100.000
183.907	259.000
183.977	-205.000
184.047	672
184.116	607
184.186	380
184.256	215
184.325	-109
184.395	304
184.465	496
184.534	723
184.604	519
184.674	737
184.743	-310
184.813	1038
184.883	633
184.952	308
185.022	476
185.092	593
185.161	116
185.231	319
185.301	154
185.370	261
185.440	411
185.509	568
185.579	588
185.649	466
185.718	171
185.788	1225
185.857	166
185.927	344
185.996	165
186.066	186
186.136	387
186.205	-141
186.275	837
186.344	513
186.414	180
186.483	-122
186.553	578
186.622	924
186.692	296
186.761	235
186.831	93
186.900	99
186.970	736
187.039	284
187.109	743
187.178	29
187.248	571
187.317	221
187.387	-246
187.456	187
187.526	864
187.595	504
187.664	-353
187.734	376
187.803	73
187.873	1410
187.942	763
188.012	259
188.081	19
188.150	30
188.220	766
188.289	881
188.358	249
188.428	1187
188.497	441
188.567	199
188.636	296
188.705	827
188.775	363
188.844	702
188.913	747
188.983	256
189.052	389
189.121	280
189.191	368
189.260	744
189.329	493
189.399	213
189.468	387
189.537	286
189.606	743
189.676	347
189.745	1057
189.814	914
189.883	247
189.953	527
190.022	-2
190.091	1530
190.161	671
190.230	514
190.299	326
190.368	580
190.437	-94
190.507	221
190.576	187
190.645	665
190.714	434
190.783	821
190.853	893
190.922	819
190.991	577
191.060	773
191.129	108
191.198	90
191.268	1111
191.337	-17
191.406	784
191.475	244
191.544	398
191.613	1079
191.682	208
191.752	702
191.821	942
191.890	413
191.959	490
192.028	331
192.097	389
192.166	777
192.235	395
192.304	732
192.373	688
192.442	377
192.511	220
192.580	142
192.650	309
192.719	987
192.788	196
192.857	605
192.926	528
192.995	167
193.064	639
193.133	741
193.202	238
193.271	1048
193.340	1171
193.409	1097
193.478	1284
193.547	1895
193.615	1856
193.684	1321
193.753	1176
193.822	43
193.891	299
193.960	802
194.029	528
194.098	520
194.167	584
194.236	485
194.305	732
194.374	-254
194.443	137
194.512	909
194.580	632
194.649	683
194.718	801
194.787	1007
194.856	376
194.925	377
194.994	1010
195.062	1122
195.131	1025
195.200	863
195.269	1089
195.338	197
195.407	550
195.475	1146
195.544	1107
195.613	855
195.682	616
195.751	887
195.819	552
195.888	332
195.957	894
196.026	693
196.094	1354
196.163	1476
196.232	1352
196.301	1185
196.369	871
196.438	634
196.507	637
196.576	896
196.644	416
196.713	1063
196.782	643
196.850	764
196.919	653
196.988	537
197.056	830
197.125	905
197.194	466
197.262	900
197.331	495
197.400	94
197.468	19
197.537	183
197.606	664
197.674	1354
197.743	521
197.812	255
197.880	1307
197.949	1106
198.017	1688
198.086	761
198.155	516
198.223	1058
198.292	943
198.360	312
198.429	476
198.497	698
198.566	1212
198.635	800
198.703	885
198.772	1384
198.840	1538
198.909	698
198.977	781
199.046	290
199.114	796
199.183	1373
199.251	866
199.320	1047
199.388	959
199.457	447
199.525	575
199.594	754
199.662	1252
199.731	384
199.799	412
199.867	1558
199.936	862
200.004	1625
200.073	502
200.141	636
200.210	1091
200.278	1076
200.346	1360
200.415	1411
200.483	871
200.552	1456
200.620	728
200.688	292
200.757	964
200.825	971
200.893	740
200.962	773
201.030	118
201.098	697
201.167	651
201.235	869
201.303	750
201.372	982
201.440	1830
201.508	1461
201.577	1330
201.645	1152
201.713	924
201.781	1700
201.850	778
201.918	996
201.986	661
202.055	730
202.123	989
202.191	1093
202.259	952
202.327	571
202.396	818
202.464	901
202.532	1799
202.600	2387
202.669	614
202.737	519
202.805	1015
202.873	703
202.941	339
203.009	555
203.078	752
203.146	1174
203.214	611
203.282	370
203.350	1692
203.418	1628
203.487	757
203.555	650
203.623	735
203.691	24
203.759	792
203.827	1104
203.895	1793
203.963	1601
204.031	1704
204.099	1135
204.168	1131
204.236	890
204.304	1110
204.372	903
204.440	948
204.508	150
204.576	399
204.644	911
204.712	512
204.780	832
204.848	816
204.916	1241
204.984	1463
205.052	1548
205.120	821
205.188	1559
205.256	1338
205.324	935
205.392	755
205.460	1017
205.528	1004
205.596	1512
205.664	1196
205.732	762
205.799	2369
205.867	1456
205.935	1126
206.003	1768
206.071	1134
206.139	1151
206.207	1364
206.275	793
206.343	855
206.411	927
206.478	1033
206.546	1340
206.614	752
206.682	1302
206.750	1344
206.818	1190
206.885	1528
206.953	1127
207.021	1383
207.089	1437
207.157	1003
207.225	1050
207.292	963
207.360	1592
207.428	984
207.496	1341
207.563	1548
207.631	1165
207.699	1322
207.767	877
207.834	1446
207.902	995
207.970	852
208.038	1705
208.105	1887
208.173	2039
208.241	2154
208.309	1326
208.376	1264
208.444	1911
208.512	1281
208.579	1541
208.647	1632
208.715	1763
208.782	510
208.850	1445
208.918	1576
208.985	1572
209.053	1828
209.120	1423
209.188	1183
209.256	1871
209.323	1301
209.391	1241
209.459	1301
209.526	1491
209.594	1400
209.661	1811
209.729	1641
209.796	1463
209.864	1975
209.932	1151
209.999	2305
210.067	1641
210.134	1765
210.202	1948
210.269	2415
210.337	2555
210.404	1499
210.472	1642
210.539	1507
210.607	1965
210.674	1581
210.742	1809
210.809	1544
210.877	1668
210.944	2000
211.012	1466
211.079	1899
211.146	1012
211.214	1260
211.281	2411
211.349	1496
211.416	2156
211.484	1506
211.551	1498
211.618	1510
211.686	1483
211.753	1400
211.821	956
211.888	1483
211.955	2495
212.023	1872
212.090	1464
212.157	1863
212.225	2204
212.292	2121
212.359	4947
212.427	4899
212.494	2448
212.561	1913
212.629	2120
212.696	1746
212.763	2206
212.831	1786
212.898	2022
212.965	1981
213.032	1816
213.100	1682
213.167	1839
213.234	2014
213.301	1564
213.369	1752
213.436	2067
213.503	2208
213.570	2193
213.638	1466
213.705	1644
213.772	1093
213.839	2194
213.906	1979
213.973	1599
214.041	1646
214.108	1731
214.175	1890
214.242	1911
214.309	1742
214.376	1576
214.444	1851
214.511	1950
214.578	2246
214.645	1808
214.712	1972
214.779	1920
214.846	1845
214.913	2323
214.980	2550
215.048	2171
215.115	2445
215.182	2800
215.249	2584
215.316	1952
215.383	1763
215.450	2068
215.517	1430
215.584	1974
215.651	2245
215.718	1237
215.785	2293
215.852	2434
215.919	2016
215.986	1742
216.053	1580
216.120	1541
216.187	2834
216.254	1730
216.321	2211
216.388	1849
216.455	2162
216.522	2038
216.589	2290
216.656	2862
216.722	2803
216.789	3521
216.856	2887
216.923	2474
216.990	2092
217.057	2787
217.124	2573
217.191	3877
217.258	3955
217.324	4409
217.391	3699
217.458	3147
217.525	2404
217.592	2099
217.659	2338
217.725	1844
217.792	2924
217.859	1709
217.926	1562
217.993	2079
218.059	2237
218.126	1732
218.193	2177
218.260	1983
218.327	1515
218.393	2295
218.460	2211
218.527	1822
218.594	2095
218.660	2549
218.727	2080
218.794	2074
218.860	1658
218.927	1390
218.994	1447
219.061	1898
219.127	2321
219.194	2362
219.261	1993
219.327	1881
219.394	1292
219.461	875
219.527	1576
219.594	2036
219.661	1112
219.727	996
219.794	1589
219.860	1750
219.927	2164
219.994	3437
220.060	3348
220.127	2738
220.193	3050
220.260	3211
220.326	3671
220.393	6058
220.460	6073
220.526	3440
220.593	3359
220.659	3615
220.726	3793
220.792	4684
220.859	5924
220.925	9678
220.992	9301
221.058	7730
221.125	5483
221.191	3894
221.258	2331
221.324	2146
221.391	2356
221.457	1980
221.524	1684
221.590	3122
221.657	5237
221.723	3251
221.789	3533
221.856	3124
221.922	1854
221.989	1535
222.055	1593
222.121	1880
222.188	2957
222.254	2051
222.321	2481
222.387	1443
222.453	1909
222.520	1524
222.586	2085
222.652	1539
222.719	1247
222.785	2281
222.851	818
222.918	1683
222.984	2122
223.050	1440
223.116	1273
223.183	1837
223.249	1393
223.315	1335
223.382	1045
223.448	1430
223.514	1443
223.580	1476
223.647	1078
223.713	1502
223.779	1355
223.845	1828
223.911	1656
223.978	1921
224.044	1462
224.110	1412
224.176	1489
224.242	1788
224.309	861
224.375	1494
224.441	851
224.507	1312
224.573	1048
224.639	1491
224.705	1465
224.772	1720
224.838	1014
224.904	1471
224.970	1246
225.036	1301
225.102	1732
225.168	1403
225.234	1565
225.300	1056
225.366	1628
225.432	1256
225.499	1440
225.565	2570
225.631	1454
225.697	2208
225.763	2613
225.829	2815
225.895	2483
225.961	2869
226.027	2128
226.093	2218
226.159	4059
226.225	6106
226.291	12177
226.357	10884
226.423	6436
226.489	4517
226.554	3293
226.620	3861
226.686	4596
226.752	5910
226.818	10583
226.884	15461
226.950	9688
227.016	5586
227.082	3234
227.148	3668
227.214	3351
227.279	3287
227.345	1801
227.411	2708
227.477	3943
227.543	6347
227.609	4578
227.674	3540
227.740	2117
227.806	2553
227.872	1696
227.938	2842
228.003	2801
228.069	2469
228.135	1923
228.201	1101
228.267	1636
228.332	2325
228.398	2490
228.464	1647
228.530	1859
228.595	1446
228.661	1379
228.727	2085
228.792	1599
228.858	2189
228.924	2030
228.990	2048
229.055	2004
229.121	1705
229.187	1328
229.252	1275
229.318	532
229.384	1365
229.449	1306
229.515	1341
229.581	319
229.646	2926
229.712	2165
229.777	3588
229.843	3059
229.909	3249
229.974	3356
230.040	3154
230.105	2670
230.171	2680
230.236	3445
230.302	4020
230.368	2859
230.433	3137
230.499	2281
230.564	2731
230.630	2238
230.695	2109
230.761	2391
230.826	2355
230.892	2693
230.957	2177
231.023	1710
231.088	2388
231.154	1886
231.219	2457
231.284	2641
231.350	1942
231.415	2144
231.481	1815
231.546	1693
231.612	2206
231.677	1373
231.742	1564
231.808	1681
231.873	1064
231.939	1999
232.004	2780
232.069	2161
232.135	2584
232.200	1752
232.265	1887
232.331	1098
232.396	1736
232.461	959
232.527	1549
232.592	1619
232.657	1869
232.723	2141
232.788	1518
232.853	1571
232.918	1862
232.984	1841
233.049	2176
233.114	1640
233.179	1473
233.245	2383
233.310	1477
233.375	1441
233.440	1009
233.506	1443
233.571	689
233.636	1392
233.701	1376
233.766	2294
233.832	1352
233.897	1720
233.962	1945
234.027	2253
234.092	1270
234.157	1782
234.222	2363
234.288	3334
234.353	4125
234.418	4021
234.483	3977
234.548	3396
234.613	2708
234.678	2711
234.743	3463
234.808	5364
234.873	3160
234.938	1928
235.004	1792
235.069	1673
235.134	2031
235.199	1909
235.264	1814
235.329	1962
235.394	2393
235.459	2353
235.524	2516
235.589	2113
235.654	2134
235.719	1192
235.784	1863
235.849	2430
235.913	3451
235.978	3353
236.043	2407
236.108	1686
236.173	2339
236.238	1718
236.303	2937
236.368	2603
236.433	3448
236.498	3749
236.563	4979
236.627	11479
236.692	20463
236.757	10915
236.822	6104
236.887	5987
236.952	3668
237.017	3814
237.081	4475
237.146	7746
237.211	13104
237.276	24632
237.341	21379
237.405	9418
237.470	5497
237.535	4007
237.600	3712
237.664	3281
237.729	3007
237.794	6382
237.859	6540
237.923	2722
237.988	2620
238.053	3761
238.118	3774
238.182	6436
238.247	4533
238.312	2232
238.376	3109
238.441	2930
238.506	2328
238.570	2060
238.635	2052
238.700	2707
238.764	1815
238.829	3928
238.893	2787
238.958	3376
239.023	3328
239.087	2440
239.152	2802
239.216	2082
239.281	2229
239.346	1491
239.410	2710
239.475	3133
239.539	5930
239.604	2954
239.668	2686
239.733	2864
239.797	6789
239.862	9277
239.926	5306
239.991	2227
240.055	2844
240.120	2771
240.184	1691
240.249	2142
240.313	1444
240.378	1873
240.442	4932
240.507	2983
240.571	2994
240.635	3336
240.700	3121
240.764	1397
240.829	1714
240.893	1644
240.957	2345
241.022	4370
241.086	4337
241.151	2852
241.215	1323
241.279	3231
241.344	2410
241.408	3828
241.472	3243
241.537	3383
241.601	3198
241.665	1888
241.730	3375
241.794	3702
241.858	2770
241.922	3075
241.987	2301
242.051	2624
242.115	3026
242.179	2543
242.244	2056
242.308	3377
242.372	2886
242.436	3394
242.501	3035
242.565	2301
242.629	2253
242.693	2768
242.757	2662
242.822	1755
242.886	3126
242.950	3043
243.014	2120
243.078	3253
243.142	2526
243.206	2490
243.271	2222
243.335	3294
243.399	3659
243.463	15772
243.527	13595
243.591	4938
243.655	3488
243.719	2089
243.783	3883
243.847	4988
243.911	5342
243.975	7013
244.040	4065
244.104	3005
244.168	3199
244.232	5026
244.296	4876
244.360	4375
244.424	3057
244.488	2119
244.552	2259
244.615	1936
244.679	2337
244.743	3588
244.807	2721
244.871	2322
244.935	1935
244.999	2305
245.063	2294
245.127	2894
245.191	4835
245.255	3328
245.319	4249
245.383	1346
245.446	3261
245.510	2787
245.574	3036
245.638	2463
245.702	4055
245.766	4218
245.829	3541
245.893	2387
245.957	3228
246.021	3201
246.085	2620
246.149	3659
246.212	9375
246.276	7125
246.340	5089
246.404	3426
246.467	5484
246.531	3925
246.595	3448
246.659	3336
246.722	4225
246.786	5035
246.850	5829
246.913	4340
246.977	2520
247.041	3066
247.104	3166
247.168	4036
247.232	10562
247.295	11512
247.359	4544
247.423	4690
247.486	4999
247.550	3629
247.614	4666
247.677	4261
247.741	2980
247.804	2419
247.868	4641
247.932	11332
247.995	9016
248.059	4560
248.122	3172
248.186	4721
248.249	11937
248.313	22573
248.376	17177
248.440	10307
248.503	5174
248.567	6682
248.630	9212
248.694	11654
248.757	16094
248.821	18672
248.884	13329
248.948	15499
249.011	19052
249.075	25308
249.138	14759
249.202	8015
249.265	6120
249.328	5990
249.392	6247
249.455	4507
249.519	4550
249.582	6681
249.645	8833
249.709	5101
249.772	3898
249.835	4178
249.899	4175
249.962	4503
250.025	4921
250.089	12592
250.152	9194
250.215	6098
250.279	5209
250.342	5295
250.405	5120
250.468	4503
250.532	5978
250.595	10491
250.658	31600
250.721	21375
250.785	10610
250.848	7761
250.911	5534
250.974	4256
251.038	11572
251.101	10989
251.164	7417
251.227	7989
251.290	7280
251.354	13613
251.417	32829
251.480	19103
251.543	29625
251.606	47283
251.669	23435
251.732	15385
251.795	18024
251.859	21324
251.922	29559
251.985	12259
252.048	7829
252.111	6893
252.174	9237
252.237	19193
252.300	22593
252.363	34796
252.426	30891
252.489	13791
252.552	8251
252.615	7465
252.678	11565
252.741	18992
252.804	31920
252.867	35397
252.930	21200
252.993	11744
253.056	9844
253.119	6600
253.182	5775
253.245	8511
253.308	6718
253.371	7427
253.434	6061
253.497	8674
253.559	11964
253.622	8516
253.685	14382
253.748	8637
253.811	5154
253.874	6400
253.937	4691
254.000	5322
254.062	12822
254.125	10633
254.188	14093
254.251	6298
254.314	6242
254.376	10400
254.439	9433
254.502	7090
254.565	12433
254.628	12381
254.690	8330
254.753	4864
254.816	5134
254.878	6136
254.941	12333
255.004	6337
255.067	5154
255.129	4307
255.192	2918
255.255	3236
255.317	3364
255.380	2186
255.443	2150
255.505	2128
255.568	1525
255.631	2490
255.693	3181
255.756	2337
255.819	2721
255.881	2280
255.944	1977
256.006	2742
256.069	2092
256.132	1855
256.194	3925
256.257	3934
256.319	4001
256.382	3507
256.444	3366
256.507	3274
256.569	3095
256.632	3744
256.694	5707
256.757	24112
256.819	25032
256.882	9420
256.944	5873
257.007	5794
257.069	4055
257.132	3622
257.194	3931
257.257	3395
257.319	2890
257.381	4235
257.444	17906
257.506	46758
257.569	27649
257.631	13502
257.693	7564
257.756	4794
257.818	3210
257.880	2977
257.943	3272
258.005	3176
258.067	2419
258.130	3243
258.192	6204
258.254	5563
258.317	3301
258.379	4568
258.441	8941
258.503	4951
258.566	8883
258.628	4438
258.690	2714
258.753	5582
258.815	7071
258.877	4262
258.939	3188
259.001	3032
259.064	2576
259.126	3795
259.188	3588
259.250	3435
259.312	6190
259.375	7044
259.437	4254
259.499	2745
259.561	3800
259.623	3350
259.685	3680
259.747	3760
259.809	8720
259.872	9700
259.934	18649
259.996	11255
260.058	4497
260.120	2609
260.182	2587
260.244	2198
260.306	2574
260.368	2571
260.430	3446
260.492	7419
260.554	7934
260.616	4631
260.678	13135
260.740	6016
260.802	3779
260.864	3593
260.926	3146
260.988	2756
261.050	4747
261.112	10734
261.174	12226
261.236	6110
261.298	3893
261.359	5883
261.421	4697
261.483	2688
261.545	2818
261.607	2199
261.669	2713
261.731	5510
261.793	8550
261.854	3671
261.916	3477
261.978	3843
262.040	2626
262.102	2016
262.164	3390
262.225	2342
262.287	4148
262.349	8031
262.411	3686
262.472	2186
262.534	5892
262.596	3485
262.658	2907
262.719	1621
262.781	4157
262.843	4689
262.904	2599
262.966	2384
263.028	3831
263.090	22676
263.151	18789
263.213	9760
263.275	6435
263.336	2917
263.398	3017
263.459	2085
263.521	3985
263.583	7080
263.644	2938
263.706	1811
263.767	1848
263.829	1478
263.891	2049
263.952	1735
264.014	1313
264.075	6955
264.137	6748
264.198	2822
264.260	712
264.321	2325
264.383	11278
264.444	8991
264.506	3097
264.567	4161
264.629	9473
264.690	6752
264.752	3657
264.813	2578
264.875	2188
264.936	2089
264.998	1995
265.059	2350
265.120	2668
265.182	8780
265.243	26666
265.305	8853
265.366	3385
265.427	2956
265.489	3461
265.550	1933
265.611	3175
265.673	2617
265.734	1758
265.795	1445
265.857	1032
265.918	1785
265.979	13222
266.040	33793
266.102	12674
266.163	6841
266.224	4374
266.286	3092
266.347	1737
266.408	2696
266.469	2097
266.530	2439
266.592	2352
266.653	8373
266.714	5705
266.775	2752
266.836	1482
266.898	2910
266.959	4439
267.020	2480
267.081	2249
267.142	2414
267.203	2505
267.264	2369
267.326	2717
267.387	1969
267.448	1733
267.509	2679
267.570	2433
267.631	1976
267.692	1840
267.753	1940
267.814	1619
267.875	7718
267.936	6220
267.997	5716
268.058	4254
268.119	2608
268.180	2461
268.241	1919
268.302	1881
268.363	1278
268.424	2427
268.485	1389
268.546	1799
268.607	1432
268.668	1751
268.729	1696
268.790	1734
268.851	3460
268.912	8674
268.972	6113
269.033	3345
269.094	1593
269.155	1895
269.216	1592
269.277	2610
269.338	1343
269.398	2352
269.459	2904
269.520	4463
269.581	5655
269.642	4993
269.702	3147
269.763	3170
269.824	2694
269.885	5191
269.945	4547
270.006	2580
270.067	919
270.128	1572
270.188	1495
270.249	1786
270.310	1601
270.370	2453
270.431	1673
270.492	2134
270.553	2729
270.613	8601
270.674	6926
270.734	2510
270.795	2758
270.856	4272
270.916	2449
270.977	2313
271.038	3476
271.098	3297
271.159	6013
271.219	3434
271.280	2347
271.340	1938
271.401	2908
271.462	3411
271.522	2705
271.583	2693
271.643	2513
271.704	2126
271.764	3851
271.825	12895
271.885	30272
271.946	17864
272.006	9390
272.066	22059
272.127	13775
272.187	5880
272.248	3937
272.308	8039
272.369	13026
272.429	6126
272.489	8802
272.550	6666
272.610	8808
272.671	4923
272.731	4702
272.791	5560
272.852	4475
272.912	3885
272.972	2176
273.033	3441
273.093	4234
273.153	3612
273.214	3470
273.274	5349
273.334	19011
273.394	16005
273.455	8931
273.515	15504
273.575	13138
273.635	7924
273.696	17498
273.756	15869
273.816	6589
273.876	5536
273.936	10446
273.997	6601
274.057	3452
274.117	4016
274.177	12998
274.237	28333
274.297	11554
274.358	12784
274.418	16441
274.478	8832
274.538	3613
274.598	4143
274.658	9689
274.718	7687
274.778	3870
274.838	2475
274.898	7813
274.958	11867
275.018	18110
275.078	9139
275.138	4937
275.198	2900
275.258	2539
275.318	3772
275.378	8326
275.438	6702
275.498	4217
275.558	10311
275.618	17560
275.678	9526
275.738	10616
275.798	5368
275.858	2901
275.918	2744
275.978	4501
276.038	2308
276.098	2947
276.157	12898
276.217	12832
276.277	6581
276.337	4873
276.397	4082
276.457	3226
276.517	2346
276.576	1822
276.636	2607
276.696	6186
276.756	10903
276.815	4623
276.875	3753
276.935	4492
276.995	2991
277.055	2265
277.114	2882
277.174	9137
277.234	10754
277.293	4101
277.353	3107
277.413	2071
277.472	3945
277.532	2394
277.592	4714
277.651	21119
277.711	11890
277.771	12705
277.830	29005
277.890	11592
277.950	26181
278.009	25616
278.069	10121
278.128	23734
278.188	14535
278.248	14959
278.307	23664
278.367	7124
278.426	4684
278.486	3602
278.545	1927
278.605	2499
278.664	2846
278.724	3337
278.783	17142
278.843	12749
278.902	4993
278.962	4620
279.021	4504
279.081	5311
279.140	4840
279.199	4934
279.259	4972
279.318	4845
279.378	7243
279.437	17691
279.496	45863
279.556	78076
279.615	28088
279.675	12993
279.734	10967
279.793	22388
279.853	16707
279.912	7087
279.971	5178
280.031	5786
280.090	16499
280.149	11325
280.208	21552
280.268	63160
280.327	23739
280.386	10326
280.445	13858
280.505	6638
280.564	5479
280.623	4185
280.682	11533
280.742	6995
280.801	3288
280.860	2945
280.919	2665
280.978	2518
281.037	2459
281.097	2440
281.156	3354
281.215	2306
281.274	6632
281.333	14795
281.392	4904
281.451	2553
281.510	2208
281.569	2467
281.628	1980
281.688	1974
281.747	3628
281.806	2661
281.865	1755
281.924	2231
281.983	2155
282.042	1938
282.101	2141
282.160	1462
282.219	2274
282.278	4456
282.337	8842
282.396	3719
282.454	3028
282.513	8333
282.572	13840
282.631	4441
282.690	2818
282.749	3221
282.808	3363
282.867	3895
282.926	2623
282.985	2036
283.043	1755
283.102	2625
283.161	3429
283.220	11991
283.279	8850
283.338	3631
283.396	3376
283.455	3365
283.514	5340
283.573	6171
283.631	4066
283.690	2597
283.749	4386
283.808	9565
283.866	4305
283.925	2981
283.984	4437
284.043	6079
284.101	4350
284.160	3991
284.219	5554
284.277	4731
284.336	12248
284.395	21902
284.453	10327
284.512	8702
284.570	11809
284.629	9622
284.688	11379
284.746	12043
284.805	15399
284.863	21065
284.922	23995
284.981	31807
285.039	47995
285.098	79535
285.156	93430
285.215	63849
285.273	98912
285.332	86646
285.390	59161
285.449	39442
285.507	29067
285.566	20925
285.624	16655
285.683	12888
285.741	10540
285.799	9912
285.858	8589
285.916	7951
285.975	5857
286.033	5340
286.091	4911
286.150	3818
286.208	5004
286.267	4934
286.325	6340
286.383	8662
286.442	5647
286.500	3058
286.558	3517
286.616	3730
286.675	5060
286.733	3960
286.791	2845
286.850	4358
286.908	8145
286.966	6565
287.024	3959
287.083	2947
287.141	3147
287.199	4305
287.257	4299
287.315	3049
287.374	5884
287.432	9057
287.490	4128
287.548	3823
287.606	2328
287.664	2428
287.723	5721
287.781	2794
287.839	3073
287.897	2937
287.955	2946
288.013	4607
288.071	16107
288.129	78554
288.187	79749
288.245	24660
288.303	11249
288.361	8014
288.419	6038
288.477	3770
288.535	3244
288.593	2186
288.651	2569
288.709	1858
288.767	2613
288.825	1335
288.883	2059
288.941	2176
288.999	1490
289.057	1686
289.115	1491
289.173	1944
289.231	1902
289.289	1754
289.346	2672
289.404	3608
289.462	6012
289.520	4007
289.578	2455
289.636	1857
289.694	1272
289.751	1457
289.809	1140
289.867	2132
289.925	3243
289.983	2380
290.040	1593
290.098	1994
290.156	2643
290.214	2669
290.271	1627
290.329	1277
290.387	891
290.444	1234
290.502	1202
290.560	1549
290.617	2024
290.675	1434
290.733	1654
290.790	1823
290.848	2217
290.906	1849
290.963	1905
291.021	1192
291.078	1343
291.136	2582
291.194	14344
291.251	9064
291.309	2381
291.366	1687
291.424	1703
291.481	2076
291.539	1919
291.596	1568
291.654	960
291.711	2217
291.769	3475
291.826	4106
291.884	1754
291.941	862
291.999	1907
292.056	2545
292.114	1653
292.171	1643
292.228	2724
292.286	3163
292.343	6264
292.401	4983
292.458	1582
292.515	1965
292.573	3729
292.630	2551
292.687	1827
292.745	1335
292.802	4358
292.859	11643
292.917	13900
292.974	4524
293.031	2807
293.089	1288
293.146	2453
293.203	1761
293.260	1757
293.318	3035
293.375	2369
293.432	1440
293.489	1627
293.546	1332
293.604	4143
293.661	17681
293.718	18621
293.775	8231
293.832	6338
293.889	4547
293.947	3514
294.004	2768
294.061	4107
294.118	12240
294.175	18453
294.232	12728
294.289	5070
294.346	4692
294.403	3751
294.460	2186
294.517	2581
294.574	1362
294.631	2070
294.688	2949
294.745	14632
294.802	31353
294.859	16359
294.916	7248
294.973	5489
295.030	5120
295.087	3617
295.144	2852
295.201	2247
295.258	1712
295.315	4722
295.372	17096
295.429	12403
295.486	4511
295.542	5596
295.599	19607
295.656	14141
295.713	16610
295.770	12325
295.827	4583
295.883	3074
295.940	4344
295.997	7268
296.054	4369
296.111	2530
296.167	2530
296.224	1814
296.281	2325
296.338	1519
296.394	1587
296.451	3725
296.508	13299
296.564	11870
296.621	13279
296.678	32883
296.734	18631
296.791	7372
296.848	4540
296.904	11692
296.961	18964
297.018	20296
297.074	8360
297.131	4938
297.187	3567
297.244	8925
297.301	32213
297.357	21264
297.414	7746
297.470	4767
297.527	3547
297.583	3373
297.640	2441
297.696	2038
297.753	2442
297.809	1619
297.866	1378
297.922	2222
297.979	1721
298.035	2735
298.092	7709
298.148	13815
298.204	6544
298.261	5328
298.317	19970
298.374	22466
298.430	8593
298.486	4923
298.543	3939
298.599	5081
298.656	7183
298.712	16280
298.768	17261
298.824	7315
298.881	3622
298.937	2525
298.993	4195
299.050	4752
299.106	2476
299.162	3094
299.218	2732
299.275	2087
299.331	3273
299.387	12782
299.443	28177
299.500	17157
299.556	6755
299.612	4740
299.668	5855
299.724	8107
299.780	4973
299.837	2996
299.893	10574
299.949	25795
300.005	17734
300.061	29508
300.117	24560
300.173	9902
300.229	8632
300.285	12480
300.341	8563
300.397	4285
300.453	2604
300.510	2669
300.566	2581
300.622	7116
300.678	22944
300.734	22524
300.790	22307
300.845	16793
300.901	20122
300.957	23366
301.013	9535
301.069	4771
301.125	5677
301.181	4836
301.237	3106
301.293	2702
301.349	2951
301.405	3004
301.461	4168
301.516	4192
301.572	5371
301.628	6737
301.684	6604
301.740	14326
301.796	11386
301.851	13124
301.907	17159
301.963	14507
302.019	41233
302.074	66095
302.130	42806
302.186	18759
302.242	9990
302.297	7177
302.353	10529
302.409	14389
302.464	8121
302.520	15297
302.576	27925
302.631	22610
302.687	10452
302.743	5987
302.798	4335
302.854	3655
302.910	4064
302.965	6363
303.021	8599
303.076	9036
303.132	14403
303.187	10345
303.243	4985
303.299	3800
303.354	3005
303.410	4598
303.465	2759
303.521	2895
303.576	2330
303.632	3737
303.687	14602
303.743	21608
303.798	11696
303.853	5203
303.909	4147
303.964	4904
304.020	10651
304.075	8449
304.130	13313
304.186	18302
304.241	15272
304.297	11244
304.352	5750
304.358	5618
304.407	4540
304.449	5043
304.463	5218
304.518	4205
304.539	3773
304.573	3069
304.629	3869
304.630	3978
304.684	8918
304.720	18273
304.739	23145
304.794	16961
304.811	14364
304.850	7578
304.902	4116
304.905	3920
304.960	4606
304.992	4539
305.015	4518
305.071	4152
305.083	3874
305.126	2805
305.173	2586
305.181	2561
305.236	2473
305.264	3237
305.292	4026
305.347	3780
305.354	3780
305.402	3808
305.445	4382
305.457	4541
305.512	5396
305.535	5090
305.567	4632
305.622	4937
305.626	5383
305.678	13225
305.716	21632
305.733	25266
305.788	18082
305.807	18390
305.843	17614
305.897	22035
305.898	22111
305.953	14736
305.988	11702
306.008	9540
306.063	6683
306.078	5760
306.118	4177
306.168	3252
306.173	3160
306.228	2477
306.259	2038
306.283	1876
306.338	2738
306.349	2958
306.393	3705
306.440	3197
306.448	3096
306.503	2543
306.530	3289
306.558	4584
306.613	10180
306.620	11005
306.668	17374
306.711	21577
306.723	22047
306.778	14924
306.801	12833
306.833	8980
306.888	4263
306.892	4027
306.943	3289
306.982	2773
306.997	2706
307.052	2624
307.072	2760
307.107	2949
307.162	3129
307.163	3138
307.217	4725
307.253	6065
307.272	6552
307.327	5952
307.343	6011
307.381	5689
307.434	4560
307.436	4633
307.491	10805
307.524	15720
307.546	19036
307.600	17604
307.614	17095
307.655	10205
307.704	5387
307.710	5360
307.765	5881
307.795	7216
307.819	9037
307.874	10848
307.885	10913
307.929	8735
307.975	7906
307.984	8116
308.038	10314
308.065	14182
308.093	22410
308.148	55254
308.156	60506
308.202	106032
308.246	118380
308.257	109962
308.312	62456
308.336	45647
308.366	37727
308.421	23427
308.426	22283
308.475	14168
308.517	9302
308.530	8852
308.585	7472
308.607	7163
308.639	6855
308.694	6976
308.697	7065
308.748	10614
308.787	12740
308.803	12999
308.857	11918
308.877	11753
308.912	10617
308.967	10069
308.967	10070
309.021	14418
309.058	19204
309.076	23894
309.130	41890
309.148	50082
309.185	79087
309.238	127851
309.239	128909
309.293	163502
309.328	171740
309.348	145532
309.402	73596
309.418	54881
309.457	39129
309.508	22119
309.511	21869
309.566	21025
309.598	22348
309.620	27779
309.674	44837
309.688	47862
309.729	48544
309.778	44546
309.783	43032
309.837	26683
309.868	18654
309.892	18994
309.946	24407
309.959	25813
310.001	39439
310.049	49516
310.055	47630
310.109	29333
310.139	20095
310.163	15974
310.218	8538
310.229	7038
310.272	5846
310.319	5023
310.326	4823
310.381	3579
310.409	2866
310.435	2815
310.489	3018
310.499	3028
310.543	3091
310.589	3292
310.598	3317
310.652	3611
310.679	3518
310.706	3142
310.760	2554
310.769	2467
310.814	2238
310.859	2021
310.868	2080
310.923	2509
310.948	2721
310.977	2822
311.031	2891
311.038	2920
311.085	3150
311.128	3222
311.139	3270
311.193	3467
311.218	3609
311.247	3365
311.301	2895
311.308	2821
311.356	2976
311.398	3161
311.410	3034
311.464	2394
311.488	2115
311.518	2113
311.572	2238
311.578	2244
311.626	3596
311.668	4820
311.680	4880
311.734	5044
311.758	5122
311.788	4885
311.842	4461
311.847	4413
311.896	4491
311.937	4602
311.950	4899
312.004	6155
312.027	6684
312.058	5710
312.112	3983
312.117	3805
312.165	3537
312.207	3303
312.297	3090
312.386	4344
312.476	3634
312.566	7186
312.656	6313
312.745	2606
312.835	3191
312.925	3691
313.015	3249
313.104	3798
313.194	3087
313.284	3214
313.374	3768
313.463	5333
313.553	3305
313.643	2506
313.732	3187
313.822	2049
313.912	2503
314.001	3603
314.091	3832
314.180	5525
314.270	5188
314.360	4609
314.449	5189
314.539	2783
314.628	2945
314.718	3075
314.808	3667
314.897	3645
314.987	2977
315.076	4138
315.166	5234
315.255	4720
315.345	4554
315.434	4305
315.524	4369
315.613	4547
315.703	5254
315.792	6999
315.881	12657
315.971	9171
316.060	8019
316.150	9437
316.239	9239
316.328	5498
316.418	2874
316.507	4028
316.597	4708
316.686	4951
316.775	4884
316.865	8801
316.954	4508
317.043	2778
317.133	2855
317.222	2482
317.311	2750
317.400	2810
317.490	3665
317.579	5772
317.668	3801
317.757	4023
317.847	9060
317.936	21538
318.025	19226
318.114	8919
318.203	7144
318.293	8386
318.382	18561
318.471	17664
318.560	18886
318.649	28686
318.738	13434
318.828	3932
318.917	5919
319.006	4555
319.095	11268
319.184	32373
319.273	31948
319.362	17538
319.451	4659
319.540	3835
319.629	8387
319.718	17611
319.807	7138
319.896	10490
319.985	41895
320.074	31820
320.163	5328
320.252	5695
320.341	6074
320.430	6879
320.519	7508
320.608	6452
320.697	4194
320.786	3619
320.875	5099
320.964	6128
321.053	10184
321.142	14241
321.230	19659
321.319	10621
321.408	26758
321.497	18084
321.586	10369
321.675	10895
321.764	12373
321.852	7698
321.941	13072
322.030	14401
322.119	8816
322.207	26697
322.296	19730
322.385	9176
322.474	10453
322.562	30209
322.651	27701
322.740	10654
322.829	18047
322.917	13387
323.006	11579
323.095	9219
323.183	6013
323.272	8328
323.361	12909
323.449	32574
323.538	19074
323.626	19404
323.715	24039
323.804	5750
323.892	18005
323.981	21761
324.069	4894
324.158	7756
324.246	15799
324.335	5487
324.424	11112
324.512	5484
324.601	5763
324.689	11384
324.778	36056
324.866	15645
324.954	5051
325.043	3351
325.131	5898
325.220	9960
325.308	11692
325.397	8264
325.485	8186
325.574	2278
325.662	3591
325.750	3163
325.839	3343
325.927	2791
326.015	3712
326.104	3606
326.192	6004
326.280	3656
326.369	3124
326.457	3876
326.545	8250
326.634	6649
326.722	2634
326.810	2029
326.898	2783
326.987	2870
327.075	6651
327.163	8536
327.251	3805
327.340	7589
327.428	23778
327.516	4889
327.604	3597
327.692	2794
327.781	2369
327.869	4149
327.957	4161
328.045	4562
328.133	2503
328.221	2161
328.309	3232
328.397	2861
328.485	3800
328.574	4748
328.662	16018
328.750	15266
328.838	3742
328.926	2931
329.014	2244
329.102	3274
329.190	8209
329.278	9549
329.366	3598
329.454	2461
329.542	2380
329.630	1973
329.718	2942
329.806	3129
329.893	3691
329.981	3190
330.069	5108
330.157	16515
330.245	76176
330.333	69307
330.421	11815
330.509	5531
330.597	18569
330.684	21621
330.772	5322
330.860	5262
330.948	6732
331.036	5607
331.123	2028
331.211	1858
331.299	3156
331.387	4323
331.475	12255
331.562	6028
331.650	1875
331.738	2164
331.825	3646
331.913	2315
332.001	2201
332.089	1939
332.176	4602
332.264	8138
332.352	12862
332.439	4504
332.527	3176
332.614	2965
332.702	3385
332.790	2386
332.877	4729
332.965	12166
333.052	8066
333.140	4201
333.228	15401
333.315	7638
333.403	2643
333.490	4205
333.578	9362
333.665	18188
333.753	15600
333.840	4011
333.928	2881
334.015	5888
334.103	10629
334.190	38248
334.278	23043
334.365	5133
334.452	5452
334.540	3726
334.627	3439
334.715	3457
334.802	5822
334.889	25450
334.977	57174
335.064	13769
335.151	4705
335.239	4057
335.326	4440
335.413	14023
335.501	42788
335.588	8208
335.675	3737
335.762	4066
335.850	7123
335.937	5941
336.024	8228
336.111	38748
336.199	40127
336.286	9325
336.373	3918
336.460	3162
336.547	2766
336.635	3360
336.722	2972
336.809	2700
336.896	3571
336.983	10622
337.070	30381
337.157	51594
337.245	29381
337.332	27733
337.419	5327
337.506	2437
337.593	3090
337.680	6711
337.767	32527
337.854	14347
337.941	10050
338.028	10688
338.115	7084
338.202	4276
338.289	6724
338.376	23212
338.463	16401
338.550	11689
338.637	28264
338.724	4685
338.811	9521
338.898	3345
338.984	2867
339.071	3070
339.158	3037
339.245	8569
339.332	10297
339.419	4815
339.506	8901
339.593	2201
339.679	2220
339.766	2548
339.853	2933
339.940	7894
340.027	4973
340.113	2055
340.200	4964
340.287	3081
340.374	3859
340.460	8896
340.547	5388
340.634	4627
340.720	15670
340.807	22336
340.894	2882
340.980	3338
341.067	2826
341.154	2523
341.240	4381
341.327	12049
341.414	6296
341.500	5949
341.587	3255
341.674	2574
341.760	4894
341.847	10969
341.933	5703
342.020	2231
342.106	2340
342.193	2297
342.279	5536
342.366	5065
342.452	8067
342.539	5561
342.625	6458
342.712	24053
342.798	15385
342.885	6137
342.971	2528
343.058	1592
343.144	2631
343.230	2222
343.317	2529
343.403	3165
343.490	1870
343.576	1817
343.662	2411
343.749	3097
343.835	4089
343.921	4256
344.008	21309
344.094	97879
344.180	43177
344.267	7724
344.353	18142
344.439	39706
344.525	13839
344.612	6733
344.698	4286
344.784	4128
344.870	1979
344.957	2388
345.043	4202
345.129	3295
345.215	7497
345.301	6565
345.387	5058
345.474	2007
345.560	1588
345.646	1922
345.732	2476
345.818	3520
345.904	3718
345.990	2811
346.076	2815
346.162	5386
346.249	3925
346.335	2300
346.421	2387
346.507	5834
346.593	36906
346.679	21638
346.765	3844
346.851	2715
346.937	3710
347.023	2845
347.108	2473
347.194	3160
347.280	2711
347.366	2551
347.452	6659
347.538	37563
347.624	42059
347.710	37709
347.796	8738
347.882	2570
347.967	2147
348.053	3007
348.139	2370
348.225	2366
348.311	2685
348.397	2562
348.482	3230
348.568	4592
348.654	2470
348.740	2760
348.825	5010
348.911	4202
348.997	11392
349.083	46617
349.168	15650
349.254	3135
349.340	4435
349.425	2511
349.511	2886
349.597	4567
349.682	5843
349.768	24330
349.854	26344
349.939	3470
350.025	2552
350.110	2068
350.196	2134
350.282	2189
350.367	1902
350.453	2678
350.538	3820
350.624	3855
350.709	5048
350.795	1945
350.880	3074
350.966	2792
351.051	3576
351.137	2958
351.222	3018
351.308	5240
351.393	27125
351.479	13745
351.564	4154
351.649	2385
351.735	3143
351.820	1228
351.906	2522
351.991	3059
352.076	8252
352.162	31544
352.247	9296
352.332	3813
352.418	6215
352.503	9538
352.588	25098
352.673	47234
352.759	9995
352.844	4669
352.929	3535
353.014	6049
353.100	3450
353.185	4827
353.270	8927
353.355	11292
353.441	4484
353.526	2311
353.611	4574
353.696	11345
353.781	6145
353.866	3579
353.952	2604
354.037	5061
354.122	16595
354.207	17562
354.292	10051
354.377	3013
354.462	2575
354.547	2926
354.632	4133
354.717	3318
354.802	8017
354.887	4691
354.972	2057
355.057	2049
355.142	1716
355.227	2547
355.312	4371
355.397	8439
355.482	23234
355.567	22264
355.652	7928
355.737	11872
355.822	21471
355.907	43755
355.991	6908
356.076	2967
356.161	2862
356.246	2201
356.331	3307
356.416	4068
356.501	26338
356.585	73674
356.670	15439
356.755	5351
356.840	4831
356.924	17047
357.009	96731
357.094	87339
357.179	12070
357.263	8842
357.348	5743
357.433	7520
357.517	6173
357.602	6207
357.687	4653
357.771	5860
357.856	24642
357.941	29251
358.025	13347
358.110	82410
358.195	94302
358.279	13251
358.364	5953
358.448	12600
358.533	52565
358.617	62170
358.702	44533
358.787	30633
358.871	8984
358.956	10749
359.040	4307
359.125	2694
359.209	2822
359.294	7845
359.378	30837
359.462	13679
359.547	6015
359.631	3010
359.716	3355
359.800	2543
359.885	3755
359.969	4077
360.053	2897
360.138	2639
360.222	3765
360.306	7185
360.391	8544
360.475	8504
360.559	36965
360.644	24567
360.728	23694
360.812	13699
360.896	68130
360.981	47539
361.065	22993
361.149	6009
361.233	4637
361.318	3816
361.402	4104
361.486	4958
361.570	3178
361.654	3973
361.739	6551
361.823	25859
361.907	87358
361.991	30459
362.075	6336
362.159	14577
362.243	16057
362.327	10226
362.411	17636
362.495	10594
362.580	5280
362.664	3089
362.748	3367
362.832	3878
362.916	5490
363.000	13990
363.084	49600
363.168	103006
363.252	44037
363.336	8752
363.420	7646
363.503	19896
363.587	53143
363.671	14692
363.755	6061
363.839	8775
363.923	5957
364.007	6924
364.091	11768
364.175	7437
364.258	40453
364.342	54436
364.426	49078
364.510	48572
364.594	15951
364.677	10395
364.761	40761
364.845	74352
364.929	17938
365.013	16417
365.096	9671
365.180	14493
365.264	9590
365.347	41778
365.431	43405
365.515	8663
365.598	4733
365.682	3835
365.766	4985
365.849	8918
365.933	4525
366.017	5069
366.100	5189
366.184	2631
366.267	2273
366.351	2224
366.435	3243
366.518	2832
366.602	1793
366.685	2756
366.769	3861
366.852	4089
366.936	9827
367.019	8698
367.103	4145
367.186	7456
367.270	5012
367.353	1532
367.436	2325
367.520	2587
367.603	3052
367.687	4874
367.770	9956
367.853	7777
367.937	10629
368.020	40807
368.104	16946
368.187	5694
368.270	11250
368.353	13438
368.437	10131
368.520	14292
368.603	16589
368.687	13777
368.770	50581
368.853	23966
368.936	8420
369.020	10948
369.103	6156
369.186	3126
369.269	3535
369.352	4076
369.436	10354
369.519	7228
369.602	5143
369.685	3324
369.768	5075
369.851	3578
369.934	2585
370.018	3220
370.101	6929
370.184	8571
370.267	5345
370.350	6947
370.433	11725
370.516	22249
370.599	54429
370.682	19680
370.765	19797
370.848	29300
370.931	49642
371.014	40499
371.097	6993
371.180	4851
371.263	3456
371.346	3262
371.429	3281
371.511	3999
371.594	6097
371.677	9202
371.760	11087
371.843	9226
371.926	19089
372.009	93193
372.091	63899
372.174	18059
372.257	43188
372.340	39995
372.423	12652
372.505	17778
372.588	10494
372.671	9092
372.754	43124
372.836	51079
372.919	12667
373.002	32200
373.085	20711
373.167	9542
373.250	17182
373.332	43498
373.415	52197
373.498	114982
373.580	86446
373.663	32944
373.746	96615
373.828	39073
373.911	10695
373.993	7551
374.076	17719
374.159	39911
374.241	14419
374.324	32227
374.406	48405
374.489	19195
374.571	89358
374.654	85748
374.736	18991
374.819	44893
374.901	78610
374.983	114486
375.066	41288
375.148	7746
375.231	12071
375.313	48681
375.395	31048
375.478	8304
375.560	4259
375.643	4872
375.725	9471
375.807	51239
375.890	87466
375.972	27263
376.054	12836
376.136	13219
376.219	12092
376.301	9131
376.383	59543
376.465	55018
376.548	14430
376.630	16514
376.712	45326
376.794	56706
376.877	7595
376.959	2499
377.041	3257
377.123	4360
377.205	8868
377.287	3702
377.369	2774
377.452	2823
377.534	3157
377.616	2517
377.698	2926
377.780	2417
377.862	3015
377.944	2722
378.026	2025
378.108	2048
378.190	2408
378.272	1849
378.354	2481
378.436	1600
378.518	2578
378.600	10301
378.682	14617
378.764	20800
378.846	41919
378.928	10140
379.010	10295
379.091	9130
379.173	3608
379.255	2268
379.337	3791
379.419	7322
379.501	37407
379.583	38441
379.664	6564
379.746	7261
379.828	22582
379.910	44424
379.991	52134
380.073	17869
380.155	4789
380.237	3821
380.318	3091
380.400	2719
380.482	4403
380.564	10063
380.645	9778
380.727	11850
380.809	7607
380.890	5122
380.972	4704
381.053	3742
381.135	4015
381.217	6701
381.298	28777
381.380	30341
381.461	10674
381.543	29429
381.624	93345
381.706	33591
381.787	7511
381.869	8482
381.951	12095
382.032	65958
382.113	100050
382.195	25393
382.276	10674
382.358	12493
382.439	43317
382.521	60286
382.602	88932
382.684	67159
382.765	52864
382.846	98246
382.928	138207
383.009	150652
383.090	48983
383.172	104997
383.253	340309
383.334	193927
383.416	83064
383.497	80664
383.578	28458
383.659	32392
383.741	82216
383.822	335580
383.903	376662
383.984	95355
384.066	95432
384.147	106670
384.228	31552
384.309	12341
384.390	12909
384.471	8499
384.553	7638
384.634	8171
384.715	12176
384.796	7117
384.877	6951
384.958	16099
385.039	47577
385.120	24855
385.201	8949
385.282	6802
385.363	7363
385.444	7195
385.525	8408
385.606	26935
385.687	55900
385.768	16860
385.849	8702
385.930	21091
386.011	80083
386.092	50046
386.173	9245
386.254	4736
386.335	4381
386.416	5163
386.496	10099
386.577	36874
386.658	21944
386.739	6788
386.820	6526
386.901	4759
386.981	4728
387.062	3600
387.143	5102
387.224	17771
387.304	43322
387.385	15415
387.466	7467
387.547	7953
387.627	7705
387.708	6922
387.789	30541
387.869	81043
387.950	42416
388.031	5230
388.111	2197
388.192	5231
388.273	9623
388.353	9490
388.434	5563
388.514	5382
388.595	24708
388.676	72770
388.756	53122
388.837	25343
388.917	31487
388.998	7492
389.078	4204
389.159	3292
389.239	3498
389.320	5246
389.400	6246
389.480	6164
389.561	27022
389.641	32989
389.722	6740
389.802	8108
389.883	10772
389.963	28516
390.043	41893
390.124	10606
390.204	5100
390.284	25224
390.365	37250
390.445	13410
390.525	34286
390.605	55610
390.686	30709
390.766	11059
390.846	5329
390.927	2736
391.007	3302
391.087	2909
391.167	4488
391.247	4225
391.328	3972
391.408	5864
391.488	7590
391.568	2779
391.648	4227
391.728	6287
391.808	5823
391.888	7453
391.969	10146
392.049	33246
392.129	24150
392.209	8879
392.289	29658
392.369	37349
392.449	13749
392.529	12730
392.609	8427
392.689	7938
392.769	22093
392.849	48619
392.929	18274
393.009	34208
393.089	58223
393.169	26741
393.248	40691
393.328	175188
393.408	441207
393.488	204800
393.568	42040
393.648	18787
393.728	11531
393.807	8860
393.887	7215
393.967	6206
394.047	7000
394.127	8432
394.206	10956
394.286	20571
394.366	102200
394.446	281392
394.525	120771
394.605	20681
394.685	10562
394.764	13364
394.844	26146
394.924	35208
395.003	13563
395.083	6622
395.163	6732
395.242	4792
395.322	5274
395.402	4381
395.481	5127
395.561	7085
395.640	26700
395.720	39898
395.799	31858
395.879	47192
395.958	20086
396.038	28698
396.117	138322
396.197	366541
396.276	174394
396.356	41758
396.435	22024
396.515	16112
396.594	12575
396.673	19413
396.753	38961
396.832	192229
396.912	343596
396.991	128602
397.070	27034
397.150	11458
397.229	8249
397.308	6848
397.388	16289
397.467	14652
397.546	4751
397.625	2607
397.705	4072
397.784	5741
397.863	5096
397.942	2344
398.022	2024
398.101	3843
398.180	24147
398.259	29611
398.338	8343
398.417	3606
398.497	3201
398.576	2541
398.655	2263
398.734	2044
398.813	1569
398.892	2751
398.971	22929
399.050	35627
399.129	6271
399.208	1490
399.287	1463
399.366	781
399.445	1900
399.524	1831
399.603	1893
399.682	2659
399.761	6985
399.840	22444
399.919	46361
399.998	12510
400.077	1998
400.156	866
400.235	952
400.313	1079
400.392	1783
400.471	5340
400.550	29386
400.629	17973
400.708	3619
400.786	1801
400.865	4570
400.944	8850
401.023	6828
401.102	1315
401.180	544
401.259	221
401.338	894
401.416	1930
401.495	2702
401.574	1952
401.652	1538
401.731	1802
401.810	3024
401.888	2014
401.967	1014
402.046	1330
402.124	1983
402.203	3017
402.281	2473
402.360	1993
402.438	5939
402.517	9270
402.596	3189
402.674	1600
402.753	1197
402.831	784
402.910	1094
402.988	3498
403.066	28135
403.145	48975
403.223	12219
403.302	25075
403.380	39900
403.459	27541
403.537	23162
403.615	4441
403.694	1730
403.772	1285
403.850	917
403.929	560
404.007	1063
404.085	2357
404.164	5758
404.242	3440
404.320	2316
404.398	2562
404.477	5387
404.555	31546
404.633	96114
404.711	31072
404.789	3549
404.868	1698
404.946	2527
405.024	817
405.102	461
405.180	243
405.258	447
405.336	194
405.415	745
405.493	2266
405.571	4980
405.649	1335
405.727	618
405.805	1239
405.883	2336
405.961	2162
406.039	2889
406.117	1999
406.195	2363
406.273	4423
406.351	37054
406.429	70994
406.507	16439
406.585	3421
406.663	1325
406.740	1887
406.818	2727
406.896	2587
406.974	930
407.052	1944
407.130	12222
407.208	60876
407.285	33446
407.363	2961
407.441	1668
407.519	902
407.596	1429
407.674	2671
407.752	6816
407.830	15056
407.907	9825
407.985	3661
408.063	1935
408.141	588
408.218	780
408.296	2456
408.373	2797
408.451	1959
408.529	1968
408.606	1465
408.684	715
408.762	210
408.839	-129
408.917	351
408.994	244
409.072	528
409.149	986
409.227	1013
409.304	3122
409.382	2946
409.459	2292
409.537	3422
409.614	4994
409.692	2914
409.769	2053
409.846	2952
409.924	5689
410.001	5942
410.079	3579
410.156	2092
410.233	1486
410.311	991
410.388	916
410.465	917
410.543	2202
410.620	1637
410.697	922
410.775	1780
410.852	1467
410.929	928
411.006	2560
411.083	1921
411.161	2721
411.238	6507
411.315	3486
411.392	1645
411.469	2125
411.547	2533
411.624	2431
411.701	1548
411.778	687
411.855	2570
411.932	4720
412.009	773
412.086	974
412.163	590
412.240	1313
412.317	1402
412.394	2367
412.471	1153
412.548	-492
412.625	55
412.702	1258
412.779	2485
412.856	3879
412.933	1086
413.010	625
413.087	-19
413.164	4440
413.241	25028
413.318	14884
413.395	2882
413.471	3906
413.548	3980
413.625	1406
413.702	1059
413.779	1088
413.855	559
413.932	314
414.009	169
414.086	521
414.162	89
414.239	346
414.316	2863
414.393	24913
414.469	30946
414.546	4252
414.623	283
414.699	356
414.776	663
414.853	950
414.929	520
415.006	393
415.082	295
415.159	1096
415.236	611
415.312	30
415.389	1076
415.465	3672
415.542	3874
415.618	925
415.695	1768
415.771	2058
415.848	1448
415.924	1169
416.000	771
416.077	620
416.153	71
416.230	-431
416.306	-445
416.383	-196
416.459	164
416.535	191
416.612	183
416.688	758
416.764	44
416.841	56
416.917	585
416.993	495
417.069	157
417.146	1161
417.222	1895
417.298	3305
417.374	1245
417.451	532
417.527	616
417.603	1643
417.679	1454
417.755	740
417.831	607
417.908	596
417.984	-436
418.060	-283
418.136	542
418.212	4702
418.288	2768
418.364	796
418.440	-280
418.516	1121
418.592	1824
418.668	2649
418.744	8392
418.820	10614
418.896	4393
418.972	44
419.048	385
419.124	1915
419.200	4414
419.276	2036
419.352	-127
419.428	-650
419.504	213
419.579	1236
419.655	1287
419.731	598
419.807	2413
419.883	8346
419.959	12458
420.034	4330
420.110	2011
420.186	8461
420.262	27007
420.337	9019
420.413	2424
420.489	994
420.565	423
420.640	658
420.716	848
420.792	1136
420.867	325
420.943	531
421.019	1661
421.094	3280
421.170	1626
421.245	529
421.321	646
421.397	891
421.472	1846
421.548	3205
421.623	8565
421.699	5347
421.774	2780
421.850	2659
421.925	2176
422.001	5706
422.076	4434
422.152	3375
422.227	5409
422.302	9076
422.378	10191
422.453	16913
422.529	31824
422.604	89225
422.679	247054
422.755	306277
422.830	153488
422.905	49252
422.981	21769
423.056	13637
423.131	9148
423.207	6663
423.282	5077
423.357	6609
423.432	8526
423.508	5182
423.583	6474
423.658	13630
423.733	5060
423.808	3019
423.883	3358
423.959	3738
424.034	3003
424.109	3132
424.184	925
424.259	1466
424.334	1186
424.409	1257
424.484	76
424.559	1192
424.634	1115
424.709	903
424.784	2811
424.859	2228
424.934	951
425.009	5053
425.084	19430
425.159	23303
425.234	4292
425.309	1174
425.384	1845
425.459	13137
425.534	11777
425.609	1002
425.683	561
425.758	262
425.833	454
425.908	1365
425.983	1977
426.058	14168
426.132	24203
426.207	4746
426.282	1415
426.357	2599
426.431	712
426.506	703
426.581	575
426.655	1642
426.730	491
426.805	736
426.879	248
426.954	1418
427.029	1415
427.103	6139
427.178	34904
427.253	59379
427.327	12891
427.402	1551
427.476	7207
427.551	14886
427.625	3836
427.700	1312
427.774	589
427.849	1127
427.923	626
427.998	716
428.072	435
428.147	2032
428.221	5043
428.296	29870
428.370	60835
428.444	15551
428.519	2299
428.593	3937
428.667	7186
428.742	5319
428.816	6537
428.890	9006
428.965	49279
429.039	51663
429.113	11911
429.188	7239
429.262	1504
429.336	1121
429.410	5454
429.485	13631
429.559	4745
429.633	5479
429.707	3171
429.781	1596
429.855	9278
429.930	49713
430.004	46670
430.078	22484
430.152	33534
430.226	33216
430.300	92730
430.374	50072
430.448	5251
430.522	3196
430.596	16901
430.670	32840
430.744	20346
430.818	89128
430.892	72692
430.966	8010
431.040	1918
431.114	893
431.188	15
431.262	1011
431.336	463
431.410	1043
431.484	3466
431.557	10302
431.631	3533
431.705	870
431.779	1746
431.853	17498
431.927	57183
432.000	20338
432.074	680
432.148	1130
432.222	864
432.295	425
432.369	601
432.443	583
432.516	3635
432.590	33330
432.664	55007
432.737	10419
432.811	906
432.885	-29
432.958	441
433.032	444
433.106	176
433.179	-329
433.253	-443
433.326	-348
433.400	-505
433.473	-327
433.547	-834
433.620	-424
433.694	-31
433.767	2477
433.841	469
433.914	49
433.988	-132
434.061	325
434.134	293
434.208	-369
434.281	-883
434.355	-200
434.428	-495
434.501	332
434.575	-451
434.648	-268
434.721	-526
434.795	-712
434.868	-794
434.941	-396
435.014	-557
435.088	-142
435.161	-261
435.234	2013
435.307	3285
435.381	3183
435.454	-226
435.527	1134
435.600	1640
435.673	2028
435.746	477
435.819	375
435.892	23
435.966	-41
436.039	-1067
436.112	-145
436.185	-750
436.258	-245
436.331	-935
436.404	-381
436.477	-825
436.550	-682
436.623	-1188
436.696	-474
436.769	-130
436.842	226
436.915	-786
436.987	-472
437.060	716
437.133	-127
437.206	-78
437.279	-220
437.352	-902
437.425	-471
437.498	-274
437.570	776
437.643	3987
437.716	2312
437.789	-510
437.861	52
437.934	4185
438.007	8411
438.080	1829
438.152	793
438.225	612
438.298	3865
438.370	40929
438.443	80060
438.516	20381
438.588	5306
438.661	397
438.734	221
438.806	225
438.879	462
438.951	114
439.024	2635
439.096	2881
439.169	774
439.241	-553
439.314	-376
439.386	223
439.459	1313
439.531	1210
439.604	2709
439.676	196
439.749	-858
439.821	-652
439.893	262
439.966	-5
440.038	-554
440.110	1355
440.183	769
440.255	-652
440.327	106
440.400	616
440.472	16731
440.544	58062
440.617	21780
440.689	2806
440.761	1942
440.833	4055
440.905	6599
440.978	1892
441.050	-224
441.122	-497
441.194	-708
441.266	-30
441.338	132
441.411	24
441.483	2832
441.555	21680
441.627	19942
441.699	2420
441.771	480
441.843	1351
441.915	-145
441.987	-74
442.059	-655
442.131	49
442.203	724
442.275	1210
442.347	2902
442.419	1328
442.491	3995
442.563	30845
442.635	57599
442.706	16387
442.778	11534
442.850	6067
442.922	1343
442.994	-351
443.066	1728
443.137	2339
443.209	1148
443.281	597
443.353	1616
443.425	6918
443.496	38271
443.568	122933
443.640	89334
443.711	24323
443.783	4464
443.855	1922
443.926	491
443.998	43
444.070	151
444.141	1270
444.213	1209
444.285	3135
444.356	2819
444.428	2111
444.499	1028
444.571	54
444.642	647
444.714	-563
444.785	625
444.857	2276
444.928	2229
445.000	5207
445.071	2670
445.143	3962
445.214	4282
445.285	2613
445.357	6815
445.428	18809
445.500	88782
445.571	161850
445.642	85029
445.714	38804
445.785	14408
445.856	8051
445.928	3543
445.999	3101
446.070	2463
446.141	1862
446.213	3592
446.284	3504
446.355	659
446.426	1014
446.497	156
446.569	321
446.640	856
446.711	2928
446.782	1769
446.853	-312
446.924	621
446.995	366
447.066	325
447.138	218
447.209	1540
447.280	315
447.351	244
447.422	-907
447.493	333
447.564	392
447.635	1136
447.706	1878
447.777	-193
447.847	-46
447.918	-419
447.989	-623
448.060	1640
448.131	733
448.202	2780
448.273	2501
448.344	2810
448.414	351
448.485	377
448.556	-44
448.627	-487
448.698	-222
448.768	-434
448.839	-1011
448.910	16
448.981	1024
449.051	1116
449.122	-547
449.193	173
449.263	-706
449.334	-29
449.405	25
449.475	1843
449.546	3877
449.616	2022
449.687	2063
449.758	1849
449.828	738
449.899	303
449.969	-464
450.040	38
450.110	-263
450.181	-74
450.251	-506
450.322	-122
450.392	-451
450.463	528
450.533	-839
450.604	283
450.674	-646
450.744	-407
450.815	-355
450.885	228
450.955	193
451.026	-249
451.096	-235
451.166	179
451.237	-89
451.307	2372
451.377	4519
451.447	1138
451.518	-512
451.588	42
451.658	201
451.728	134
451.799	613
451.869	7053
451.939	5222
452.009	736
452.079	-20
452.149	382
452.219	-313
452.289	2036
452.360	7045
452.430	3246
452.500	719
452.570	850
452.640	1440
452.710	2392
452.780	8549
452.850	9259
452.920	6993
452.990	6087
453.060	1267
453.129	843
453.199	1796
453.269	1796
453.339	19728
453.409	37710
453.479	21787
453.549	29839
453.619	36860
453.688	36164
453.758	9866
453.828	1078
453.898	356
453.968	713
454.037	220
454.087	-102
454.107	-249
454.168	-365
454.177	-401
454.247	-263
454.249	-247
454.316	-363
454.330	-278
454.386	-35
454.411	174
454.456	279
454.492	2218
454.525	3912
454.574	3660
454.595	3557
454.655	1305
454.665	945
454.734	867
454.736	901
454.804	968
454.817	1275
454.873	1916
454.898	3649
454.943	6621
454.979	5507
455.013	4640
455.060	2543
455.082	1680
455.141	842
455.152	637
455.221	1767
455.222	1871
455.291	4487
455.303	4752
455.360	6516
455.384	5084
455.430	2586
455.465	2751
455.499	2736
455.546	2812
455.569	2474
455.627	4704
455.638	5228
455.707	2929
455.708	2930
455.777	490
455.789	502
455.846	360
455.869	558
455.916	998
455.950	672
455.985	346
456.031	359
456.054	233
456.112	214
456.124	270
456.193	693
456.193	678
456.262	588
456.274	654
456.332	961
456.355	875
456.401	412
456.436	824
456.470	1273
456.516	538
456.540	175
456.597	461
456.609	518
456.678	375
456.678	361
456.747	420
456.759	407
456.817	235
456.840	197
456.886	174
456.920	311
456.955	385
457.001	852
457.024	1098
457.082	900
457.093	867
457.162	1170
457.163	1189
457.232	1825
457.243	1840
457.301	1852
457.324	1568
457.370	1146
457.405	1097
457.439	963
457.485	1322
457.508	1650
457.566	1902
457.577	1946
457.646	1643
457.647	1674
457.715	3859
457.727	4183
457.784	6964
457.808	8607
457.853	9471
457.889	11062
457.922	10852
457.969	9640
457.991	11270
458.050	12118
458.060	12464
458.129	18011
458.130	18275
458.198	14214
458.211	13574
458.267	13786
458.292	10195
458.336	6654
458.372	5748
458.405	6449
458.453	8737
458.474	11270
458.533	19792
458.543	20055
458.611	24506
458.614	24989
458.680	20196
458.694	16548
458.749	12131
458.775	8839
458.818	4598
458.855	3672
458.887	2801
458.936	2184
458.955	2133
459.016	2054
459.024	1978
459.093	2399
459.097	2396
459.162	2530
459.177	2645
459.230	2922
459.257	2916
459.299	2786
459.338	3144
459.368	3489
459.418	3304
459.437	2920
459.499	2778
459.505	2846
459.574	2599
459.579	2609
459.643	2380
459.659	2258
459.711	2308
459.740	2480
459.780	2697
459.820	3064
459.849	3125
459.900	3278
459.917	3374
459.981	3335
459.986	3324
460.054	3438
460.061	3471
460.123	4052
460.141	4250
460.191	4945
460.222	5395
460.260	6164
460.302	7002
460.328	6396
460.382	5807
460.397	5918
460.462	4837
460.465	4887
460.534	6601
460.543	6820
460.602	14316
460.623	17046
460.671	29329
460.703	38486
460.739	29552
460.783	21404
460.808	19510
460.864	10095
460.876	10059
460.944	4597
460.945	4530
461.013	3718
461.024	3641
461.081	3165
461.104	3224
461.150	3279
461.184	3329
461.218	3359
461.264	3270
461.286	3266
461.345	2899
461.355	2843
461.423	3120
461.425	3123
461.491	3483
461.505	3571
461.559	5061
461.585	5707
461.628	8815
461.665	11634
461.696	11842
461.745	12772
461.764	10947
461.825	5888
461.832	6067
461.901	4471
461.905	4405
461.969	3521
461.985	3573
462.037	3558
462.065	3326
462.105	3445
462.145	3743
462.173	4762
462.225	6537
462.241	7180
462.305	10028
462.310	9702
462.378	5207
462.385	4623
462.446	4438
462.465	4232
462.514	3974
462.545	3956
462.582	3860
462.625	3768
462.650	3539
462.705	3173
462.718	3347
462.785	4280
462.786	4291
462.854	4831
462.865	4900
462.922	5469
462.945	5799
462.990	4954
463.025	4229
463.058	4179
463.104	3825
463.126	3752
463.184	3520
463.194	3505
463.262	3601
463.264	3609
463.330	3778
463.344	3786
463.398	4059
463.424	4136
463.466	4044
463.504	4124
463.533	4105
463.583	3739
463.601	3887
463.663	4682
463.669	4778
463.737	5752
463.743	5832
463.805	8047
463.823	8717
463.873	12522
463.903	14808
463.940	14639
463.982	14482
464.008	11569
464.062	5831
464.076	5863
464.142	4829
464.144	4814
464.211	3784
464.221	3772
464.279	4113
464.301	4206
464.347	4350
464.381	4458
464.414	4989
464.461	5787
464.482	5898
464.540	5968
464.550	5886
464.617	5372
464.620	5348
464.685	7465
464.699	7900
464.753	9403
464.779	10181
464.820	11285
464.859	12200
464.888	11517
464.938	10527
464.956	10416
465.018	9578
465.023	9547
465.091	9161
465.098	9074
465.158	8843
465.177	8872
465.226	8540
465.257	8250
465.293	8662
465.336	9086
465.361	9706
465.416	11133
465.428	11425
465.495	12738
465.496	12793
465.563	18113
465.575	19017
465.631	21928
465.654	23193
465.698	15188
465.734	8613
465.765	8735
465.813	8404
465.833	8488
465.893	8767
465.900	8681
465.968	8047
465.972	7987
466.035	8389
466.052	8479
466.102	9130
466.131	9504
466.170	9268
466.210	8969
466.237	9365
466.290	10083
466.304	10014
466.369	9588
466.372	9642
466.439	10768
466.449	10899
466.506	11362
466.528	11536
466.573	14116
466.607	15970
466.641	21076
466.687	28162
466.708	30021
466.766	34935
466.775	32817
466.842	16581
466.845	15780
466.909	14773
466.925	14468
466.977	13023
467.004	12273
467.044	12800
467.083	13328
467.111	15186
467.163	18582
467.178	18776
467.242	19413
467.245	19322
467.312	16664
467.321	16281
467.379	15421
467.400	15061
467.446	15901
467.480	16457
467.559	13165
467.638	13302
467.717	13548
467.796	14259
467.875	15848
467.955	13633
468.034	17200
468.113	31976
468.192	41489
468.271	14662
468.350	13324
468.429	15850
468.508	16922
468.588	14004
468.667	12189
468.746	12307
468.825	11751
468.904	10493
468.983	11809
469.062	15966
469.141	16511
469.220	11100
469.299	11408
469.378	12742
469.456	16845
469.535	14506
469.614	12832
469.693	13679
469.772	14715
469.851	17936
469.930	13952
470.009	13218
470.088	13382
470.166	14869
470.245	21128
470.324	24376
470.403	15841
470.482	12947
470.560	12647
470.639	12268
470.718	14560
470.797	11681
470.875	12458
470.954	15259
471.033	15324
471.111	9401
471.190	10807
471.269	10256
471.347	10152
471.426	10936
471.505	12803
471.583	13708
471.662	13179
471.740	11845
471.819	12288
471.898	11731
471.976	10572
472.055	10706
472.133	11688
472.212	13587
472.290	13985
472.369	10499
472.447	10523
472.526	9010
472.604	10924
472.683	11325
472.761	10777
472.839	10881
472.918	10420
472.996	10880
473.075	10941
473.153	11067
473.231	10285
473.310	12322
473.388	10875
473.466	11402
473.545	11788
473.623	15014
473.701	14533
473.780	10874
473.858	11033
473.936	10275
474.014	10059
474.093	11227
474.171	13424
474.249	16755
474.327	11253
474.405	9336
474.484	9841
474.562	8989
474.640	9775
474.718	10011
474.796	10370
474.874	10193
474.952	8691
475.030	9509
475.108	10368
475.187	11639
475.265	11124
475.343	15601
475.421	16639
475.499	10114
475.577	9781
475.655	10996
475.733	16349
475.811	25298
475.889	24017
475.966	15298
476.044	10238
476.122	10900
476.200	14384
476.278	10630
476.356	9109
476.434	10422
476.512	11115
476.590	12528
476.667	11676
476.745	8487
476.823	9471
476.901	8320
476.979	9253
477.056	8871
477.134	9198
477.212	9004
477.290	9434
477.367	8481
477.445	7571
477.523	8925
477.601	8093
477.678	7899
477.756	9856
477.834	10147
477.911	8042
477.989	8166
478.066	8309
478.144	9476
478.222	10313
478.299	15653
478.377	13278
478.454	7906
478.532	7429
478.609	8662
478.687	8482
478.764	7744
478.842	7894
478.919	9605
478.997	7707
479.074	7327
479.152	8481
479.229	10831
479.307	7114
479.384	6628
479.461	7563
479.539	6540
479.616	8499
479.694	6864
479.771	7446
479.848	7958
479.926	9607
480.003	9176
480.080	7198
480.157	7159
480.235	6796
480.312	7138
480.389	7888
480.467	9849
480.544	12416
480.621	7479
480.698	7911
480.775	9167
480.853	8342
480.930	7236
481.007	7739
481.084	8973
481.161	9558
481.238	7640
481.315	7371
481.392	7207
481.470	6878
481.547	6779
481.624	7027
481.701	7196
481.778	7376
481.855	8628
481.932	9350
482.009	15536
482.086	10781
482.163	8039
482.240	11006
482.317	19431
482.393	11890
482.470	7807
482.547	7123
482.624	7611
482.701	7186
482.778	6889
482.855	6378
482.932	6531
483.009	6024
483.085	8417
483.162	9830
483.239	8836
483.316	7074
483.393	6706
483.469	6719
483.546	7297
483.623	7738
483.699	6570
483.776	7309
483.853	7373
483.930	9908
484.006	22232
484.083	38407
484.160	30463
484.236	55924
484.313	39977
484.389	30365
484.466	26622
484.543	26097
484.619	26187
484.696	26133
484.772	26429
484.849	26779
484.925	24072
485.002	23419
485.078	24336
485.155	24907
485.231	22093
485.308	22460
485.384	21981
485.461	24036
485.537	31189
485.614	33256
485.690	21649
485.766	21572
485.843	21417
485.919	27160
485.995	26722
486.072	19380
486.148	19134
486.224	19736
486.301	19732
486.377	20989
486.453	22030
486.530	23012
486.606	31039
486.682	33862
486.758	31919
486.835	32823
486.911	28408
486.987	37610
487.063	41484
487.139	51997
487.215	39899
487.292	23555
487.368	22101
487.444	24265
487.520	27581
487.596	28063
487.672	40368
487.748	92671
487.824	133630
487.900	41808
487.976	23854
488.052	23087
488.128	27422
488.204	22834
488.280	19302
488.356	22540
488.432	31597
488.508	43946
488.584	21306
488.660	18537
488.736	17923
488.812	19057
488.888	23213
488.964	29137
489.039	50006
489.115	70654
489.191	39148
489.267	18500
489.343	18671
489.418	16352
489.494	16149
489.570	15882
489.646	15539
489.722	16511
489.797	16224
489.873	20000
489.949	33339
490.024	27358
490.100	15255
490.176	15628
490.251	17318
490.327	21916
490.403	14099
490.478	15229
490.554	12568
490.629	14428
490.705	13331
490.781	15129
490.856	12887
490.932	16168
491.007	14691
491.083	16372
491.158	13797
491.234	16675
491.309	25977
491.385	25742
491.460	13794
491.536	13911
491.611	12330
491.686	14214
491.762	18539
491.837	30787
491.913	47906
491.988	61471
492.063	78433
492.139	20839
492.214	15922
492.289	11865
492.365	11388
492.440	13523
492.515	12013
492.590	13859
492.666	10726
492.741	13485
492.816	17241
492.891	10952
492.967	10723
493.042	9451
493.117	11687
493.192	9704
493.267	11628
493.342	13836
493.418	12750
493.493	11599
493.568	9456
493.643	10164
493.718	12296
493.793	14971
493.868	18195
493.943	12316
494.018	11085
494.093	11323
494.168	10018
494.243	9565
494.318	8751
494.393	9932
494.468	9122
494.543	9088
494.618	11080
494.693	10518
494.768	9605
494.842	10407
494.917	9453
494.992	10603
495.067	9376
495.142	9007
495.217	10088
495.292	8520
495.366	11051
495.441	12011
495.516	15081
495.591	20750
495.665	56644
495.740	138116
495.815	45302
495.890	12798
495.964	11332
496.039	12906
496.114	11311
496.188	12851
496.263	13522
496.338	11010
496.412	11511
496.487	13183
496.561	13823
496.636	14180
496.710	12469
496.785	12138
496.860	14051
496.934	11356
497.009	12024
497.083	13219
497.158	14739
497.232	14713
497.307	17507
497.381	16961
497.455	17032
497.530	18540
497.604	15964
497.679	16402
497.753	24103
497.827	30675
497.902	32126
497.976	34267
498.050	61174
498.125	198241
498.199	187549
498.273	47965
498.348	39838
498.422	32857
498.496	29109
498.570	25963
498.645	17902
498.719	17434
498.793	17135
498.867	22707
498.941	31518
499.016	73792
499.090	211349
499.164	58707
499.238	12073
499.312	12514
499.386	16043
499.460	14553
499.534	12676
499.609	14420
499.683	19069
499.757	16499
499.831	35190
499.905	133041
499.979	111837
500.053	19262
500.127	20070
500.201	15791
500.275	11223
500.349	10945
500.422	12740
500.496	18451
500.570	38126
500.644	73703
500.718	140302
500.792	24969
500.866	9385
500.940	12897
501.013	10488
501.087	10386
501.161	20268
501.235	24873
501.309	41104
501.382	115101
501.456	93758
501.530	21570
501.603	38400
501.677	13780
501.751	8415
501.825	9442
501.898	17053
501.972	45995
502.046	25875
502.119	10930
502.193	21493
502.266	50365
502.340	22649
502.413	22319
502.487	41488
502.561	22623
502.634	8455
502.708	9041
502.781	8705
502.855	7245
502.928	6136
503.002	6461
503.075	6355
503.149	6360
503.222	6795
503.295	7300
503.369	9069
503.442	11700
503.516	31267
503.589	80178
503.662	48643
503.736	16799
503.809	39156
503.882	31522
503.956	49439
504.029	48202
504.102	50333
504.175	68274
504.249	22402
504.322	11947
504.395	10066
504.468	7634
504.542	7029
504.615	6406
504.688	6282
504.761	5636
504.834	6946
504.907	10351
504.980	15339
505.053	8267
505.127	11911
505.200	10701
505.273	8847
505.346	6694
505.419	5912
505.492	5413
505.565	4696
505.638	5860
505.711	6029
505.784	5951
505.857	5550
505.930	5464
506.003	4732
506.076	6154
506.149	5980
506.221	8516
506.294	8206
506.367	19315
506.440	64072
506.513	30175
506.586	8447
506.659	5857
506.731	5750
506.804	6702
506.877	10026
506.950	6907
507.022	5873
507.095	7188
507.168	7268
507.241	6654
507.313	5190
507.386	5877
507.459	7878
507.531	5991
507.604	5267
507.677	4990
507.749	4354
507.822	7768
507.894	17628
507.967	22495
508.040	13986
508.112	11353
508.185	10712
508.257	9839
508.330	12925
508.402	9857
508.475	9535
508.547	9293
508.620	9977
508.692	12644
508.765	9137
508.837	8231
508.909	8056
508.982	7365
509.054	8880
509.127	8195
509.199	6728
509.271	7582
509.344	7421
509.416	7297
509.488	7222
509.560	8211
509.633	7552
509.705	9795
509.777	8911
509.849	11723
509.922	8714
509.994	7325
510.066	8782
510.138	10682
510.210	20102
510.283	18935
510.355	14122
510.427	12924
510.499	12096
510.571	11122
510.643	11593
510.715	15717
510.787	15031
510.859	10524
510.931	13246
511.003	16007
511.076	15418
511.148	10594
511.219	10197
511.291	12849
511.363	13930
511.435	9701
511.507	9837
511.579	9166
511.651	8759
511.723	9682
511.795	8487
511.867	9239
511.939	10336
512.010	14274
512.082	13023
512.154	9966
512.226	11201
512.298	15951
512.369	23363
512.441	17259
512.513	15727
512.585	12448
512.656	11936
512.728	13674
512.800	11912
512.871	11301
512.943	11620
513.015	10428
513.086	11282
513.158	11840
513.230	11742
513.301	14029
513.373	15355
513.444	11904
513.516	9984
513.588	10223
513.659	10310
513.731	12880
513.802	12143
513.874	19514
513.945	30285
514.016	13200
514.088	9416
514.159	11635
514.231	13649
514.302	20849
514.374	16514
514.445	14221
514.516	19328
514.588	16108
514.659	12989
514.730	18294
514.802	16162
514.873	16829
514.944	14893
515.016	13698
515.087	14507
515.158	16440
515.229	19732
515.301	16932
515.372	22694
515.443	14420
515.514	12171
515.585	10545
515.656	10936
515.728	9486
515.799	10073
515.870	10531
515.941	10867
516.012	11892
516.083	14423
516.154	16314
516.225	17536
516.296	14906
516.367	13874
516.438	14734
516.509	20709
516.580	37102
516.651	100932
516.722	334235
516.793	132852
516.864	24745
516.935	22488
517.006	27610
517.077	44041
517.148	110865
517.219	348586
517.289	540851
517.360	109596
517.431	33687
517.502	15675
517.573	15425
517.643	15212
517.714	16647
517.785	16530
517.856	15889
517.926	17922
517.997	19464
518.068	25073
518.138	37814
518.209	75000
518.280	233340
518.350	769968
518.421	286369
518.492	34335
518.562	20652
518.633	20770
518.703	21489
518.774	33436
518.845	76598
518.915	74505
518.986	25081
519.056	19402
519.127	28873
519.197	41045
519.268	71972
519.338	45565
519.408	16521
519.479	19703
519.549	15262
519.620	10552
519.690	9810
519.760	10946
519.831	10503
519.901	10512
519.971	8985
520.042	9003
520.112	10700
520.182	10823
520.253	12430
520.323	10920
520.393	14388
520.463	22018
520.534	15593
520.604	29322
520.674	13708
520.744	13748
520.814	32258
520.885	29696
520.955	25948
521.025	76255
521.095	31481
521.165	9141
521.235	8911
521.305	8304
521.375	8751
521.445	8596
521.515	11661
521.585	12460
521.655	12914
521.725	10660
521.795	10451
521.865	8584
521.935	11081
522.005	9766
522.075	7525
522.145	8664
522.215	9596
522.285	9905
522.355	12922
522.424	20506
522.494	18690
522.564	13187
522.634	24793
522.704	66847
522.774	28130
522.843	8839
522.913	7036
522.983	10025
523.053	8275
523.122	8887
523.192	13382
523.262	33479
523.331	33837
523.401	8552
523.471	6855
523.540	7565
523.610	6845
523.680	6033
523.749	6862
523.819	8278
523.888	7734
523.958	6386
524.027	7375
524.097	7481
524.166	7549
524.236	6993
524.305	7941
524.375	7150
524.444	6835
524.514	7355
524.583	7540
524.653	8397
524.722	9401
524.791	6934
524.861	6886
524.930	6426
524.999	8166
525.069	9802
525.138	7527
525.207	8616
525.277	7567
525.346	7319
525.415	7365
525.484	7160
525.554	8367
525.623	7469
525.692	8695
525.761	8010
525.830	8908
525.900	9401
525.969	15588
526.038	27504
526.107	52706
526.176	144464
526.245	121282
526.314	38790
526.383	74765
526.452	114407
526.522	159930
526.591	170520
526.660	38891
526.729	21992
526.797	29931
526.867	67276
526.935	225665
527.004	378603
527.073	215742
527.142	19000
527.211	10901
527.280	10283
527.349	10575
527.418	7134
527.487	6750
527.555	6956
527.624	6721
527.693	5356
527.762	6444
527.831	5976
527.899	6765
527.968	5919
528.037	6052
528.106	6483
528.174	12104
528.243	9480
528.312	12331
528.380	16787
528.449	7713
528.518	5372
528.586	5160
528.655	5927
528.723	5030
528.792	4987
528.861	5899
528.929	5167
528.998	6107
529.066	4695
529.135	5159
529.203	4802
529.272	5362
529.340	5385
529.409	5151
529.477	5179
529.545	6626
529.614	7534
529.682	8071
529.751	7850
529.819	8846
529.887	6479
529.956	6357
530.024	5685
530.092	5487
530.161	6636
530.229	8974
530.297	6497
530.365	4800
530.434	5173
530.502	5214
530.570	5932
530.638	4226
530.707	5997
530.775	6335
530.843	5146
530.911	5403
530.979	4477
531.047	5639
531.115	6345
531.183	5874
531.252	4784
531.320	5028
531.388	5604
531.456	5343
531.524	5589
531.592	5292
531.660	5531
531.728	5833
531.796	5724
531.864	5738
531.932	4841
532.000	5455
532.067	6148
532.135	5953
532.203	6741
532.271	7371
532.339	10804
532.407	24404
532.475	16754
532.542	9023
532.610	10788
532.678	19175
532.746	52015
532.814	137865
532.881	36608
532.949	7141
533.017	5949
533.084	6466
533.152	5628
533.220	5826
533.287	7080
533.355	5857
533.423	5238
533.490	6395
533.558	6100
533.625	6712
533.693	6954
533.761	6817
533.828	7561
533.896	7589
533.963	10333
534.031	13765
534.098	18876
534.166	10897
534.233	6286
534.300	6801
534.368	6277
534.435	7130
534.503	7162
534.570	7992
534.637	7711
534.705	9331
534.772	12008
534.840	21465
534.907	60620
534.974	88559
535.041	12701
535.109	7868
535.176	6653
535.243	6711
535.310	6649
535.378	6467
535.445	6476
535.512	6788
535.579	6509
535.646	7102
535.714	7111
535.781	8093
535.848	9394
535.915	7572
535.982	7881
536.049	7609
536.116	7499
536.183	6595
536.250	7024
536.317	8104
536.384	8555
536.451	9675
536.518	10902
536.585	8850
536.652	9124
536.719	11724
536.786	10927
536.853	9762
536.920	11685
536.987	19189
537.053	23714
537.120	63508
537.187	66221
537.254	9392
537.321	7384
537.388	8125
537.454	7410
537.521	7331
537.588	7373
537.654	8692
537.721	9939
537.788	9797
537.855	8870
537.921	8369
537.988	9258
538.055	7779
538.121	7721
538.188	8376
538.254	11017
538.321	17456
538.388	12395
538.454	8386
538.521	8598
538.587	7839
538.654	8126
538.720	8348
538.787	7994
538.853	7606
538.920	8712
538.986	8663
539.053	8594
539.119	8580
539.185	8586
539.252	8986
539.318	12172
539.385	11824
539.451	12747
539.517	11845
539.583	13868
539.650	22240
539.716	53734
539.782	20527
539.849	9047
539.915	8907
539.981	8832
540.047	10274
540.114	8778
540.180	9286
540.246	9045
540.312	11742
540.378	17916
540.444	20635
540.510	23334
540.576	57698
540.643	24555
540.709	8734
540.775	8376
540.841	9000
540.907	11695
540.973	15583
541.039	13724
541.105	13531
541.171	10275
541.237	9423
541.303	10205
541.369	10777
541.435	10995
541.500	15815
541.566	12261
541.632	8078
541.698	8013
541.764	8490
541.830	7696
541.896	8386
541.961	8062
542.027	8928
542.093	8880
542.159	9670
542.224	10116
542.290	12597
542.356	15787
542.421	18229
542.487	10842
542.553	10034
542.618	9614
542.684	9919
542.750	9868
542.815	11914
542.881	17976
542.947	47020
543.012	44884
543.078	9841
543.143	8400
543.209	10207
543.274	10608
543.340	12675
543.405	21580
543.471	34570
543.536	11570
543.602	8914
543.667	9048
543.732	8607
543.798	9135
543.863	9947
543.928	8773
543.994	8423
544.059	8637
544.124	9065
544.190	8668
544.255	9428
544.320	7887
544.386	9294
544.451	11822
544.516	14013
544.581	15938
544.646	31231
544.712	54009
544.777	15325
544.842	11175
544.907	10002
544.972	10661
545.037	10144
545.102	11198
545.168	10397
545.233	12103
545.298	11809
545.363	13864
545.428	16088
545.493	20510
545.558	41912
545.623	22901
545.688	12001
545.753	11024
545.818	11120
545.883	11182
545.947	12086
546.012	12582
546.077	12037
546.142	12660
546.207	12401
546.272	14724
546.337	14547
546.401	13796
546.466	13739
546.531	13364
546.596	14250
546.661	13709
546.725	14187
546.790	13835
546.855	14055
546.919	15461
546.984	16444
547.049	17947
547.113	18711
547.178	20124
547.243	22481
547.307	26207
547.372	28362
547.436	29582
547.501	27497
547.565	30374
547.630	29733
547.695	28515
547.759	28431
547.823	27723
547.888	27983
547.952	28749
548.017	30770
548.081	30866
548.146	32447
548.210	32587
548.274	31878
548.339	31972
548.403	29295
548.468	27504
548.532	27480
548.596	28686
548.660	28696
548.725	31044
548.789	34208
548.853	34265
548.917	31018
548.982	30836
549.046	29805
549.110	26226
549.174	25199
549.238	28494
549.303	31316
549.367	31658
549.431	31071
549.495	28845
549.559	29602
549.623	33311
549.687	37868
549.751	41555
549.815	41888
549.879	43232
549.943	41366
550.007	42087
550.071	42838
550.135	41322
550.199	37882
550.263	36435
550.327	35358
550.391	36920
550.455	38988
550.519	41364
550.582	42935
550.646	49019
550.710	53110
550.774	47355
550.838	47731
550.901	48793
550.965	51606
551.029	52562
551.093	57017
551.156	62849
551.220	71923
551.284	83136
551.347	65031
551.411	61147
551.475	64396
551.538	53602
551.602	49585
551.666	47135
551.729	43888
551.793	42200
551.856	43125
551.920	41054
551.983	41951
552.047	40995
552.110	40906
552.174	41590
552.237	43600
552.301	39433
552.364	37735
552.428	38081
552.491	38800
552.554	39149
552.618	39529
552.681	42163
552.745	42650
552.808	48166
552.871	58180
552.934	45789
552.998	40614
553.061	39629
553.124	37400
553.187	37223
553.251	39078
553.314	40500
553.377	38879
553.440	40694
553.503	43778
553.567	44947
553.630	41421
553.693	41263
553.756	41225
553.819	40573
553.882	40499
553.945	38640
554.008	39876
554.071	38665
554.134	40843
554.197	39589
554.260	37315
554.323	39493
554.386	39440
554.449	39231
554.512	40603
554.575	38859
554.638	38839
554.701	38262
554.764	38154
554.827	37768
554.889	35686
554.952	33558
555.015	33111
555.078	32981
555.141	34204
555.203	34224
555.266	33218
555.329	32765
555.391	32139
555.454	32346
555.517	30971
555.580	29715
555.642	29054
555.705	27782
555.768	28781
555.830	27694
555.893	27218
555.955	25465
556.018	26248
556.080	25373
556.143	26019
556.206	25621
556.268	25896
556.330	25582
556.393	24075
556.455	24145
556.518	24294
556.580	25577
556.643	22711
556.705	22193
556.767	20927
556.830	22024
556.892	21556
556.955	24454
557.017	23582
557.079	20135
557.142	19482
557.204	20576
557.266	26202
557.328	24686
557.391	17460
557.453	17021
557.515	18176
557.577	18229
557.639	18789
557.701	17457
557.764	15736
557.826	16639
557.888	18332
557.950	18224
558.012	21664
558.074	28219
558.136	41660
558.198	96213
558.260	48175
558.322	17741
558.384	17196
558.446	17979
558.508	20462
558.570	26344
558.632	37537
558.694	60982
558.756	84620
558.818	156699
558.880	409604
558.942	178213
559.003	93522
559.065	61857
559.127	22191
559.189	24314
559.251	32647
559.312	51150
559.374	86039
559.436	244151
559.498	174678
559.559	27039
559.621	25084
559.683	33319
559.744	52709
559.806	108684
559.868	207761
559.929	54582
559.991	28586
560.052	38452
560.114	87292
560.176	78776
560.237	48520
560.299	90937
560.360	30889
560.422	13003
560.483	12372
560.545	12656
560.606	11698
560.667	12025
560.729	12501
560.790	11254
560.852	11374
560.913	11376
560.974	10809
561.036	11081
561.097	10378
561.158	11406
561.220	11378
561.281	11027
561.342	12016
561.403	13113
561.465	15038
561.526	21982
561.587	29224
561.648	14425
561.709	11165
561.771	10149
561.832	10365
561.893	9649
561.954	11021
562.015	10471
562.076	10569
562.137	10788
562.198	11155
562.259	10649
562.320	11673
562.381	11669
562.442	13318
562.503	13183
562.564	10517
562.625	10769
562.686	10040
562.747	10501
562.808	11947
562.869	10148
562.930	11447
562.991	10413
563.051	11923
563.112	10395
563.173	9962
563.234	10262
563.294	11164
563.355	9902
563.416	10134
563.477	10049
563.537	10022
563.598	11282
563.659	10205
563.720	10346
563.780	10421
563.841	10530
563.901	9918
563.962	9605
564.023	9897
564.083	9542
564.144	10014
564.204	10402
564.265	10960
564.325	10326
564.386	13467
564.446	14390
564.507	9467
564.567	9931
564.628	9813
564.688	10978
564.749	9562
564.809	10641
564.869	10830
564.930	11130
564.990	10272
565.050	9784
565.111	9895
565.171	9711
565.231	8720
565.292	10472
565.352	8997
565.412	10154
565.472	9915
565.532	10207
565.593	10266
565.653	10334
565.713	10745
565.773	11350
565.833	11211
565.893	13678
565.953	11521
566.013	10451
566.074	11375
566.134	12136
566.194	14458
566.254	15760
566.314	12857
566.374	11176
566.434	11515
566.494	11559
566.554	11192
566.614	12191
566.673	12074
566.733	12118
566.793	12659
566.853	13284
566.913	13520
566.973	13099
567.033	13706
567.092	13444
567.152	12385
567.212	13615
567.272	13413
567.331	13700
567.391	13631
567.451	14269
567.511	15529
567.570	16555
567.630	13761
567.690	12956
567.749	13403
567.809	13340
567.868	14812
567.928	16632
567.988	19231
568.047	23306
568.107	29736
568.166	39788
568.226	61122
568.285	89656
568.345	74204
568.404	49760
568.464	39650
568.523	36235
568.582	39263
568.642	47303
568.701	62314
568.761	88136
568.820	145401
568.879	151638
568.939	94270
568.998	62947
569.057	44482
569.116	35075
569.176	27872
569.235	23413
569.294	19851
569.353	18034
569.413	16638
569.472	15451
569.531	14946
569.590	14064
569.649	14040
569.708	13000
569.767	13182
569.827	14249
569.886	12219
569.945	11031
570.004	11531
570.063	11409
570.122	11560
570.181	11644
570.240	11816
570.299	12432
570.358	11844
570.417	11201
570.475	10183
570.534	11479
570.593	10322
570.652	10488
570.711	11523
570.770	10282
570.829	10250
570.887	10158
570.946	9959
571.005	10624
571.064	10670
571.122	11013
571.181	10553
571.240	9645
571.299	8920
571.357	9494
571.416	9541
571.475	10847
571.533	10535
571.592	9566
571.650	9558
571.709	9289
571.768	10101
571.826	10535
571.885	9689
571.943	9431
572.002	9114
572.060	8954
572.119	8332
572.177	8795
572.236	9387
572.294	8522
572.352	9228
572.411	8708
572.469	8805
572.528	9083
572.586	9439
572.644	9619
572.703	11146
572.761	9001
572.819	8957
572.877	9205
572.936	8475
572.994	8024
573.052	8357
573.110	8847
573.169	8820
573.227	7750
573.285	8169
573.343	7603
573.401	8133
573.459	7571
573.517	7629
573.576	8820
573.634	7829
573.692	8383
573.750	8163
573.808	7863
573.866	8041
573.924	8200
573.982	9489
574.040	7620
574.098	8024
574.155	8349
574.213	8276
574.271	7861
574.329	8346
574.387	7888
574.445	7622
574.503	7733
574.560	7658
574.618	7343
574.676	6675
574.734	7154
574.792	7006
574.849	7955
574.907	7152
574.965	6762
575.022	6699
575.080	7422
575.138	7220
575.195	7395
575.253	6930
575.311	7387
575.368	7474
575.426	6424
575.483	7460
575.541	7167
575.598	7063
575.656	7276
575.713	7325
575.771	7775
575.828	7158
575.886	7297
575.943	7552
576.001	7868
576.058	7289
576.115	7338
576.173	8542
576.230	9372
576.287	8726
576.345	9064
576.402	7854
576.459	7390
576.517	7666
576.574	8517
576.631	7865
576.688	7076
576.746	7779
576.803	7581
576.860	7707
576.917	7844
576.974	8268
577.031	7590
577.089	7428
577.146	7320
577.203	7153
577.260	7240
577.317	7702
577.374	8472
577.431	7690
577.488	7493
577.545	7706
577.602	7504
577.659	7742
577.716	6670
577.773	7050
577.830	6381
577.886	6685
577.943	6108
578.000	6916
578.057	6848
578.114	7151
578.171	6727
578.227	7605
578.284	7463
578.341	7328
578.398	7762
578.454	7815
578.511	7522
578.568	8202
578.625	7141
578.681	6422
578.738	6723
578.794	7940
578.851	7362
578.908	7629
578.964	9374
579.021	9320
579.077	8355
579.134	8503
579.190	7776
579.247	7491
579.303	8201
579.360	7075
579.416	8283
579.473	7603
579.529	8142
579.586	7803
579.642	8139
579.698	7512
579.755	8430
579.811	8416
579.867	7950
579.924	7908
579.980	6967
580.036	8007
580.093	7400
580.149	8352
580.205	8544
580.261	7960
580.317	7966
580.374	8453
580.430	9080
580.486	9016
580.542	8344
580.598	8319
580.619	8204
580.654	8011
580.692	7863
580.710	7794
580.765	8330
580.767	8352
580.823	8683
580.838	8750
580.879	8927
580.911	8669
580.935	8508
580.984	7871
580.991	7782
581.047	7617
581.057	7704
581.103	8142
581.130	8117
581.159	8075
581.203	8092
581.215	8107
581.270	8330
581.276	8282
581.326	7864
581.349	8172
581.382	8629
581.422	8524
581.438	8474
581.494	8870
581.494	8870
581.550	9130
581.567	9289
581.606	9617
581.640	9443
581.661	9336
581.713	9852
581.717	9891
581.773	8591
581.786	8654
581.829	8913
581.859	8588
581.885	8340
581.932	9584
581.940	9802
581.996	10016
582.004	9934
582.052	9474
582.077	8966
582.107	8400
582.150	9186
582.163	9428
582.219	9725
582.223	9686
582.274	9204
582.296	9296
582.330	9443
582.368	10030
582.386	10262
582.441	9721
582.441	9720
582.497	9365
582.514	9320
582.552	9193
582.587	9504
582.608	9682
582.659	9573
582.663	9567
582.719	10128
582.732	10055
582.774	9826
582.805	9851
582.830	9889
582.877	10246
582.885	10315
582.941	10409
582.950	10383
582.996	10092
583.023	10476
583.052	10989
583.095	10642
583.107	10546
583.162	11055
583.168	11022
583.218	10500
583.240	10261
583.273	10146
583.313	10737
583.328	10860
583.384	10995
583.385	10982
583.439	10691
583.458	10819
583.494	11156
583.531	11026
583.549	10935
583.603	10851
583.605	10848
583.660	11719
583.676	11605
583.715	11365
583.748	11514
583.770	11575
583.820	12028
583.825	12082
583.881	11941
583.893	11846
583.936	11591
583.965	11764
583.991	11799
584.038	11781
584.046	11777
584.101	11844
584.110	11785
584.156	11788
584.183	12121
584.211	12421
584.255	12852
584.266	12894
584.321	12294
584.328	12269
584.376	12425
584.400	12798
584.431	13292
584.472	12992
584.486	12852
584.541	13057
584.545	13098
584.596	14180
584.617	14015
584.651	13530
584.689	13917
584.706	14123
584.761	14003
584.762	14002
584.816	14733
584.834	14759
584.871	14687
584.906	14941
584.926	15037
584.978	14723
584.980	14741
585.035	15566
585.051	15846
585.090	16493
585.123	17003
585.145	17441
585.195	17448
585.200	17458
585.254	18827
585.267	19117
585.309	20177
585.340	21058
585.364	21712
585.412	23290
585.419	23679
585.473	28651
585.484	29752
585.528	34158
585.556	38120
585.583	43116
585.628	51449
585.637	56385
585.692	96721
585.700	107070
585.747	199676
585.772	217714
585.801	188962
585.845	134674
585.856	113345
585.910	42555
585.917	34492
585.965	28830
585.989	26272
586.019	25441
586.061	24404
586.074	24360
586.128	23996
586.133	23933
586.183	24059
586.205	24456
586.237	25139
586.277	25024
586.292	24963
586.346	25627
586.349	25644
586.401	26293
586.421	26333
586.455	26637
586.493	27029
586.509	27524
586.564	29379
586.565	29411
586.618	35135
586.637	36970
586.672	39948
586.709	41220
586.727	39121
586.781	34650
586.781	34693
586.835	34720
586.853	34704
586.889	33610
586.925	32807
586.944	32864
586.996	32819
586.998	32888
587.052	34114
587.068	34755
587.106	36454
587.140	37349
587.161	37788
587.212	38315
587.215	38388
587.269	39833
587.284	39941
587.323	41516
587.356	43235
587.377	43808
587.427	44626
587.431	44828
587.485	47014
587.499	47627
587.539	49666
587.571	51092
587.593	52412
587.643	54938
587.648	55254
587.702	58417
587.715	59048
587.755	62116
587.786	64609
587.810	66688
587.858	70355
587.864	70914
587.917	76125
587.930	77342
587.971	83155
588.001	86983
588.025	91189
588.073	99333
588.079	100498
588.133	110465
588.145	112641
588.187	124065
588.217	131895
588.241	139757
588.288	155808
588.295	158622
588.348	181633
588.360	186673
588.402	210416
588.431	227435
588.456	245272
588.503	281347
588.510	287956
588.564	342780
588.575	355090
588.617	419548
588.646	466007
588.671	521097
588.718	630518
588.725	656459
588.778	862881
588.789	906191
588.832	1183062
588.861	1370538
588.886	1554681
588.932	1850754
588.939	1840657
588.993	1644807
589.004	1623558
589.047	1635961
589.075	1639054
589.100	1724794
589.147	1795340
589.154	1741986
589.207	1287142
589.218	1194379
589.261	1002270
589.290	876628
589.314	851118
589.361	808874
589.368	821502
589.421	929860
589.433	954794
589.475	1205500
589.504	1376554
589.528	1537078
589.576	1778955
589.582	1764702
589.635	1624158
589.647	1590143
589.689	1612403
589.718	1587357
589.742	1359843
589.790	899892
589.795	870835
589.849	590742
589.861	526184
589.902	434121
589.932	365669
589.955	336706
590.004	275443
590.009	271803
590.062	226961
590.075	215641
590.115	194261
590.146	177227
590.168	169704
590.218	152173
590.222	151390
590.275	136942
590.289	132916
590.328	125672
590.360	119327
590.381	115943
590.431	106874
590.435	106683
590.488	99482
590.503	97275
590.541	93862
590.574	90521
590.594	88791
590.645	83714
590.647	83736
590.700	78893
590.716	77289
590.753	75453
590.787	73381
590.806	72263
590.859	68481
590.859	68609
590.912	66307
590.930	65505
590.965	64618
591.001	63385
591.018	62951
591.071	61011
591.072	60841
591.124	59626
591.143	58999
591.177	58714
591.214	58048
591.230	57667
591.283	56160
591.285	55946
591.336	56040
591.356	56030
591.389	55909
591.427	55296
591.442	54907
591.495	52800
591.498	52519
591.547	50425
591.569	49274
591.600	49545
591.640	49519
591.653	49270
591.706	47771
591.711	47485
591.759	47268
591.782	46960
591.811	47520
591.853	48105
591.864	48536
591.917	49997
591.924	50071
591.969	47837
591.995	46336
592.022	46284
592.066	45904
592.075	45913
592.127	45193
592.137	44953
592.180	47628
592.208	49160
592.233	49251
592.279	48966
592.285	48811
592.338	46346
592.350	45645
592.390	44499
592.421	43441
592.443	43403
592.491	42954
592.495	43090
592.548	43338
592.562	43290
592.600	43137
592.633	42784
592.653	42896
592.704	42640
592.705	42855
592.775	41269
592.846	42312
592.916	43734
592.987	44173
593.058	43861
593.128	41392
593.199	40434
593.270	39479
593.341	39054
593.411	39448
593.482	40771
593.553	40880
593.623	39516
593.694	39268
593.764	40360
593.835	40414
593.906	40590
593.976	40399
594.047	39857
594.117	41010
594.188	44937
594.258	43422
594.329	40289
594.399	38859
594.470	41022
594.540	40309
594.611	40709
594.681	40049
594.751	40581
594.822	40011
594.892	43192
594.963	43903
595.033	43784
595.103	44033
595.174	44012
595.244	47016
595.314	55496
595.384	56407
595.455	45418
595.525	44644
595.595	47959
595.665	48645
595.736	48400
595.806	46072
595.876	47609
595.946	47729
596.016	47558
596.087	47983
596.157	48398
596.227	50086
596.297	49214
596.367	52201
596.437	54071
596.507	56897
596.577	63005
596.647	64752
596.717	57265
596.787	58989
596.857	59091
596.927	57712
596.997	60200
597.067	58013
597.137	60316
597.207	60618
597.277	60744
597.347	60844
597.417	58892
597.487	57588
597.557	59646
597.626	59649
597.696	61095
597.766	63031
597.836	65395
597.906	65292
597.975	56655
598.045	54536
598.115	54868
598.185	55778
598.254	59762
598.324	66413
598.394	70789
598.464	70464
598.533	68937
598.603	65489
598.672	63102
598.742	61471
598.812	62307
598.881	62063
598.951	64534
599.020	61905
599.090	63526
599.159	66052
599.229	65317
599.299	62672
599.368	62770
599.437	63678
599.507	62494
599.576	59122
599.646	58136
599.715	56330
599.785	57056
599.854	56124
599.924	55715
599.993	57079
600.062	54328
600.132	54219
600.201	55908
600.270	60727
600.340	68394
600.409	68968
600.478	67167
600.547	66535
600.617	68969
600.686	61349
600.755	52554
600.824	49319
600.894	49210
600.963	45356
601.032	45480
601.101	44747
601.170	44416
601.239	42547
601.308	43092
601.378	44221
601.447	42503
601.516	40312
601.585	42368
601.654	44001
601.723	46275
601.792	42524
601.861	44713
601.930	45191
601.999	48788
602.068	49540
602.137	47279
602.206	51277
602.275	49427
602.343	48819
602.412	53113
602.481	51999
602.550	48621
602.619	48734
602.688	49076
602.756	49778
602.825	50607
602.894	50484
602.963	51344
603.032	51675
603.100	53673
603.169	51905
603.238	52475
603.307	51795
603.375	52128
603.444	52345
603.513	54818
603.581	53878
603.650	55700
603.719	56262
603.787	53899
603.856	56479
603.924	56762
603.993	60069
604.061	58950
604.130	61916
604.198	64115
604.267	64842
604.335	66531
604.404	68405
604.472	68184
604.541	68149
604.609	69829
604.678	69864
604.746	69668
604.815	69407
604.883	72389
604.951	73721
605.020	72825
605.088	75363
605.156	75319
605.225	77113
605.293	77749
605.361	77234
605.429	78840
605.498	78903
605.566	80031
605.634	84187
605.702	85958
605.771	88439
605.839	92417
605.907	90197
605.975	88742
606.043	85421
606.111	84432
606.180	83763
606.248	85481
606.316	81289
606.384	81943
606.452	84616
606.520	87682
606.588	94493
606.656	88288
606.724	87867
606.792	84660
606.860	79588
606.928	72813
606.996	66529
607.064	63805
607.132	63512
607.200	65413
607.267	68673
607.335	70948
607.403	72532
607.471	72967
607.539	70607
607.607	69171
607.674	68264
607.742	62246
607.810	63084
607.878	63484
607.946	62300
608.013	63273
608.081	66913
608.149	67246
608.216	66912
608.284	70959
608.352	71465
608.419	73136
608.487	71592
608.555	74451
608.622	69460
608.690	69422
608.757	74863
608.825	82110
608.893	83930
608.960	82328
609.028	81008
609.095	79693
609.163	79524
609.230	74149
609.298	65748
609.365	60512
609.432	64923
609.500	70303
609.567	76482
609.635	86188
609.702	99562
609.769	102656
609.837	97176
609.904	76346
609.971	68842
610.039	74526
610.106	85557
610.173	124978
610.241	256915
610.308	590356
610.375	390849
610.442	188713
610.509	89341
610.577	74241
610.644	70225
610.711	71901
610.778	73640
610.845	74068
610.912	78143
610.980	81375
611.047	83897
611.114	83159
611.181	82374
611.248	78424
611.315	78961
611.382	82222
611.449	86641
611.516	87194
611.583	89734
611.650	88246
611.717	88920
611.784	90985
611.851	92672
611.918	97756
611.984	109524
612.051	133176
612.118	204289
612.185	450230
612.252	1110202
612.319	481805
612.386	137901
612.452	117873
612.519	107130
612.586	103040
612.653	105534
612.719	102789
612.786	105453
612.853	99914
612.919	91578
612.986	90573
613.053	90299
613.120	86675
613.186	79879
613.253	79065
613.319	79113
613.386	77824
613.453	80084
613.519	82086
613.586	84642
613.652	91160
613.719	99733
613.785	91384
613.852	87022
613.918	83051
613.985	81426
614.051	81785
614.118	84978
614.184	84685
614.250	81720
614.317	80782
614.383	81964
614.449	81692
614.516	81462
614.582	82621
614.648	82767
614.715	80858
614.781	80071
614.847	79221
614.914	79950
614.980	80189
615.046	78061
615.112	76336
615.179	79960
615.245	81138
615.311	85169
615.377	93296
615.443	119097
615.509	116599
615.575	91466
615.642	88411
615.708	86934
615.774	90008
615.840	96628
615.906	106352
615.972	122187
616.038	174785
616.104	318346
616.170	589840
616.236	1380333
616.302	870142
616.368	199445
616.434	151970
616.500	111489
616.565	105136
616.631	116770
616.697	142135
616.763	112144
616.829	121706
616.895	191916
616.961	334114
617.026	282663
617.092	117334
617.158	89754
617.224	84330
617.289	82742
617.355	76000
617.421	74160
617.487	74153
617.552	72353
617.618	69387
617.684	68187
617.749	69810
617.815	68818
617.880	65697
617.946	64986
618.012	64963
618.077	66739
618.143	67390
618.208	65635
618.274	65156
618.339	71630
618.405	69820
618.470	60020
618.536	59578
618.601	60177
618.667	60013
618.732	55475
618.798	53600
618.863	52635
618.928	51175
618.994	51416
619.059	53323
619.124	57537
619.190	66845
619.255	54710
619.320	52220
619.386	52539
619.451	51375
619.516	51879
619.581	49622
619.647	50299
619.712	52013
619.777	51215
619.842	50047
619.907	51261
619.972	51804
620.038	51692
620.103	52665
620.168	49188
620.233	49455
620.298	49911
620.363	51026
620.428	50663
620.493	51746
620.558	53247
620.623	53643
620.688	54904
620.753	53579
620.818	53169
620.883	55345
620.948	55058
621.013	54457
621.078	54379
621.143	54636
621.207	54938
621.272	55662
621.337	55127
621.402	55559
621.467	54596
621.532	58566
621.596	57997
621.661	56199
621.726	52585
621.791	51562
621.855	52499
621.920	54353
621.985	53338
622.049	56304
622.114	56643
622.179	56798
622.243	54397
622.308	57393
622.373	56688
622.437	58994
622.502	57853
622.566	55500
622.631	53884
622.695	56253
622.760	56706
622.824	55175
622.889	55285
622.953	56411
623.018	60131
623.082	75231
623.147	69428
623.211	59617
623.276	57925
623.340	58076
623.404	54153
623.469	51737
623.533	52693
623.597	53890
623.662	52824
623.726	51714
623.790	48213
623.854	46401
623.919	45493
623.983	47042
624.047	47589
624.111	47608
624.176	48487
624.240	49779
624.304	51865
624.368	52749
624.432	47003
624.496	48556
624.560	50298
624.625	55296
624.689	56033
624.753	51172
624.817	53317
624.881	49006
624.945	49968
625.009	45721
625.073	44508
625.137	46555
625.201	49786
625.265	56931
625.329	54892
625.393	47359
625.456	49075
625.520	48825
625.584	50248
625.648	53240
625.712	55450
625.776	67508
625.839	99019
625.903	101617
625.967	53094
626.031	44587
626.095	55062
626.158	73382
626.222	47080
626.286	38225
626.349	34885
626.413	34040
626.477	31899
626.540	34641
626.604	32452
626.668	33721
626.731	31422
626.795	31185
626.858	31683
626.922	31685
626.986	31512
627.049	32015
627.113	30770
627.176	31220
627.240	31826
627.303	29923
627.366	30543
627.430	30296
627.493	30380
627.557	30188
627.620	30376
627.684	29953
627.747	29964
627.810	31422
627.874	28467
627.937	26854
628.000	27019
628.064	28210
628.127	26294
628.190	24653
628.253	24823
628.317	23973
628.380	23350
628.443	22750
628.506	22516
628.569	22276
628.632	21008
628.696	20699
628.759	20036
628.822	20598
628.885	19394
628.948	20411
629.011	18451
629.074	19859
629.137	19417
629.200	18366
629.263	18731
629.326	19702
629.389	18840
629.452	18729
629.515	17855
629.578	18554
629.641	18502
629.704	19467
629.767	18616
629.830	19433
629.892	17512
629.955	17898
630.018	17715
630.081	19189
630.144	21525
630.207	23270
630.269	19238
630.332	18733
630.395	18936
630.458	18051
630.520	16987
630.583	17405
630.646	16187
630.708	16291
630.771	16655
630.834	16748
630.896	16570
630.959	16824
631.021	15818
631.084	16756
631.146	16879
631.209	18025
631.272	18562
631.334	16290
631.397	16295
631.459	16377
631.522	16896
631.584	18325
631.646	18610
631.709	19058
631.771	20487
631.834	24231
631.896	20117
631.958	17503
632.021	15515
632.083	17100
632.145	16423
632.208	16253
632.270	17112
632.332	16005
632.395	14883
632.457	15466
632.519	15444
632.581	15535
632.643	14645
632.706	15035
632.768	13999
632.830	15403
632.892	14229
632.954	15180
633.016	15418
633.078	14586
633.141	14929
633.203	14395
633.265	14902
633.327	15020
633.389	14927
633.451	15271
633.513	16527
633.575	19996
633.637	17755
633.698	18442
633.760	17427
633.822	15346
633.884	15824
633.946	15818
634.008	16186
634.070	17075
634.132	17179
634.193	17968
634.255	19459
634.317	20377
634.379	21462
634.441	20173
634.502	19166
634.564	18109
634.626	15919
634.687	14887
634.749	14309
634.811	14893
634.873	14450
634.934	14169
634.996	13969
635.057	14027
635.119	13788
635.181	15101
635.242	14417
635.304	13163
635.365	14189
635.427	14949
635.488	14256
635.550	14902
635.611	13361
635.673	13736
635.734	13913
635.796	15178
635.857	15750
635.918	17283
635.980	17441
636.041	18983
636.102	20147
636.164	21016
636.225	21872
636.286	20430
636.348	19105
636.409	16941
636.470	14816
636.531	14422
636.593	14153
636.654	14317
636.715	13665
636.776	12842
636.838	12146
636.899	12069
636.960	12373
637.021	12064
637.082	12064
637.143	12353
637.204	11323
637.265	10824
637.326	11966
637.387	11643
637.448	10745
637.509	11883
637.570	11426
637.631	11791
637.692	10656
637.753	10169
637.814	10017
637.875	10493
637.936	10569
637.997	11041
638.058	10684
638.119	11267
638.179	10986
638.240	10658
638.301	10850
638.362	11072
638.423	9930
638.483	10760
638.544	10234
638.605	10486
638.666	9414
638.726	10634
638.787	10272
638.848	9629
638.908	9482
638.969	9900
639.030	9122
639.090	9775
639.151	8929
639.211	10297
639.272	10969
639.332	14194
639.393	20590
639.453	13040
639.514	10044
639.574	11274
639.635	9112
639.695	9370
639.756	8509
639.816	9412
639.877	9459
639.937	12104
639.997	17691
640.058	22738
640.118	10537
640.178	9383
640.239	8969
640.299	8196
640.359	8362
640.420	9161
640.480	9164
640.540	9597
640.600	10567
640.661	10317
640.721	10226
640.781	11277
640.841	11455
640.901	10196
640.961	9663
641.021	8998
641.082	10246
641.142	12566
641.202	15482
641.262	9807
641.322	9354
641.382	8201
641.442	8566
641.502	8600
641.562	7652
641.622	8345
641.682	8392
641.742	9248
641.802	10873
641.861	9787
641.921	9105
641.981	9763
642.041	9866
642.101	10366
642.161	11343
642.221	9494
642.280	7359
642.340	7635
642.400	7619
642.460	8705
642.519	7855
642.579	8243
642.639	8371
642.698	8329
642.758	8780
642.818	8890
642.877	7804
642.937	9119
642.997	9259
643.056	10312
643.116	15213
643.175	10493
643.235	8478
643.294	9006
643.354	7880
643.414	10353
643.473	10787
643.532	12572
643.592	14992
643.651	22146
643.711	36026
643.770	67930
643.830	137255
643.889	318788
643.948	723961
644.008	163804
644.067	27752
644.126	17591
644.186	13694
644.245	11965
644.304	9246
644.363	9650
644.423	8073
644.482	8032
644.541	8757
644.600	8771
644.659	9356
644.719	10839
644.778	13704
644.837	19664
644.896	34828
644.955	69365
645.014	173805
645.073	58030
645.132	12542
645.191	10216
645.250	9622
645.309	8755
645.368	8937
645.427	10386
645.486	11875
645.545	19309
645.604	34798
645.663	11098
645.722	8917
645.781	8104
645.840	8818
645.898	10302
645.957	13777
646.016	19760
646.075	32620
646.134	61892
646.192	121682
646.251	317501
646.310	514240
646.369	70988
646.427	18886
646.486	15461
646.545	11577
646.603	9653
646.662	8162
646.721	7748
646.779	8075
646.838	7364
646.896	8023
646.955	10031
647.014	13275
647.072	21266
647.131	36143
647.189	107279
647.248	55718
647.306	9576
647.365	7309
647.423	6451
647.481	6189
647.540	6535
647.598	7003
647.657	6628
647.715	5954
647.773	5891
647.832	6006
647.890	5177
647.948	4950
648.007	5827
648.065	5503
648.123	4822
648.181	5358
648.240	6288
648.298	5414
648.356	4787
648.414	4893
648.472	5748
648.531	4885
648.589	5081
648.647	4575
648.705	4913
648.763	5198
648.821	5438
648.879	5517
648.937	6641
648.995	6510
649.053	8258
649.111	9461
649.169	16371
649.227	25994
649.285	48065
649.343	96133
649.401	298262
649.459	155692
649.516	31541
649.574	19103
649.632	10085
649.690	8890
649.748	9874
649.806	10709
649.863	15668
649.921	24916
649.979	72096
650.037	54176
650.094	8545
650.152	6005
650.210	6201
650.268	5113
650.325	4985
650.383	4499
650.440	5567
650.498	4133
650.556	4756
650.613	4115
650.671	4380
650.728	4716
650.786	3974
650.843	4122
650.901	5221
650.958	5350
651.016	4251
651.073	3513
651.131	3090
651.188	3199
651.246	5187
651.303	3723
651.360	4105
651.418	3358
651.475	4261
651.532	3323
651.590	3328
651.647	3351
651.704	4126
651.762	3935
651.819	3971
651.876	3737
651.933	3365
651.990	2973
652.048	3689
652.105	3539
652.162	3885
652.219	2865
652.276	3301
652.333	3411
652.390	3510
652.448	3709
652.505	3198
652.562	3446
652.619	3438
652.676	3678
652.733	3146
652.790	3467
652.847	2988
652.904	3719
652.961	3085
653.017	3108
653.074	3250
653.131	3470
653.188	3144
653.245	2719
653.302	3718
653.359	3185
653.415	3390
653.472	2523
653.529	3600
653.586	3277
653.642	2071
653.699	2771
653.756	3613
653.813	2975
653.869	2917
653.926	2729
653.983	3600
654.039	2428
654.096	3428
654.152	3334
654.209	2672
654.266	3405
654.322	3395
654.379	2790
654.435	3136
654.492	4080
654.548	4206
654.605	5300
654.661	9551
654.717	4072
654.774	2997
654.830	3165
654.887	3364
654.943	3188
655.000	3252
655.056	3169
655.112	3168
655.168	3321
655.225	3357
655.281	3256
655.337	3971
655.394	3701
655.450	6486
655.506	4620
655.562	4999
655.618	6673
655.675	5429
655.731	3106
655.787	3258
655.843	3001
655.899	2679
655.955	3103
656.011	3123
656.067	2352
656.123	2864
656.179	3324
656.235	2812
656.291	3454
656.347	2850
656.403	3144
656.459	3074
656.515	2999
656.571	2780
656.627	3291
656.683	2898
656.739	3708
656.795	3716
656.850	2740
656.906	4325
656.962	4072
657.018	3507
657.074	2581
657.129	2831
657.185	3902
657.241	4964
657.297	9100
657.352	7821
657.408	2890
657.464	3370
657.519	2789
657.575	2294
657.630	2663
657.686	2348
657.742	1892
657.797	2228
657.853	1898
657.908	2287
657.964	1707
658.019	3047
658.075	2333
658.130	2639
658.186	2479
658.241	2349
658.297	2489
658.352	2221
658.407	3246
658.463	2301
658.518	2300
658.573	3233
658.629	2609
658.684	1882
658.739	1969
658.795	2462
658.850	2940
658.905	1829
658.960	1761
659.016	2021
659.071	2319
659.126	2291
659.181	2186
659.236	3233
659.291	5087
659.346	6588
659.401	3213
659.457	3672
659.512	2611
659.567	2466
659.622	2412
659.677	2146
659.732	2282
659.787	3169
659.842	2255
659.897	3332
659.952	3419
660.007	2813
660.061	1875
660.116	2694
660.171	2570
660.226	2505
660.281	2109
660.336	2654
660.391	2260
660.445	2480
660.500	2755
660.555	1966
660.610	2329
660.664	3265
660.719	1848
660.774	2063
660.828	2435
660.883	2619
660.938	1803
660.992	2025
661.047	2358
661.101	2442
661.156	1849
661.211	2706
661.265	2932
661.320	2363
661.374	2628
661.429	2746
661.483	2392
661.538	1866
661.592	1988
661.647	1747
661.701	2312
661.755	2904
661.810	2196
661.864	2034
661.919	2059
661.973	2364
662.027	2359
662.081	1991
662.136	1031
662.190	2378
662.244	2226
662.299	2797
662.353	2943
662.407	2634
662.461	1585
662.515	2254
662.569	2407
662.624	2674
662.678	2032
662.732	3028
662.786	1919
662.840	2561
662.894	2443
662.948	1604
663.002	2646
663.056	2412
663.110	2036
663.164	2338
663.218	2296
663.272	2544
663.326	3010
663.380	2675
663.434	3036
663.488	2058
663.542	2144
663.595	3130
663.649	1781
663.703	2645
663.757	2546
663.811	2545
663.864	2931
663.918	2541
663.972	2164
664.026	3307
664.079	2230
664.133	2339
664.187	1988
664.240	2101
664.294	1705
664.348	2130
664.401	1429
664.455	2170
664.508	1887
664.562	2027
664.615	1769
664.669	2386
664.722	1986
664.776	2300
664.829	2022
664.883	1823
664.936	2371
664.990	2256
665.043	2593
665.097	3161
665.150	2518
665.203	2650
665.257	2630
665.310	3139
665.363	2160
665.417	2775
665.470	2737
665.523	2562
665.576	2857
665.630	2699
665.683	1480
665.736	3076
665.789	2306
665.842	2753
665.895	2410
665.949	3241
666.002	2339
666.055	2385
666.108	2458
666.161	2206
666.214	2981
666.267	2600
666.320	2417
666.373	3393
666.426	2718
666.479	2657
666.532	2067
666.585	2959
666.638	2793
666.691	3570
666.744	2987
666.796	3448
666.849	3203
666.902	3449
666.955	2582
667.008	2535
667.060	1925
667.113	1739
667.166	2265
667.219	2329
667.271	2748
667.324	2821
667.377	2761
667.430	2630
667.482	2478
667.535	3204
667.587	2175
667.640	2476
667.693	2821
667.745	4529
667.798	5081
667.850	7169
667.903	3117
667.955	2967
668.008	2184
668.060	3106
668.113	2297
668.165	3268
668.218	3151
668.270	2445
668.322	2423
668.375	1888
668.427	2532
668.479	1970
668.532	3101
668.584	2350
668.636	2382
668.689	2515
668.741	2266
668.793	2740
668.845	1836
668.898	2308
668.950	2152
669.002	2852
669.054	2331
669.106	2882
669.158	2392
669.211	2253
669.263	2905
669.315	3478
669.367	2990
669.419	2492
669.471	3562
669.523	3869
669.575	3364
669.627	4921
669.679	4054
669.731	2908
669.783	3307
669.835	3744
669.886	3629
669.938	4438
669.990	3770
670.042	3172
670.094	4141
670.146	4526
670.197	4684
670.249	5442
670.301	5809
670.353	8292
670.404	10710
670.456	15928
670.508	24028
670.560	39285
670.611	64649
670.663	111327
670.715	190883
670.766	381169
670.818	720382
670.869	390666
670.921	77793
670.972	31702
671.024	19812
671.075	14215
671.127	10745
671.178	8629
671.230	7538
671.281	6588
671.333	5849
671.384	5179
671.436	4482
671.487	5750
671.538	5919
671.590	7423
671.641	8903
671.692	12889
671.744	21192
671.795	45107
671.846	39315
671.897	12558
671.949	6536
672.000	5169
672.051	4301
672.102	3722
672.153	2903
672.204	3302
672.256	2466
672.307	3247
672.358	2810
672.409	3627
672.460	2383
672.511	3405
672.562	2369
672.613	3215
672.664	2323
672.715	2601
672.766	2544
672.817	2216
672.868	1314
672.919	2196
672.970	2327
673.021	1902
673.071	2080
673.122	1822
673.173	1766
673.224	2160
673.275	1521
673.326	2243
673.376	2157
673.427	1318
673.478	1767
673.528	2011
673.579	2055
673.630	2029
673.680	2115
673.731	1910
673.782	2027
673.832	1928
673.883	1984
673.934	2157
673.984	2700
674.035	1972
674.085	1678
674.136	2346
674.186	2151
674.237	2813
674.287	2643
674.338	4288
674.388	2942
674.438	2035
674.489	2458
674.539	1393
674.589	2275
674.640	2362
674.690	2454
674.740	1906
674.791	1753
674.841	2799
674.891	1845
674.942	2189
674.992	1473
675.042	1598
675.092	1513
675.142	1972
675.193	1448
675.243	1920
675.293	1784
675.343	1991
675.393	1428
675.443	1961
675.493	1480
675.543	1748
675.593	1437
675.643	1981
675.693	1451
675.743	2124
675.793	1802
675.843	1407
675.893	1546
675.943	1527
675.993	886
676.043	1032
676.093	1983
676.142	1547
676.192	1507
676.242	1315
676.292	1841
676.341	1619
676.391	1129
676.441	2187
676.491	1357
676.540	1147
676.590	1214
676.640	1168
676.689	819
676.739	1549
676.789	996
676.838	1351
676.888	1418
676.937	1182
676.987	1339
677.037	1333
677.086	1236
677.136	1288
677.185	1359
677.235	2053
677.284	1250
677.333	1224
677.383	621
677.432	1412
677.482	1317
677.531	1556
677.580	757
677.630	892
677.679	1470
677.728	789
677.778	1389
677.827	1273
677.876	663
677.925	202
677.975	844
678.024	1764
678.073	753
678.122	1119
678.171	1251
678.220	1431
678.269	1391
678.319	1845
678.368	1305
678.417	2287
678.466	1571
678.515	1918
678.564	1344
678.613	889
678.662	946
678.711	1945
678.760	1135
678.809	1466
678.857	1994
678.906	1051
678.955	1323
679.004	1281
679.053	822
679.102	1493
679.151	924
679.199	1715
679.248	1398
679.297	1570
679.346	925
679.394	2034
679.443	1367
679.492	660
679.540	1025
679.589	1291
679.638	860
679.686	1090
679.735	1143
679.784	1403
679.832	1463
679.881	1358
679.929	1522
679.978	1416
680.026	598
680.075	1233
680.123	498
680.172	1042
680.220	698
680.268	1693
680.317	334
680.365	1500
680.414	511
680.462	1062
680.510	874
680.559	751
680.607	942
680.655	866
680.703	297
680.752	1135
680.800	1523
680.848	417
680.896	274
680.945	1895
680.993	302
681.041	1347
681.089	635
681.137	959
681.185	299
681.233	468
681.258	572
681.281	653
681.329	449
681.377	638
681.380	682
681.425	1192
681.473	1431
681.502	1097
681.521	838
681.569	1316
681.617	1734
681.624	1704
681.665	1410
681.713	1746
681.745	1479
681.761	1320
681.809	1305
681.857	1272
681.867	1225
681.904	1005
681.952	1185
681.989	1488
682.000	1565
682.048	1145
682.096	1606
682.111	1383
682.143	839
682.191	1969
682.233	1745
682.239	1700
682.286	1769
682.334	1424
682.354	1743
682.382	2102
682.430	740
682.476	2135
682.477	2152
682.525	1642
682.572	1399
682.598	1690
682.620	1888
682.667	1735
682.715	1446
682.720	1478
682.763	1668
682.810	1288
682.841	1383
682.857	1425
682.905	1239
682.952	2453
682.963	2264
683.000	1500
683.047	1377
683.085	1714
683.095	1775
683.142	1839
683.190	1443
683.206	1583
683.237	1853
683.284	2018
683.328	2213
683.332	2213
683.379	2369
683.426	1608
683.449	1695
683.473	1767
683.521	2175
683.568	2160
683.571	2158
683.615	2020
683.662	1992
683.693	2195
683.709	2290
683.757	2249
683.804	1862
683.814	2035
683.851	2508
683.898	3008
683.936	2458
683.945	2334
683.992	2130
684.039	2432
684.057	2518
684.086	2603
684.133	2608
684.179	3035
684.180	3042
684.227	2999
684.274	2705
684.300	2833
684.321	2831
684.368	3360
684.415	2983
684.422	2986
684.462	3081
684.509	2794
684.543	3080
684.556	3103
684.603	3100
684.649	3153
684.665	2981
684.696	2720
684.743	2611
684.786	3161
684.790	3197
684.837	2765
684.883	2566
684.908	2943
684.930	3280
684.977	3057
685.023	3310
685.029	3302
685.070	3315
685.117	3644
685.150	3663
685.164	3610
685.210	3556
685.257	3682
685.272	3829
685.303	4146
685.350	3968
685.393	3739
685.396	3717
685.443	3416
685.490	4294
685.514	4034
685.536	3809
685.583	4587
685.629	4499
685.636	4452
685.675	4019
685.722	4256
685.757	4061
685.768	3996
685.815	4167
685.861	4709
685.878	4447
685.908	4054
685.954	4113
686.000	4224
686.000	4219
686.047	4396
686.093	4231
686.121	4365
686.139	4549
686.185	4490
686.232	4778
686.242	4744
686.278	4420
686.324	4903
686.363	4505
686.370	4440
686.416	4409
686.463	4042
686.484	4331
686.509	4551
686.555	4407
686.601	4328
686.606	4291
686.647	4305
686.693	4316
686.727	4388
686.739	4322
686.785	3961
686.831	4068
686.848	4209
686.877	4628
686.923	4438
686.969	4781
686.969	4781
687.015	4390
687.061	4890
687.090	4413
687.107	4129
687.153	4089
687.199	4517
687.211	4365
687.245	4074
687.291	3996
687.332	4628
687.336	4689
687.382	4285
687.428	4323
687.453	4718
687.474	5014
687.520	4767
687.565	4747
687.574	4674
687.611	4387
687.657	4571
687.695	5205
687.702	5302
687.748	4457
687.794	4373
687.816	4241
687.839	4332
687.885	5198
687.931	5374
687.937	5396
687.976	5091
688.022	4826
688.058	4756
688.067	4817
688.113	5010
688.158	5536
688.179	5507
688.204	5298
688.249	4887
688.295	5023
688.300	5031
688.340	5275
688.386	5070
688.421	5169
688.431	5225
688.477	5221
688.522	5725
688.542	5735
688.567	5648
688.613	5666
688.658	5578
688.663	5553
688.703	5432
688.749	4987
688.784	5169
688.794	5238
688.839	5330
688.884	5977
688.905	5756
688.930	5458
688.975	6110
689.020	4987
689.026	5078
689.065	5815
689.110	5654
689.146	5893
689.155	5941
689.201	5098
689.246	5424
689.267	5451
689.291	5542
689.336	5735
689.381	5714
689.388	5705
689.426	5491
689.471	5481
689.509	5175
689.516	5173
689.561	5444
689.606	5104
689.630	5142
689.651	5118
689.696	5523
689.741	5521
689.750	5489
689.785	5552
689.830	5619
689.871	6072
689.875	6093
689.920	5560
689.965	5344
689.992	5083
690.010	5075
690.054	5365
690.099	5524
690.112	5642
690.144	5748
690.189	5627
690.233	5585
690.233	5594
690.278	5334
690.323	5416
690.354	5613
690.367	5610
690.412	5380
690.457	5334
690.474	5283
690.501	5436
690.546	5218
690.590	5646
690.595	5650
690.635	5794
690.680	5730
690.716	5814
690.724	5804
690.769	6059
690.813	5509
690.836	5636
690.857	5768
690.902	5825
690.946	5839
690.957	5748
690.991	5714
691.035	5974
691.077	6227
691.080	6242
691.124	6514
691.168	6318
691.198	6372
691.213	6467
691.257	6699
691.301	6780
691.318	6899
691.346	6951
691.390	6804
691.434	6744
691.439	6727
691.478	6764
691.522	6425
691.559	6689
691.567	6745
691.611	6365
691.655	6727
691.680	6652
691.699	6733
691.743	6718
691.787	6951
691.800	7026
691.831	6979
691.875	6670
691.919	6813
691.921	6787
691.964	6802
692.008	7141
692.041	7341
692.052	7336
692.096	7142
692.139	6978
692.162	6889
692.183	6902
692.227	6822
692.271	7228
692.282	7206
692.315	7019
692.359	6806
692.402	6504
692.403	6517
692.447	6872
692.490	6827
692.523	6866
692.534	6892
692.578	6686
692.622	7091
692.643	7127
692.666	7173
692.709	7020
692.753	6867
692.763	6868
692.797	6789
692.840	6870
692.884	6387
692.884	6401
692.928	6431
692.971	6912
693.004	7000
693.015	6926
693.059	6847
693.102	6725
693.124	6633
693.146	6854
693.189	6763
693.233	7276
693.245	7372
693.276	7288
693.320	7085
693.363	6917
693.365	6885
693.407	6998
693.450	7517
693.485	7774
693.493	7739
693.537	7475
693.580	7129
693.605	7031
693.624	7209
693.667	7396
693.710	7746
693.725	7817
693.753	7853
693.797	7780
693.840	7843
693.845	7850
693.883	8135
693.926	8097
693.966	8322
693.970	8365
694.013	8502
694.056	8354
694.086	8537
694.099	8482
694.142	7960
694.185	7871
694.206	7576
694.229	7383
694.272	7117
694.315	6614
694.326	6645
694.358	7332
694.401	7665
694.444	8283
694.446	8280
694.487	8171
694.530	8345
694.566	8290
694.573	8397
694.616	8966
694.659	9595
694.686	9896
694.702	9537
694.745	8678
694.787	7785
694.806	7278
694.830	7200
694.873	7252
694.916	7218
694.926	7234
694.959	7421
695.002	7278
695.044	7393
695.046	7368
695.087	7263
695.130	7525
695.166	7511
695.172	7520
695.215	7531
695.258	7398
695.286	7455
695.301	7577
695.343	7561
695.386	7904
695.406	8012
695.428	8119
695.471	7996
695.514	8141
695.526	8129
695.556	8118
695.599	8149
695.641	8052
695.646	8042
695.684	8201
695.726	8145
695.766	7989
695.769	8000
695.811	8240
695.854	8149
695.886	8226
695.896	8219
695.938	7913
695.981	7592
696.005	7470
696.023	7633
696.065	8024
696.108	8131
696.125	8223
696.150	8252
696.192	8331
696.235	8243
696.245	8252
696.277	8465
696.319	8479
696.361	8613
696.365	8603
696.404	8704
696.446	8726
696.485	8819
696.488	8836
696.530	8610
696.572	8597
696.604	8309
696.614	8353
696.656	8659
696.698	8913
696.724	9083
696.740	9138
696.783	9124
696.825	9218
696.844	9168
696.867	8968
696.909	8601
696.951	8238
696.964	8162
696.992	8440
697.034	8461
697.076	8741
697.083	8750
697.118	8737
697.160	8723
697.202	8667
697.203	8643
697.244	8781
697.286	8818
697.323	8914
697.327	8918
697.369	8634
697.411	8393
697.442	8160
697.453	8222
697.494	8457
697.536	8669
697.562	8786
697.578	8880
697.620	9002
697.661	9138
697.682	9222
697.703	9431
697.744	9731
697.786	10046
697.801	10098
697.828	9948
697.869	9772
697.911	9582
697.921	9497
697.952	10209
697.994	11151
698.035	12061
698.040	12149
698.077	11333
698.118	10239
698.160	9217
698.160	9185
698.201	9032
698.243	8924
698.279	8791
698.284	8819
698.325	8827
698.367	8818
698.399	8819
698.408	8916
698.449	9228
698.491	9519
698.518	9683
698.532	9721
698.573	9777
698.614	9815
698.638	9813
698.656	9840
698.697	9854
698.738	9837
698.757	9813
698.779	9692
698.820	9395
698.862	9096
698.877	8962
698.903	9331
698.944	9875
698.985	10424
698.996	10547
699.026	10367
699.067	10076
699.116	9703
699.235	10153
699.354	9143
699.474	9749
699.593	9421
699.713	10762
699.832	10087
699.951	10357
700.070	10313
700.190	9920
700.309	8836
700.428	8537
700.547	9002
700.667	9728
700.786	9200
700.905	9874
701.024	9512
701.143	9745
701.262	10201
701.381	8697
701.500	8513
701.619	10052
701.738	9763
701.857	10131
701.976	7857
702.095	8591
702.214	8594
702.333	9558
702.452	9556
702.571	9637
702.690	8895
702.809	8302
702.928	8669
703.047	9399
703.165	8738
703.284	8237
703.403	8399
703.522	8301
703.640	8294
703.759	9660
703.878	7985
703.997	11254
704.115	9520
704.234	8576
704.353	7436
704.471	7893
704.590	7961
704.708	7877
704.827	7727
704.946	7600
705.064	7551
705.183	8320
705.301	7169
705.420	7995
705.538	9648
705.656	10337
705.775	8368
705.893	8445
706.012	8166
706.130	9742
706.249	8519
706.367	8928
706.485	8960
706.604	9521
706.722	9172
706.840	9614
706.958	10094
707.077	11644
707.195	10191
707.313	8864
707.431	8402
707.549	8030
707.668	7974
707.786	7904
707.904	8247
708.022	7781
708.140	8058
708.258	7901
708.376	6661
708.494	8324
708.612	7701
708.730	8265
708.848	9620
708.966	10413
709.084	9912
709.202	10169
709.320	8538
709.438	8727
709.556	8619
709.674	8853
709.791	8497
709.909	8829
710.027	7894
710.145	8386
710.263	8722
710.380	8663
710.498	8179
710.616	8378
710.733	8242
710.851	8205
710.969	8820
711.086	9089
711.204	8040
711.322	8631
711.439	8108
711.557	8561
711.674	8547
711.792	7802
711.909	7901
712.027	8210
712.144	7576
712.262	7324
712.379	7286
712.497	8911
712.614	9679
712.732	11958
712.849	9807
712.966	9250
713.084	9435
713.201	11615
713.318	10341
713.436	9425
713.553	8798
713.670	8892
713.787	9679
713.905	9578
714.022	10759
714.139	9646
714.256	9132
714.373	11017
714.490	12818
714.608	18218
714.725	35746
714.842	139360
714.959	400348
715.076	53770
715.193	12915
715.310	10793
715.427	9944
715.544	8962
715.661	8161
715.778	8703
715.895	8129
716.011	8829
716.128	8199
716.245	8528
716.362	8606
716.479	9399
716.596	10925
716.713	8068
716.829	8060
716.946	7805
717.063	8196
717.180	7405
717.296	7889
717.413	7527
717.530	7430
717.646	7719
717.763	7473
717.880	7194
717.996	7212
718.113	7650
718.229	7688
718.346	6188
718.462	7089
718.579	7039
718.695	7944
718.812	13192
718.928	13481
719.045	8337
719.161	7961
719.277	6563
719.394	6559
719.510	6501
719.626	5762
719.743	6826
719.859	7348
719.975	9516
720.092	13001
720.208	38213
720.324	156056
720.440	64533
720.557	9239
720.673	8170
720.789	9984
720.905	14835
721.021	18009
721.137	16904
721.253	6492
721.369	6032
721.486	6910
721.602	6582
721.718	7957
721.834	7053
721.950	5736
722.066	6397
722.181	6063
722.297	6144
722.413	6031
722.529	6665
722.645	5781
722.761	6650
722.877	5278
722.993	5909
723.108	4792
723.224	6063
723.340	6011
723.456	5969
723.571	4501
723.687	5701
723.803	5047
723.918	5542
724.034	4976
724.150	5153
724.265	5621
724.381	5604
724.497	7272
724.612	13979
724.728	6274
724.843	5111
724.959	5280
725.074	5897
725.190	6581
725.305	12282
725.421	5359
725.536	5725
725.651	4662
725.767	5244
725.882	4222
725.997	4312
726.113	4446
726.228	5035
726.343	4352
726.459	4654
726.574	4219
726.689	4625
726.804	4821
726.920	4473
727.035	5025
727.150	4921
727.265	4824
727.380	5094
727.495	5211
727.610	4744
727.725	4624
727.841	4845
727.956	4440
728.071	4225
728.186	4464
728.301	4460
728.416	4973
728.531	4563
728.645	3904
728.760	3592
728.875	3966
728.990	6019
729.105	4764
729.220	5058
729.335	4123
729.449	5209
729.564	3538
729.679	4179
729.794	3617
729.908	4922
730.023	4356
730.138	4545
730.253	3414
730.367	4231
730.482	4284
730.596	3414
730.711	3945
730.826	4217
730.940	4020
731.055	4722
731.169	4996
731.284	5392
731.398	3953
731.513	4364
731.627	4814
731.742	4757
731.856	4798
731.970	5906
732.085	4686
732.199	5907
732.313	6044
732.428	8609
732.542	17249
732.656	55341
732.771	86988
732.885	16020
732.999	6891
733.113	6249
733.227	5362
733.342	5788
733.456	5610
733.570	5706
733.684	3795
733.798	4789
733.912	3653
734.026	5089
734.140	4418
734.254	4861
734.368	4406
734.482	5743
734.596	8617
734.710	4542
734.824	3122
734.938	4054
735.052	3568
735.166	4604
735.280	4321
735.393	4468
735.507	4058
735.621	4824
735.735	4282
735.849	6566
735.962	6253
736.076	4273
736.190	4049
736.303	4548
736.417	4845
736.531	7267
736.644	3811
736.758	4327
736.872	3997
736.985	3672
737.099	4600
737.212	4107
737.326	2819
737.439	4114
737.553	3984
737.666	4341
737.780	3545
737.893	3745
738.007	3284
738.120	3430
738.233	3840
738.347	4111
738.460	3893
738.573	3184
738.687	3515
738.800	4446
738.913	3506
739.026	4949
739.140	4463
739.253	4035
739.366	2872
739.479	3336
739.592	3089
739.705	2637
739.818	2463
739.932	3511
740.045	3627
740.158	3627
740.271	3037
740.384	3592
740.497	2885
740.610	2798
740.723	2991
740.836	3716
740.949	3341
741.062	3797
741.174	4296
741.287	5548
741.400	3074
741.513	3511
741.626	3171
741.739	4194
741.851	3879
741.964	3648
742.077	3436
742.189	3984
742.302	3057
742.415	4171
742.527	3340
742.640	3371
742.753	2996
742.865	3258
742.978	2636
743.090	3184
743.203	2483
743.316	3040
743.428	2685
743.541	2807
743.653	2218
743.766	2546
743.878	3155
743.990	2962
744.103	4127
744.215	4155
744.327	3150
744.440	3182
744.552	2752
744.664	4310
744.777	4923
744.889	2306
745.001	2632
745.113	2491
745.226	2401
745.338	3571
745.450	2049
745.562	2761
745.674	2047
745.786	3553
745.898	1499
746.010	2701
746.122	2438
746.234	2814
746.347	2990
746.459	2925
746.570	2447
746.682	1975
746.794	2286
746.906	2232
747.018	1775
747.130	2947
747.242	1685
747.354	3239
747.466	2876
747.577	2287
747.689	2211
747.801	3172
747.913	2882
748.024	2621
748.136	2156
748.248	2595
748.359	1930
748.471	1759
748.583	2005
748.694	2952
748.806	1877
748.918	2398
749.029	3173
749.141	2836
749.252	2365
749.364	2812
749.475	2552
749.587	5146
749.698	6095
749.809	2973
749.921	1491
750.032	2887
750.144	2582
750.255	1991
750.366	1767
750.478	2123
750.589	2512
750.700	1888
750.811	2263
750.923	2952
751.034	2936
751.145	3925
751.256	9014
751.367	3712
751.479	1945
751.590	1644
751.701	1359
751.812	1808
751.923	2230
752.034	1748
752.145	2755
752.256	2310
752.367	1525
752.478	2503
752.589	1121
752.700	2409
752.811	2094
752.922	2082
753.032	1219
753.143	2834
753.254	2918
753.365	1887
753.476	1546
753.586	2539
753.697	1492
753.808	1985
753.919	1042
754.029	1971
754.140	2063
754.251	2046
754.361	1460
754.472	1930
754.582	1453
754.693	2511
754.804	1683
754.914	1383
755.025	1761
755.135	1881
755.246	1715
755.356	2198
755.466	1764
755.577	2531
755.687	1372
755.798	1531
755.908	1292
756.018	2182
756.129	945
756.239	2624
756.349	2289
756.460	1948
756.570	1850
756.680	2631
756.790	1399
756.900	2332
757.011	2089
757.121	2792
757.231	1305
757.341	1931
757.451	2374
757.561	1989
757.671	1904
757.781	1264
757.891	1641
758.001	2109
758.111	1264
758.221	2342
758.331	1835
758.441	2215
758.551	2548
758.661	2881
758.771	3887
758.880	2122
758.990	2002
759.100	3201
759.210	2151
759.320	2365
759.429	2010
759.539	1926
759.649	1579
759.758	2389
759.868	1824
759.978	1751
760.087	2231
760.197	2827
760.307	1720
760.416	2474
760.526	3122
760.635	1956
760.745	2118
760.854	2378
760.964	2094
761.073	2957
761.182	2494
761.292	2113
761.401	1815
761.511	2713
761.620	2067
761.729	2086
761.839	1935
761.948	2574
762.057	1980
762.166	2914
762.276	1542
762.385	1947
762.494	1582
762.603	2520
762.712	1195
762.822	2028
762.931	1769
763.040	1761
763.149	1782
763.258	1285
763.367	1682
763.476	2360
763.585	2132
763.694	2320
763.803	2174
763.912	2648
764.021	1662
764.130	1866
764.238	1974
764.347	1920
764.456	1756
764.565	2162
764.674	1920
764.783	1894
764.891	2188
765.000	2181
765.109	1502
765.217	2023
765.326	1845
765.435	2759
765.543	2590
765.652	2713
765.761	3007
765.869	2913
765.978	3827
766.086	6243
766.195	8760
766.303	18863
766.412	43386
766.520	151381
766.629	290580
766.737	78851
766.846	17242
766.954	8673
767.062	6032
767.171	4717
767.279	4696
767.387	3834
767.496	1636
767.604	2716
767.712	2420
767.820	3204
767.928	1927
768.037	1903
768.145	2174
768.253	2092
768.361	1594
768.469	2547
768.577	2039
768.685	1933
768.793	1311
768.901	2362
769.009	2485
769.117	2782
769.225	1767
769.333	2552
769.441	3237
769.549	5012
769.657	7927
769.765	16421
769.873	48771
769.981	180781
770.088	136020
770.196	17185
770.304	6105
770.412	4570
770.519	3402
770.627	3020
770.735	2109
770.842	2336
770.950	2341
771.058	2560
771.165	1536
771.273	2326
771.380	1856
771.488	1896
771.595	1197
771.703	2008
771.810	2077
771.918	2182
772.025	2375
772.133	2277
772.240	2343
772.348	2913
772.455	2021
772.562	2149
772.670	1364
772.777	2111
772.884	2145
772.991	2508
773.099	1757
773.206	2179
773.313	1921
773.420	2662
773.528	2126
773.635	1574
773.742	2010
773.849	2309
773.956	1457
774.063	1587
774.170	1725
774.277	2602
774.384	1423
774.491	2123
774.598	1903
774.705	2129
774.812	1770
774.919	3269
775.026	2025
775.133	1853
775.239	2142
775.346	1327
775.453	1878
775.560	1921
775.667	1633
775.773	1128
775.880	1821
775.987	2104
776.093	2218
776.200	1848
776.307	1617
776.413	1936
776.520	1072
776.627	1976
776.733	1536
776.840	2153
776.946	1855
777.053	2403
777.159	1365
777.266	1735
777.372	1810
777.478	1988
777.585	2021
777.691	2377
777.798	1681
777.904	1760
778.010	2078
778.117	1841
778.223	2812
778.329	1622
778.435	1018
778.542	1654
778.648	1427
778.754	1719
778.860	1270
778.966	1768
779.072	1174
779.178	1484
779.284	877
779.391	1656
779.497	524
779.603	1545
779.708	1059
779.815	1712
779.920	1954
780.026	2104
780.132	4261
780.238	3062
780.344	653
780.450	1965
780.556	1092
780.661	1301
780.767	1093
780.873	1529
780.979	1209
781.085	1508
781.190	1050
781.296	1772
781.402	1141
781.507	1241
781.613	1417
781.719	1369
781.824	1392
781.930	1747
782.035	831
782.141	1129
782.246	1333
782.352	1484
782.457	949
782.563	943
782.668	749
782.773	1113
782.879	858
782.984	1635
783.090	928
783.195	1614
783.300	2384
783.405	3372
783.511	1123
783.616	2004
783.721	1163
783.826	1466
783.932	1229
784.037	1177
784.142	9
784.247	1547
784.352	984
784.457	1394
784.562	836
784.667	1422
784.772	1236
784.877	1553
784.982	809
785.087	1045
785.192	1641
785.297	1287
785.402	1325
785.507	1333
785.611	989
785.716	1801
785.821	779
785.926	1527
786.031	1249
786.135	876
786.240	973
786.345	1163
786.450	983
786.554	1467
786.659	221
786.763	548
786.868	445
786.973	1257
787.077	1010
787.182	1220
787.286	-57
787.391	460
787.495	1166
787.600	743
787.704	488
787.809	435
787.913	1170
788.017	665
788.122	566
788.226	891
788.330	304
788.435	820
788.539	658
788.643	1765
788.747	-27
788.852	931
788.956	1400
789.060	808
789.164	-346
789.268	253
789.372	652
789.476	1338
789.580	904
789.684	839
789.788	412
789.892	639
789.996	326
790.100	1136
790.204	777
790.308	496
790.412	491
790.516	1576
790.620	-87
790.724	1305
790.828	-143
790.931	430
791.035	755
791.139	656
791.242	639
791.346	1498
791.450	297
791.554	388
791.657	334
791.761	1075
791.864	1005
791.968	628
792.072	944
792.175	1058
792.279	823
792.382	1219
792.486	108
792.589	1087
792.693	479
792.796	264
792.899	795
793.003	731
793.106	245
793.209	1116
793.313	442
793.416	1374
793.519	223
793.623	444
793.726	1249
793.829	3034
793.932	1268
794.035	779
794.138	263
794.242	769
794.345	935
794.448	1300
794.551	1373
794.654	1920
794.757	2926
794.860	2265
794.963	944
795.066	1617
795.169	1160
795.272	961
795.375	-27
795.477	1016
795.580	335
795.683	570
795.786	297
795.889	373
795.991	475
796.094	838
796.197	130
796.300	967
796.402	867
796.505	1290
796.608	394
796.710	66
796.813	16
796.915	640
797.018	280
797.120	133
797.223	476
797.326	964
797.428	753
797.530	1042
797.633	56
797.735	959
797.838	488
797.940	908
798.042	1459
798.145	815
798.247	-157
798.349	542
798.452	889
798.554	211
798.656	-209
798.758	1133
798.860	-137
798.962	754
799.065	370
799.167	171
799.269	568
799.371	-42
799.473	290
799.575	839
799.677	718
799.779	1679
799.881	738
799.983	1917
800.085	1848
800.187	-15
800.289	-426
800.390	-98
800.492	229
800.594	1384
800.696	-314
800.798	525
800.899	391
801.001	281
801.103	288
801.205	66
801.306	233
801.408	409
801.509	254
801.611	521
801.713	-533
801.814	-548
801.916	240
802.017	-572
802.119	-95
802.220	1046
802.322	-1031
802.423	532
802.525	-345
802.626	605
802.727	288
802.829	129
802.930	80
803.031	639
803.133	-291
803.234	-8
803.335	-155
803.436	72
803.538	22
803.639	54
803.740	362
803.841	129
803.942	310
804.043	169
804.144	-399
804.245	-458
804.346	93
804.447	65
804.548	-203
804.649	1168
804.750	435
804.851	539
804.952	-408
805.053	-545
805.154	389
805.255	384
805.355	-500
805.456	499
805.557	-700
805.658	510
805.758	98
805.859	46
805.960	132
806.061	34
806.161	550
806.262	-484
806.362	-314
806.463	427
806.564	-724
806.664	405
806.765	143
806.865	282
806.966	-92
807.066	367
807.166	-580
807.267	-159
807.367	-448
807.468	159
807.568	521
807.668	163
807.769	-310
807.869	-179
807.969	-545
808.069	781
808.170	10
808.270	-107
808.370	-200
808.470	-99
808.570	-28
808.670	1270
808.770	146
808.870	202
808.970	-392
809.070	-31
809.170	283
809.271	-141
809.370	210
809.470	210
809.570	-629
809.670	-120
809.770	-334
809.870	-328
809.970	159
810.070	209
810.169	-2
810.269	-294
810.369	367
810.469	-109
810.568	-785
810.668	-16
810.768	-347
810.867	277
810.967	65
811.066	389
811.166	-440
811.265	120
811.365	-977
811.464	692
811.564	-263
811.663	-478
811.763	382
811.862	259
811.962	-552
812.061	-98
812.160	123
812.260	-154
812.359	-254
812.458	798
812.557	1064
812.657	3480
812.756	11083
812.855	6642
812.954	1016
813.053	1177
813.153	415
813.252	-73
813.351	-123
813.450	-180
813.549	382
813.648	-39
813.747	41
813.846	866
813.945	-162
814.044	535
814.143	128
814.242	261
814.341	-438
814.439	203
814.538	770
814.637	54
814.736	-168
814.835	447
814.933	347
815.032	439
815.131	282
815.229	785
815.328	601
815.427	584
815.525	346
815.624	950
815.722	747
815.821	663
815.919	-155
816.018	1105
816.116	569
816.215	1371
816.313	1480
816.412	1582
816.510	1453
816.609	1500
816.707	1687
816.805	1925
816.904	2525
817.002	2408
817.100	1469
817.198	2790
817.296	3457
817.395	3231
817.493	4140
817.591	4179
817.689	5095
817.787	6484
817.885	9049
817.983	13846
818.081	23589
818.179	44241
818.277	95202
818.375	221969
818.473	360177
818.571	173202
818.669	55168
818.767	28961
818.865	21427
818.963	19451
819.061	22705
819.158	28492
819.256	45318
819.354	82584
819.452	169487
819.549	353123
819.647	429044
819.745	199705
819.842	75304
819.940	39701
820.038	25366
820.135	18068
820.233	13113
820.330	10853
820.428	8214
820.525	6783
820.623	5504
820.720	5501
820.818	4477
820.915	4449
821.012	3023
821.110	2810
821.207	2266
821.304	2942
821.402	2099
821.499	2946
821.596	1943
821.693	2774
821.791	1116
821.888	1963
821.985	2405
822.082	3048
822.179	4943
822.276	2545
822.373	1180
822.470	1470
822.567	34
822.664	1819
822.761	1113
822.858	922
822.955	340
823.052	938
823.149	484
823.246	1188
823.343	747
823.440	788
823.536	683
823.633	1265
823.730	423
823.827	788
823.923	324
824.020	843
824.117	637
824.213	717
824.310	1168
824.407	1079
824.503	610
824.600	484
824.696	347
824.793	586
824.889	191
824.986	517
825.082	513
825.179	-106
825.275	172
825.371	379
825.468	239
825.564	57
825.660	67
825.757	267
825.853	109
825.949	460
826.045	-59
826.142	409
826.238	-471
826.334	368
826.430	287
826.526	219
826.622	-493
826.718	-363
826.814	116
826.910	591
827.006	23
827.102	451
827.198	111
827.294	572
827.390	385
827.486	781
827.582	-305
827.678	-422
827.774	550
827.869	163
827.965	844
828.061	-300
828.157	-344
828.252	417
828.348	99
828.444	68
828.539	-152
828.635	-123
828.731	-341
828.826	47
828.922	-295
829.017	395
829.113	-102
829.208	-172
829.304	-344
829.399	666
829.495	-246
829.590	155
829.685	-1079
829.781	-188
829.876	341
829.971	405
830.066	-422
830.162	-677
830.257	-367
830.352	556
830.447	-281
830.543	235
830.638	157
830.733	7
830.828	-165
830.923	-104
831.018	-236
831.113	191
831.208	-327
831.303	668
831.398	-565
831.493	3
831.588	-1186
831.683	336
831.778	-135
831.873	-13
831.967	-988
832.062	-149
832.157	-346
832.252	-293
832.346	-292
832.441	-413
832.536	-64
832.631	1093
832.725	973
832.820	3057
832.914	532
833.009	-586
833.104	-189
833.198	-747
833.293	83
833.387	777
833.482	-268
833.576	-155
833.670	-834
833.765	402
833.859	-420
833.954	226
834.048	-328
834.142	-85
834.237	-157
834.331	-4
834.425	-1093
834.519	-410
834.613	-327
834.708	-522
834.802	-290
834.896	-280
834.990	-275
835.084	334
835.178	-526
835.272	340
835.366	-17
835.460	-281
835.554	-37
835.648	75
835.742	-515
835.836	-883
835.930	-767
836.024	-529
836.117	-124
836.211	92
836.305	-195
836.399	275
836.493	162
836.586	-150
836.680	-1145
836.774	138
836.867	-192
836.961	-38
837.055	-1163
837.148	45
837.242	-262
837.335	-424
837.429	-247
837.522	-692
837.616	-147
837.709	505
837.803	-144
837.896	271
837.989	-504
838.083	663
838.176	-433
838.269	478
838.363	684
838.456	-8
838.549	-730
838.642	-6
838.735	914
838.829	2797
838.922	2342
839.015	50
839.108	-783
839.201	292
839.294	-384
839.387	-382
839.480	-446
839.573	-163
839.666	-1243
839.759	-183
839.852	-952
839.945	-125
840.038	-877
840.131	468
840.223	-1082
840.316	13
840.409	21
840.502	-268
840.594	-676
840.687	553
840.780	-496
840.873	-8
840.965	-280
841.058	-283
841.150	500
841.243	-55
841.336	280
841.428	-58
841.521	-478
841.613	230
841.706	157
841.798	-316
841.890	-1297
841.983	-499
842.075	-828
842.167	-129
842.260	-863
842.352	63
842.444	-503
842.537	51
842.629	587
842.721	1793
842.813	316
842.905	-577
842.997	-469
843.090	468
843.182	-442
843.274	40
843.366	-25
843.458	503
843.550	4289
843.642	5423
843.734	1213
843.826	-453
843.918	-193
844.009	537
844.101	-454
844.193	229
844.285	-626
844.377	-450
844.469	-422
844.560	-415
844.652	-16
844.744	67
844.835	341
844.927	-247
845.019	-210
845.110	53
845.202	-857
845.293	-48
845.385	-225
845.476	-612
845.568	-787
845.659	-201
845.751	734
845.842	-293
845.934	-62
846.025	-119
846.116	-217
846.208	-505
846.299	-915
846.390	219
846.482	-1293
846.573	-366
846.664	-336
846.755	348
846.846	-134
846.937	788
847.029	-205
847.120	57
847.211	-632
847.302	109
847.393	-596
847.484	-30
847.575	-125
847.666	-255
847.757	-574
847.847	-39
847.938	-647
848.029	-42
848.120	-1468
848.211	-274
848.302	-752
848.392	-713
848.483	38
848.574	-294
848.664	-1155
848.755	-206
848.846	-1296
848.936	-471
849.027	-903
849.118	456
849.208	-380
849.299	-145
849.389	-311
849.480	427
849.570	370
849.661	3036
849.751	5806
849.841	13325
849.932	13352
850.022	1841
850.112	143
850.203	262
850.293	-584
850.383	-452
850.474	-334
850.564	-283
850.654	-340
850.744	-737
850.834	-246
850.924	-33
851.014	-983
851.104	297
851.194	-347
851.284	219
851.374	-615
851.464	884
851.554	-53
851.644	192
851.734	-201
851.824	324
851.914	-142
852.004	-234
852.094	-864
852.183	-259
852.273	-173
852.363	-682
852.452	-374
852.542	-244
852.632	-274
852.721	80
852.811	-607
852.901	-168
852.990	-342
853.080	-320
853.169	-1102
853.259	-437
853.348	-234
853.438	-404
853.527	-338
853.617	588
853.706	549
853.795	2234
853.885	3552
853.974	9882
854.063	23244
854.152	39962
854.242	84561
854.331	79281
854.420	12965
854.509	2668
854.598	1442
854.687	1293
854.777	393
854.866	425
854.955	-102
855.044	-600
855.133	-662
855.222	256
855.311	-358
855.400	-655
855.488	169
855.577	-507
855.666	-57
855.755	-145
855.844	-668
855.933	-262
856.021	-356
856.110	-313
856.199	-843
856.288	-688
856.376	-515
856.465	-1152
856.554	-433
856.642	-655
856.731	-451
856.819	-260
856.908	-631
856.996	-232
857.085	-859
857.173	-349
857.262	-530
857.350	-168
857.438	-917
857.527	-252
857.615	-190
857.703	-341
857.792	-721
857.880	-116
857.968	-1295
858.056	-764
858.145	-985
858.233	-661
858.321	-596
858.409	-436
858.497	-1605
858.585	-777
858.673	-1049
858.761	-706
858.849	-1586
858.937	-450
859.025	-629
859.113	-555
859.201	-1546
859.289	-534
859.377	-828
859.465	-589
859.552	-704
859.640	-25
859.728	-141
859.816	-45
859.903	-1080
859.991	114
860.079	-501
860.166	-739
860.254	-768
860.342	-364
860.429	-710
860.517	-530
860.604	-471
860.692	208
860.779	-1095
860.867	-730
860.954	415
861.042	-228
861.129	-882
861.216	-42
861.304	-1351
861.391	-504
861.478	-1470
861.565	108
861.653	-910
861.740	-986
861.827	-549
861.914	-242
862.001	-1212
862.089	-698
862.176	-730
862.263	-548
862.350	-635
862.437	-551
862.524	-1109
862.611	-967
862.698	-805
862.785	-936
862.871	-173
862.958	76
863.045	-950
863.132	176
863.219	-1217
863.306	-1639
863.392	-448
863.479	352
863.566	-910
863.652	-53
863.739	-847
863.826	-637
863.912	-676
863.999	-774
864.086	-420
864.172	-477
864.259	-931
864.345	-962
864.432	-349
864.518	-1059
864.604	-952
864.691	-270
864.777	-1154
864.863	-294
864.950	-242
865.036	-848
865.122	-751
865.209	602
865.295	-110
865.381	284
865.467	31
865.553	832
865.639	817
865.726	746
865.812	2373
865.898	4856
865.984	10661
866.070	19648
866.156	28527
866.242	59131
866.328	35456
866.414	5013
866.499	1132
866.585	466
866.671	-315
866.757	555
866.843	14
866.928	261
867.014	-483
867.100	707
867.186	-190
867.271	300
867.357	-195
867.442	149
867.528	169
867.614	720
867.699	165
867.785	-124
867.870	-323
867.956	-668
868.041	27
868.127	379
868.212	-320
868.297	709
868.383	547
868.468	-61
868.553	388
868.639	1350
868.724	1720
868.809	2443
868.894	5506
868.979	2492
869.065	-679
869.150	-356
869.235	-246
869.320	-772
869.405	-285
869.490	536
869.575	-834
869.660	648
869.745	-419
869.830	60
869.915	-35
870.000	31
870.085	-390
870.169	-219
870.254	-338
870.339	-64
870.424	-617
870.509	-520
870.593	-335
870.678	-156
870.763	-770
870.847	-377
870.932	-662
871.016	-337
871.101	-684
871.186	-374
871.270	-355
871.355	91
871.439	-504
871.523	-148
871.608	151
871.692	-335
871.777	-847
871.861	653
871.945	-226
872.030	307
872.114	-997
872.198	-421
872.282	-1208
872.367	-345
872.451	-523
872.535	-392
872.619	-6
872.703	-271
872.787	-1008
872.871	-514
872.955	-1055
873.039	-587
873.123	-874
873.207	208
873.291	50
873.375	-1052
873.459	-172
873.543	186
873.627	-467
873.711	-1051
873.794	-919
873.878	-211
873.962	-894
874.045	-422
874.129	-623
874.137	-589
874.213	-249
874.245	-176
874.296	-58
874.352	-105
874.380	-127
874.460	-201
874.464	-206
874.547	-235
874.568	-357
874.631	-701
874.676	-633
874.714	-575
874.784	-564
874.798	-569
874.881	701
874.892	537
874.965	-575
874.999	-220
875.048	296
875.107	-138
875.131	-333
875.215	-443
875.215	-442
875.298	71
875.323	222
875.381	632
875.430	185
875.465	-146
875.538	23
875.548	48
875.631	-379
875.646	-323
875.714	-131
875.753	-358
875.798	-550
875.861	-415
875.881	-374
875.964	-461
875.968	-459
876.047	-524
876.076	-855
876.130	-1461
876.183	-817
876.213	-412
876.291	-600
876.296	-615
876.379	-203
876.398	-200
876.462	-244
876.506	12
876.545	255
876.613	-510
876.628	-691
876.711	94
876.721	54
876.794	-134
876.828	-3
876.877	201
876.935	-111
876.960	-278
877.043	-326
877.043	-326
877.125	-156
877.150	-13
877.208	252
877.258	2
877.291	-139
877.365	-111
877.374	-111
877.456	-396
877.472	-229
877.539	457
877.579	266
877.622	89
877.687	201
877.704	214
877.787	337
877.794	320
877.869	60
877.901	29
877.952	215
878.008	559
878.034	620
878.115	-143
878.117	-155
878.199	272
878.222	215
878.282	23
878.329	214
878.364	411
878.437	233
878.447	183
878.529	635
878.544	429
878.611	-381
878.651	-117
878.694	203
878.758	-109
878.776	-244
878.858	22
878.865	-39
878.941	-537
878.972	-259
879.023	225
879.078	62
879.105	-74
879.185	423
879.187	432
879.269	388
879.292	310
879.351	380
879.399	303
879.433	206
879.506	739
879.516	802
879.598	125
879.613	146
879.680	142
879.720	-102
879.762	-267
879.827	-4
879.844	66
879.926	333
879.933	347
880.007	483
880.040	393
880.089	253
880.147	434
880.171	520
880.253	342
880.254	345
880.335	1423
880.360	1694
880.417	2602
880.467	3607
880.499	4376
880.574	5622
880.580	5730
880.662	11071
880.680	10473
880.744	5979
880.787	2957
880.825	1345
880.893	290
880.907	76
880.989	708
881.000	615
881.070	-35
881.106	112
881.152	416
881.213	221
881.233	174
881.315	324
881.319	336
881.396	120
881.426	-81
881.478	-31
881.532	-82
881.559	-145
881.639	115
881.641	120
881.722	-39
881.745	51
881.803	550
881.852	462
881.885	334
881.958	552
881.966	537
882.047	320
882.064	254
882.129	494
882.171	693
882.210	766
882.277	502
882.291	502
882.372	1315
882.383	1387
882.454	1407
882.489	978
882.535	497
882.596	396
882.616	414
882.697	361
882.702	370
882.778	365
882.808	262
882.859	311
882.914	459
882.940	412
883.020	146
883.021	152
883.102	660
883.127	748
883.183	652
883.233	643
883.264	605
883.339	172
883.345	145
883.426	369
883.445	322
883.507	418
883.551	349
883.587	220
883.657	288
883.668	384
883.749	903
883.763	1011
883.830	892
883.869	708
883.910	478
883.975	300
883.991	307
884.072	286
884.081	253
884.152	582
884.187	742
884.233	732
884.292	972
884.314	931
884.394	401
884.398	364
884.475	196
884.504	350
884.555	805
884.610	777
884.636	653
884.716	944
884.716	951
884.797	739
884.821	729
884.877	983
884.927	1212
884.958	1174
885.033	991
885.038	964
885.118	288
885.139	163
885.199	140
885.244	-9
885.279	86
885.350	683
885.359	720
885.439	462
885.456	490
885.520	905
885.561	1055
885.600	940
885.667	712
885.680	722
885.760	692
885.773	729
885.840	1065
885.878	1030
885.920	847
885.984	910
886.000	927
886.080	675
886.089	654
886.160	692
886.195	714
886.240	650
886.300	476
886.320	564
886.400	1174
886.406	1183
886.480	1004
886.511	942
886.560	747
886.616	731
886.640	863
886.720	1111
886.722	1109
886.800	565
886.827	374
886.879	732
886.932	1243
886.959	1239
887.038	870
887.039	876
887.119	993
887.143	1003
887.198	1156
887.248	1362
887.278	1413
887.354	1399
887.358	1409
887.437	1502
887.459	1489
887.517	1091
887.564	827
887.596	877
887.669	862
887.676	870
887.755	981
887.774	984
887.835	1189
887.880	1354
887.914	1306
887.985	1137
887.994	1112
888.073	914
888.090	837
888.153	871
888.195	967
888.232	1187
888.300	1453
888.311	1383
888.391	878
888.405	761
888.470	751
888.510	798
888.549	996
888.615	1273
888.628	1311
888.708	1556
888.720	1573
888.787	1349
888.825	1207
888.866	1123
888.930	974
888.945	1050
889.024	1446
889.035	1486
889.103	1257
889.140	1147
889.182	1255
889.245	1346
889.261	1317
889.340	1177
889.349	1156
889.419	1196
889.454	1196
889.498	1244
889.559	1306
889.577	1286
889.656	1179
889.664	1165
889.735	1244
889.768	1274
889.814	988
889.873	605
889.978	988
890.083	1472
890.187	1358
890.292	1931
890.397	1855
890.501	1349
890.606	1163
890.710	1057
890.815	1639
890.919	1716
891.024	1119
891.128	1251
891.233	1122
891.337	1048
891.442	1104
891.546	1255
891.650	553
891.755	1820
891.859	2038
891.963	800
892.068	1141
892.172	1116
892.276	1998
892.380	1349
892.484	2037
892.589	1731
892.693	1293
892.797	1185
892.901	900
893.005	1686
893.109	1164
893.213	1627
893.317	766
893.421	1746
893.525	1926
893.629	1245
893.733	1857
893.837	1151
893.941	1409
894.045	1588
894.148	1283
894.252	917
894.356	1359
894.460	1380
894.564	1862
894.667	1276
894.771	1675
894.875	2391
894.978	1202
895.082	1256
895.186	2217
895.289	2009
895.393	1113
895.496	1729
895.600	1428
895.703	1236
895.807	971
895.910	1767
896.014	1081
896.117	783
896.221	330
896.324	2117
896.427	1896
896.531	1220
896.634	735
896.737	1437
896.840	1185
896.944	1469
897.047	963
897.150	951
897.253	1446
897.356	1935
897.460	928
897.563	1189
897.666	1847
897.769	1966
897.872	669
897.975	897
898.078	1428
898.181	1279
898.284	1075
898.387	1448
898.490	1785
898.593	1506
898.695	1263
898.798	1382
898.901	790
899.004	1253
899.107	1431
899.209	1482
899.312	754
899.415	1742
899.518	1651
899.620	1158
899.723	1095
899.826	253
899.928	1128
900.031	2122
900.133	1142
900.236	862
900.338	1242
900.441	1030
900.543	1230
900.646	1768
900.748	880
900.851	1409
900.953	1519
901.055	1149
901.158	1724
901.260	1980
901.362	925
901.465	722
901.567	635
901.669	401
901.771	1521
901.873	1252
901.976	1069
902.078	494
902.180	1196
902.282	975
902.384	667
902.486	1362
902.588	1046
902.690	1930
902.792	1158
902.894	650
902.996	1306
903.098	1697
903.200	1159
903.302	1721
903.404	73
903.505	1481
903.607	1200
903.709	1758
903.811	1027
903.913	642
904.014	767
904.116	1499
904.218	868
904.319	779
904.421	1328
904.523	1368
904.624	1383
904.726	1700
904.827	723
904.929	859
905.030	1190
905.132	1126
905.233	756
905.335	981
905.436	1769
905.537	979
905.639	988
905.740	1138
905.841	1977
905.943	737
906.044	604
906.145	1668
906.247	1381
906.348	1210
906.449	516
906.550	1024
906.651	307
906.752	582
906.854	2064
906.955	1436
907.056	411
907.157	1120
907.258	874
907.359	933
907.460	747
907.561	1123
907.662	1681
907.762	1221
907.863	189
907.964	923
908.065	834
908.166	77
908.267	392
908.367	669
908.468	918
908.569	822
908.670	1544
908.770	1529
908.871	1303
908.971	1160
909.072	1438
909.173	953
909.273	1257
909.374	1132
909.474	932
909.575	920
909.675	1211
909.776	1205
909.876	932
909.977	1664
910.077	1114
910.177	1370
910.278	1393
910.378	478
910.478	175
910.579	851
910.679	1209
910.779	946
910.879	1239
910.980	941
911.080	641
911.180	942
911.280	887
911.380	876
911.480	961
911.580	1290
911.680	863
911.780	1055
911.880	1779
911.980	931
912.080	1198
912.180	1485
912.280	131
912.380	106
912.480	1097
912.580	720
912.679	1683
912.779	812
912.879	1451
912.979	1357
913.078	404
913.178	1604
913.278	801
913.377	849
913.477	332
913.577	1535
913.676	1383
913.776	917
913.875	745
913.975	1586
914.074	1035
914.174	1214
914.273	291
914.373	1590
914.472	692
914.572	602
914.671	1300
914.770	679
914.870	1273
914.969	683
915.068	645
915.167	394
915.267	884
915.366	1109
915.465	654
915.564	1323
915.663	1288
915.763	544
915.862	244
915.961	1033
916.060	944
916.159	1041
916.258	432
916.357	661
916.456	289
916.555	125
916.654	728
916.752	1321
916.851	472
916.950	897
917.049	137
917.148	281
917.247	816
917.345	1377
917.444	101
917.543	1032
917.642	236
917.740	989
917.839	21
917.937	574
918.036	871
918.135	1591
918.233	746
918.332	859
918.430	705
918.529	861
918.627	1050
918.726	1067
918.824	1589
918.923	658
919.021	799
919.119	203
919.218	784
919.316	829
919.414	641
919.512	758
919.611	606
919.709	852
919.807	615
919.905	1434
920.003	511
920.102	826
920.200	1352
920.298	898
920.396	1384
920.494	1012
920.592	1136
920.690	257
920.788	651
920.886	1268
920.984	756
921.082	1546
921.180	1244
921.277	894
921.375	742
921.473	756
921.571	1182
921.669	488
921.766	1665
921.864	1697
921.962	1503
922.060	1778
922.157	995
922.255	1611
922.352	1488
922.450	189
922.548	1184
922.645	918
922.743	1628
922.840	859
922.938	2495
923.035	2552
923.133	1927
923.230	1667
923.327	3238
923.425	2696
923.522	2386
923.619	2686
923.717	1720
923.814	2948
923.911	2277
924.008	1917
924.106	1795
924.203	2165
924.300	1884
924.397	1996
924.494	1320
924.591	2714
924.688	2027
924.786	2580
924.883	1611
924.979	1321
925.077	2209
925.173	2966
925.270	2170
925.367	1744
925.464	1716
925.561	1497
925.658	2437
925.755	3150
925.852	2224
925.948	2670
926.045	2677
926.142	2169
926.239	1433
926.335	2008
926.432	1345
926.529	1927
926.625	2395
926.722	2288
926.818	1079
926.915	2044
927.011	2021
927.108	1652
927.204	2085
927.301	1831
927.397	2487
927.494	2415
927.590	1834
927.687	1331
927.783	1013
927.879	1760
927.976	1729
928.072	1631
928.168	1535
928.264	2217
928.361	2433
928.457	1689
928.553	1630
928.649	1986
928.745	1663
928.841	2367
928.937	1078
929.033	1983
929.129	2093
929.225	1559
929.321	1479
929.417	1288
929.513	1283
929.609	1306
929.705	1615
929.801	926
929.897	1220
929.993	1448
930.089	1784
930.184	1832
930.280	941
930.376	1582
930.471	1802
930.567	1954
930.663	1997
930.758	1953
930.854	836
930.950	2059
931.045	1542
931.141	1172
931.236	1524
931.332	1705
931.427	928
931.523	1203
931.618	1286
931.714	1223
931.809	1149
931.905	1637
932.000	1528
932.095	1067
932.191	576
932.286	1282
932.381	2273
932.476	1190
932.572	796
932.667	1423
932.762	1011
932.857	1617
932.952	1296
933.047	1486
933.142	623
933.237	1352
933.332	983
933.427	1163
933.522	1244
933.617	1575
933.712	515
933.807	1469
933.902	1584
933.997	1369
934.092	1433
934.187	962
934.282	1001
934.376	720
934.471	1260
934.566	666
934.661	1450
934.755	1870
934.850	1327
934.945	1407
935.039	701
935.134	1321
935.228	1068
935.323	1374
935.417	2443
935.512	1480
935.606	764
935.701	674
935.795	690
935.890	1673
935.984	1263
936.079	550
936.173	504
936.267	900
936.362	868
936.456	675
936.550	1632
936.644	1335
936.738	1004
936.833	310
936.927	1543
937.021	1285
937.115	503
937.209	218
937.303	637
937.397	525
937.491	1100
937.585	226
937.679	444
937.773	1225
937.867	370
937.961	637
938.055	1371
938.149	1402
938.243	899
938.337	619
938.430	550
938.524	807
938.618	954
938.712	1553
938.805	15
938.899	388
938.993	1258
939.086	1703
939.180	549
939.274	565
939.367	324
939.461	804
939.554	546
939.648	1241
939.741	601
939.835	709
939.928	650
940.022	1347
940.115	874
940.208	570
940.302	422
940.395	1064
940.488	776
940.582	352
940.675	529
940.768	861
940.861	456
940.954	1014
941.048	1137
941.141	266
941.234	31
941.327	771
941.420	1093
941.513	1209
941.606	375
941.699	817
941.792	159
941.885	559
941.978	711
942.071	1088
942.164	259
942.257	510
942.349	-35
942.442	444
942.535	988
942.628	820
942.721	1051
942.813	371
942.906	826
942.999	1961
943.091	868
943.184	-140
943.277	545
943.369	-42
943.462	889
943.554	528
943.647	722
943.739	748
943.832	288
943.924	336
944.017	-156
944.109	-57
944.201	356
944.294	861
944.386	467
944.478	513
944.571	784
944.663	411
944.755	439
944.847	929
944.940	632
945.032	848
945.124	383
945.216	386
945.308	464
945.400	444
945.492	-87
945.584	427
945.676	678
945.768	839
945.860	40
945.952	1606
946.044	600
946.136	179
946.228	114
946.320	277
946.412	534
946.503	557
946.595	585
946.687	302
946.779	214
946.870	-47
946.962	823
947.054	87
947.145	866
947.237	114
947.329	-230
947.420	223
947.512	319
947.603	129
947.695	202
947.786	462
947.878	-53
947.969	318
948.061	479
948.152	-23
948.243	46
948.335	21
948.426	-121
948.517	-161
948.609	538
948.700	564
948.791	251
948.882	632
948.973	563
949.065	-265
949.156	-257
949.247	341
949.338	-451
949.429	-109
949.520	-647
949.611	-365
949.702	-199
949.793	-195
949.884	-182
949.975	-82
950.066	-455
950.157	446
950.247	-60
950.338	432
950.429	18
950.520	241
950.611	-405
950.701	-655
950.792	-238
950.883	1062
950.973	333
951.064	642
951.155	721
951.245	196
951.336	-1064
951.427	-564
951.517	1140
951.608	1042
951.698	470
951.788	298
951.879	-1009
951.969	373
952.060	118
952.150	156
952.240	1242
952.331	-481
952.421	24
952.511	-107
952.602	-381
952.692	-643
952.782	217
952.872	-699
952.962	-34
953.052	108
953.143	649
953.233	-17
953.323	172
953.413	579
953.503	-516
953.593	222
953.683	-18
953.773	696
953.863	-57
953.953	-243
954.042	534
954.132	-529
954.222	-187
954.312	725
954.402	-526
954.492	365
954.581	52
954.671	491
954.761	-248
954.850	792
954.940	-37
955.030	49
955.119	-1412
955.209	-399
955.298	396
955.388	-744
955.477	-335
955.567	-100
955.656	-299
955.746	-310
955.835	-555
955.925	-145
956.014	-224
956.103	722
956.193	98
956.282	-221
956.371	361
956.461	-246
956.550	225
956.639	-43
956.728	-141
956.817	-1286
956.906	142
956.995	97
957.085	-46
957.174	-552
957.263	-299
957.352	254
957.441	-664
957.530	-184
957.619	-539
957.708	-835
957.796	-435
957.885	-434
957.974	-906
958.063	-139
958.152	-289
958.241	-333
958.329	213
958.418	-254
958.507	-310
958.596	-540
958.684	-365
958.773	-599
958.861	-807
958.950	-830
959.039	-510
959.127	-218
959.216	-58
959.304	-398
959.393	-652
959.481	-359
959.570	15
959.658	67
959.746	179
959.835	-321
959.923	-181
960.011	320
960.100	-357
960.188	153
960.276	-454
960.365	-455
960.453	-551
960.541	-393
960.629	-653
960.717	5
960.805	-379
960.893	-903
960.981	-747
961.069	-813
961.158	-162
961.245	436
961.333	-636
961.421	-319
961.509	-75
961.597	-727
961.685	252
961.773	-212
961.861	-636
961.949	43
962.036	-100
962.124	-590
962.212	-204
962.299	-838
962.387	-164
962.475	217
962.562	320
962.650	-138
962.738	-1324
962.825	-566
962.913	-666
963.000	-702
963.088	-831
963.175	-103
963.263	-365
963.350	-853
963.438	-1205
963.525	-411
963.612	-199
963.700	-225
963.787	1263
963.874	3597
963.962	2468
964.049	-976
964.136	-393
964.223	-854
964.310	-692
964.398	-523
964.485	-236
964.572	44
964.659	1021
964.746	-528
964.833	-236
964.920	-430
965.007	-1027
965.094	-635
965.181	-947
965.268	-708
965.355	-504
965.441	-938
965.528	-1262
965.615	-590
965.702	-654
965.789	-204
965.875	-507
965.962	-523
966.049	578
966.136	-858
966.222	-746
966.309	156
966.395	-1044
966.482	-550
966.569	-1172
966.655	160
966.742	-170
966.828	-887
966.915	-439
967.001	-459
967.087	-891
967.174	-195
967.260	-753
967.347	57
967.433	-830
967.519	144
967.605	1808
967.692	402
967.778	-701
967.864	-919
967.950	-880
968.036	-665
968.123	-425
968.209	-412
968.295	-902
968.381	-718
968.467	-962
968.553	-888
968.639	-702
968.725	-435
968.811	-409
968.897	-137
968.983	-628
969.069	-970
969.154	-1144
969.240	-562
969.326	-1043
969.412	-883
969.497	-959
969.583	-188
969.669	-689
969.755	-809
969.840	-688
969.926	-910
970.012	-780
970.097	150
970.183	-301
970.268	-619
970.354	238
970.439	-548
970.525	-414
970.610	973
970.696	657
970.781	-337
970.866	-951
970.952	-685
971.037	-735
971.122	-688
971.208	-727
971.293	-1203
971.378	-529
971.463	-1059
971.549	-1424
971.634	-522
971.719	-654
971.804	-49
971.889	-513
971.974	-618
972.059	-1513
972.144	-795
972.229	-1438
972.314	-427
972.399	-363
972.484	-723
972.569	-1085
972.654	-1149
972.739	-120
972.824	-468
972.908	484
972.993	-1283
973.078	-594
973.163	-1076
973.247	-1041
973.332	-726
973.417	-833
973.501	-903
973.586	-899
973.671	-739
973.755	-381
973.840	282
973.924	-418
974.009	-544
974.093	-172
974.178	604
974.262	-524
974.346	397
974.431	36
974.515	-1106
974.600	-83
974.684	-317
974.768	-1181
974.852	-317
974.937	-1318
975.021	-284
975.105	-238
975.189	-656
975.273	-189
975.358	-508
975.442	-1205
975.526	-498
975.610	300
975.694	109
975.778	-1053
975.862	-73
975.946	-166
976.030	-1122
976.114	-1250
976.198	-309
976.281	-722
976.365	50
976.449	-350
976.533	-955
976.617	-913
976.700	-684
976.784	-559
976.868	161
976.951	-695
977.035	-298
977.119	281
977.202	-450
977.286	-515
977.369	-683
977.453	-318
977.536	798
977.620	-83
977.703	-113
977.787	-509
977.870	-181
977.953	-363
978.037	-189
978.120	-370
978.203	-572
978.287	-369
978.370	1707
978.453	-943
978.536	-292
978.620	-644
978.703	-652
978.786	31
978.869	79
978.952	-1182
979.035	-123
979.118	337
979.201	-554
979.284	-84
979.367	-351
979.450	-122
979.533	-301
979.616	-341
979.699	-228
979.782	-896
979.865	-554
979.948	195
980.030	61
980.113	256
980.196	-529
980.279	-877
980.361	-667
980.444	-575
980.526	-335
980.609	303
980.692	-197
980.774	416
980.857	92
980.939	88
981.022	-1000
981.104	-167
981.187	-642
981.269	-20
981.352	217
981.434	-432
981.516	296
981.599	245
981.681	-531
981.763	-563
981.846	425
981.928	-44
982.010	-236
982.092	-374
982.174	-33
982.256	50
982.339	270
982.421	-748
982.503	110
982.585	-1391
982.667	93
982.749	-187
982.831	132
982.913	-811
982.995	-184
983.077	-1162
983.158	188
983.240	-660
983.322	-326
983.404	114
983.486	251
983.568	437
983.649	-530
983.731	61
983.813	13
983.894	629
983.976	-577
984.058	-260
984.139	-196
984.221	-811
984.302	-116
984.384	743
984.465	-133
984.547	-489
984.628	193
984.710	72
984.791	453
984.872	32
984.954	-101
985.035	-442
985.116	-1124
985.198	-314
985.279	55
985.360	-305
985.441	476
985.522	-290
985.604	-40
985.685	-813
985.766	1306
985.847	-289
985.928	-149
986.009	-538
986.090	128
986.171	-41
986.252	-36
986.333	-149
986.414	-268
986.495	199
986.576	-276
986.656	189
986.737	1045
986.818	-365
986.899	-596
986.980	-517
987.060	3
987.141	-61
987.222	228
987.302	-189
987.383	267
987.464	153
987.544	-282
987.625	543
987.705	820
987.786	824
987.866	-137
987.947	184
988.027	380
988.108	49
988.188	75
988.268	-491
988.349	271
988.429	-763
988.509	-52
988.589	-871
988.670	-87
988.750	362
988.830	628
988.910	-109
988.990	-29
989.070	12
989.151	168
989.231	-61
989.311	285
989.391	-584
989.471	-275
989.551	-92
989.631	560
989.711	-164
989.791	-1236
989.870	-130
989.950	101
990.030	-35
990.110	-104
990.190	-370
990.269	251
990.349	-854
990.429	-938
990.509	-362
990.588	-347
990.668	-324
990.747	-493
990.827	272
990.907	-739
990.986	-502
991.066	23
991.145	-166
991.225	-962
991.304	-1183
991.383	46
991.463	-331
991.542	-216
991.622	-908
991.701	-377
991.780	-273
991.859	-568
991.939	275
992.018	-796
992.097	-408
992.176	70
992.256	-429
992.335	445
992.414	-164
992.493	81
992.572	-831
992.651	-431
992.730	-631
992.809	-1157
992.888	-979
992.967	122
993.046	-528
993.125	-30
993.203	-603
993.282	-13
993.361	-590
993.440	-494
993.519	-681
993.597	-386
993.676	-242
993.755	-251
993.834	-740
993.912	-263
993.991	-679
994.069	-461
994.148	-312
994.226	-456
994.305	-350
994.384	-487
994.462	-602
994.540	24
994.619	-334
994.697	-749
994.776	-367
994.854	-413
994.932	261
995.011	-631
995.089	-222
995.167	-619
995.245	-960
995.324	-748
995.402	-544
995.480	-638
995.558	80
995.636	-1169
995.714	-864
995.792	-661
995.870	69
995.948	-691
996.026	-851
996.104	-669
996.182	-520
996.260	-1260
996.338	-1031
996.416	-981
996.494	-1209
996.572	-603
996.649	-984
996.727	-562
996.805	-1531
996.883	-786
996.960	-647
997.038	-688
997.116	-453
997.193	-1126
997.271	-172
997.348	-223
997.426	-1364
997.504	-703
997.581	-676
997.658	-855
997.736	-1736
997.813	-690
997.891	-615
997.968	-1011
998.046	-166
998.123	-1049
998.200	-649
998.277	-1322
998.355	-403
998.432	-1471
998.509	-1490
998.586	-1454
998.663	-637
998.741	-1517
998.818	-1115
998.895	-961
998.972	-1446
999.049	-734
999.126	-800
999.203	-91
999.280	-1089
999.357	-1685
999.434	-1405
999.511	-374
999.587	-1234
999.664	-767
999.741	-1380
999.818	-338
999.895	-1002
999.971	-472
1000.048	-992
1000.125	-260
1000.202	-1374
1000.278	-1291
1000.355	-1086
1000.431	-1077
1000.508	-977
1000.584	-1510
1000.661	-361
1000.738	-1097
1000.814	-1217
1000.890	-1231
1000.967	-1175
1001.043	-1507
1001.120	-1298
1001.196	-931
1001.272	-1289
1001.349	-1156
1001.425	-1230
1001.501	-1538
1001.577	-801
1001.654	-880
1001.730	-1346
1001.806	-922
1001.882	-1856
1001.958	-1091
1002.034	-450
1002.110	-1121
1002.186	-1138
1002.262	-1026
1002.338	-1162
1002.414	-1050
1002.490	-1293
1002.566	-690
1002.642	-1052
1002.718	-1314
1002.794	-1321
1002.870	-1222
1002.945	-1412
1003.021	-1638
1003.097	-1183
1003.173	-1201
1003.248	-667
1003.324	-1112
1003.400	-596
1003.475	-1665
1003.551	-1282
1003.626	-1101
1003.702	-1704
1003.777	-1281
1003.853	-1039
1003.928	-1374
1004.004	-1757
1004.079	-1584
1004.155	-1085
1004.230	-1960
1004.305	-1128
1004.381	-1429
1004.456	-795
1004.531	-1228
1004.607	-1256
1004.682	-955
1004.757	-1091
1004.832	-1409
1004.907	-1269
1004.982	-1799
1005.057	-1119
1005.133	-1620
1005.208	-1172
1005.283	-1237
1005.358	-1733
1005.433	-1785
1005.508	-858
1005.583	-1510
1005.657	-1592
1005.732	-479
1005.807	-1573
1005.882	-1823
1005.957	-1450
1006.032	-1300
1006.106	-1735
1006.181	-1390
1006.256	-1103
1006.331	-1248
1006.405	-1357
1006.480	-1679
1006.554	-1428
1006.629	-1372
1006.704	-1326
1006.778	-759
1006.853	-1563
1006.927	-1738
1007.002	-1329
1007.076	-973
1007.150	-1601
1007.225	-2139
1007.299	-1775
1007.373	-2003
1007.448	-1533
1007.522	-2025
1007.596	-1501
1007.671	-1201
1007.745	-1768
1007.819	-1504
1007.893	-1765
1007.967	-1069
1008.041	-1479
1008.115	-1438
1008.190	-1914
1008.264	-1489
1008.338	-2067
1008.412	-1105
1008.486	-1391
1008.560	-1988
1008.633	-1272
1008.707	-1196
1008.781	-1531
1008.855	-1670
1008.929	-1272
1009.003	-1852
1009.076	-1730
1009.150	-1694
1009.224	-1586
1009.298	-962
1009.371	-1359
1009.445	-1725
1009.519	-1382
1009.592	-1253
1009.666	-1705
1009.739	-1693
1009.813	-2005
1009.886	-1028
1009.960	-1679
1010.033	-893
1010.107	-1166
1010.180	-1143
1010.253	-1327
1010.327	-1769
1010.400	-1433
1010.473	-1800
1010.547	-1214
1010.620	-1507
1010.693	-1386
1010.766	-1176
1010.840	-1400
1010.913	-2872
1010.986	-1597
1011.059	-1119
1011.132	-1412
1011.205	-1258
1011.278	-2086
1011.351	-2235
1011.424	-1688
1011.497	-1225
1011.570	-1960
1011.643	-1970
1011.716	-1408
1011.789	-1556
1011.862	-1362
1011.934	-801
1012.007	-1838
1012.080	-1897
1012.153	-1557
1012.225	-1212
1012.298	-1446
1012.371	-1544
1012.443	-1777
1012.516	-1696
1012.588	-1373
1012.661	-1175
1012.733	-1854
1012.806	-1931
1012.879	-1235
1012.951	-1869
1013.023	-1592
1013.096	-1883
1013.168	-1567
1013.241	-990
1013.313	-1517
1013.385	-1848
1013.458	-786
1013.530	-1325
1013.602	-1404
1013.674	-1583
1013.746	-1824
1013.819	-2014
1013.891	-803
1013.963	-1351
1014.035	-1053
1014.107	-1192
1014.179	-2031
1014.251	-1354
1014.323	-1590
1014.395	-970
1014.467	-1036
1014.539	-1409
1014.611	-1197
1014.683	-1444
1014.754	-2110
1014.826	-1346
1014.898	-1766
1014.970	-1971
1015.042	-1112
1015.113	-896
1015.185	-1600
1015.257	-1605
1015.328	-1739
1015.400	-1520
1015.471	-812
1015.543	-2271
1015.615	-1835
1015.686	-2121
1015.757	-1888
1015.829	-987
1015.901	-1102
1015.972	-1785
1016.043	-1192
1016.115	-2471
1016.186	-1643
1016.257	-2082
1016.328	-1355
1016.400	-1717
1016.471	-1388
1016.542	-1569
1016.613	-1636
1016.685	-1442
1016.756	-1211
1016.827	-2021
1016.898	-1309
1016.969	-906
1017.040	-1245
1017.111	-1122
1017.182	-1563
1017.253	-1509
1017.324	-1925
1017.395	-1398
1017.466	-901
1017.537	-947
1017.608	-2131
1017.678	-1511
1017.749	-986
1017.820	-1402
1017.891	-1702
1017.961	-1700
1018.032	-1918
1018.103	-1766
1018.173	-1779
1018.244	-1360
1018.315	-1820
1018.385	-1203
1018.456	-1831
1018.526	-1363
1018.597	-1002
1018.667	-1463
1018.738	-1475
1018.808	-1242
1018.878	-2339
1018.949	-1467
1019.019	-944
1019.089	-1826
1019.160	-1511
1019.230	-1236
1019.300	-1401
1019.371	-1079
1019.441	-1711
1019.511	-1100
1019.581	-1310
1019.651	-1478
1019.721	-905
1019.791	-1856
1019.861	-1590
1019.931	-1326
1020.001	-1241
1020.071	-1563
1020.141	-1333
1020.211	-1258
1020.281	-1420
1020.351	-1780
1020.421	-1214
1020.491	-952
1020.560	-1490
1020.630	-1391
1020.700	-892
1020.770	-1440
1020.839	-1819
1020.909	-814
1020.979	-1121
1021.048	-1783
1021.118	-1021
1021.187	-1587
1021.257	-1621
1021.326	-1928
1021.396	-1542
1021.465	-1007
1021.535	-675
1021.604	-1151
1021.674	-1503
1021.743	-1247
1021.812	-1569
1021.882	-1289
1021.951	-1024
1022.020	-1332
1022.089	-1146
1022.159	-1423
1022.228	-810
1022.297	-1264
1022.366	-1396
1022.435	-1248
1022.504	-1219
1022.573	-560
1022.642	-2353
1022.711	-1662
1022.781	-1432
1022.849	-1337
1022.918	-1023
1022.987	-1708
1023.056	-1485
1023.125	-1425
1023.194	-1304
1023.263	-1430
1023.331	-1516
1023.400	-1142
1023.469	-1193
1023.538	-979
1023.606	-1875
1023.675	-1179
1023.744	-1518
1023.812	-1404
1023.881	-1505
1023.949	-984
1024.018	-1215
1024.086	-1416
1024.155	-1601
1024.223	-1287
1024.292	-888
1024.360	-824
1024.429	-1289
1024.497	-2440
1024.565	-1680
1024.634	-1262
1024.702	-1746
1024.770	-1167
1024.838	-1331
1024.907	-1306
1024.975	-531
1025.043	-1057
1025.111	-1471
1025.179	-1576
1025.247	-2043
1025.315	-845
1025.383	-1230
1025.451	-1188
1025.519	-573
1025.587	-1021
1025.655	-573
1025.723	-894
1025.791	-1332
1025.859	-855
1025.927	-850
1025.995	-2344
1026.062	-1348
1026.130	-1401
1026.198	-408
1026.266	-663
1026.333	-1047
1026.401	-1254
1026.469	-1682
1026.536	-1340
1026.604	-895
1026.671	-1331
1026.739	-960
1026.806	-1630
1026.874	-1098
1026.941	-1697
1027.009	-1320
1027.076	-1383
1027.144	-1763
1027.211	-941
1027.278	-1959
1027.345	-996
1027.413	-1766
1027.480	-872
1027.547	-523
1027.614	-1709
1027.682	-944
1027.749	-709
1027.816	-1570
1027.883	-1028
1027.950	-1475
1028.017	-1971
1028.084	-1167
1028.151	-1479
1028.218	-1020
1028.285	-913
1028.352	-955
1028.419	-945
1028.486	-800
1028.553	-1375
1028.619	-1702
1028.686	-379
1028.753	-788
1028.820	-1921
1028.886	-1323
1028.953	-1423
1029.020	-1033
1029.086	-851
1029.153	-772
1029.220	-1170
1029.286	-1247
1029.353	-596
1029.419	-1720
1029.486	-693
1029.552	-1209
1029.619	-1710
1029.685	-1451
1029.751	-1482
1029.818	-1164
1029.884	-1121
1029.951	-339
1030.017	-1478
1030.083	-387
1030.149	-921
1030.216	-919
1030.282	-377
1030.348	-1130
1030.414	-1503
1030.480	-280
1030.546	-1326
1030.612	-1491
1030.678	-1659
1030.744	-714
1030.810	-906
1030.876	-798
1030.942	-1422
1031.008	-679
1031.074	-792
1031.140	-1174
1031.206	-995
1031.272	-1774
1031.337	-486
1031.403	-903
1031.469	-816
1031.534	-826
1031.600	-1042
1031.666	-1287
1031.731	-1408
1031.797	-765
1031.863	-998
1031.928	-2181
1031.994	-580
1032.059	-1986
1032.125	-617
1032.190	-1520
1032.256	-1229
1032.321	-1167
1032.386	-910
1032.452	-1221
1032.517	-800
1032.582	-810
1032.647	-1024
1032.713	-718
1032.778	-844
1032.843	-1018
1032.908	-1176
1032.974	-1264
1033.039	-2161
1033.104	-973
1033.169	-1342
1033.234	-767
1033.299	-1351
1033.364	-743
1033.429	-725
1033.494	-500
1033.559	-980
1033.624	-1326
1033.688	-353
1033.753	-714
1033.818	-1078
1033.883	-626
1033.948	-1045
1034.013	-1054
1034.077	-1111
1034.142	-1204
1034.207	-976
1034.271	-874
1034.336	-906
1034.400	-748
1034.465	-63
1034.530	51
1034.594	-846
1034.658	-534
1034.723	-784
1034.787	-629
1034.852	-376
1034.916	-879
1034.981	-977
1035.045	-699
1035.109	-1119
1035.173	-864
1035.238	-1000
1035.302	-1365
1035.366	-675
1035.430	-692
1035.495	-1347
1035.559	-547
1035.623	-1532
1035.687	-1319
1035.751	-1064
1035.815	-570
1035.879	-651
1035.943	-749
1036.007	-1688
1036.071	-1367
1036.135	-859
1036.198	-727
1036.262	-222
1036.326	-759
1036.390	-1028
1036.454	-1413
1036.517	-1170
1036.581	-877
1036.645	-645
1036.709	-584
1036.772	-489
1036.836	-974
1036.900	-1072
1036.963	-966
1037.026	-790
1037.090	-1682
1037.154	-739
1037.217	-1026
1037.280	-1686
1037.344	-1147
1037.407	-1732
1037.471	-1680
1037.534	-962
1037.597	-873
1037.661	-1969
1037.724	-1706
1037.787	-981
1037.850	-1205
1037.913	-1153
1037.977	-575
1038.040	-1264
1038.103	-1286
1038.166	-1112
1038.229	-1271
1038.292	-1458
1038.355	-883
1038.418	-1408
1038.481	-1356
1038.544	-1705
1038.607	-1328
1038.670	-648
1038.732	-1516
1038.795	-968
1038.858	-1600
1038.921	-673
1038.984	-1219
1039.046	-1851
1039.109	-954
1039.172	-1678
1039.234	-916
1039.297	-1425
1039.360	-834
1039.422	-1431
1039.485	-991
1039.547	-1823
1039.610	-977
1039.672	-678
1039.734	-591
1039.797	-1557
1039.859	-680
1039.922	-1158
1039.984	-1168
1040.046	-1614
1040.109	-1615
1040.171	-1420
1040.233	-872
1040.295	-1281
1040.358	-1605
1040.420	-723
1040.482	-1267
1040.544	-1595
1040.606	-1461
1040.668	-1597
1040.730	-1064
1040.792	-1129
1040.854	-1082
1040.916	-1197
1040.978	-1294
1041.040	-1587
1041.102	-1558
1041.164	-1592
1041.225	-1430
1041.287	-783
1041.349	-919
1041.411	-772
1041.472	-1491
1041.534	-946
1041.596	-1312
1041.657	-1514
1041.719	-1199
1041.781	-1865
1041.842	-1122
1041.904	-1704
1041.965	-880
1042.027	-1034
1042.088	-1397
1042.150	-1346
1042.211	-1473
1042.272	-779
1042.334	-1861
1042.395	-1323
1042.456	-1197
1042.518	-762
1042.579	-1589
1042.640	-1675
1042.701	-1253
1042.763	-1906
1042.824	-1862
1042.885	-1159
1042.946	-666
1043.007	-1293
1043.068	-1597
1043.129	-649
1043.190	-1548
1043.251	-1109
1043.312	-1721
1043.373	-1276
1043.434	-441
1043.495	-1198
1043.556	-967
1043.616	-1792
1043.677	-1721
1043.738	-1692
1043.799	-1516
1043.859	-1723
1043.920	-1136
1043.981	-1014
1044.041	-1555
1044.102	-705
1044.162	-969
1044.223	-1684
1044.284	-1894
1044.344	-1575
1044.405	-1338
1044.465	-1309
1044.525	-1961
1044.586	-706
1044.646	-1272
1044.707	-932
1044.767	-846
1044.827	-631
1044.887	-2127
1044.948	-1515
1045.008	-845
1045.068	-1199
1045.128	-1184
1045.188	-1508
1045.249	-960
1045.309	-706
1045.369	-1448
1045.429	-569
1045.489	-1837
1045.549	-1049
1045.609	-1339
1045.669	-890
1045.729	-890
1045.789	-1195
1045.848	-928
1045.908	-1752
1045.968	-929
1046.028	-1037
1046.088	-1966
1046.147	-719
1046.207	-1607
1046.267	-755
1046.326	-974
1046.386	-1594
1046.446	-359
1046.505	-505
1046.565	-621
1046.624	-496
1046.684	-1120
1046.743	131
1046.803	-297
1046.862	541
1046.922	0
