'Start Wavelength	183.907
'End Wavelength	1046.922
'Gate Delay	5.000
'Gate Width (ms)	1.050
'Laser Output Level	0.000
'X Position	0.000
'Y Position	0.000
'Z Position	0.000
'Grid Point Number	1.000
'Shot Number	100.000
183.907	93.000
183.977	295.000
184.047	1103
184.116	811
184.186	742
184.256	221
184.325	409
184.395	1649
184.465	915
184.534	1004
184.604	913
184.674	739
184.743	517
184.813	-55
184.883	1214
184.952	758
185.022	1102
185.092	501
185.161	1193
185.231	1651
185.301	1894
185.370	1409
185.440	1064
185.509	721
185.579	686
185.649	729
185.718	454
185.788	383
185.857	869
185.927	512
185.996	411
186.066	1074
186.136	667
186.205	1107
186.275	966
186.344	1549
186.414	1050
186.483	1800
186.553	3620
186.622	4092
186.692	1060
186.761	928
186.831	940
186.900	665
186.970	1982
187.039	1850
187.109	2096
187.178	1446
187.248	1788
187.317	2484
187.387	1179
187.456	1807
187.526	3325
187.595	2314
187.664	1570
187.734	3147
187.803	2549
187.873	2669
187.942	3026
188.012	2105
188.081	1760
188.150	2579
188.220	5251
188.289	3499
188.358	2879
188.428	1922
188.497	1533
188.567	1711
188.636	1800
188.705	1793
188.775	2337
188.844	2307
188.913	2452
188.983	1928
189.052	1540
189.121	2020
189.191	2642
189.260	3567
189.329	4106
189.399	2748
189.468	2074
189.537	1905
189.606	2492
189.676	2672
189.745	3029
189.814	2758
189.883	3373
189.953	3926
190.022	6835
190.091	19863
190.161	13381
190.230	4271
190.299	3609
190.368	1960
190.437	2230
190.507	3492
190.576	2554
190.645	1509
190.714	1273
190.783	2674
190.853	2479
190.922	3347
190.991	3608
191.060	3340
191.129	2205
191.198	2231
191.268	2569
191.337	1733
191.406	2646
191.475	2590
191.544	2252
191.613	2083
191.682	1658
191.752	1865
191.821	2015
191.890	2946
191.959	2212
192.028	1756
192.097	2755
192.166	2312
192.235	2284
192.304	2555
192.373	1861
192.442	1185
192.511	2119
192.580	1602
192.650	1681
192.719	2680
192.788	2316
192.857	2237
192.926	2698
192.995	3602
193.064	5724
193.133	6224
193.202	6753
193.271	5362
193.340	5309
193.409	6633
193.478	6270
193.547	10142
193.615	11472
193.684	10091
193.753	5151
193.822	4745
193.891	3272
193.960	2968
194.029	4401
194.098	4034
194.167	2565
194.236	3040
194.305	2745
194.374	3111
194.443	3431
194.512	3477
194.580	3598
194.649	6555
194.718	4170
194.787	3001
194.856	3092
194.925	4401
194.994	4415
195.062	4474
195.131	5646
195.200	7724
195.269	7582
195.338	4282
195.407	3884
195.475	4700
195.544	7031
195.613	4809
195.682	4314
195.751	7648
195.819	7360
195.888	3915
195.957	7442
196.026	6471
196.094	6924
196.163	8225
196.232	6650
196.301	5764
196.369	4932
196.438	3872
196.507	4849
196.576	2887
196.644	3094
196.713	3576
196.782	3077
196.850	3173
196.919	3513
196.988	3523
197.056	3688
197.125	3608
197.194	3603
197.262	3514
197.331	3958
197.400	3374
197.468	3967
197.537	3102
197.606	5234
197.674	14050
197.743	16144
197.812	10583
197.880	21620
197.949	11073
198.017	20050
198.086	7838
198.155	5765
198.223	12016
198.292	22683
198.360	6936
198.429	5238
198.497	6199
198.566	21208
198.635	13906
198.703	6193
198.772	9893
198.840	37859
198.909	15198
198.977	6742
199.046	5129
199.114	5347
199.183	5402
199.251	3831
199.320	4482
199.388	5203
199.457	4666
199.525	5100
199.594	4103
199.662	3397
199.731	4299
199.799	4738
199.867	5810
199.936	4589
200.004	4705
200.073	4719
200.141	3887
200.210	3363
200.278	4278
200.346	5372
200.415	7462
200.483	6958
200.552	3421
200.620	5264
200.688	4943
200.757	4493
200.825	4916
200.893	5080
200.962	4304
201.030	4315
201.098	5585
201.167	4882
201.235	5082
201.303	5070
201.372	5178
201.440	4953
201.508	7328
201.577	6670
201.645	5305
201.713	4697
201.781	7442
201.850	6736
201.918	5734
201.986	5337
202.055	5150
202.123	4911
202.191	4040
202.259	5041
202.327	3739
202.396	5126
202.464	6186
202.532	16450
202.600	38686
202.669	12401
202.737	6570
202.805	5504
202.873	4605
202.941	5802
203.009	4517
203.078	4701
203.146	4757
203.214	5418
203.282	5217
203.350	5092
203.418	5938
203.487	4604
203.555	5105
203.623	5340
203.691	4878
203.759	4062
203.827	4291
203.895	5205
203.963	5552
204.031	5382
204.099	6231
204.168	4922
204.236	4759
204.304	6037
204.372	5219
204.440	4855
204.508	5322
204.576	4631
204.644	4638
204.712	4826
204.780	4997
204.848	5010
204.916	3875
204.984	4568
205.052	5276
205.120	6833
205.188	5283
205.256	5704
205.324	5274
205.392	5398
205.460	7427
205.528	8414
205.596	6089
205.664	5103
205.732	8234
205.799	40543
205.867	27720
205.935	9371
206.003	6390
206.071	6435
206.139	8604
206.207	7305
206.275	5339
206.343	6341
206.411	6242
206.478	5290
206.546	7847
206.614	5601
206.682	5954
206.750	7491
206.818	10912
206.885	7580
206.953	4786
207.021	5767
207.089	4752
207.157	5313
207.225	6033
207.292	5793
207.360	6882
207.428	5762
207.496	4758
207.563	5548
207.631	4944
207.699	5118
207.767	6329
207.834	5822
207.902	6728
207.970	6192
208.038	5875
208.105	5702
208.173	10007
208.241	9979
208.309	8108
208.376	11989
208.444	18680
208.512	7250
208.579	6619
208.647	10042
208.715	8719
208.782	7158
208.850	5868
208.918	7050
208.985	6818
209.053	7433
209.120	6627
209.188	6301
209.256	6046
209.323	9489
209.391	11415
209.459	7588
209.526	5926
209.594	5755
209.661	6526
209.729	6503
209.796	6697
209.864	7575
209.932	6628
209.999	7565
210.067	10731
210.134	7717
210.202	10888
210.269	12726
210.337	13321
210.404	7930
210.472	7375
210.539	7074
210.607	11032
210.674	9910
210.742	7796
210.809	8893
210.877	11895
210.944	10877
211.012	11042
211.079	8311
211.146	7817
211.214	10504
211.281	18865
211.349	11488
211.416	10174
211.484	10851
211.551	8497
211.618	7894
211.686	8326
211.753	7334
211.821	7657
211.888	8401
211.955	8932
212.023	9144
212.090	10373
212.157	10100
212.225	13123
212.292	27356
212.359	81806
212.427	124310
212.494	37036
212.561	17789
212.629	12413
212.696	11347
212.763	10279
212.831	9204
212.898	9411
212.965	7799
213.032	9970
213.100	10741
213.167	12046
213.234	11598
213.301	8600
213.369	8416
213.436	8799
213.503	9128
213.570	12501
213.638	11907
213.705	8936
213.772	9134
213.839	18013
213.906	12042
213.973	12845
214.041	8952
214.108	9528
214.175	9440
214.242	8523
214.309	8560
214.376	10271
214.444	11007
214.511	11917
214.578	9607
214.645	9938
214.712	11533
214.779	9714
214.846	10941
214.913	13112
214.980	11757
215.048	13960
215.115	14917
215.182	14175
215.249	11496
215.316	10701
215.383	9187
215.450	9452
215.517	9552
215.584	8915
215.651	9492
215.718	9356
215.785	13229
215.852	13806
215.919	14417
215.986	12620
216.053	8567
216.120	9418
216.187	12517
216.254	10778
216.321	11080
216.388	12828
216.455	14096
216.522	13892
216.589	18820
216.656	36561
216.722	21681
216.789	15955
216.856	14115
216.923	12095
216.990	11348
217.057	13391
217.124	17215
217.191	14033
217.258	18349
217.324	19545
217.391	16958
217.458	14050
217.525	12620
217.592	11578
217.659	12860
217.725	14368
217.792	27807
217.859	16962
217.926	11495
217.993	9135
218.059	7991
218.126	9318
218.193	9322
218.260	7390
218.327	8319
218.393	9643
218.460	7846
218.527	6947
218.594	14721
218.660	26496
218.727	19509
218.794	8759
218.860	8678
218.927	7212
218.994	7126
219.061	10169
219.127	16691
219.194	20301
219.261	8760
219.327	7453
219.394	6680
219.461	6547
219.527	9230
219.594	18978
219.661	9386
219.727	8364
219.794	8566
219.860	7954
219.927	13103
219.994	23565
220.060	27717
220.127	16071
220.193	12333
220.260	12613
220.326	17905
220.393	25512
220.460	24974
220.526	17502
220.593	14104
220.659	15382
220.726	27568
220.792	60103
220.859	38990
220.925	43030
220.992	47142
221.058	80551
221.125	68722
221.191	46107
221.258	18379
221.324	15103
221.391	13972
221.457	11922
221.524	12034
221.590	31189
221.657	87755
221.723	36277
221.789	52799
221.856	30126
221.922	16054
221.989	12474
222.055	12199
222.121	11053
222.188	12597
222.254	10404
222.321	8591
222.387	6829
222.453	7176
222.520	8236
222.586	7775
222.652	8244
222.719	9981
222.785	11000
222.851	7318
222.918	7586
222.984	12924
223.050	11192
223.116	9142
223.183	6802
223.249	5633
223.315	6158
223.382	8100
223.448	6338
223.514	5702
223.580	5512
223.647	5952
223.713	6278
223.779	5883
223.845	6715
223.911	6273
223.978	6294
224.044	6323
224.110	5575
224.176	5448
224.242	5976
224.309	5589
224.375	5374
224.441	5765
224.507	6717
224.573	6963
224.639	6433
224.705	6316
224.772	5985
224.838	8551
224.904	10450
224.970	6903
225.036	8865
225.102	9605
225.168	9023
225.234	8030
225.300	9892
225.366	7440
225.432	6594
225.499	7997
225.565	11259
225.631	9749
225.697	8800
225.763	10319
225.829	11561
225.895	16152
225.961	24435
226.027	19768
226.093	17941
226.159	17212
226.225	28623
226.291	64817
226.357	65305
226.423	37879
226.489	25253
226.554	16792
226.620	18229
226.686	30498
226.752	39818
226.818	66448
226.884	112215
226.950	65984
227.016	30900
227.082	21484
227.148	21274
227.214	20387
227.279	16663
227.345	13871
227.411	14209
227.477	18990
227.543	36994
227.609	29544
227.674	17664
227.740	13809
227.806	13318
227.872	10381
227.938	16611
228.003	20880
228.069	9659
228.135	8920
228.201	8629
228.267	10584
228.332	15124
228.398	19363
228.464	9133
228.530	7416
228.595	8381
228.661	12500
228.727	21768
228.792	12178
228.858	10961
228.924	14008
228.990	13954
229.055	16830
229.121	15099
229.187	10670
229.252	12097
229.318	9008
229.384	14391
229.449	13815
229.515	7887
229.581	5828
229.646	10314
229.712	16102
229.777	42385
229.843	25809
229.909	21142
229.974	22363
230.040	15985
230.105	14140
230.171	17705
230.236	26434
230.302	36356
230.368	22619
230.433	13515
230.499	13552
230.564	13490
230.630	10987
230.695	8754
230.761	9084
230.826	11388
230.892	18765
230.957	10120
231.023	8958
231.088	10824
231.154	9716
231.219	11612
231.284	22740
231.350	15905
231.415	9569
231.481	8603
231.546	8069
231.612	8879
231.677	7700
231.742	8857
231.808	10081
231.873	8790
231.939	10529
232.004	26030
232.069	15267
232.135	13097
232.200	8663
232.265	7620
232.331	7632
232.396	6523
232.461	7301
232.527	8488
232.592	9093
232.657	15241
232.723	41093
232.788	16772
232.853	9144
232.918	9408
232.984	9215
233.049	14513
233.114	40294
233.179	21947
233.245	67485
233.310	37609
233.375	13495
233.440	11508
233.506	10668
233.571	10483
233.636	9284
233.701	13584
233.766	56538
233.832	32845
233.897	18252
233.962	17739
234.027	18975
234.092	16047
234.157	16258
234.222	17202
234.288	61242
234.353	124614
234.418	87534
234.483	38866
234.548	27321
234.613	20017
234.678	18365
234.743	48492
234.808	133193
234.873	45440
234.938	20570
235.004	17929
235.069	18215
235.134	15773
235.199	13534
235.264	11564
235.329	11961
235.394	15200
235.459	29833
235.524	21070
235.589	13208
235.654	12222
235.719	11348
235.784	12007
235.849	35263
235.913	62717
235.978	93310
236.043	58844
236.108	23200
236.173	33392
236.238	20373
236.303	15316
236.368	17775
236.433	56145
236.498	58560
236.563	29620
236.627	73416
236.692	158772
236.757	82491
236.822	66265
236.887	47440
236.952	31332
237.017	33969
237.081	30854
237.146	41159
237.211	72644
237.276	198128
237.341	236152
237.405	97990
237.470	61226
237.535	44760
237.600	23985
237.664	20412
237.729	19533
237.794	29754
237.859	44043
237.923	49745
237.988	28224
238.053	61400
238.118	61253
238.182	191582
238.247	91192
238.312	71645
238.376	38372
238.441	39383
238.506	24491
238.570	15684
238.635	14016
238.700	14823
238.764	20670
238.829	98487
238.893	55241
238.958	29839
239.023	21222
239.087	18045
239.152	20398
239.216	14558
239.281	13732
239.346	13301
239.410	15239
239.475	47788
239.539	188589
239.604	70597
239.668	26377
239.733	19279
239.797	34699
239.862	86290
239.926	103231
239.991	33541
240.055	20440
240.120	17471
240.184	17683
240.249	17752
240.313	14605
240.378	31046
240.442	138248
240.507	103141
240.571	36426
240.635	100653
240.700	56438
240.764	23696
240.829	16068
240.893	14495
240.957	21909
241.022	125237
241.086	132378
241.151	45261
241.215	22385
241.279	61310
241.344	64801
241.408	23503
241.472	18185
241.537	17027
241.601	15905
241.665	14791
241.730	16853
241.794	18788
241.858	15905
241.922	15409
241.987	14997
242.051	14122
242.115	14122
242.179	12793
242.244	14668
242.308	16546
242.372	28994
242.436	28800
242.501	17130
242.565	15915
242.629	13167
242.693	13409
242.757	13939
242.822	20043
242.886	18192
242.950	23169
243.014	26123
243.078	24867
243.142	21491
243.206	26648
243.271	25619
243.335	24107
243.399	43348
243.463	244050
243.527	253924
243.591	72267
243.655	37597
243.719	25251
243.783	28236
243.847	51575
243.911	63589
243.975	79340
244.040	39536
244.104	20878
244.168	19409
244.232	48171
244.296	48386
244.360	43607
244.424	40639
244.488	29378
244.552	29371
244.615	21280
244.679	18359
244.743	33371
244.807	21223
244.871	16274
244.935	14798
244.999	18698
245.063	19040
245.127	22812
245.191	41926
245.255	28815
245.319	33113
245.383	25417
245.446	21376
245.510	18780
245.574	20520
245.638	19504
245.702	35035
245.766	48233
245.829	33729
245.893	31077
245.957	21365
246.021	23966
246.085	30768
246.149	46421
246.212	101052
246.276	93332
246.340	46244
246.404	33148
246.467	50917
246.531	51977
246.595	33163
246.659	36458
246.722	34574
246.786	35182
246.850	50172
246.913	39946
246.977	25618
247.041	32719
247.104	27254
247.168	33060
247.232	102376
247.295	138679
247.359	48635
247.423	44204
247.486	58212
247.550	31903
247.614	36097
247.677	37257
247.741	24844
247.804	27579
247.868	34006
247.932	109104
247.995	114480
248.059	42670
248.122	30524
248.186	43142
248.249	104139
248.313	287925
248.376	200433
248.440	115198
248.503	47823
248.567	48001
248.630	77410
248.694	85184
248.757	158370
248.821	227789
248.884	108160
248.948	169493
249.011	209018
249.075	311168
249.138	176266
249.202	76997
249.265	83814
249.328	106707
249.392	55698
249.455	37493
249.519	34911
249.582	51513
249.645	71382
249.709	44444
249.772	45130
249.835	48028
249.899	53839
249.962	32903
250.025	39313
250.089	125066
250.152	91906
250.215	56826
250.279	45833
250.342	51750
250.405	41836
250.468	40465
250.532	56372
250.595	107724
250.658	491289
250.721	349084
250.785	131800
250.848	70638
250.911	49527
250.974	45864
251.038	105526
251.101	122282
251.164	87600
251.227	76081
251.290	64766
251.354	160428
251.417	544688
251.480	282122
251.543	406212
251.606	842022
251.669	370754
251.732	187479
251.795	209439
251.859	281447
251.922	490103
251.985	172617
252.048	88937
252.111	74625
252.174	78683
252.237	201256
252.300	269478
252.363	463009
252.426	521731
252.489	207670
252.552	139789
252.615	103486
252.678	125009
252.741	235945
252.804	442172
252.867	574435
252.930	306671
252.993	162861
253.056	107769
253.119	79630
253.182	82460
253.245	117430
253.308	89095
253.371	111031
253.434	91261
253.497	94825
253.559	141507
253.622	103190
253.685	168308
253.748	101877
253.811	74856
253.874	132523
253.937	80579
254.000	61856
254.062	141782
254.125	125123
254.188	149739
254.251	81893
254.314	73829
254.376	130054
254.439	102339
254.502	92262
254.565	146786
254.628	153280
254.690	95828
254.753	59214
254.816	59270
254.878	76593
254.941	147933
255.004	85540
255.067	63118
255.129	48209
255.192	30159
255.255	34268
255.317	37403
255.380	23779
255.443	22960
255.505	26925
255.568	27106
255.631	26290
255.693	25369
255.756	22668
255.819	22871
255.881	21240
255.944	22129
256.006	26832
256.069	22565
256.132	22535
256.194	71013
256.257	138540
256.319	108648
256.382	65619
256.444	31922
256.507	24373
256.569	22490
256.632	35451
256.694	60233
256.757	129183
256.819	173915
256.882	68629
256.944	39280
257.007	42901
257.069	48833
257.132	29063
257.194	23556
257.257	27760
257.319	24534
257.381	34240
257.444	103216
257.506	302815
257.569	272212
257.631	193910
257.693	81652
257.756	66127
257.818	52823
257.880	28466
257.943	26922
258.005	25544
258.067	23799
258.130	23202
258.192	51289
258.254	97719
258.317	36796
258.379	36881
258.441	94375
258.503	58626
258.566	224434
258.628	109510
258.690	37420
258.753	47321
258.815	63373
258.877	31584
258.939	22999
259.001	21849
259.064	23738
259.126	66850
259.188	48970
259.250	41519
259.312	80762
259.375	166568
259.437	56276
259.499	30719
259.561	29640
259.623	27817
259.685	25599
259.747	38601
259.809	230203
259.872	231183
259.934	446642
259.996	169764
260.058	57765
260.120	35538
260.182	27948
260.244	23639
260.306	21475
260.368	23597
260.430	27009
260.492	67332
260.554	153230
260.616	87522
260.678	266239
260.740	164329
260.802	52218
260.864	42158
260.926	35625
260.988	32722
261.050	37457
261.112	104786
261.174	303047
261.236	113339
261.298	55474
261.359	187074
261.421	107459
261.483	38879
261.545	31207
261.607	23767
261.669	27120
261.731	137124
261.793	140339
261.854	51882
261.916	37084
261.978	36318
262.040	39772
262.102	40460
262.164	92177
262.225	36742
262.287	36837
262.349	81049
262.411	38308
262.472	30636
262.534	157612
262.596	128215
262.658	40789
262.719	31722
262.781	97223
262.843	157322
262.904	49134
262.966	47359
263.028	71244
263.090	514054
263.151	462303
263.213	142281
263.275	73493
263.336	39838
263.398	28363
263.459	23089
263.521	33576
263.583	65075
263.644	32454
263.706	20717
263.767	19891
263.829	17630
263.891	15596
263.952	16688
264.014	16472
264.075	43719
264.137	51803
264.198	26958
264.260	16421
264.321	18009
264.383	77053
264.444	70373
264.506	25895
264.567	21940
264.629	57486
264.690	55790
264.752	28707
264.813	20723
264.875	19047
264.936	19147
264.998	16016
265.059	15436
265.120	17323
265.182	36789
265.243	122694
265.305	56902
265.366	25185
265.427	18882
265.489	16510
265.550	16089
265.611	25551
265.673	19889
265.734	16118
265.795	15123
265.857	15721
265.918	17820
265.979	53002
266.040	193318
266.102	79612
266.163	43366
266.224	37140
266.286	22755
266.347	20430
266.408	26116
266.469	34413
266.530	18486
266.592	22553
266.653	68832
266.714	53099
266.775	21269
266.836	17187
266.898	20695
266.959	31462
267.020	17616
267.081	16432
267.142	15943
267.203	17279
267.264	17539
267.326	19586
267.387	15802
267.448	15755
267.509	17833
267.570	15489
267.631	14492
267.692	18955
267.753	17795
267.814	17835
267.875	64431
267.936	60822
267.997	36262
268.058	29016
268.119	21897
268.180	21894
268.241	17773
268.302	16642
268.363	16562
268.424	21284
268.485	25480
268.546	14302
268.607	12134
268.668	13350
268.729	14496
268.790	19739
268.851	23438
268.912	70778
268.972	50550
269.033	27767
269.094	17533
269.155	14904
269.216	19379
269.277	26014
269.338	16052
269.398	17698
269.459	24112
269.520	31827
269.581	44730
269.642	41022
269.702	29527
269.763	21054
269.824	19213
269.885	37139
269.945	31155
270.006	16827
270.067	15871
270.128	15940
270.188	18649
270.249	16577
270.310	12808
270.370	22162
270.431	20884
270.492	14481
270.553	25531
270.613	61798
270.674	72011
270.734	27692
270.795	23747
270.856	41384
270.916	25223
270.977	20505
271.038	27425
271.098	24939
271.159	56184
271.219	33447
271.280	18876
271.340	18569
271.401	64921
271.462	94904
271.522	33939
271.583	28137
271.643	28431
271.704	21582
271.764	29280
271.825	88654
271.885	284442
271.946	181571
272.006	73829
272.066	189632
272.127	143014
272.187	49376
272.248	34034
272.308	66871
272.369	136536
272.429	53495
272.489	82862
272.550	55771
272.610	70298
272.671	41094
272.731	112111
272.791	98521
272.852	48193
272.912	37123
272.972	24090
273.033	40382
273.093	60494
273.153	37222
273.214	28177
273.274	39896
273.334	171790
273.394	152537
273.455	71138
273.515	126214
273.575	143435
273.635	70450
273.696	192519
273.756	169158
273.816	65394
273.876	60584
273.936	290194
273.997	184549
274.057	56485
274.117	48938
274.177	98130
274.237	290035
274.297	229402
274.358	188252
274.418	169080
274.478	88795
274.538	47032
274.598	107677
274.658	341879
274.718	251203
274.778	76763
274.838	56233
274.898	316001
274.958	394147
275.018	238838
275.078	106622
275.138	57221
275.198	38618
275.258	33465
275.318	69788
275.378	81178
275.438	57943
275.498	60932
275.558	322311
275.618	272533
275.678	109651
275.738	97312
275.798	58528
275.858	32999
275.918	26820
275.978	36337
276.038	25654
276.098	26391
276.157	98987
276.217	122465
276.277	59037
276.337	43764
276.397	33396
276.457	37775
276.517	25215
276.576	22512
276.636	31108
276.696	58201
276.756	118179
276.815	50219
276.875	42914
276.935	51503
276.995	32134
277.055	25672
277.114	24850
277.174	66365
277.234	95765
277.293	41026
277.353	31496
277.413	27224
277.472	34515
277.532	29858
277.592	41747
277.651	219922
277.711	147594
277.771	110025
277.830	305674
277.890	129577
277.950	302186
278.009	356509
278.069	113280
278.128	241524
278.188	156332
278.248	139181
278.307	281530
278.367	103095
278.426	54328
278.486	39042
278.545	33982
278.605	29803
278.664	30112
278.724	36966
278.783	151756
278.843	151957
278.902	54630
278.962	55296
279.021	87063
279.081	230757
279.140	109885
279.199	73628
279.259	69118
279.318	77352
279.378	106400
279.437	256871
279.496	951834
279.556	1934664
279.615	921915
279.675	348678
279.734	258970
279.793	557815
279.853	351184
279.912	131976
279.971	94867
280.031	88267
280.090	184768
280.149	194028
280.208	490277
280.268	1537205
280.327	753527
280.386	261402
280.445	207946
280.505	123580
280.564	78588
280.623	63302
280.682	109837
280.742	78698
280.801	42591
280.860	37579
280.919	37233
280.978	38163
281.037	37167
281.097	33209
281.156	31825
281.215	31191
281.274	55621
281.333	157212
281.392	59087
281.451	32164
281.510	30389
281.569	28980
281.628	26294
281.688	24930
281.747	32514
281.806	28742
281.865	22945
281.924	27355
281.983	22770
282.042	21263
282.101	21120
282.160	20533
282.219	21124
282.278	36731
282.337	85699
282.396	33737
282.454	25103
282.513	53623
282.572	111461
282.631	40406
282.690	26609
282.749	27350
282.808	31722
282.867	33582
282.926	25371
282.985	20122
283.043	19639
283.102	23549
283.161	33442
283.220	102892
283.279	89549
283.338	33665
283.396	29832
283.455	27472
283.514	36268
283.573	51680
283.631	32403
283.690	25438
283.749	27943
283.808	68987
283.866	41665
283.925	26944
283.984	29741
284.043	45204
284.101	35353
284.160	34378
284.219	40460
284.277	36015
284.336	81348
284.395	171809
284.453	79939
284.512	55088
284.570	73175
284.629	56420
284.688	59201
284.746	65678
284.805	80494
284.863	103221
284.922	116246
284.981	142625
285.039	206650
285.098	402925
285.156	965386
285.215	1387750
285.273	1080823
285.332	601602
285.390	353548
285.449	228570
285.507	156409
285.566	119329
285.624	91593
285.683	71296
285.741	58613
285.799	56617
285.858	53795
285.916	45046
285.975	35426
286.033	32862
286.091	31037
286.150	28731
286.208	33731
286.267	35602
286.325	39926
286.383	51384
286.442	32880
286.500	27071
286.558	23995
286.616	26697
286.675	35163
286.733	30878
286.791	29828
286.850	33992
286.908	55566
286.966	51930
287.024	28329
287.083	23561
287.141	20834
287.199	27802
287.257	35430
287.315	26948
287.374	42498
287.432	65550
287.490	35296
287.548	31004
287.606	25082
287.664	27038
287.723	47769
287.781	39096
287.839	29162
287.897	35146
287.955	39091
288.013	57972
288.071	182024
288.129	1001364
288.187	1224651
288.245	385903
288.303	170514
288.361	114828
288.419	86547
288.477	54240
288.535	37302
288.593	30219
288.651	26541
288.709	22321
288.767	25939
288.825	22855
288.883	20855
288.941	22291
288.999	21248
289.057	19041
289.115	21881
289.173	21588
289.231	25564
289.289	24221
289.346	24057
289.404	29096
289.462	48704
289.520	35714
289.578	18351
289.636	16364
289.694	14647
289.751	15285
289.809	16245
289.867	17477
289.925	26710
289.983	22916
290.040	14305
290.098	15751
290.156	24367
290.214	24755
290.271	16078
290.329	14573
290.387	13001
290.444	12243
290.502	12040
290.560	14593
290.617	17130
290.675	17903
290.733	20266
290.790	18424
290.848	18730
290.906	24267
290.963	20120
291.021	19383
291.078	16414
291.136	20689
291.194	98034
291.251	82042
291.309	26675
291.366	18270
291.424	20388
291.481	20147
291.539	25664
291.596	19059
291.654	13255
291.711	12704
291.769	32116
291.826	45751
291.884	22776
291.941	16318
291.999	19140
292.056	25599
292.114	19442
292.171	15608
292.228	18655
292.286	31244
292.343	58534
292.401	56518
292.458	34158
292.515	29343
292.573	31945
292.630	35731
292.687	32527
292.745	21769
292.802	45211
292.859	124858
292.917	141647
292.974	53117
293.031	28148
293.089	24309
293.146	18889
293.203	16845
293.260	23086
293.318	42982
293.375	31039
293.432	18873
293.489	16699
293.546	18915
293.604	52929
293.661	207842
293.718	197093
293.775	80214
293.832	55776
293.889	61690
293.947	66971
294.004	35361
294.061	35183
294.118	87624
294.175	130427
294.232	102731
294.289	45639
294.346	32291
294.403	33903
294.460	37866
294.517	25856
294.574	20100
294.631	16835
294.688	25006
294.745	121516
294.802	261435
294.859	160785
294.916	110114
294.973	65323
295.030	53696
295.087	36873
295.144	26782
295.201	21866
295.258	19520
295.315	36506
295.372	150878
295.429	127565
295.486	51835
295.542	42572
295.599	123081
295.656	109695
295.713	136800
295.770	110844
295.827	44060
295.883	30486
295.940	37987
295.997	66317
296.054	41275
296.111	25384
296.167	19385
296.224	17901
296.281	16258
296.338	14936
296.394	17318
296.451	30987
296.508	110676
296.564	100645
296.621	94143
296.678	269662
296.734	180398
296.791	66769
296.848	45573
296.904	69651
296.961	134301
297.018	181566
297.074	86100
297.131	38589
297.187	33902
297.244	68656
297.301	292450
297.357	220804
297.414	73323
297.470	40747
297.527	31045
297.583	29410
297.640	28362
297.696	21530
297.753	18567
297.809	15992
297.866	15287
297.922	17725
297.979	17830
298.035	23875
298.092	54208
298.148	119436
298.204	66811
298.261	43506
298.317	148208
298.374	209357
298.430	94125
298.486	82341
298.543	58068
298.599	42573
298.656	44778
298.712	115750
298.768	183582
298.824	81472
298.881	37866
298.937	27160
298.993	31252
299.050	37133
299.106	25630
299.162	27451
299.218	23109
299.275	19257
299.331	23038
299.387	92463
299.443	241119
299.500	139109
299.556	58767
299.612	40455
299.668	40774
299.724	54016
299.780	36618
299.837	27975
299.893	74932
299.949	203353
300.005	141764
300.061	221913
300.117	223065
300.173	88609
300.229	68043
300.285	93380
300.341	67027
300.397	38360
300.453	27247
300.510	26386
300.566	22956
300.622	42483
300.678	132713
300.734	157190
300.790	183837
300.845	150373
300.901	136708
300.957	174288
301.013	88670
301.069	45562
301.125	46613
301.181	42690
301.237	29256
301.293	22810
301.349	20143
301.405	20670
301.461	22837
301.516	25824
301.572	39755
301.628	53174
301.684	49118
301.740	99408
301.796	86881
301.851	85921
301.907	119492
301.963	103925
302.019	344205
302.074	605055
302.130	391345
302.186	160188
302.242	80456
302.297	57899
302.353	78316
302.409	111701
302.464	68685
302.520	113646
302.576	239010
302.631	180177
302.687	91170
302.743	46596
302.798	31280
302.854	24576
302.910	28701
302.965	50106
303.021	71862
303.076	67050
303.132	100543
303.187	77087
303.243	38681
303.299	27044
303.354	24139
303.410	21304
303.465	20596
303.521	19621
303.576	19935
303.632	26734
303.687	102985
303.743	186441
303.798	97654
303.853	46269
303.909	31377
303.964	33021
304.020	60858
304.075	59267
304.130	81066
304.186	122133
304.241	108965
304.297	74528
304.352	42510
304.358	41415
304.407	32543
304.449	33281
304.463	33559
304.518	31664
304.539	29271
304.573	25465
304.629	27874
304.630	28732
304.684	67935
304.720	148421
304.739	189720
304.794	150353
304.811	128338
304.850	73712
304.902	40867
304.905	38872
304.960	32290
304.992	31820
305.015	31611
305.071	30062
305.083	28303
305.126	21734
305.173	18128
305.181	17566
305.236	16696
305.264	19713
305.292	22944
305.347	27566
305.354	27671
305.402	28055
305.445	31735
305.457	32844
305.512	39161
305.535	36721
305.567	33183
305.622	37038
305.626	40290
305.678	97937
305.716	176424
305.733	208249
305.788	154457
305.807	148082
305.843	133618
305.897	190858
305.898	191650
305.953	129674
305.988	94480
306.008	72891
306.063	45810
306.078	40681
306.118	31411
306.168	24368
306.173	23775
306.228	20352
306.259	19275
306.283	18519
306.338	18729
306.349	19134
306.393	21134
306.440	22621
306.448	22834
306.503	21611
306.530	31542
306.558	45930
306.613	106605
306.620	111949
306.668	145995
306.711	172384
306.723	175323
306.778	109406
306.801	88802
306.833	61418
306.888	33447
306.892	32262
306.943	25386
306.982	22629
306.997	21880
307.052	20497
307.072	21421
307.107	24331
307.162	39435
307.163	39674
307.217	62571
307.253	80807
307.272	87892
307.327	75687
307.343	70029
307.381	52442
307.434	48313
307.436	49290
307.491	120500
307.524	157843
307.546	173113
307.600	133529
307.614	121477
307.655	71596
307.704	38734
307.710	37696
307.765	46935
307.795	73035
307.819	101172
307.874	137310
307.885	134264
307.929	86838
307.975	54025
307.984	52151
308.038	55449
308.065	70307
308.093	109074
308.148	292321
308.156	329202
308.202	578486
308.246	604124
308.257	563237
308.312	301093
308.336	216617
308.366	176827
308.421	111478
308.426	106961
308.475	70367
308.517	49702
308.530	46185
308.585	39627
308.607	37849
308.639	38162
308.694	46482
308.697	48860
308.748	112822
308.787	157028
308.803	162067
308.857	117121
308.877	107153
308.912	84964
308.967	61935
308.967	61784
309.021	77214
309.058	97751
309.076	118209
309.130	202080
309.148	243986
309.185	411032
309.238	760411
309.239	765439
309.293	907726
309.328	875719
309.348	726492
309.402	338025
309.418	242226
309.457	172160
309.508	109156
309.511	107631
309.566	106986
309.598	118388
309.620	143808
309.674	231374
309.688	247111
309.729	240925
309.778	205750
309.783	199216
309.837	127555
309.868	94601
309.892	96528
309.946	132668
309.959	143439
310.001	195194
310.049	221593
310.055	213612
310.109	128043
310.139	87293
310.163	70542
310.218	45501
310.229	41146
310.272	33933
310.319	28538
310.326	28052
310.381	26329
310.409	25681
310.435	24191
310.489	21746
310.499	21485
310.543	22490
310.589	24893
310.598	25054
310.652	24561
310.679	24005
310.706	20636
310.760	14402
310.769	13562
310.814	12178
310.859	11219
310.868	11368
310.923	12785
310.948	13745
310.977	15805
311.031	20453
311.038	21001
311.085	20997
311.128	20466
311.139	19518
311.193	15564
311.218	13603
311.247	12544
311.301	10934
311.308	10822
311.356	11412
311.398	11923
311.410	11713
311.464	10883
311.488	10521
311.518	10687
311.572	11397
311.578	11578
311.626	16166
311.668	19939
311.680	19986
311.734	20278
311.758	20516
311.788	21186
311.842	22249
311.847	22446
311.896	23452
311.937	24679
311.950	25149
312.004	27209
312.027	28172
312.058	23485
312.112	15330
312.117	14561
312.165	13090
312.207	11936
312.297	14951
312.386	14849
312.476	16772
312.566	33161
312.656	20450
312.745	9461
312.835	10761
312.925	13367
313.015	13796
313.104	19347
313.194	13080
313.284	13775
313.374	16316
313.463	16508
313.553	10897
313.643	10620
313.732	9179
313.822	8647
313.912	11425
314.001	13945
314.091	15547
314.180	18096
314.270	18170
314.360	22848
314.449	22143
314.539	12938
314.628	11680
314.718	14503
314.808	21403
314.897	15195
314.987	13232
315.076	17808
315.166	24884
315.255	25235
315.345	22390
315.434	27680
315.524	24979
315.613	33524
315.703	49186
315.792	115432
315.881	483518
315.971	308448
316.060	59067
316.150	77349
316.239	82320
316.328	40851
316.418	14524
316.507	15288
316.597	19099
316.686	22146
316.775	35004
316.865	88031
316.954	28850
317.043	13047
317.133	14702
317.222	14379
317.311	14587
317.400	16586
317.490	21987
317.579	31522
317.668	33029
317.757	69913
317.847	224049
317.936	885416
318.025	471922
318.114	153443
318.203	109673
318.293	40712
318.382	60460
318.471	54598
318.560	67673
318.649	107790
318.738	42407
318.828	21358
318.917	24901
319.006	30023
319.095	92022
319.184	143913
319.273	106133
319.362	58126
319.451	21155
319.540	18239
319.629	42064
319.718	70786
319.807	26328
319.896	57251
319.985	173834
320.074	96720
320.163	25092
320.252	49394
320.341	34344
320.430	25297
320.519	32666
320.608	25710
320.697	16174
320.786	17053
320.875	23274
320.964	31846
321.053	47299
321.142	68974
321.230	80833
321.319	56616
321.408	117539
321.497	66842
321.586	47799
321.675	71733
321.764	77642
321.852	42159
321.941	62501
322.030	53910
322.119	45092
322.207	127756
322.296	120735
322.385	53603
322.474	59193
322.562	142374
322.651	101844
322.740	59361
322.829	102043
322.917	111838
323.006	69955
323.095	43728
323.183	36330
323.272	49105
323.361	101394
323.449	344095
323.538	167202
323.626	212128
323.715	203371
323.804	53036
323.892	196223
323.981	152208
324.069	35004
324.158	99961
324.246	141316
324.335	32921
324.424	47990
324.512	22311
324.601	24192
324.689	74038
324.778	168840
324.866	100970
324.954	33313
325.043	18029
325.131	42335
325.220	87018
325.308	106753
325.397	70007
325.485	53030
325.574	14096
325.662	13709
325.750	14798
325.839	13222
325.927	12415
326.015	16815
326.104	35392
326.192	72091
326.280	17019
326.369	13080
326.457	18795
326.545	34910
326.634	21720
326.722	10076
326.810	13748
326.898	10972
326.987	13045
327.075	34432
327.163	49049
327.251	31685
327.340	51132
327.428	90875
327.516	19413
327.604	16653
327.692	17948
327.781	19693
327.869	41072
327.957	28456
328.045	21394
328.133	11815
328.221	18980
328.309	17241
328.397	11210
328.485	14078
328.574	21280
328.662	73914
328.750	68644
328.838	30861
328.926	14123
329.014	9559
329.102	15639
329.190	36585
329.278	33110
329.366	10021
329.454	7990
329.542	8704
329.630	8105
329.718	9561
329.806	11957
329.893	11783
329.981	10213
330.069	9610
330.157	32100
330.245	104322
330.333	67267
330.421	14717
330.509	18733
330.597	85835
330.684	77630
330.772	21658
330.860	27391
330.948	33666
331.036	17920
331.123	8415
331.211	8303
331.299	11401
331.387	23551
331.475	49557
331.562	24206
331.650	9576
331.738	14199
331.825	24209
331.913	11706
332.001	9318
332.089	13651
332.176	34970
332.264	96913
332.352	108226
332.439	22281
332.527	13889
332.614	13935
332.702	22910
332.790	13622
332.877	40037
332.965	112530
333.052	40929
333.140	27491
333.228	81954
333.315	29530
333.403	16089
333.490	54483
333.578	70220
333.665	84974
333.753	54816
333.840	16592
333.928	16994
334.015	54602
334.103	86629
334.190	252013
334.278	101632
334.365	30607
334.452	25601
334.540	16109
334.627	20430
334.715	31537
334.802	53877
334.889	362830
334.977	559220
335.064	70596
335.151	22203
335.239	18175
335.326	22669
335.413	84867
335.501	147193
335.588	27453
335.675	15380
335.762	17456
335.850	29217
335.937	25084
336.024	70866
336.111	382571
336.199	247805
336.286	35960
336.373	16417
336.460	12957
336.547	11980
336.635	16430
336.722	17083
336.809	14810
336.896	20698
336.983	52725
337.070	129940
337.157	212327
337.245	236304
337.332	263558
337.419	28521
337.506	13152
337.593	13494
337.680	36701
337.767	115415
337.854	47446
337.941	45643
338.028	82734
338.115	39260
338.202	20424
338.289	52303
338.376	254344
338.463	118891
338.550	63407
338.637	89411
338.724	38498
338.811	86547
338.898	22818
338.984	11261
339.071	12443
339.158	15424
339.245	43362
339.332	34803
339.419	42770
339.506	61869
339.593	11610
339.679	9736
339.766	10492
339.853	13591
339.940	33453
340.027	16383
340.113	10821
340.200	19038
340.287	16512
340.374	15786
340.460	31672
340.547	16714
340.634	20549
340.720	84333
340.807	78509
340.894	12230
340.980	12100
341.067	12367
341.154	11943
341.240	18677
341.327	46688
341.414	19956
341.500	17653
341.587	12325
341.674	10613
341.760	26384
341.847	40445
341.933	16426
342.020	7040
342.106	6370
342.193	11393
342.279	25370
342.366	18396
342.452	31313
342.539	19853
342.625	33834
342.712	101593
342.798	55104
342.885	21755
342.971	8613
343.058	7835
343.144	8638
343.230	9443
343.317	9552
343.403	11150
343.490	6918
343.576	7607
343.662	8950
343.749	13848
343.835	16662
343.921	25928
344.008	167040
344.094	520139
344.180	162425
344.267	37816
344.353	102149
344.439	159433
344.525	58181
344.612	23012
344.698	16466
344.784	16263
344.870	9693
344.957	10705
345.043	17580
345.129	14820
345.215	29238
345.301	21138
345.387	12736
345.474	8205
345.560	9281
345.646	15026
345.732	12928
345.818	13130
345.904	13699
345.990	14871
346.076	18806
346.162	37456
346.249	18369
346.335	9476
346.421	10364
346.507	39785
346.593	176096
346.679	67780
346.765	12070
346.851	11191
346.937	13362
347.023	9833
347.108	11480
347.194	12262
347.280	10959
347.366	14347
347.452	44194
347.538	207120
347.624	171612
347.710	138019
347.796	32118
347.882	11737
347.967	9969
348.053	13517
348.139	11979
348.225	10558
348.311	13041
348.397	10406
348.482	11675
348.568	16068
348.654	9880
348.740	13607
348.825	16887
348.911	19899
348.997	80988
349.083	221826
349.168	57485
349.254	13843
349.340	12915
349.425	9183
349.511	13902
349.597	18391
349.682	29875
349.768	103829
349.854	73411
349.939	11747
350.025	9599
350.110	9307
350.196	7509
350.282	7897
350.367	6920
350.453	20873
350.538	35021
350.624	15746
350.709	15086
350.795	8663
350.880	10652
350.966	11443
351.051	22971
351.137	24679
351.222	11606
351.308	27882
351.393	96356
351.479	38258
351.564	11843
351.649	10209
351.735	9579
351.820	8082
351.906	9303
351.991	15284
352.076	52435
352.162	105694
352.247	26674
352.332	13486
352.418	24889
352.503	33044
352.588	111168
352.673	137530
352.759	32577
352.844	16593
352.929	13435
353.014	24265
353.100	15260
353.185	24243
353.270	39746
353.355	44450
353.441	14142
353.526	16333
353.611	31462
353.696	46901
353.781	24013
353.866	13083
353.952	10754
354.037	26345
354.122	73101
354.207	72263
354.292	34272
354.377	12506
354.462	10365
354.547	16321
354.632	14986
354.717	17973
354.802	34622
354.887	17582
354.972	9194
355.057	8192
355.142	8266
355.227	12022
355.312	19870
355.397	44007
355.482	110671
355.567	80675
355.652	36375
355.737	49367
355.822	114962
355.907	147134
355.991	23379
356.076	12351
356.161	12518
356.246	10717
356.331	12483
356.416	27521
356.501	196035
356.585	325982
356.670	54232
356.755	21188
356.840	28626
356.924	123870
357.009	589315
357.094	343644
357.179	50703
357.263	39181
357.348	28734
357.433	32013
357.517	25569
357.602	25366
357.687	21124
357.771	26829
357.856	74791
357.941	61119
358.025	89765
358.110	536608
358.195	393383
358.279	48427
358.364	26421
358.448	72157
358.533	233814
358.617	204693
358.702	179903
358.787	91794
358.871	37362
358.956	36256
359.040	15986
359.125	11652
359.209	12305
359.294	30570
359.378	67385
359.462	36712
359.547	22928
359.631	16894
359.716	11926
359.800	10803
359.885	15537
359.969	16237
360.053	12711
360.138	12392
360.222	17454
360.306	36298
360.391	32364
360.475	38684
360.559	106751
360.644	96946
360.728	90998
360.812	96901
360.896	380563
360.981	188014
361.065	81178
361.149	23278
361.233	21144
361.318	19273
361.402	25999
361.486	20257
361.570	14979
361.654	17757
361.739	40820
361.823	188349
361.907	428581
361.991	106407
362.075	29884
362.159	71241
362.243	60423
362.327	44188
362.411	59230
362.495	38452
362.580	21551
362.664	12716
362.748	13276
362.832	15260
362.916	23446
363.000	69953
363.084	251059
363.168	491569
363.252	155508
363.336	34433
363.420	38343
363.503	114756
363.587	182706
363.671	43678
363.755	24083
363.839	35115
363.923	21714
364.007	33112
364.091	50039
364.175	52642
364.258	196200
364.342	181499
364.426	179026
364.510	128714
364.594	50519
364.677	53325
364.761	272083
364.845	308977
364.929	68906
365.013	59863
365.096	41268
365.180	59176
365.264	49165
365.347	202824
365.431	127290
365.515	29099
365.598	18792
365.682	13445
365.766	19219
365.849	28167
365.933	18323
366.017	21030
366.100	18649
366.184	11112
366.267	13433
366.351	10910
366.435	10121
366.518	9893
366.602	8278
366.685	10870
366.769	14326
366.852	18198
366.936	36742
367.019	31294
367.103	16805
367.186	27480
367.270	14541
367.353	9090
367.436	9909
367.520	10109
367.603	13147
367.687	21573
367.770	44959
367.853	29367
367.937	61349
368.020	153647
368.104	51802
368.187	28791
368.270	45342
368.353	39948
368.437	54397
368.520	166889
368.603	127456
368.687	82682
368.770	200355
368.853	68480
368.936	35376
369.020	40236
369.103	20454
369.186	12211
369.269	13304
369.352	23688
369.436	44914
369.519	29830
369.602	17427
369.685	12306
369.768	18335
369.851	14732
369.934	11362
370.018	13648
370.101	36852
370.184	32266
370.267	19729
370.350	29623
370.433	52809
370.516	139143
370.599	324651
370.682	183090
370.765	94075
370.848	113159
370.931	233213
371.014	127867
371.097	24583
371.180	17080
371.263	11748
371.346	10426
371.429	11326
371.511	12896
371.594	22384
371.677	35611
371.760	35467
371.843	33813
371.926	133665
372.009	483194
372.091	207294
372.174	78523
372.257	216196
372.340	126494
372.423	49227
372.505	60439
372.588	32345
372.671	52738
372.754	215020
372.836	164606
372.919	57567
373.002	122209
373.085	60444
373.167	34455
373.250	80487
373.332	206716
373.415	255745
373.498	661595
373.580	350094
373.663	346323
373.746	721679
373.828	189955
373.911	47968
373.993	39060
374.076	102525
374.159	141450
374.241	65603
374.324	165487
374.406	162652
374.489	132045
374.571	494274
374.654	296529
374.736	87300
374.819	277075
374.901	422009
374.983	570562
375.066	143079
375.148	31664
375.231	77865
375.313	194484
375.395	94707
375.478	27990
375.560	18741
375.643	24567
375.725	69108
375.807	361353
375.890	417149
375.972	205180
376.054	84092
376.136	139956
376.219	92425
376.301	79812
376.383	339164
376.465	197417
376.548	74634
376.630	88035
376.712	256491
376.794	195454
376.877	26399
376.959	12825
377.041	14860
377.123	22531
377.205	31062
377.287	12233
377.369	10558
377.452	12460
377.534	12543
377.616	12250
377.698	12803
377.780	10856
377.862	12716
377.944	12715
378.026	9866
378.108	9204
378.190	10319
378.272	8898
378.354	8185
378.436	8819
378.518	14487
378.600	49034
378.682	52341
378.764	105500
378.846	129051
378.928	32816
379.010	37784
379.091	26855
379.173	13130
379.255	11716
379.337	16999
379.419	45798
379.501	175250
379.583	111333
379.664	22141
379.746	41922
379.828	104921
379.910	166340
379.991	178473
380.073	46396
380.155	18946
380.237	18726
380.318	12648
380.400	13231
380.482	24923
380.564	51277
380.645	45596
380.727	50121
380.809	28497
380.890	20610
380.972	17807
381.053	16446
381.135	18819
381.217	35804
381.298	120965
381.380	90520
381.461	52180
381.543	216336
381.624	427647
381.706	112329
381.787	35152
381.869	36269
381.951	87737
382.032	448975
382.113	422905
382.195	92071
382.276	43020
382.358	74825
382.439	235582
382.521	275572
382.602	494291
382.684	270422
382.765	313297
382.846	437757
382.928	669708
383.009	531181
383.090	223346
383.172	710801
383.253	1664395
383.334	703481
383.416	425842
383.497	307713
383.578	116807
383.659	176560
383.741	564225
383.822	2024611
383.903	1569801
383.984	385388
384.066	462782
384.147	388820
384.228	101220
384.309	54810
384.390	49577
384.471	34960
384.553	34630
384.634	40186
384.715	48973
384.796	30346
384.877	30542
384.958	92047
385.039	166421
385.120	71341
385.201	27976
385.282	31592
385.363	32679
385.444	32514
385.525	44829
385.606	164042
385.687	219120
385.768	55775
385.849	42590
385.930	150755
386.011	412603
386.092	167044
386.173	30920
386.254	22214
386.335	22367
386.416	21265
386.496	54832
386.577	131914
386.658	62349
386.739	30142
386.820	26108
386.901	22195
386.981	21480
387.062	17755
387.143	27959
387.224	102238
387.304	140318
387.385	50481
387.466	28651
387.547	31986
387.627	27637
387.708	38333
387.789	171443
387.869	315614
387.950	120614
388.031	20759
388.111	15576
388.192	28965
388.273	47821
388.353	38361
388.434	23251
388.514	37024
388.595	176447
388.676	323028
388.756	160773
388.837	106949
388.917	98559
388.998	26104
389.078	17510
389.159	16984
389.239	18458
389.320	23828
389.400	27207
389.480	37040
389.561	122150
389.641	93531
389.722	25620
389.802	37442
389.883	47261
389.963	141215
390.043	140435
390.124	50131
390.204	37171
390.284	125761
390.365	122919
390.445	80989
390.525	255890
390.605	369820
390.686	122372
390.766	37489
390.846	21100
390.927	14885
391.007	17603
391.087	18098
391.167	22222
391.247	20406
391.328	29555
391.408	41644
391.488	30915
391.568	17798
391.648	21329
391.728	32071
391.808	30258
391.888	37184
391.969	58107
392.049	128886
392.129	70531
392.209	52756
392.289	146902
392.369	117983
392.449	64326
392.529	55651
392.609	46921
392.689	54131
392.769	142651
392.849	182772
392.929	103678
393.009	212923
393.089	255644
393.169	230144
393.248	592378
393.328	2545721
393.408	4035641
393.488	1659236
393.568	361073
393.648	157107
393.728	96093
393.807	68468
393.887	54966
393.967	47061
394.047	45243
394.127	46744
394.206	54737
394.286	115045
394.366	585803
394.446	1029371
394.525	294089
394.605	58085
394.685	42740
394.764	70714
394.844	123235
394.924	121572
395.003	48992
395.083	32489
395.163	29863
395.242	27386
395.322	28837
395.402	24407
395.481	25812
395.561	46005
395.640	138686
395.720	142214
395.799	149000
395.879	155152
395.958	69235
396.038	145724
396.117	766314
396.197	1369508
396.276	439223
396.356	113242
396.435	84202
396.515	76817
396.594	95549
396.673	176656
396.753	567731
396.832	2511712
396.912	2969335
396.991	793032
397.070	175579
397.150	86876
397.229	58073
397.308	52576
397.388	78674
397.467	54208
397.546	29128
397.625	26754
397.705	28572
397.784	31096
397.863	24349
397.942	17125
398.022	18216
398.101	34914
398.180	123503
398.259	95256
398.338	28704
398.417	21088
398.497	17743
398.576	15625
398.655	14403
398.734	12513
398.813	12752
398.892	29964
398.971	127740
399.050	104463
399.129	20137
399.208	9425
399.287	9135
399.366	8862
399.445	9799
399.524	10034
399.603	11086
399.682	17063
399.761	43175
399.840	133277
399.919	158249
399.998	32204
400.077	9853
400.156	7875
400.235	10880
400.313	8989
400.392	12352
400.471	42626
400.550	115270
400.629	50985
400.708	14974
400.786	12937
400.865	24010
400.944	35833
401.023	21627
401.102	8083
401.180	5981
401.259	7799
401.338	9711
401.416	13464
401.495	15444
401.574	10621
401.652	8439
401.731	12443
401.810	15541
401.888	10072
401.967	5107
402.046	8458
402.124	11022
402.203	18174
402.281	13054
402.360	12639
402.438	31105
402.517	34355
402.596	13328
402.674	11187
402.753	9233
402.831	7575
402.910	9973
402.988	30244
403.066	145021
403.145	133299
403.223	42834
403.302	116942
403.380	112330
403.459	97537
403.537	56031
403.615	19081
403.694	8933
403.772	6173
403.850	5581
403.929	6085
404.007	7807
404.085	15183
404.164	26704
404.242	13511
404.320	9080
404.398	17810
404.477	45185
404.555	275123
404.633	428639
404.711	94431
404.789	15021
404.868	12096
404.946	10965
405.024	6503
405.102	6248
405.180	6077
405.258	6756
405.336	7465
405.415	7577
405.493	15344
405.571	19495
405.649	10186
405.727	7143
405.805	11888
405.883	13328
405.961	12740
406.039	14468
406.117	10696
406.195	13921
406.273	48459
406.351	255542
406.429	265330
406.507	47537
406.585	13201
406.663	9711
406.740	15036
406.818	16157
406.896	9588
406.974	8366
407.052	17111
407.130	109759
407.208	282678
407.285	95183
407.363	12623
407.441	9638
407.519	9339
407.596	8883
407.674	18577
407.752	48657
407.830	70646
407.907	35706
407.985	15039
408.063	8303
408.141	5197
408.218	9241
408.296	14285
408.373	13666
408.451	12167
408.529	12529
408.606	7681
408.684	5295
408.762	3362
408.839	3572
408.917	4586
408.994	4429
409.072	5964
409.149	6431
409.227	9248
409.304	15055
409.382	12147
409.459	12519
409.537	18559
409.614	18142
409.692	12168
409.769	10176
409.846	19583
409.924	25503
410.001	20424
410.079	13526
410.156	9176
410.233	9227
410.311	8959
410.388	6817
410.465	8019
410.543	10066
410.620	6865
410.697	6676
410.775	12432
410.852	8524
410.929	10393
411.006	15164
411.083	10866
411.161	15838
411.238	22304
411.315	12582
411.392	7315
411.469	9666
411.547	11713
411.624	8248
411.701	7598
411.778	7662
411.855	20917
411.932	20014
412.009	6939
412.086	5946
412.163	6632
412.240	9434
412.317	9426
412.394	11180
412.471	5716
412.548	4684
412.625	6583
412.702	7893
412.779	16154
412.856	15318
412.933	6290
413.010	4857
413.087	9247
413.164	39771
413.241	98577
413.318	39742
413.395	12866
413.471	19818
413.548	14923
413.625	5251
413.702	9313
413.779	9820
413.855	4322
413.932	3246
414.009	3092
414.086	3957
414.162	5094
414.239	7837
414.316	35089
414.393	130824
414.469	88552
414.546	12510
414.623	4383
414.699	4230
414.776	7459
414.853	5772
414.929	6160
415.006	6160
415.082	5945
415.159	6710
415.236	6221
415.312	5834
415.389	10837
415.465	22370
415.542	16139
415.618	6954
415.695	12706
415.771	12292
415.848	9454
415.924	7796
416.000	6366
416.077	4269
416.153	3289
416.230	3318
416.306	3051
416.383	5097
416.459	4699
416.535	3608
416.612	4226
416.688	5408
416.764	6293
416.841	6211
416.917	6191
416.993	5058
417.069	6557
417.146	9952
417.222	12555
417.298	10862
417.374	6286
417.451	6204
417.527	8006
417.603	12709
417.679	10412
417.755	7388
417.831	4231
417.908	3671
417.984	3658
418.060	3705
418.136	10777
418.212	28038
418.288	14153
418.364	6312
418.440	4867
418.516	10660
418.592	12279
418.668	21812
418.744	41556
418.820	40350
418.896	14197
418.972	5262
419.048	5020
419.124	13486
419.200	19964
419.276	8004
419.352	2404
419.428	3691
419.504	5258
419.579	10202
419.655	9608
419.731	6729
419.807	18168
419.883	49027
419.959	51450
420.034	17070
420.110	13623
420.186	61482
420.262	92925
420.337	23544
420.413	10940
420.489	8450
420.565	5737
420.640	5013
420.716	6910
420.792	4744
420.867	6492
420.943	6649
421.019	10958
421.094	15186
421.170	7366
421.245	5529
421.321	5707
421.397	7014
421.472	10128
421.548	26396
421.623	34835
421.699	15643
421.774	12686
421.850	12149
421.925	16419
422.001	22338
422.076	14978
422.152	15652
422.227	24693
422.302	30742
422.378	36446
422.453	64128
422.529	133179
422.604	416040
422.679	1064528
422.755	952123
422.830	325813
422.905	103860
422.981	53199
423.056	33919
423.131	24767
423.207	19116
423.282	18011
423.357	29348
423.432	30802
423.508	19667
423.583	38118
423.658	49671
423.733	17997
423.808	14150
423.883	16465
423.959	18151
424.034	14954
424.109	12162
424.184	8001
424.259	6175
424.334	6558
424.409	5553
424.484	4713
424.559	7729
424.634	7172
424.709	12501
424.784	16053
424.859	11228
424.934	10312
425.009	38368
425.084	98808
425.159	67977
425.234	12748
425.309	5048
425.384	10806
425.459	31493
425.534	17510
425.609	6297
425.683	6012
425.758	4626
425.833	6482
425.908	7344
425.983	19352
426.058	89647
426.132	81664
426.207	17154
426.282	9449
426.357	13627
426.431	7138
426.506	5349
426.581	6331
426.655	6274
426.730	5084
426.805	6378
426.879	7100
426.954	7579
427.029	12235
427.103	54290
427.178	227120
427.253	207352
427.327	34361
427.402	12161
427.476	30299
427.551	29357
427.625	9376
427.700	8738
427.774	6434
427.849	7953
427.923	6132
427.998	5226
428.072	6630
428.147	13517
428.221	41186
428.296	179369
428.370	188969
428.444	36222
428.519	14400
428.593	26326
428.667	31253
428.742	28423
428.816	32681
428.890	74720
428.965	226169
429.039	119236
429.113	42899
429.188	24953
429.262	8987
429.336	10248
429.410	37639
429.485	46720
429.559	24314
429.633	27917
429.707	13135
429.781	15568
429.855	80758
429.930	230188
430.004	147436
430.078	125803
430.152	147279
430.226	209916
430.300	393535
430.374	122256
430.448	19995
430.522	27792
430.596	110210
430.670	122896
430.744	151745
430.818	434433
430.892	202381
430.966	28154
431.040	11670
431.114	7462
431.188	5486
431.262	7023
431.336	7279
431.410	11321
431.484	32499
431.557	44240
431.631	14222
431.705	7334
431.779	19043
431.853	128319
431.927	198916
432.000	47210
432.074	8013
432.148	8440
432.222	9860
432.295	6250
432.369	5933
432.443	9194
432.516	44719
432.590	232562
432.664	199633
432.737	32562
432.811	7352
432.885	3448
432.958	3987
433.032	3470
433.106	3892
433.179	2780
433.253	2441
433.326	2812
433.400	3037
433.473	2422
433.547	3046
433.620	2388
433.694	7398
433.767	14965
433.841	9814
433.914	4464
433.988	3661
434.061	3217
434.134	2729
434.208	3116
434.281	2719
434.355	2156
434.428	3742
434.501	3888
434.575	2511
434.648	3219
434.721	3416
434.795	2242
434.868	2435
434.941	1861
435.014	2357
435.088	2910
435.161	5956
435.234	13252
435.307	19954
435.381	13018
435.454	7704
435.527	10491
435.600	12496
435.673	9658
435.746	6163
435.819	4902
435.892	4512
435.966	4320
436.039	3068
436.112	3518
436.185	2555
436.258	2088
436.331	1470
436.404	1976
436.477	1788
436.550	2004
436.623	1757
436.696	1462
436.769	3437
436.842	5178
436.915	4260
436.987	7131
437.060	6716
437.133	2758
437.206	2232
437.279	3161
437.352	3012
437.425	2893
437.498	4848
437.570	8154
437.643	14186
437.716	7411
437.789	3083
437.861	5171
437.934	21824
438.007	23672
438.080	7384
438.152	5527
438.225	9531
438.298	54551
438.370	330771
438.443	318926
438.516	68190
438.588	17335
438.661	5532
438.734	4671
438.806	5037
438.879	7676
438.951	6744
439.024	13708
439.096	11069
439.169	4863
439.241	2605
439.314	2908
439.386	5353
439.459	10342
439.531	21333
439.604	18304
439.676	4567
439.749	2554
439.821	2307
439.893	2236
439.966	3148
440.038	5812
440.110	8195
440.183	6211
440.255	4490
440.327	5510
440.400	19992
440.472	147389
440.544	251787
440.617	69028
440.689	13423
440.761	12150
440.833	21299
440.905	23112
440.978	9422
441.050	3466
441.122	2991
441.194	2848
441.266	3861
441.338	3850
441.411	5959
441.483	29202
441.555	109108
441.627	64972
441.699	13239
441.771	12178
441.843	9352
441.915	4266
441.987	3115
442.059	4114
442.131	3837
442.203	8375
442.275	11704
442.347	12904
442.419	11443
442.491	35534
442.563	172164
442.635	163082
442.706	53581
442.778	48285
442.850	21339
442.922	6766
442.994	6939
443.066	10580
443.137	12598
443.209	10002
443.281	10545
443.353	17617
443.425	48558
443.496	251354
443.568	451659
443.640	252259
443.711	64365
443.783	17405
443.855	10032
443.926	7132
443.998	6288
444.070	8315
444.141	8826
444.213	10870
444.285	17435
444.356	17926
444.428	19071
444.499	12068
444.571	5192
444.642	3528
444.714	4080
444.785	10232
444.857	13933
444.928	23004
445.000	28312
445.071	19430
445.143	28490
445.214	25182
445.285	20107
445.357	45499
445.428	128473
445.500	504526
445.571	535465
445.642	286250
445.714	111526
445.785	63675
445.856	40788
445.928	21023
445.999	19853
446.070	14932
446.141	11604
446.213	16498
446.284	14336
446.355	10099
446.426	7475
446.497	7197
446.569	8726
446.640	15262
446.711	21888
446.782	11619
446.853	8627
446.924	15176
446.995	11333
447.066	7274
447.138	9010
447.209	11170
447.280	5340
447.351	2683
447.422	2386
447.493	4674
447.564	7228
447.635	13737
447.706	13913
447.777	4624
447.847	2782
447.918	2352
447.989	5217
448.060	9822
448.131	16819
448.202	28224
448.273	21989
448.344	13180
448.414	5501
448.485	5363
448.556	3772
448.627	2682
448.698	2134
448.768	1836
448.839	2662
448.910	6934
448.981	12232
449.051	8391
449.122	3969
449.193	3172
449.263	2697
449.334	2317
449.405	3615
449.475	12354
449.546	17931
449.616	11481
449.687	13833
449.758	7784
449.828	3259
449.899	2602
449.969	2963
450.040	2693
450.110	4152
450.181	9820
450.251	7913
450.322	3207
450.392	2396
450.463	3095
450.533	2544
450.604	3018
450.674	3077
450.744	3661
450.815	2850
450.885	3343
450.955	3343
451.026	2696
451.096	2354
451.166	3723
451.237	6235
451.307	23812
451.377	26464
451.447	9840
451.518	3079
451.588	3557
451.658	3044
451.728	5246
451.799	15258
451.869	42442
451.939	27314
452.009	7105
452.079	2981
452.149	2773
452.219	4056
452.289	20158
452.360	41830
452.430	21299
452.500	6778
452.570	8259
452.640	10881
452.710	21203
452.780	48493
452.850	43719
452.920	42649
452.990	31530
453.060	9701
453.129	8068
453.199	12994
453.269	18606
453.339	109341
453.409	200125
453.479	145386
453.549	179472
453.619	230445
453.688	183402
453.758	57257
453.828	9758
453.898	6399
453.968	5696
454.037	5208
454.087	4615
454.107	4295
454.168	3786
454.177	3627
454.247	4120
454.249	4249
454.316	5230
454.330	5495
454.386	5884
454.411	8716
454.456	10369
454.492	19996
454.525	28068
454.574	25953
454.595	25537
454.655	11779
454.665	9663
454.734	8659
454.736	9196
454.804	18211
454.817	22075
454.873	28315
454.898	37445
454.943	50348
454.979	45997
455.013	44438
455.060	29855
455.082	25085
455.141	21444
455.152	20238
455.221	30365
455.222	31486
455.291	45629
455.303	45301
455.360	49538
455.384	46808
455.430	42347
455.465	46613
455.499	49652
455.546	47563
455.569	41034
455.627	35261
455.638	35649
455.707	20065
455.708	20068
455.777	8313
455.789	8270
455.846	7258
455.869	7111
455.916	7182
455.950	7464
455.985	7185
456.031	7854
456.054	7977
456.112	7954
456.124	8085
456.193	8091
456.193	8004
456.262	9940
456.274	10696
456.332	13387
456.355	15227
456.401	14651
456.436	13751
456.470	13899
456.516	10369
456.540	8950
456.597	7129
456.609	6723
456.678	7295
456.678	7240
456.747	6755
456.759	6791
456.817	6780
456.840	6823
456.886	6768
456.920	7291
456.955	8387
457.001	9370
457.024	10831
457.082	15574
457.093	16434
457.162	23727
457.163	23935
457.232	24387
457.243	24039
457.301	20800
457.324	16504
457.370	12500
457.405	11314
457.439	10373
457.485	10733
457.508	10993
457.566	12764
457.577	13317
457.646	17299
457.647	17445
457.715	30118
457.727	32892
457.784	54094
457.808	64498
457.853	71244
457.889	82343
457.922	77237
457.969	58986
457.991	66424
458.050	82586
458.060	87078
458.129	131501
458.130	133363
458.198	105066
458.211	95436
458.267	66239
458.292	48217
458.336	39512
458.372	37078
458.405	46474
458.453	66168
458.474	86072
458.533	147861
458.543	151262
458.611	196776
458.614	199289
458.680	117874
458.694	91934
458.749	58539
458.775	42167
458.818	27244
458.855	22063
458.887	18957
458.936	17541
458.955	17199
459.016	17353
459.024	17282
459.093	17623
459.097	17656
459.162	18768
459.177	19272
459.230	22755
459.257	24674
459.299	23993
459.338	23630
459.368	25086
459.418	27245
459.437	25240
459.499	19420
459.505	19447
459.574	18006
459.579	17999
459.643	16871
459.659	16659
459.711	17968
459.740	18810
459.780	20431
459.820	22489
459.849	23407
459.900	24842
459.917	24154
459.981	22176
459.986	22158
460.054	22549
460.061	22543
460.123	24889
460.141	25575
460.191	31634
460.222	35828
460.260	38861
460.302	43102
460.328	38166
460.382	28652
460.397	28930
460.462	26394
460.465	26499
460.534	30039
460.543	30723
460.602	55939
460.623	65123
460.671	105348
460.703	134396
460.739	106409
460.783	77274
460.808	67778
460.864	30979
460.876	30122
460.944	22644
460.945	22520
461.013	21625
461.024	21566
461.081	24100
461.104	25504
461.150	23217
461.184	21482
461.218	21361
461.264	20529
461.286	20991
461.345	21694
461.355	21580
461.423	22244
461.425	22267
461.491	27256
461.505	28261
461.559	53946
461.585	66037
461.628	115571
461.665	159685
461.696	165579
461.745	179824
461.764	147451
461.825	43394
461.832	44121
461.901	35205
461.905	34735
461.969	25894
461.985	25353
462.037	24582
462.065	23765
462.105	30155
462.145	36447
462.173	52078
462.225	81769
462.241	92503
462.305	136300
462.310	131044
462.378	52711
462.385	43482
462.446	35814
462.465	31530
462.514	27161
462.545	26718
462.582	25851
462.625	25194
462.650	24870
462.705	24024
462.718	25270
462.785	31681
462.786	32028
462.854	52219
462.865	55444
462.922	63430
462.945	67125
462.990	45434
463.025	28327
463.058	27009
463.104	23220
463.126	23158
463.184	23663
463.194	24010
463.262	26595
463.264	26703
463.330	27115
463.344	27128
463.398	29984
463.424	31177
463.466	32125
463.504	33200
463.533	32772
463.583	32051
463.601	33978
463.663	40247
463.669	42057
463.737	62550
463.743	64414
463.805	94298
463.823	103044
463.873	169265
463.903	209006
463.940	206501
463.982	205062
464.008	156230
464.062	53345
464.076	50897
464.142	30973
464.144	30869
464.211	27251
464.221	27230
464.279	31434
464.301	32978
464.347	36505
464.381	39382
464.414	45705
464.461	54175
464.482	54603
464.540	55519
464.550	53340
464.617	37640
464.620	37039
464.685	43678
464.699	44950
464.753	46835
464.779	48049
464.820	48760
464.859	49254
464.888	52123
464.938	56395
464.956	56255
465.018	55670
465.023	54497
465.091	38447
465.098	36691
465.158	37456
465.177	37598
465.226	38159
465.257	38575
465.293	41563
465.336	44883
465.361	51904
465.416	67585
465.428	72602
465.495	99116
465.496	99823
465.563	184876
465.575	199176
465.631	226436
465.654	238000
465.698	135925
465.734	51566
465.765	47462
465.813	38707
465.833	38273
465.893	37624
465.900	37553
465.968	37535
465.972	37459
466.035	37940
466.052	38004
466.102	39134
466.131	39702
466.170	40280
466.210	40715
466.237	40970
466.290	41182
466.304	41749
466.369	43897
466.372	44131
466.439	48554
466.449	49097
466.506	57218
466.528	60190
466.573	92648
466.607	116779
466.641	187157
466.687	284481
466.708	308906
466.766	374403
466.775	343224
466.842	104213
466.845	92664
466.909	68834
466.925	62779
466.977	58598
467.004	56631
467.044	56985
467.083	57215
467.111	61270
467.163	68531
467.178	69865
467.242	74708
467.245	74724
467.312	71702
467.321	71148
467.379	71497
467.400	71393
467.446	81359
467.480	88274
467.559	67184
467.638	58980
467.717	62041
467.796	71877
467.875	85383
467.955	75635
468.034	127591
468.113	315700
468.192	464603
468.271	92377
468.350	72298
468.429	84924
468.508	85765
468.588	68584
468.667	68260
468.746	73944
468.825	68661
468.904	54249
468.983	71351
469.062	127431
469.141	150220
469.220	53416
469.299	52618
469.378	58166
469.456	59830
469.535	54408
469.614	58494
469.693	67071
469.772	91041
469.851	148464
469.930	81097
470.009	59483
470.088	62795
470.166	83572
470.245	134379
470.324	171629
470.403	115453
470.482	78544
470.560	65778
470.639	68840
470.718	85230
470.797	63463
470.875	79566
470.954	125618
471.033	123954
471.111	45263
471.190	43545
471.269	42803
471.347	44499
471.426	49656
471.505	58154
471.583	54435
471.662	49785
471.740	47275
471.819	46616
471.898	44642
471.976	44723
472.055	45327
472.133	56640
472.212	83384
472.290	90168
472.369	49254
472.447	43639
472.526	40580
472.604	45891
472.683	53421
472.761	60326
472.839	53146
472.918	47640
472.996	51216
473.075	65655
473.153	59818
473.231	50340
473.310	65527
473.388	58530
473.466	54000
473.545	61904
473.623	92390
473.701	87115
473.780	49228
473.858	52279
473.936	56982
474.014	47926
474.093	60069
474.171	98310
474.249	159763
474.327	79694
474.405	45105
474.484	44327
474.562	49086
474.640	46784
474.718	53341
474.796	50398
474.874	44197
474.952	40711
475.030	43107
475.108	46113
475.187	51179
475.265	60736
475.343	102077
475.421	112168
475.499	47301
475.577	50252
475.655	75212
475.733	182863
475.811	330273
475.889	307565
475.966	157748
476.044	55054
476.122	81672
476.200	113923
476.278	76207
476.356	47786
476.434	54487
476.512	74423
476.590	110238
476.667	81521
476.745	46726
476.823	50901
476.901	51119
476.979	53344
477.056	49513
477.134	53602
477.212	57390
477.290	50158
477.367	42777
477.445	42643
477.523	44752
477.601	46934
477.678	46770
477.756	62850
477.834	72844
477.911	45730
477.989	45962
478.066	46273
478.144	61723
478.222	74245
478.299	142121
478.377	109893
478.454	44172
478.532	42498
478.609	50225
478.687	52219
478.764	42371
478.842	49434
478.919	59645
478.997	50724
479.074	42950
479.152	58284
479.229	84785
479.307	45924
479.384	35608
479.461	37369
479.539	46433
479.616	60303
479.694	47961
479.771	56894
479.848	58978
479.926	95210
480.003	88595
480.080	42177
480.157	38932
480.235	42120
480.312	44295
480.389	56048
480.467	103864
480.544	131868
480.621	56783
480.698	54312
480.775	66153
480.853	67598
480.930	49572
481.007	51101
481.084	61109
481.161	64247
481.238	59310
481.315	44086
481.392	43947
481.470	47484
481.547	51770
481.624	45600
481.701	43896
481.778	49276
481.855	60533
481.932	94382
482.009	186701
482.086	102151
482.163	58033
482.240	94268
482.317	188932
482.393	120663
482.470	54276
482.547	55770
482.624	49857
482.701	54687
482.778	52246
482.855	41312
482.932	40872
483.009	44450
483.085	51483
483.162	66001
483.239	61875
483.316	49376
483.393	48627
483.469	47581
483.546	58992
483.623	62461
483.699	44370
483.776	47787
483.853	59580
483.930	97858
484.006	253550
484.083	454813
484.160	129723
484.236	153203
484.313	121025
484.389	102370
484.466	85097
484.543	89416
484.619	97134
484.696	102745
484.772	111708
484.849	120672
484.925	84938
485.002	82798
485.078	93455
485.155	98373
485.231	79581
485.308	78253
485.384	89242
485.461	123724
485.537	251894
485.614	291747
485.690	86370
485.766	79972
485.843	94560
485.919	154176
485.995	160023
486.072	75310
486.148	71529
486.224	72978
486.301	82881
486.377	105843
486.453	109155
486.530	84205
486.606	101632
486.682	119493
486.758	187598
486.835	235310
486.911	170118
486.987	346541
487.063	333196
487.139	449132
487.215	284872
487.292	102144
487.368	86005
487.444	104351
487.520	141822
487.596	139393
487.672	232036
487.748	635525
487.824	986626
487.900	299056
487.976	129756
488.052	124859
488.128	149648
488.204	112947
488.280	88448
488.356	124889
488.432	295678
488.508	483851
488.584	121210
488.660	81562
488.736	77937
488.812	87773
488.888	115824
488.964	176195
489.039	448990
489.115	705580
489.191	346069
489.267	91057
489.343	81624
489.418	64266
489.494	63486
489.570	61473
489.646	63086
489.722	67010
489.797	76489
489.873	141230
489.949	366058
490.024	259492
490.100	68870
490.176	70568
490.251	97190
490.327	144569
490.403	69849
490.478	60270
490.554	51597
490.629	55993
490.705	53966
490.781	64751
490.856	66395
490.932	79738
491.007	81361
491.083	73172
491.158	69438
491.234	105724
491.309	270569
491.385	254315
491.460	69991
491.536	72479
491.611	61507
491.686	73318
491.762	116109
491.837	285419
491.913	495811
491.988	689088
492.063	859558
492.139	211513
492.214	112753
492.289	54879
492.365	58623
492.440	72817
492.515	77589
492.590	70213
492.666	56935
492.741	91014
492.816	159719
492.891	67540
492.967	48774
493.042	46570
493.117	47084
493.192	46627
493.267	66791
493.342	127580
493.418	145475
493.493	51593
493.568	42484
493.643	48658
493.718	74544
493.793	133547
493.868	143140
493.943	80548
494.018	54807
494.093	52191
494.168	51095
494.243	43967
494.318	41309
494.393	41724
494.468	42863
494.543	44472
494.618	61391
494.693	51296
494.768	50039
494.842	50884
494.917	42086
494.992	47039
495.067	40727
495.142	40269
495.217	45575
495.292	45286
495.366	56100
495.441	73888
495.516	100433
495.591	181671
495.665	612401
495.740	1559822
495.815	490556
495.890	88333
495.964	69245
496.039	66480
496.114	63107
496.188	68564
496.263	67402
496.338	62630
496.412	77052
496.487	91376
496.561	99413
496.636	100713
496.710	72662
496.785	85982
496.860	101537
496.934	72538
497.009	74144
497.083	70716
497.158	78138
497.232	95098
497.307	120830
497.381	88582
497.455	110338
497.530	157645
497.604	88276
497.679	96737
497.753	161833
497.827	211616
497.902	164551
497.976	219688
498.050	554341
498.125	2067905
498.199	1897340
498.273	294636
498.348	219861
498.422	171440
498.496	167145
498.570	144391
498.645	97983
498.719	98278
498.793	121525
498.867	217807
498.941	324377
499.016	818917
499.090	2355341
499.164	604688
499.238	84123
499.312	77328
499.386	105225
499.460	89645
499.534	79117
499.609	98838
499.683	166318
499.757	167109
499.831	398937
499.905	1561738
499.979	1305859
500.053	217285
500.127	222320
500.201	160449
500.275	86378
500.349	78636
500.422	97275
500.496	164777
500.570	404770
500.644	856041
500.718	1659873
500.792	259876
500.866	82227
500.940	115498
501.013	85264
501.087	87723
501.161	173984
501.235	251562
501.309	547202
501.382	1496155
501.456	1151472
501.530	262363
501.603	504239
501.677	144725
501.751	70215
501.825	94905
501.898	194490
501.972	616885
502.046	313833
502.119	103202
502.193	255081
502.266	677489
502.340	262859
502.413	276311
502.487	564945
502.561	314938
502.634	88083
502.708	77701
502.781	70655
502.855	52743
502.928	48416
503.002	45896
503.075	47043
503.149	49900
503.222	47457
503.295	54054
503.369	73049
503.442	132991
503.516	437778
503.589	1172647
503.662	676519
503.736	198063
503.809	532597
503.882	398645
503.956	599454
504.029	524375
504.102	397523
504.175	511904
504.249	180003
504.322	111003
504.395	90066
504.468	61423
504.542	64404
504.615	45250
504.688	41629
504.761	46243
504.834	60412
504.907	78398
504.980	139922
505.053	64347
505.127	90971
505.200	87943
505.273	99571
505.346	53368
505.419	46569
505.492	38179
505.565	32890
505.638	34251
505.711	35579
505.784	35503
505.857	32587
505.930	35309
506.003	36957
506.076	38203
506.149	61620
506.221	85001
506.294	79663
506.367	230240
506.440	790769
506.513	343216
506.586	90202
506.659	50188
506.731	45218
506.804	62114
506.877	99109
506.950	58362
507.022	40079
507.095	65251
507.168	78017
507.241	43769
507.313	38605
507.386	51714
507.459	72541
507.531	45077
507.604	37613
507.677	35679
507.749	32864
507.822	50621
507.894	97041
507.967	92231
508.040	47373
508.112	42110
508.185	43523
508.257	46562
508.330	74985
508.402	45645
508.475	43532
508.547	50333
508.620	50780
508.692	96151
508.765	46950
508.837	33915
508.909	33167
508.982	36266
509.054	44701
509.127	38451
509.199	31698
509.271	32011
509.344	30162
509.416	30759
509.488	33837
509.560	35134
509.633	41197
509.705	53292
509.777	48255
509.849	76000
509.922	48322
509.994	32987
510.066	32057
510.138	37155
510.210	56912
510.283	54846
510.355	47708
510.427	45020
510.499	51843
510.571	57275
510.643	48977
510.715	85903
510.787	77831
510.859	46725
510.931	64792
511.003	84740
511.076	69133
511.148	39873
511.219	44891
511.291	84738
511.363	102144
511.435	36536
511.507	33825
511.579	34423
511.651	34892
511.723	35002
511.795	35192
511.867	39446
511.939	58086
512.010	146029
512.082	99530
512.154	46564
512.226	43178
512.298	57095
512.369	88605
512.441	66707
512.513	75796
512.585	58212
512.656	54821
512.728	67672
512.800	44442
512.871	42296
512.943	44170
513.015	39566
513.086	44040
513.158	52260
513.230	60523
513.301	97326
513.373	107062
513.444	53839
513.516	40453
513.588	43336
513.659	52161
513.731	73473
513.802	71772
513.874	145920
513.945	285792
514.016	78394
514.088	44194
514.159	57180
514.231	74717
514.302	87293
514.374	55255
514.445	68182
514.516	147557
514.588	105421
514.659	67029
514.730	139215
514.802	91158
514.873	67545
514.944	57673
515.016	58381
515.087	77238
515.158	98305
515.229	135691
515.301	69975
515.372	77037
515.443	57116
515.514	47792
515.585	42907
515.656	42605
515.728	41157
515.799	42396
515.870	46852
515.941	49688
516.012	51788
516.083	60489
516.154	73559
516.225	103790
516.296	89995
516.367	75804
516.438	93989
516.509	144411
516.580	277604
516.651	822652
516.722	2779155
516.793	1113435
516.864	181736
516.935	161995
517.006	199332
517.077	351794
517.148	933375
517.219	2896394
517.289	4350666
517.360	1156112
517.431	307778
517.502	106546
517.573	94247
517.643	85774
517.714	87040
517.785	85875
517.856	90799
517.926	102848
517.997	124020
518.068	175239
518.138	293575
518.209	620856
518.280	1987899
518.350	5289063
518.421	2541049
518.492	292671
518.562	159744
518.633	158659
518.703	164785
518.774	264483
518.845	570265
518.915	541418
518.986	190387
519.056	152647
519.127	262916
519.197	400291
519.268	820335
519.338	470267
519.408	123878
519.479	153075
519.549	111312
519.620	67233
519.690	54170
519.760	56693
519.831	60231
519.901	61262
519.971	47240
520.042	56819
520.112	73875
520.182	75403
520.253	88091
520.323	54270
520.393	63237
520.463	87744
520.534	71165
520.604	120047
520.674	68693
520.744	76973
520.814	149185
520.885	169298
520.955	260488
521.025	897065
521.095	307978
521.165	56118
521.235	57686
521.305	50790
521.375	44483
521.445	55083
521.515	83880
521.585	90613
521.655	93490
521.725	71988
521.795	68871
521.865	54200
521.935	74875
522.005	69512
522.075	41684
522.145	46699
522.215	62142
522.285	94963
522.355	134063
522.424	255658
522.494	218994
522.564	115893
522.634	225853
522.704	619067
522.774	218530
522.843	54835
522.913	53920
522.983	76100
523.053	57155
523.122	62137
523.192	109370
523.262	345995
523.331	340151
523.401	58667
523.471	40172
523.540	45302
523.610	36097
523.680	36331
523.749	39417
523.819	54068
523.888	56087
523.958	38029
524.027	40390
524.097	45731
524.166	42182
524.236	53912
524.305	46000
524.375	40271
524.444	38048
524.514	41371
524.583	47335
524.653	63896
524.722	67757
524.791	44755
524.861	39371
524.930	40542
524.999	47114
525.069	68534
525.138	55149
525.207	70624
525.277	44194
525.346	46538
525.415	42905
525.484	46723
525.554	60739
525.623	54733
525.692	44600
525.761	49955
525.830	51020
525.900	67636
525.969	113709
526.038	207232
526.107	396651
526.176	1067907
526.245	881075
526.314	308213
526.383	575882
526.452	832050
526.522	1206954
526.591	1281286
526.660	376854
526.729	178487
526.797	226549
526.867	530492
526.935	1813952
527.004	2822614
527.073	1566872
527.142	149151
527.211	73552
527.280	75581
527.349	80144
527.418	45167
527.487	42095
527.555	39937
527.624	37564
527.693	35371
527.762	36646
527.831	36399
527.899	36558
527.968	37424
528.037	41264
528.106	52939
528.174	104105
528.243	89458
528.312	121772
528.380	167401
528.449	52306
528.518	32104
528.586	29091
528.655	28272
528.723	28905
528.792	29960
528.861	38226
528.929	32672
528.998	28519
529.066	27258
529.135	26932
529.203	27407
529.272	28748
529.340	28796
529.409	32570
529.477	33855
529.545	47288
529.614	51046
529.682	58322
529.751	69927
529.819	57222
529.887	46537
529.956	32955
530.024	34387
530.092	33279
530.161	42517
530.229	76666
530.297	43156
530.365	27981
530.434	26500
530.502	26986
530.570	27375
530.638	28211
530.707	33239
530.775	35933
530.843	29415
530.911	28758
530.979	27340
531.047	29267
531.115	30375
531.183	28140
531.252	29304
531.320	31869
531.388	29604
531.456	29015
531.524	30228
531.592	30101
531.660	33669
531.728	31170
531.796	29188
531.864	28341
531.932	30379
532.000	31417
532.067	32455
532.135	34774
532.203	41882
532.271	55063
532.339	93229
532.407	254494
532.475	147748
532.542	58009
532.610	75336
532.678	142227
532.746	418154
532.814	1061285
532.881	255613
532.949	45692
533.017	37948
533.084	34752
533.152	33741
533.220	35215
533.287	43274
533.355	32199
533.423	30784
533.490	31328
533.558	31919
533.625	34888
533.693	38120
533.761	35957
533.828	39856
533.896	45761
533.963	84702
534.031	109351
534.098	146575
534.166	69224
534.233	35044
534.300	35398
534.368	36903
534.435	37411
534.503	35854
534.570	37748
534.637	41524
534.705	51162
534.772	74361
534.840	146581
534.907	457906
534.974	632245
535.041	84261
535.109	59071
535.176	38841
535.243	34501
535.310	37617
535.378	36806
535.445	29940
535.512	30980
535.579	32319
535.646	33809
535.714	33438
535.781	38250
535.848	37262
535.915	38044
535.982	35559
536.049	35902
536.116	37558
536.183	36603
536.250	38716
536.317	43166
536.384	52565
536.451	80039
536.518	83575
536.585	61318
536.652	69565
536.719	102325
536.786	87309
536.853	64752
536.920	98544
536.987	177010
537.053	190154
537.120	501150
537.187	461157
537.254	52188
537.321	40540
537.388	41951
537.454	36152
537.521	34965
537.588	35269
537.654	38993
537.721	43929
537.788	43511
537.855	37833
537.921	38818
537.988	40532
538.055	39272
538.121	43363
538.188	52547
538.254	82834
538.321	161982
538.388	100312
538.454	45252
538.521	39177
538.587	35367
538.654	35382
538.720	34033
538.787	36381
538.853	41575
538.920	54689
538.986	57064
539.053	45019
539.119	45634
539.185	47041
539.252	53527
539.318	88985
539.385	59382
539.451	52104
539.517	56062
539.583	77862
539.650	156728
539.716	400825
539.782	112146
539.849	45332
539.915	43327
539.981	48874
540.047	59122
540.114	51631
540.180	49189
540.246	56767
540.312	83864
540.378	159035
540.444	175140
540.510	164099
540.576	435024
540.643	146708
540.709	44531
540.775	43034
540.841	44386
540.907	59634
540.973	89354
541.039	81271
541.105	90451
541.171	51564
541.237	45667
541.303	47789
541.369	58077
541.435	80569
541.500	134601
541.566	90761
541.632	42816
541.698	37076
541.764	36146
541.830	37031
541.896	37230
541.961	38486
542.027	43410
542.093	41933
542.159	45825
542.224	57057
542.290	81255
542.356	132526
542.421	155199
542.487	63772
542.553	44794
542.618	48255
542.684	44071
542.750	49077
542.815	69884
542.881	129149
542.947	357569
543.012	281321
543.078	42808
543.143	37368
543.209	45170
543.274	52560
543.340	65727
543.405	135085
543.471	233880
543.536	53856
543.602	39870
543.667	41278
543.732	36391
543.798	36662
543.863	37259
543.928	34824
543.994	35061
544.059	35121
544.124	34230
544.190	35868
544.255	37138
544.320	39649
544.386	46673
544.451	66264
544.516	88664
544.581	99448
544.646	222364
544.712	368257
544.777	72228
544.842	51558
544.907	56437
544.972	47956
545.037	45244
545.102	48913
545.168	50708
545.233	53107
545.298	58436
545.363	76292
545.428	91776
545.493	141209
545.558	306485
545.623	130848
545.688	55248
545.753	50190
545.818	50126
545.883	51491
545.947	52470
546.012	58220
546.077	62363
546.142	58452
546.207	61341
546.272	79523
546.337	85617
546.401	64073
546.466	58139
546.531	58293
546.596	63673
546.661	65714
546.725	59494
546.790	57853
546.855	60756
546.919	63860
546.984	70586
547.049	76837
547.113	90532
547.178	87952
547.243	96121
547.307	108896
547.372	126305
547.436	137699
547.501	113905
547.565	121013
547.630	132074
547.695	132787
547.759	135624
547.823	124909
547.888	106979
547.952	110073
548.017	116917
548.081	130210
548.146	156376
548.210	141349
548.274	120025
548.339	115727
548.403	108182
548.468	102562
548.532	101093
548.596	105511
548.660	108753
548.725	121091
548.789	139764
548.853	142709
548.917	122408
548.982	142263
549.046	142068
549.110	98781
549.174	98766
549.238	105648
549.303	112585
549.367	116230
549.431	112877
549.495	107118
549.559	108898
549.623	123919
549.687	144420
549.751	169956
549.815	160734
549.879	152732
549.943	144167
550.007	153910
550.071	155540
550.135	163541
550.199	145910
550.263	133407
550.327	135000
550.391	163308
550.455	147100
550.519	147110
550.582	160456
550.646	194197
550.710	204047
550.774	168453
550.838	167842
550.901	174936
550.965	189045
551.029	203629
551.093	233835
551.156	284065
551.220	401650
551.284	483709
551.347	304974
551.411	354297
551.475	394833
551.538	191103
551.602	168263
551.666	158466
551.729	148356
551.793	143495
551.856	144024
551.920	138265
551.983	139917
552.047	136712
552.110	136374
552.174	139088
552.237	142692
552.301	132004
552.364	126319
552.428	125244
552.491	130864
552.554	136693
552.618	138490
552.681	152201
552.745	170308
552.808	226150
552.871	309175
552.934	208560
552.998	151839
553.061	141538
553.124	130764
553.187	124421
553.251	130819
553.314	131458
553.377	129289
553.440	140893
553.503	161232
553.567	184008
553.630	136393
553.693	130065
553.756	133184
553.819	127361
553.882	124265
553.945	122483
554.008	119695
554.071	122596
554.134	124174
554.197	118293
554.260	112759
554.323	122353
554.386	122366
554.449	124316
554.512	122789
554.575	118203
554.638	121424
554.701	118419
554.764	113713
554.827	110245
554.889	105689
554.952	100630
555.015	99585
555.078	101470
555.141	103249
555.203	101045
555.266	100335
555.329	103534
555.391	98497
555.454	102044
555.517	102080
555.580	94425
555.642	88034
555.705	89004
555.768	90404
555.830	87132
555.893	82709
555.955	81656
556.018	82505
556.080	83757
556.143	83813
556.206	85634
556.268	88017
556.330	88424
556.393	89007
556.455	88014
556.518	108794
556.580	117473
556.643	77202
556.705	74088
556.767	74945
556.830	79882
556.892	84673
556.955	120593
557.017	99429
557.079	75437
557.142	78262
557.204	91569
557.266	146642
557.328	137919
557.391	69586
557.453	64313
557.515	66464
557.577	78704
557.639	83499
557.701	64020
557.764	61524
557.826	63828
557.888	71671
557.950	80647
558.012	98893
558.074	143695
558.136	245013
558.198	616617
558.260	262646
558.322	79559
558.384	76144
558.446	88015
558.508	106274
558.570	152519
558.632	249096
558.694	437254
558.756	546996
558.818	1077578
558.880	2768252
558.942	1086661
559.003	621645
559.065	356309
559.127	114911
559.189	128206
559.251	186564
559.312	312236
559.374	559786
559.436	1673641
559.498	1058263
559.559	149237
559.621	139408
559.683	200247
559.744	336966
559.806	760524
559.868	1355234
559.929	305500
559.991	168364
560.052	237587
560.114	587788
560.176	484003
560.237	318437
560.299	601638
560.360	164652
560.422	62862
560.483	58083
560.545	55250
560.606	53016
560.667	51692
560.729	50167
560.790	47466
560.852	48176
560.913	49604
560.974	46874
561.036	47527
561.097	46976
561.158	46279
561.220	48146
561.281	51139
561.342	56419
561.403	71530
561.465	92569
561.526	169450
561.587	257571
561.648	81119
561.709	50122
561.771	47238
561.832	45938
561.893	47009
561.954	44381
562.015	43318
562.076	45268
562.137	42725
562.198	44011
562.259	45668
562.320	49321
562.381	53812
562.442	73997
562.503	66306
562.564	44698
562.625	42196
562.686	42597
562.747	49919
562.808	48801
562.869	44928
562.930	53836
562.991	52015
563.051	47479
563.112	45442
563.173	44232
563.234	42784
563.294	42624
563.355	42727
563.416	46494
563.477	43969
563.537	44076
563.598	48021
563.659	46465
563.720	46984
563.780	46884
563.841	49308
563.901	44121
563.962	42612
564.023	42130
564.083	44242
564.144	45794
564.204	47452
564.265	50394
564.325	59483
564.386	99238
564.446	104079
564.507	44342
564.567	41898
564.628	42777
564.688	41984
564.749	43345
564.809	49964
564.869	59800
564.930	46234
564.990	40527
565.050	39909
565.111	40150
565.171	38420
565.231	39158
565.292	40219
565.352	39253
565.412	40766
565.472	43615
565.532	45155
565.593	43347
565.653	41214
565.713	44725
565.773	46926
565.833	54986
565.893	71971
565.953	49605
566.013	43455
566.074	50030
566.134	62112
566.194	93301
566.254	105222
566.314	67560
566.374	46276
566.434	43133
566.494	44700
566.554	44372
566.614	43934
566.673	45678
566.733	47731
566.793	50873
566.853	51919
566.913	50116
566.973	50500
567.033	52873
567.092	55356
567.152	51657
567.212	53695
567.272	52422
567.331	57138
567.391	56582
567.451	59572
567.511	73929
567.570	80869
567.630	52729
567.690	47352
567.749	48128
567.809	49579
567.868	55025
567.928	63000
567.988	70799
568.047	77156
568.107	91316
568.166	115650
568.226	162010
568.285	225772
568.345	194371
568.404	147627
568.464	126148
568.523	118405
568.582	123425
568.642	147318
568.701	182770
568.761	245007
568.820	370312
568.879	378322
568.939	280296
568.998	200706
569.057	143944
569.116	115763
569.176	97166
569.235	81645
569.294	74559
569.353	68324
569.413	61761
569.472	59422
569.531	53377
569.590	50943
569.649	50022
569.708	49802
569.767	49281
569.827	57877
569.886	55281
569.945	44247
570.004	44408
570.063	46211
570.122	48081
570.181	51377
570.240	52368
570.299	55935
570.358	54511
570.417	44856
570.475	39531
570.534	43144
570.593	47569
570.652	46063
570.711	49645
570.770	43588
570.829	49896
570.887	47649
570.946	52829
571.005	43724
571.064	41601
571.122	48878
571.181	52942
571.240	44129
571.299	37448
571.357	41273
571.416	44941
571.475	46810
571.533	54264
571.592	40449
571.650	42997
571.709	39083
571.768	40389
571.826	39212
571.885	36042
571.943	34103
572.002	35316
572.060	38054
572.119	33988
572.177	31133
572.236	30736
572.294	32405
572.352	33579
572.411	33982
572.469	33165
572.528	33109
572.586	35577
572.644	37388
572.703	51177
572.761	39853
572.819	34208
572.877	31721
572.936	29920
572.994	31448
573.052	31365
573.110	34836
573.169	34508
573.227	31649
573.285	31467
573.343	29623
573.401	31246
573.459	30558
573.517	30733
573.576	31850
573.634	32265
573.692	34323
573.750	34701
573.808	33431
573.866	34896
573.924	43376
573.982	45313
574.040	34231
574.098	31993
574.155	31177
574.213	29664
574.271	29669
574.329	32483
574.387	30579
574.445	28263
574.503	27305
574.560	26248
574.618	27340
574.676	27516
574.734	26412
574.792	27457
574.849	26827
574.907	26390
574.965	26189
575.022	25386
575.080	27093
575.138	27850
575.195	29358
575.253	29579
575.311	33926
575.368	28914
575.426	26065
575.483	26214
575.541	25571
575.598	26165
575.656	27900
575.713	29139
575.771	27455
575.828	26948
575.886	27136
575.943	28738
576.001	30519
576.058	30746
576.115	33100
576.173	39169
576.230	44143
576.287	49410
576.345	43218
576.402	32670
576.459	32717
576.517	33417
576.574	33275
576.631	37287
576.688	32681
576.746	29379
576.803	29006
576.860	27889
576.917	28485
576.974	29059
577.031	27997
577.089	29453
577.146	29692
577.203	29582
577.260	32694
577.317	33539
577.374	38429
577.431	36629
577.488	32434
577.545	30035
577.602	27632
577.659	27478
577.716	26650
577.773	26562
577.830	25692
577.886	26787
577.943	25997
578.000	26739
578.057	30340
578.114	29403
578.171	28887
578.227	31260
578.284	28265
578.341	29347
578.398	30058
578.454	31292
578.511	35184
578.568	40160
578.625	36112
578.681	28438
578.738	26442
578.794	25839
578.851	27188
578.908	27375
578.964	27762
579.021	28697
579.077	27199
579.134	27642
579.190	26472
579.247	26626
579.303	27538
579.360	25463
579.416	24661
579.473	25789
579.529	24573
579.586	25727
579.642	25433
579.698	26408
579.755	28346
579.811	27179
579.867	26081
579.924	25687
579.980	25343
580.036	26844
580.093	26759
580.149	27180
580.205	28760
580.261	28210
580.317	29903
580.374	32753
580.430	36952
580.486	37302
580.542	30597
580.598	30604
580.619	30719
580.654	30960
580.692	30075
580.710	29698
580.765	28855
580.767	28866
580.823	28821
580.838	28777
580.879	28794
580.911	28375
580.935	28129
580.984	26752
580.991	26600
581.047	28294
581.057	28274
581.103	28338
581.130	28307
581.159	28354
581.203	29742
581.215	30149
581.270	28639
581.276	28582
581.326	28364
581.349	28173
581.382	27929
581.422	28448
581.438	28711
581.494	31065
581.494	31026
581.550	30101
581.567	30016
581.606	29863
581.640	30441
581.661	30808
581.713	28948
581.717	28833
581.773	27805
581.786	27899
581.829	28281
581.859	28582
581.885	28888
581.932	28600
581.940	28574
581.996	27866
582.004	27877
582.052	28008
582.077	27511
582.107	26987
582.150	27293
582.163	27408
582.219	28428
582.223	28384
582.274	28069
582.296	28803
582.330	30077
582.368	30462
582.386	30573
582.441	27669
582.441	27678
582.497	27651
582.514	27507
582.552	27267
582.587	27405
582.608	27476
582.659	27161
582.663	27143
582.719	27122
582.732	27185
582.774	27476
582.805	27641
582.830	27821
582.877	27865
582.885	27842
582.941	27102
582.950	27135
582.996	27475
583.023	27830
583.052	28334
583.095	28206
583.107	28130
583.162	28545
583.168	28640
583.218	29608
583.240	29084
583.273	28211
583.313	27114
583.328	26734
583.384	27034
583.385	27045
583.439	27202
583.458	26946
583.494	26655
583.531	26117
583.549	25754
583.603	27223
583.605	27272
583.660	26602
583.676	26702
583.715	26824
583.748	26736
583.770	26717
583.820	27958
583.825	28081
583.881	27336
583.893	27376
583.936	27366
583.965	26987
583.991	26622
584.038	26932
584.046	26998
584.101	27161
584.110	27170
584.156	27169
584.183	26957
584.211	26632
584.255	27111
584.266	27204
584.321	25517
584.328	25562
584.376	26091
584.400	26407
584.431	26786
584.472	26643
584.486	26555
584.541	27330
584.545	27337
584.596	27300
584.617	27611
584.651	28170
584.689	29178
584.706	29530
584.761	29043
584.762	29057
584.816	29054
584.834	29262
584.871	29526
584.906	29828
584.926	30009
584.978	29575
584.980	29528
585.035	31039
585.051	31304
585.090	32544
585.123	33766
585.145	34384
585.195	35693
585.200	35851
585.254	38421
585.267	39554
585.309	43297
585.340	47983
585.364	51864
585.412	61240
585.419	62332
585.473	77740
585.484	83159
585.528	106570
585.556	125690
585.583	146779
585.628	187869
585.637	201465
585.692	355773
585.700	404596
585.747	717808
585.772	663808
585.801	500470
585.845	242325
585.856	180628
585.910	75109
585.917	65493
585.965	53007
585.989	48376
586.019	44711
586.061	41977
586.074	41457
586.128	40635
586.133	40753
586.183	42146
586.205	43046
586.237	44545
586.277	44476
586.292	43967
586.346	42389
586.349	42449
586.401	43014
586.421	43861
586.455	45442
586.493	46806
586.509	47820
586.564	54784
586.565	55381
586.618	81945
586.637	85191
586.672	88738
586.709	72115
586.727	60071
586.781	50634
586.781	50567
586.835	46808
586.853	46072
586.889	43563
586.925	41843
586.944	41470
586.996	41574
586.998	41540
587.052	42531
587.068	43088
587.106	44026
587.140	43949
587.161	43484
587.212	43946
587.215	43978
587.269	46133
587.284	46718
587.323	47525
587.356	48082
587.377	48461
587.427	50162
587.431	50178
587.485	50860
587.499	51410
587.539	53051
587.571	53726
587.593	54068
587.643	56756
587.648	56968
587.702	59870
587.715	60734
587.755	63111
587.786	65216
587.810	66463
587.858	68918
587.864	69185
587.917	73119
587.930	74519
587.971	79259
588.001	83444
588.025	86799
588.073	91925
588.079	92484
588.133	101239
588.145	103369
588.187	111783
588.217	119097
588.241	125811
588.288	141214
588.295	143373
588.348	166078
588.360	172138
588.402	196093
588.431	214383
588.456	229722
588.503	269614
588.510	275448
588.564	338429
588.575	356158
588.617	425836
588.646	487378
588.671	544283
588.718	683781
588.725	707907
588.778	943021
588.789	1004658
588.832	1349838
588.861	1631828
588.886	2041222
588.932	2811761
588.939	2928892
588.993	3555732
589.004	3696518
589.047	3418877
589.075	3092374
589.100	2542339
589.147	1482122
589.154	1397226
589.207	904309
589.218	821290
589.261	715096
589.290	673666
589.314	676331
589.361	716933
589.368	730560
589.421	900101
589.433	950942
589.475	1327635
589.504	1643317
589.528	2103801
589.576	2905267
589.582	2934113
589.635	3029463
589.647	3003402
589.689	1977874
589.718	1277816
589.742	979231
589.790	496074
589.795	474349
589.849	322793
589.861	293250
589.902	249334
589.932	220164
589.955	202358
590.004	164703
590.009	160976
590.062	131941
590.075	125939
590.115	114894
590.146	107148
590.168	102290
590.218	93112
590.222	92297
590.275	86010
590.289	84733
590.328	81565
590.360	79076
590.381	76527
590.431	71164
590.435	70667
590.488	66407
590.503	65355
590.541	63367
590.574	62304
590.594	61257
590.645	59120
590.647	58861
590.700	56006
590.716	55384
590.753	54439
590.787	54016
590.806	53071
590.859	50951
590.859	50787
590.912	49385
590.930	49155
590.965	48513
591.001	48143
591.018	47743
591.071	47077
591.072	47199
591.124	46500
591.143	46416
591.177	45757
591.214	45478
591.230	45484
591.283	45839
591.285	45984
591.336	46901
591.356	47483
591.389	48615
591.427	49935
591.442	49014
591.495	45542
591.498	45416
591.547	41789
591.569	40472
591.600	40531
591.640	40708
591.653	40486
591.706	39980
591.711	40065
591.759	40508
591.782	40928
591.811	42037
591.853	44188
591.864	43966
591.917	42696
591.924	42662
591.969	40048
591.995	38796
592.022	38655
592.066	38803
592.075	38906
592.127	40243
592.137	40697
592.180	44362
592.208	46869
592.233	45949
592.279	43996
592.285	43385
592.338	39559
592.350	38784
592.390	37692
592.421	37136
592.443	37233
592.491	37748
592.495	37626
592.548	37424
592.562	37484
592.600	37481
592.633	37670
592.653	37509
592.704	37182
592.705	37408
592.775	38309
592.846	38323
592.916	38755
592.987	42387
593.058	44434
593.128	38780
593.199	37106
593.270	36675
593.341	36350
593.411	37616
593.482	40000
593.553	39251
593.623	37812
593.694	38541
593.764	39573
593.835	40221
593.906	38043
593.976	39042
594.047	39722
594.117	42079
594.188	47122
594.258	43718
594.329	40663
594.399	40628
594.470	39738
594.540	40855
594.611	42397
594.681	42638
594.751	42627
594.822	45616
594.892	51226
594.963	50759
595.033	47949
595.103	48452
595.174	49416
595.244	54830
595.314	69060
595.384	63716
595.455	50214
595.525	50818
595.595	52227
595.665	52963
595.736	51906
595.806	53283
595.876	52702
595.946	52895
596.016	52596
596.087	54655
596.157	56031
596.227	55451
596.297	56004
596.367	60092
596.437	64030
596.507	68469
596.577	78691
596.647	76163
596.717	65497
596.787	67456
596.857	68706
596.927	67535
596.997	67970
597.067	68659
597.137	70987
597.207	71628
597.277	70708
597.347	70337
597.417	67141
597.487	66688
597.557	68447
597.626	70332
597.696	73212
597.766	74072
597.836	79481
597.906	80034
597.975	64481
598.045	62172
598.115	63781
598.185	66590
598.254	70846
598.324	80002
598.394	84977
598.464	86731
598.533	83972
598.603	78548
598.672	73704
598.742	76283
598.812	74113
598.881	75049
598.951	75035
599.020	73833
599.090	75324
599.159	78880
599.229	77100
599.299	74890
599.368	73861
599.437	76187
599.507	72307
599.576	70040
599.646	67935
599.715	66764
599.785	66154
599.854	66222
599.924	66647
599.993	68598
600.062	64868
600.132	66264
600.201	66251
600.270	74520
600.340	83507
600.409	81940
600.478	81146
600.547	80615
600.617	81593
600.686	69690
600.755	60657
600.824	60277
600.894	58545
600.963	55780
601.032	52573
601.101	52422
601.170	50534
601.239	50304
601.308	50302
601.378	53826
601.447	50311
601.516	49243
601.585	48534
601.654	53802
601.723	56199
601.792	49523
601.861	51987
601.930	54356
601.999	59744
602.068	59891
602.137	58285
602.206	64051
602.275	59034
602.343	59703
602.412	68945
602.481	63410
602.550	56218
602.619	56754
602.688	59768
602.756	60054
602.825	57890
602.894	58943
602.963	60653
603.032	61150
603.100	62254
603.169	60842
603.238	61424
603.307	61312
603.375	62509
603.444	61716
603.513	64577
603.581	65381
603.650	64645
603.719	66406
603.787	66311
603.856	67091
603.924	68948
603.993	72713
604.061	71859
604.130	76236
604.198	78700
604.267	79791
604.335	79220
604.404	81478
604.472	82671
604.541	81911
604.609	84493
604.678	83336
604.746	84504
604.815	85649
604.883	87311
604.951	88589
605.020	88567
605.088	90849
605.156	90773
605.225	94752
605.293	94794
605.361	94825
605.429	95450
605.498	97919
605.566	100530
605.634	104533
605.702	106197
605.771	109697
605.839	111650
605.907	110941
605.975	107580
606.043	104300
606.111	103443
606.180	102204
606.248	101415
606.316	102065
606.384	101437
606.452	104554
606.520	112456
606.588	118869
606.656	108400
606.724	107878
606.792	104165
606.860	97187
606.928	86314
606.996	79784
607.064	77553
607.132	78162
607.200	80830
607.267	86758
607.335	86649
607.403	90359
607.471	89649
607.539	86557
607.607	85820
607.674	82337
607.742	76737
607.810	78455
607.878	79481
607.946	77980
608.013	78299
608.081	81215
608.149	84278
608.216	83031
608.284	87908
608.352	87320
608.419	88630
608.487	88804
608.555	92132
608.622	86015
608.690	86276
608.757	94476
608.825	103315
608.893	103554
608.960	102299
609.028	100755
609.095	99889
609.163	99741
609.230	88380
609.298	79778
609.365	76370
609.432	80934
609.500	85900
609.567	96375
609.635	109572
609.702	123025
609.769	125311
609.837	117389
609.904	90495
609.971	86923
610.039	93892
610.106	111416
610.173	174602
610.241	406025
610.308	743970
610.375	333565
610.442	151723
610.509	96901
610.577	88591
610.644	85913
610.711	87415
610.778	89080
610.845	91667
610.912	95365
610.980	102368
611.047	103914
611.114	103964
611.181	101246
611.248	97808
611.315	98036
611.382	103550
611.449	103561
611.516	108475
611.583	110896
611.650	108489
611.717	111728
611.784	112556
611.851	119204
611.918	128290
611.984	146912
612.051	190424
612.118	321697
612.185	798004
612.252	1640986
612.319	453980
612.386	165121
612.452	146216
612.519	132246
612.586	128391
612.653	131961
612.719	127574
612.786	130619
612.853	121660
612.919	111802
612.986	112561
613.053	109101
613.120	105040
613.186	98436
613.253	96290
613.319	97232
613.386	98952
613.453	99289
613.519	102390
613.586	107228
613.652	120002
613.719	126357
613.785	120751
613.852	107674
613.918	100936
613.985	100755
614.051	105820
614.118	118078
614.184	141602
614.250	113727
614.317	102375
614.383	100791
614.449	101182
614.516	101468
614.582	103324
614.648	103572
614.715	99887
614.781	100439
614.847	98340
614.914	98874
614.980	97568
615.046	96097
615.112	95731
615.179	100486
615.245	100591
615.311	102915
615.377	106853
615.443	125715
615.509	114120
615.575	111321
615.642	112391
615.708	109584
615.774	118003
615.840	125940
615.906	141175
615.972	166900
616.038	241385
616.104	448023
616.170	971039
616.236	2306900
616.302	885886
616.368	237292
616.434	186177
616.500	140222
616.565	135665
616.631	163651
616.697	179272
616.763	144593
616.829	171879
616.895	298749
616.961	484659
617.026	314969
617.092	134390
617.158	108759
617.224	105478
617.289	101172
617.355	94129
617.421	90048
617.487	90297
617.552	87465
617.618	82455
617.684	83790
617.749	85111
617.815	81754
617.880	78643
617.946	78391
618.012	79329
618.077	81337
618.143	81046
618.208	77577
618.274	80384
618.339	86578
618.405	82092
618.470	70369
618.536	70365
618.601	71721
618.667	70741
618.732	65969
618.798	63800
618.863	62227
618.928	62229
618.994	62223
619.059	64937
619.124	73202
619.190	83720
619.255	64082
619.320	61861
619.386	61077
619.451	60509
619.516	60971
619.581	58269
619.647	60579
619.712	61267
619.777	60495
619.842	58213
619.907	58680
619.972	60551
620.038	63184
620.103	60390
620.168	57741
620.233	57543
620.298	58983
620.363	59302
620.428	60792
620.493	60736
620.558	64200
620.623	62615
620.688	63164
620.753	63271
620.818	63878
620.883	65165
620.948	64995
621.013	64858
621.078	64561
621.143	63374
621.207	67261
621.272	66518
621.337	66642
621.402	65960
621.467	66412
621.532	73516
621.596	68489
621.661	66155
621.726	60774
621.791	60509
621.855	62970
621.920	65369
621.985	64605
622.049	67759
622.114	69185
622.179	67099
622.243	65074
622.308	67931
622.373	69397
622.437	69266
622.502	66849
622.566	64513
622.631	63378
622.695	65979
622.760	64739
622.824	65543
622.889	65065
622.953	69046
623.018	74892
623.082	100981
623.147	81163
623.211	70112
623.276	69156
623.340	68683
623.404	62503
623.469	60591
623.533	62345
623.597	62292
623.662	60342
623.726	61266
623.790	56833
623.854	53494
623.919	53215
623.983	53692
624.047	55917
624.111	56864
624.176	56535
624.240	58119
624.304	63097
624.368	61921
624.432	58218
624.496	56450
624.560	60458
624.625	69818
624.689	69076
624.753	61744
624.817	63216
624.881	59415
624.945	57975
625.009	51957
625.073	53316
625.137	55225
625.201	61786
625.265	72614
625.329	61360
625.393	56235
625.456	60146
625.520	57551
625.584	59812
625.648	66286
625.712	71278
625.776	93532
625.839	142684
625.903	129057
625.967	60114
626.031	56318
626.095	78867
626.158	89896
626.222	53457
626.286	42109
626.349	41218
626.413	39079
626.477	38472
626.540	39748
626.604	37710
626.668	37400
626.731	36474
626.795	36211
626.858	37537
626.922	37029
626.986	35906
627.049	35976
627.113	35628
627.176	37612
627.240	35029
627.303	34153
627.366	35783
627.430	35850
627.493	36287
627.557	35392
627.620	35638
627.684	35146
627.747	37449
627.810	37396
627.874	34160
627.937	31462
628.000	31820
628.064	33374
628.127	31035
628.190	29057
628.253	28188
628.317	27695
628.380	27358
628.443	26535
628.506	26282
628.569	26668
628.632	24288
628.696	23737
628.759	23642
628.822	22905
628.885	22709
628.948	22755
629.011	23475
629.074	23319
629.137	22864
629.200	21724
629.263	22341
629.326	22389
629.389	21253
629.452	20974
629.515	21486
629.578	20893
629.641	22213
629.704	22844
629.767	21928
629.830	21229
629.892	20628
629.955	20174
630.018	21776
630.081	22575
630.144	28863
630.207	29357
630.269	24291
630.332	21889
630.395	23111
630.458	19746
630.520	18132
630.583	19581
630.646	18415
630.708	18597
630.771	18946
630.834	20033
630.896	19412
630.959	18998
631.021	18586
631.084	19476
631.146	19224
631.209	20614
631.272	21287
631.334	20008
631.397	19190
631.459	20919
631.522	20830
631.584	21925
631.646	22885
631.709	23154
631.771	28475
631.834	31097
631.896	24898
631.958	21694
632.021	20244
632.083	19911
632.145	19414
632.208	18976
632.270	20370
632.332	18410
632.395	17072
632.457	18754
632.519	17949
632.581	17286
632.643	17700
632.706	17450
632.768	17861
632.830	17100
632.892	17127
632.954	17379
633.016	18115
633.078	17858
633.141	18629
633.203	17426
633.265	17905
633.327	17567
633.389	17778
633.451	18843
633.513	21043
633.575	24412
633.637	22212
633.698	25482
633.760	21637
633.822	19092
633.884	19572
633.946	20584
634.008	21239
634.070	21083
634.132	21980
634.193	24170
634.255	26316
634.317	28098
634.379	28588
634.441	28213
634.502	26205
634.564	26347
634.626	26430
634.687	34770
634.749	33981
634.811	21526
634.873	17577
634.934	17576
634.996	17298
635.057	16929
635.119	17680
635.181	16862
635.242	17755
635.304	17429
635.365	18088
635.427	18073
635.488	19229
635.550	19293
635.611	17048
635.673	16648
635.734	18899
635.796	19891
635.857	21496
635.918	23437
635.980	24942
636.041	26073
636.102	28937
636.164	30444
636.225	30830
636.286	29475
636.348	25345
636.409	21390
636.470	19739
636.531	18012
636.593	18595
636.654	19537
636.715	17239
636.776	15350
636.838	15703
636.899	14839
636.960	16620
637.021	17533
637.082	19497
637.143	23583
637.204	18269
637.265	13946
637.326	14024
637.387	13159
637.448	14663
637.509	13930
637.570	14564
637.631	14392
637.692	13114
637.753	13068
637.814	12789
637.875	13381
637.936	12988
637.997	13366
638.058	13520
638.119	13923
638.179	14391
638.240	12932
638.301	12691
638.362	12722
638.423	13211
638.483	12245
638.544	11961
638.605	11619
638.666	11644
638.726	11788
638.787	12216
638.848	10708
638.908	12402
638.969	11665
639.030	11463
639.090	11796
639.151	11584
639.211	12715
639.272	14735
639.332	19737
639.393	28886
639.453	14267
639.514	15170
639.574	13808
639.635	11175
639.695	11237
639.756	11014
639.816	12256
639.877	13518
639.937	18106
639.997	31860
640.058	30085
640.118	13412
640.178	11124
640.239	11551
640.299	10901
640.359	10522
640.420	11792
640.480	12324
640.540	13434
640.600	16322
640.661	15767
640.721	13868
640.781	15542
640.841	16894
640.901	13100
640.961	12033
641.021	12597
641.082	14709
641.142	18179
641.202	22402
641.262	12196
641.322	11251
641.382	11225
641.442	10569
641.502	10112
641.562	10891
641.622	10173
641.682	10963
641.742	12767
641.802	14482
641.861	11900
641.921	12001
641.981	13639
642.041	13583
642.101	14014
642.161	17342
642.221	11266
642.280	9818
642.340	9121
642.400	10376
642.460	10392
642.519	10240
642.579	10421
642.639	10393
642.698	10429
642.758	11030
642.818	10665
642.877	10731
642.937	10830
642.997	11818
643.056	14854
643.116	19592
643.175	12637
643.235	11115
643.294	11621
643.354	12350
643.414	13263
643.473	15366
643.532	19357
643.592	27443
643.651	42617
643.711	71817
643.770	135626
643.830	273398
643.889	736319
643.948	1154186
644.008	153685
644.067	36302
644.126	25042
644.186	19933
644.245	16434
644.304	13648
644.363	12707
644.423	11571
644.482	11683
644.541	11662
644.600	12279
644.659	14162
644.719	17000
644.778	22496
644.837	33899
644.896	61847
644.955	133859
645.014	244169
645.073	51457
645.132	17382
645.191	13944
645.250	13193
645.309	12665
645.368	13174
645.427	15068
645.486	19135
645.545	34120
645.604	43615
645.663	14700
645.722	13222
645.781	13837
645.840	14840
645.898	18302
645.957	24226
646.016	37112
646.075	64920
646.134	118325
646.192	230182
646.251	695817
646.310	680075
646.369	68922
646.427	26520
646.486	21085
646.545	16915
646.603	13315
646.662	11623
646.721	10829
646.779	10333
646.838	10534
646.896	12354
646.955	15565
647.014	21865
647.072	34342
647.131	68707
647.189	165286
647.248	50614
647.306	12746
647.365	10075
647.423	9293
647.481	9061
647.540	7949
647.598	8937
647.657	8332
647.715	8562
647.773	8162
647.832	7798
647.890	7981
647.948	8391
648.007	8094
648.065	8159
648.123	8381
648.181	9560
648.240	8826
648.298	9810
648.356	8710
648.414	9779
648.472	10133
648.531	10065
648.589	9477
648.647	9494
648.705	8905
648.763	8884
648.821	9728
648.879	9707
648.937	9915
648.995	11272
649.053	14087
649.111	18735
649.169	30475
649.227	48526
649.285	89764
649.343	192161
649.401	502882
649.459	154563
649.516	51183
649.574	26496
649.632	18256
649.690	26556
649.748	25231
649.806	18670
649.863	26646
649.921	45414
649.979	118466
650.037	53218
650.094	9976
650.152	7887
650.210	8249
650.268	7121
650.325	7242
650.383	6713
650.440	6909
650.498	6466
650.556	6273
650.613	5771
650.671	5422
650.728	5978
650.786	6290
650.843	6627
650.901	7957
650.958	6008
651.016	5393
651.073	5333
651.131	4738
651.188	4402
651.246	4862
651.303	4887
651.360	5484
651.418	5062
651.475	5437
651.532	5274
651.590	4949
651.647	4147
651.704	4692
651.762	4769
651.819	5038
651.876	5935
651.933	5348
651.990	4634
652.048	4903
652.105	4316
652.162	4365
652.219	4795
652.276	3928
652.333	4335
652.390	3792
652.448	5336
652.505	3619
652.562	4896
652.619	5372
652.676	3903
652.733	5342
652.790	5089
652.847	4399
652.904	4253
652.961	4168
653.017	4513
653.074	4563
653.131	4050
653.188	4855
653.245	4065
653.302	4008
653.359	4703
653.415	5175
653.472	3849
653.529	4548
653.586	4699
653.642	3903
653.699	4645
653.756	4096
653.813	4557
653.869	4956
653.926	4339
653.983	4588
654.039	4816
654.096	4528
654.152	4486
654.209	4671
654.266	5555
654.322	4816
654.379	5349
654.435	5268
654.492	5869
654.548	6738
654.605	10093
654.661	13644
654.717	6088
654.774	5577
654.830	5786
654.887	6030
654.943	5796
655.000	6311
655.056	5957
655.112	6259
655.168	6154
655.225	6841
655.281	8005
655.337	7513
655.394	9821
655.450	12899
655.506	11674
655.562	10692
655.618	15815
655.675	12647
655.731	10616
655.787	11145
655.843	13002
655.899	13867
655.955	16461
656.011	18968
656.067	21678
656.123	25742
656.179	29576
656.235	33996
656.291	35896
656.347	34397
656.403	31028
656.459	25498
656.515	22049
656.571	18771
656.627	16497
656.683	13442
656.739	12170
656.795	11011
656.850	11511
656.906	10999
656.962	10527
657.018	8546
657.074	7740
657.129	7323
657.185	8767
657.241	9772
657.297	15948
657.352	10455
657.408	6021
657.464	5790
657.519	6483
657.575	4915
657.630	5707
657.686	4892
657.742	4313
657.797	4695
657.853	4718
657.908	5509
657.964	4754
658.019	4548
658.075	4682
658.130	4957
658.186	4579
658.241	4329
658.297	4642
658.352	3872
658.407	4696
658.463	3830
658.518	3688
658.573	4180
658.629	4884
658.684	4656
658.739	4073
658.795	3008
658.850	3828
658.905	3501
658.960	5017
659.016	3992
659.071	3597
659.126	3898
659.181	4496
659.236	5398
659.291	9540
659.346	9273
659.401	5186
659.457	4879
659.512	4276
659.567	4917
659.622	4456
659.677	4312
659.732	2749
659.787	4016
659.842	4427
659.897	5294
659.952	6470
660.007	3606
660.061	4125
660.116	3644
660.171	3474
660.226	3240
660.281	4795
660.336	3887
660.391	3763
660.445	3901
660.500	3465
660.555	3553
660.610	3761
660.664	4025
660.719	2890
660.774	3381
660.828	4246
660.883	3850
660.938	4125
660.992	2992
661.047	3628
661.101	3499
661.156	3951
661.211	2997
661.265	3284
661.320	2796
661.374	4173
661.429	3527
661.483	3348
661.538	3063
661.592	3762
661.647	3668
661.701	3915
661.755	3730
661.810	3859
661.864	3480
661.919	3338
661.973	3514
662.027	3322
662.081	3028
662.136	2481
662.190	3008
662.244	3823
662.299	4148
662.353	3948
662.407	3919
662.461	3546
662.515	3915
662.569	3391
662.624	4113
662.678	4463
662.732	3500
662.786	4130
662.840	3838
662.894	4429
662.948	3510
663.002	3634
663.056	3257
663.110	3209
663.164	2961
663.218	3925
663.272	3120
663.326	5006
663.380	5246
663.434	5382
663.488	4335
663.542	4315
663.595	4454
663.649	3575
663.703	4917
663.757	4637
663.811	3277
663.864	3987
663.918	4317
663.972	4102
664.026	4055
664.079	4474
664.133	4070
664.187	4133
664.240	3294
664.294	3992
664.348	4075
664.401	4301
664.455	4565
664.508	4164
664.562	3891
664.615	4805
664.669	4651
664.722	5026
664.776	4246
664.829	4213
664.883	5048
664.936	4264
664.990	4470
665.043	4809
665.097	4230
665.150	5660
665.203	5348
665.257	4780
665.310	4754
665.363	4737
665.417	4998
665.470	6257
665.523	5684
665.576	4582
665.630	5193
665.683	5100
665.736	5586
665.789	5359
665.842	4983
665.895	4574
665.949	4739
666.002	4569
666.055	4974
666.108	5315
666.161	6013
666.214	5532
666.267	5766
666.320	5597
666.373	6685
666.426	5333
666.479	3902
666.532	5296
666.585	4652
666.638	6108
666.691	7111
666.744	6245
666.796	6264
666.849	6629
666.902	6192
666.955	5253
667.008	4989
667.060	3883
667.113	4544
667.166	4275
667.219	4798
667.271	4707
667.324	4566
667.377	4505
667.430	5209
667.482	4075
667.535	5041
667.587	5350
667.640	5521
667.693	5394
667.745	7503
667.798	12823
667.850	12725
667.903	6150
667.955	5538
668.008	5539
668.060	5139
668.113	5646
668.165	5554
668.218	5316
668.270	5741
668.322	6015
668.375	5097
668.427	5418
668.479	4855
668.532	5662
668.584	4898
668.636	5874
668.689	5902
668.741	5066
668.793	5088
668.845	4946
668.898	5409
668.950	5287
669.002	5289
669.054	5910
669.106	5669
669.158	6211
669.211	5993
669.263	5493
669.315	5543
669.367	6428
669.419	6247
669.471	7256
669.523	7467
669.575	8156
669.627	8958
669.679	8346
669.731	5818
669.783	6994
669.835	6600
669.886	7515
669.938	7656
669.990	6759
670.042	6603
670.094	7616
670.146	7283
670.197	8524
670.249	9664
670.301	11347
670.353	14381
670.404	18477
670.456	26176
670.508	38418
670.560	58432
670.611	96098
670.663	157635
670.715	276140
670.766	674434
670.818	1130102
670.869	408800
670.921	72331
670.972	36034
671.024	25440
671.075	18862
671.127	14160
671.178	12460
671.230	10867
671.281	10860
671.333	10430
671.384	9892
671.436	10021
671.487	11631
671.538	12876
671.590	14733
671.641	19678
671.692	27437
671.744	47489
671.795	94581
671.846	63613
671.897	22456
671.949	12940
672.000	11380
672.051	9090
672.102	7986
672.153	7753
672.204	7277
672.256	7237
672.307	7484
672.358	8042
672.409	7340
672.460	7415
672.511	7257
672.562	6656
672.613	7037
672.664	7507
672.715	6622
672.766	7674
672.817	6615
672.868	6277
672.919	6325
672.970	5987
673.021	5613
673.071	6378
673.122	5953
673.173	6999
673.224	6008
673.275	6014
673.326	6237
673.376	6112
673.427	5567
673.478	5796
673.528	6443
673.579	5458
673.630	6017
673.680	5623
673.731	6152
673.782	6027
673.832	6142
673.883	5250
673.934	6160
673.984	6346
674.035	4791
674.085	6049
674.136	5094
674.186	5918
674.237	6204
674.287	7277
674.338	10916
674.388	7344
674.438	5940
674.489	6533
674.539	6215
674.589	6740
674.640	7295
674.690	6334
674.740	6237
674.791	6419
674.841	7038
674.891	7355
674.942	6127
674.992	6075
675.042	6391
675.092	6131
675.142	6215
675.193	5540
675.243	5518
675.293	6142
675.343	5683
675.393	6584
675.443	6620
675.493	6139
675.543	5215
675.593	4958
675.643	6853
675.693	5251
675.743	5668
675.793	5596
675.843	4751
675.893	5301
675.943	5952
675.993	5365
676.043	5972
676.093	5720
676.142	5108
676.192	5583
676.242	5456
676.292	5214
676.341	5253
676.391	5190
676.441	5911
676.491	5309
676.540	4446
676.590	5641
676.640	4881
676.689	4903
676.739	4948
676.789	4769
676.838	4658
676.888	4100
676.937	4254
676.987	4264
677.037	4508
677.086	5109
677.136	4645
677.185	5225
677.235	4951
677.284	4908
677.333	4090
677.383	4957
677.432	4826
677.482	4527
677.531	4125
677.580	4835
677.630	5246
677.679	4709
677.728	3814
677.778	4948
677.827	4293
677.876	4937
677.925	4529
677.975	4895
678.024	4693
678.073	4979
678.122	4458
678.171	4746
678.220	5961
678.269	4728
678.319	5650
678.368	6022
678.417	6557
678.466	6127
678.515	5878
678.564	5890
678.613	5162
678.662	5198
678.711	4649
678.760	6095
678.809	4799
678.857	4881
678.906	4738
678.955	5362
679.004	5441
679.053	4931
679.102	4572
679.151	5409
679.199	5577
679.248	5220
679.297	4146
679.346	4623
679.394	5166
679.443	5362
679.492	5043
679.540	4826
679.589	4984
679.638	5794
679.686	5105
679.735	4799
679.784	4771
679.832	5456
679.881	5713
679.929	4533
679.978	4237
680.026	5066
680.075	4474
680.123	4996
680.172	4202
680.220	5235
680.268	3986
680.317	5789
680.365	4055
680.414	4219
680.462	4658
680.510	4639
680.559	4578
680.607	4137
680.655	3806
680.703	4268
680.752	4113
680.800	4644
680.848	3807
680.896	4592
680.945	3910
680.993	4449
681.041	4921
681.089	4468
681.137	4867
681.185	3836
681.233	3822
681.258	4229
681.281	4585
681.329	4179
681.377	4536
681.380	4553
681.425	4334
681.473	4328
681.502	4498
681.521	4564
681.569	4798
681.617	5119
681.624	5163
681.665	5234
681.713	4138
681.745	4925
681.761	5255
681.809	4823
681.857	5958
681.867	5784
681.904	5083
681.952	6142
681.989	5437
682.000	5193
682.048	5840
682.096	5720
682.111	5657
682.143	5423
682.191	4836
682.233	5149
682.239	5160
682.286	4987
682.334	4990
682.354	5154
682.382	5342
682.430	4944
682.476	5387
682.477	5371
682.525	5674
682.572	4701
682.598	5317
682.620	5800
682.667	5758
682.715	5468
682.720	5571
682.763	6336
682.810	6883
682.841	6492
682.857	6282
682.905	6048
682.952	6516
682.963	6537
683.000	6304
683.047	6354
683.085	6271
683.095	6237
683.142	6244
683.190	6202
683.206	6168
683.237	6012
683.284	6609
683.328	6197
683.332	6148
683.379	6310
683.426	6587
683.449	6579
683.473	6540
683.521	6810
683.568	6276
683.571	6389
683.615	7571
683.662	6818
683.693	7149
683.709	7262
683.757	6448
683.804	6742
683.814	6670
683.851	6483
683.898	7561
683.936	7349
683.945	7256
683.992	7286
684.039	6979
684.057	7125
684.086	7438
684.133	8522
684.179	7573
684.180	7517
684.227	8375
684.274	9031
684.300	9305
684.321	9349
684.368	8374
684.415	8812
684.422	8756
684.462	8440
684.509	8792
684.543	8318
684.556	8038
684.603	8351
684.649	7389
684.665	7345
684.696	7516
684.743	7508
684.786	7964
684.790	7985
684.837	7773
684.883	8330
684.908	8209
684.930	8130
684.977	8896
685.023	9671
685.029	9702
685.070	9670
685.117	9050
685.150	9360
685.164	9394
685.210	9674
685.257	8959
685.272	9114
685.303	9715
685.350	9332
685.393	9573
685.396	9568
685.443	9855
685.490	10467
685.514	10747
685.536	11253
685.583	11224
685.629	11946
685.636	11997
685.675	11098
685.722	11020
685.757	10236
685.768	10107
685.815	10762
685.861	10741
685.878	10701
685.908	10639
685.954	10329
686.000	10807
686.000	10805
686.047	10931
686.093	10766
686.121	11443
686.139	12212
686.185	12702
686.232	13074
686.242	13099
686.278	12111
686.324	11784
686.363	11240
686.370	11160
686.416	10064
686.463	9967
686.484	10028
686.509	10286
686.555	10567
686.601	10087
686.606	10089
686.647	10065
686.693	10027
686.727	9844
686.739	9814
686.785	9687
686.831	10529
686.848	10423
686.877	10177
686.923	10302
686.969	9915
686.969	9910
687.015	9911
687.061	9594
687.090	9841
687.107	10115
687.153	10101
687.199	10368
687.211	10464
687.245	10622
687.291	9688
687.332	9881
687.336	9909
687.382	11255
687.428	11015
687.453	11051
687.474	11082
687.520	10919
687.565	11014
687.574	11015
687.611	10670
687.657	10309
687.695	10243
687.702	10314
687.748	10514
687.794	10865
687.816	11106
687.839	11402
687.885	11070
687.931	11424
687.937	11430
687.976	10861
688.022	10604
688.058	10252
688.067	10317
688.113	10484
688.158	11102
688.179	11295
688.204	11416
688.249	11160
688.295	11629
688.300	11625
688.340	11399
688.386	11830
688.421	11278
688.431	11255
688.477	11107
688.522	11896
688.542	11960
688.567	11953
688.613	12465
688.658	12728
688.663	12718
688.703	12348
688.749	11969
688.784	11860
688.794	11880
688.839	12463
688.884	11743
688.905	12052
688.930	12365
688.975	11893
689.020	11128
689.026	11161
689.065	11613
689.110	11507
689.146	11146
689.155	11066
689.201	11623
689.246	11677
689.267	11372
689.291	11119
689.336	11521
689.381	11405
689.388	11471
689.426	11791
689.471	11764
689.509	11780
689.516	11840
689.561	11946
689.606	12093
689.630	12264
689.651	12185
689.696	11848
689.741	11448
689.750	11484
689.785	11993
689.830	11992
689.871	11918
689.875	11903
689.920	12158
689.965	11924
689.992	11809
690.010	11781
690.054	11173
690.099	11333
690.112	11426
690.144	11879
690.189	11909
690.233	11959
690.233	11973
690.278	12001
690.323	12221
690.354	12341
690.367	12363
690.412	11896
690.457	12104
690.474	11967
690.501	11934
690.546	12147
690.590	12191
690.595	12119
690.635	11607
690.680	12272
690.716	12017
690.724	11991
690.769	12307
690.813	12623
690.836	12608
690.857	12629
690.902	12784
690.946	12789
690.957	12837
690.991	13030
691.035	12975
691.077	13218
691.080	13310
691.124	14352
691.168	15575
691.198	16302
691.213	16236
691.257	16123
691.301	16010
691.318	15962
691.346	15919
691.390	15722
691.434	15420
691.439	15333
691.478	14279
691.522	13361
691.559	12854
691.567	13003
691.611	13565
691.655	14090
691.680	14358
691.699	14533
691.743	14753
691.787	15140
691.800	15113
691.831	14629
691.875	14567
691.919	14211
691.921	14179
691.964	14273
692.008	14151
692.041	14174
692.052	14314
692.096	14690
692.139	15395
692.162	15546
692.183	15353
692.227	14796
692.271	14285
692.282	14197
692.315	14357
692.359	14315
692.402	14412
692.403	14437
692.447	14160
692.490	14625
692.523	14300
692.534	14273
692.578	14843
692.622	14662
692.643	14817
692.666	14953
692.709	14856
692.753	14891
692.763	14941
692.797	14930
692.840	14393
692.884	14027
692.884	14053
692.928	14117
692.971	14194
693.004	14139
693.015	14151
693.059	14266
693.102	14506
693.124	14460
693.146	14469
693.189	14698
693.233	14798
693.245	14860
693.276	15246
693.320	15417
693.363	15476
693.365	15450
693.407	15440
693.450	15840
693.485	15974
693.493	16006
693.537	15566
693.580	15600
693.605	15575
693.624	15765
693.667	16295
693.710	16570
693.725	16490
693.753	16305
693.797	16555
693.840	16686
693.845	16691
693.883	18898
693.926	21158
693.966	22980
693.970	22910
694.013	21945
694.056	20874
694.086	20072
694.099	19670
694.142	18310
694.185	17105
694.206	16410
694.229	16495
694.272	16587
694.315	16724
694.326	16724
694.358	16939
694.401	17447
694.444	17730
694.446	17705
694.487	18026
694.530	18303
694.566	18565
694.573	18579
694.616	18311
694.659	18278
694.686	18069
694.702	17674
694.745	16432
694.787	15200
694.806	14752
694.830	14791
694.873	14688
694.916	14519
694.926	14415
694.959	14451
695.002	14589
695.044	14615
695.046	14600
695.087	15154
695.130	15313
695.166	15482
695.172	15570
695.215	15898
695.258	16312
695.286	16474
695.301	16404
695.343	16097
695.386	15895
695.406	15665
695.428	15620
695.471	15825
695.514	15696
695.526	15640
695.556	15565
695.599	15607
695.641	15460
695.646	15424
695.684	15604
695.726	15632
695.766	15628
695.769	15674
695.811	15846
695.854	16027
695.886	16159
695.896	16208
695.938	16107
695.981	16192
696.005	16172
696.023	16077
696.065	15729
696.108	15417
696.125	15181
696.150	15388
696.192	15970
696.235	16357
696.245	16408
696.277	16557
696.319	16778
696.361	17048
696.365	17014
696.404	16732
696.446	16552
696.485	16296
696.488	16326
696.530	16379
696.572	16192
696.604	16090
696.614	16156
696.656	16265
696.698	16285
696.724	16302
696.740	16341
696.783	16252
696.825	16298
696.844	16281
696.867	16319
696.909	16259
696.951	16244
696.964	16213
696.992	16396
697.034	16506
697.076	16561
697.083	16547
697.118	16565
697.160	16509
697.202	16498
697.203	16455
697.244	16605
697.286	16738
697.323	16900
697.327	16961
697.369	17041
697.411	17115
697.442	17142
697.453	17193
697.494	17250
697.536	17375
697.562	17361
697.578	17638
697.620	18224
697.661	18806
697.682	19071
697.703	19080
697.744	18970
697.786	18921
697.801	18830
697.828	19564
697.869	20727
697.911	21833
697.921	22051
697.952	22023
697.994	21875
698.035	21806
698.040	21728
698.077	20504
698.118	19187
698.160	17787
698.160	17734
698.201	17819
698.243	17844
698.279	17841
698.284	17908
698.325	18092
698.367	18296
698.399	18398
698.408	18457
698.449	18536
698.491	18549
698.518	18536
698.532	18559
698.573	18472
698.614	18418
698.638	18323
698.656	18427
698.697	18570
698.738	18708
698.757	18726
698.779	18858
698.820	19017
698.862	19175
698.877	19185
698.903	19413
698.944	19698
698.985	19982
698.996	20010
699.026	20295
699.067	20621
699.116	20958
699.235	19744
699.354	18012
699.474	18654
699.593	19549
699.713	22139
699.832	20760
699.951	19009
700.070	22371
700.190	19846
700.309	19925
700.428	19287
700.547	22800
700.667	19471
700.786	19805
700.905	21061
701.024	18401
701.143	20200
701.262	18800
701.381	17131
701.500	17079
701.619	19173
701.738	22454
701.857	18232
701.976	16727
702.095	17145
702.214	16873
702.333	20480
702.452	21090
702.571	18403
702.690	17412
702.809	16783
702.928	17796
703.047	16503
703.165	16976
703.284	16259
703.403	16058
703.522	16386
703.640	19488
703.759	18630
703.878	22479
703.997	28677
704.115	17895
704.234	16150
704.353	16019
704.471	15582
704.590	15270
704.708	14464
704.827	14585
704.946	14228
705.064	15381
705.183	17165
705.301	15222
705.420	17180
705.538	21443
705.656	19434
705.775	17941
705.893	16326
706.012	19803
706.130	22101
706.249	17265
706.367	17969
706.485	18079
706.604	18286
706.722	18699
706.840	19774
706.958	25414
707.077	20852
707.195	17632
707.313	16530
707.431	16845
707.549	15225
707.668	15507
707.786	15643
707.904	16378
708.022	15718
708.140	15796
708.258	15031
708.376	15387
708.494	17082
708.612	15413
708.730	17425
708.848	22833
708.966	21903
709.084	22056
709.202	20430
709.320	18610
709.438	18898
709.556	18258
709.674	18758
709.791	17808
709.909	17397
710.027	17819
710.145	17530
710.263	18431
710.380	17785
710.498	18449
710.616	17402
710.733	17017
710.851	18540
710.969	18629
711.086	19337
711.204	17560
711.322	17669
711.439	17695
711.557	18231
711.674	19619
711.792	17622
711.909	18739
712.027	16029
712.144	16954
712.262	15865
712.379	16442
712.497	19120
712.614	24573
712.732	23183
712.849	20322
712.966	19771
713.084	23181
713.201	30530
713.318	22018
713.436	21996
713.553	19861
713.670	21307
713.787	22240
713.905	24195
714.022	24382
714.139	21050
714.256	21132
714.373	26072
714.490	33622
714.608	56731
714.725	138088
714.842	635101
714.959	670141
715.076	50435
715.193	26528
715.310	20950
715.427	21570
715.544	19107
715.661	20652
715.778	19947
715.895	18821
716.011	19132
716.128	20735
716.245	18628
716.362	20524
716.479	24831
716.596	26609
716.713	18097
716.829	17997
716.946	17905
717.063	16932
717.180	15730
717.296	16188
717.413	15674
717.530	16490
717.646	16946
717.763	16719
717.880	16730
717.996	14995
718.113	16152
718.229	17352
718.346	15678
718.462	15794
718.579	17123
718.695	23920
718.812	48056
718.928	31030
719.045	24327
719.161	17605
719.277	14820
719.394	14960
719.510	15249
719.626	14659
719.743	16320
719.859	20085
719.975	24257
720.092	42480
720.208	160445
720.324	384811
720.440	47865
720.557	19653
720.673	20288
720.789	35372
720.905	41254
721.021	73990
721.137	26776
721.253	14898
721.369	14623
721.486	14455
721.602	17282
721.718	23797
721.834	13571
721.950	11937
722.066	14571
722.181	13637
722.297	12527
722.413	13920
722.529	12707
722.645	13072
722.761	11857
722.877	12354
722.993	12464
723.108	12214
723.224	15024
723.340	13207
723.456	13290
723.571	13036
723.687	12321
723.803	11726
723.918	10926
724.034	12559
724.150	12901
724.265	11322
724.381	12673
724.497	26391
724.612	35515
724.728	11740
724.843	11047
724.959	11585
725.074	13799
725.190	26639
725.305	32270
725.421	12299
725.536	12479
725.651	10987
725.767	9965
725.882	11255
725.997	10005
726.113	10904
726.228	10769
726.343	9990
726.459	9715
726.574	9984
726.689	10078
726.804	8982
726.920	10027
727.035	10814
727.150	10244
727.265	10021
727.380	10473
727.495	11448
727.610	11262
727.725	10092
727.841	9946
727.956	9762
728.071	11955
728.186	12345
728.301	9223
728.416	9830
728.531	10683
728.645	10089
728.760	9573
728.875	12783
728.990	15364
729.105	14169
729.220	12479
729.335	12801
729.449	12676
729.564	9990
729.679	8903
729.794	8244
729.908	8620
730.023	10454
730.138	9588
730.253	7475
730.367	8599
730.482	8800
730.596	7818
730.711	9389
730.826	9910
730.940	9471
731.055	8585
731.169	9146
731.284	9394
731.398	8856
731.513	7946
731.627	10030
731.742	9959
731.856	10917
731.970	12722
732.085	10573
732.199	11995
732.313	15374
732.428	23909
732.542	58573
732.656	190429
732.771	119221
732.885	19778
732.999	12944
733.113	11096
733.227	11774
733.342	10811
733.456	10761
733.570	9305
733.684	9564
733.798	9072
733.912	9487
734.026	9319
734.140	8446
734.254	8308
734.368	10203
734.482	15483
734.596	20580
734.710	8049
734.824	9056
734.938	8687
735.052	7812
735.166	9110
735.280	10802
735.393	8850
735.507	7661
735.621	8688
735.735	11178
735.849	19448
735.962	11329
736.076	8020
736.190	8443
736.303	9444
736.417	11858
736.531	15302
736.644	8674
736.758	9390
736.872	7302
736.985	7662
737.099	7572
737.212	6165
737.326	7623
737.439	8232
737.553	7715
737.666	7619
737.780	7889
737.893	7365
738.007	7157
738.120	6767
738.233	6552
738.347	7526
738.460	7311
738.573	7761
738.687	8457
738.800	9046
738.913	9168
739.026	13208
739.140	9254
739.253	7053
739.366	6746
739.479	7483
739.592	6788
739.705	6844
739.818	7575
739.932	6849
740.045	7266
740.158	7343
740.271	7591
740.384	8403
740.497	8396
740.610	8617
740.723	10295
740.836	10290
740.949	10634
741.062	11624
741.174	15187
741.287	11042
741.400	8211
741.513	7850
741.626	10216
741.739	11920
741.851	10086
741.964	8856
742.077	8253
742.189	8775
742.302	10918
742.415	21594
742.527	16852
742.640	10429
742.753	8734
742.865	6650
742.978	7065
743.090	6405
743.203	6494
743.316	7071
743.428	6487
743.541	6188
743.653	6091
743.766	6147
743.878	6333
743.990	6666
744.103	10582
744.215	17852
744.327	28520
744.440	11759
744.552	9735
744.664	17974
744.777	9142
744.889	6000
745.001	5797
745.113	5814
745.226	5840
745.338	5373
745.450	4298
745.562	5516
745.674	5374
745.786	4911
745.898	5330
746.010	5071
746.122	5144
746.234	5667
746.347	6071
746.459	5542
746.570	6705
746.682	8082
746.794	16770
746.906	40094
747.018	16609
747.130	6931
747.242	5665
747.354	5612
747.466	5209
747.577	5421
747.689	5642
747.801	5399
747.913	4962
748.024	4465
748.136	4767
748.248	4486
748.359	5110
748.471	4704
748.583	4483
748.694	4454
748.806	4988
748.918	4777
749.029	6746
749.141	5516
749.252	7082
749.364	5746
749.475	7817
749.587	20696
749.698	12543
749.809	4778
749.921	4416
750.032	4149
750.144	4550
750.255	4067
750.366	4297
750.478	4038
750.589	4962
750.700	4795
750.811	5715
750.923	6394
751.034	9025
751.145	23069
751.256	23648
751.367	4883
751.479	4668
751.590	3971
751.701	4165
751.812	4265
751.923	4079
752.034	3717
752.145	4421
752.256	4762
752.367	4406
752.478	4491
752.589	4148
752.700	4236
752.811	3974
752.922	4251
753.032	4149
753.143	6241
753.254	7037
753.365	4387
753.476	4814
753.586	4267
753.697	3254
753.808	3753
753.919	3815
754.029	3298
754.140	4324
754.251	3462
754.361	3086
754.472	3633
754.582	4012
754.693	4994
754.804	4401
754.914	3887
755.025	4502
755.135	3569
755.246	3891
755.356	3358
755.466	3621
755.577	4188
755.687	3694
755.798	3751
755.908	3703
756.018	3291
756.129	4295
756.239	3866
756.349	4278
756.460	4009
756.570	4891
756.680	3886
756.790	4090
756.900	5668
757.011	5972
757.121	4161
757.231	3718
757.341	3716
757.451	4082
757.561	3797
757.671	3158
757.781	3533
757.891	4222
758.001	3458
758.111	4056
758.221	3475
758.331	4265
758.441	6282
758.551	6424
758.661	9638
758.771	9913
758.880	4945
758.990	4871
759.100	4797
759.210	4121
759.320	3866
759.429	4804
759.539	4572
759.649	4896
759.758	4449
759.868	5591
759.978	5318
760.087	5446
760.197	5712
760.307	5445
760.416	5829
760.526	5765
760.635	5448
760.745	5711
760.854	5429
760.964	5601
761.073	6254
761.182	5851
761.292	5586
761.401	5929
761.511	5641
761.620	5464
761.729	3948
761.839	5087
761.948	4666
762.057	4640
762.166	6268
762.276	4483
762.385	4835
762.494	3595
762.603	4282
762.712	4789
762.822	4436
762.931	4827
763.040	4554
763.149	3896
763.258	3587
763.367	4419
763.476	4198
763.585	3696
763.694	3752
763.803	4707
763.912	5421
764.021	4754
764.130	4218
764.238	3958
764.347	3995
764.456	4882
764.565	4770
764.674	3987
764.783	4778
764.891	4989
765.000	4858
765.109	4978
765.217	4876
765.326	5995
765.435	7166
765.543	9388
765.652	7917
765.761	8115
765.869	8981
765.978	13043
766.086	18920
766.195	34125
766.303	69348
766.412	188474
766.520	643790
766.629	650409
766.737	116318
766.846	36480
766.954	22169
767.062	15922
767.171	13105
767.279	11057
767.387	8674
767.496	8402
767.604	7070
767.712	7061
767.820	6031
767.928	6376
768.037	5857
768.145	5937
768.253	6322
768.361	6280
768.469	5422
768.577	5718
768.685	5578
768.793	5660
768.901	5360
769.009	5965
769.117	5765
769.225	6644
769.333	7299
769.441	10490
769.549	15260
769.657	29200
769.765	65335
769.873	227263
769.981	601808
770.088	193803
770.196	30470
770.304	15586
770.412	11065
770.519	9576
770.627	7747
770.735	6207
770.842	6112
770.950	6342
771.058	4771
771.165	6688
771.273	5977
771.380	5819
771.488	4952
771.595	5872
771.703	5305
771.810	5295
771.918	4745
772.025	4575
772.133	5114
772.240	5853
772.348	6137
772.455	6186
772.562	5734
772.670	6062
772.777	5001
772.884	5156
772.991	5072
773.099	5066
773.206	5073
773.313	5393
773.420	5869
773.528	5460
773.635	4316
773.742	5040
773.849	4743
773.956	4951
774.063	5483
774.170	5067
774.277	5094
774.384	5386
774.491	5048
774.598	5508
774.705	5153
774.812	5948
774.919	8044
775.026	5139
775.133	5980
775.239	4808
775.346	5397
775.453	4213
775.560	4748
775.667	4927
775.773	4086
775.880	5105
775.987	5392
776.093	4737
776.200	4982
776.307	5335
776.413	4592
776.520	4758
776.627	4270
776.733	5205
776.840	5698
776.946	7720
777.053	11596
777.159	28066
777.266	76083
777.372	45674
777.478	59519
777.585	53290
777.691	25585
777.798	8127
777.904	6729
778.010	6770
778.117	8980
778.223	9513
778.329	5188
778.435	5109
778.542	4490
778.648	4685
778.754	3834
778.860	4704
778.966	4066
779.072	4291
779.178	4799
779.284	4004
779.391	3376
779.497	4244
779.603	4576
779.708	3620
779.815	4466
779.920	4341
780.026	6954
780.132	12208
780.238	4586
780.344	3037
780.450	3970
780.556	4354
780.661	3785
780.767	4271
780.873	4844
780.979	3861
781.085	3594
781.190	4586
781.296	3476
781.402	3339
781.507	2534
781.613	3014
781.719	2494
781.824	3439
781.930	3667
782.035	4102
782.141	3785
782.246	3703
782.352	3637
782.457	3590
782.563	3248
782.668	3761
782.773	3589
782.879	3614
782.984	3897
783.090	4963
783.195	5591
783.300	9262
783.405	7256
783.511	4574
783.616	4076
783.721	4711
783.826	4723
783.932	3912
784.037	3952
784.142	4641
784.247	3926
784.352	4500
784.457	3697
784.562	3926
784.667	3236
784.772	3685
784.877	3666
784.982	3848
785.087	3886
785.192	3250
785.297	3483
785.402	3214
785.507	3018
785.611	3771
785.716	3676
785.821	3451
785.926	3597
786.031	3093
786.135	3324
786.240	2704
786.345	3212
786.450	2968
786.554	3053
786.659	2862
786.763	2435
786.868	3076
786.973	3649
787.077	2972
787.182	3703
787.286	2962
787.391	2958
787.495	3768
787.600	2380
787.704	2684
787.809	2805
787.913	3286
788.017	2891
788.122	2813
788.226	2927
788.330	2857
788.435	1494
788.539	2069
788.643	2976
788.747	2882
788.852	2678
788.956	2228
789.060	2502
789.164	2713
789.268	2340
789.372	2977
789.476	2806
789.580	3655
789.684	2003
789.788	2887
789.892	2381
789.996	3198
790.100	2938
790.204	3042
790.308	2626
790.412	3552
790.516	2538
790.620	2802
790.724	3492
790.828	3326
790.931	2540
791.035	2672
791.139	2502
791.242	2760
791.346	2289
791.450	3175
791.554	3093
791.657	2085
791.761	3770
791.864	3221
791.968	3635
792.072	3059
792.175	2907
792.279	2813
792.382	3334
792.486	2849
792.589	2587
792.693	3292
792.796	2645
792.899	3206
793.003	2757
793.106	2858
793.209	2813
793.313	3398
793.416	2831
793.519	2866
793.623	3518
793.726	5891
793.829	11260
793.932	4394
794.035	3288
794.138	3500
794.242	3007
794.345	3881
794.448	4397
794.551	6210
794.654	9868
794.757	9750
794.860	7661
794.963	4048
795.066	3855
795.169	3389
795.272	3208
795.375	2323
795.477	2186
795.580	2371
795.683	2180
795.786	2163
795.889	895
795.991	2802
796.094	2329
796.197	2884
796.300	3112
796.402	2208
796.505	2168
796.608	2143
796.710	1610
796.813	1883
796.915	2004
797.018	1465
797.120	2236
797.223	1702
797.326	2544
797.428	1106
797.530	1639
797.633	1424
797.735	2296
797.838	2693
797.940	5466
798.042	5253
798.145	1727
798.247	1674
798.349	1001
798.452	1203
798.554	1791
798.656	471
798.758	1841
798.860	1471
798.962	1857
799.065	1727
799.167	1342
799.269	2175
799.371	2706
799.473	2250
799.575	2816
799.677	3956
799.779	3362
799.881	4042
799.983	8157
800.085	4598
800.187	1589
800.289	2291
800.390	1617
800.492	1830
800.594	2013
800.696	1502
800.798	1314
800.899	1530
801.001	1469
801.103	1266
801.205	1591
801.306	1762
801.408	1174
801.509	1856
801.611	1556
801.713	1982
801.814	1420
801.916	1512
802.017	1253
802.119	1150
802.220	1034
802.322	1432
802.423	2292
802.525	2954
802.626	3484
802.727	2727
802.829	1515
802.930	1715
803.031	2565
803.133	1865
803.234	1280
803.335	960
803.436	1504
803.538	1473
803.639	1459
803.740	1367
803.841	1595
803.942	1052
804.043	1509
804.144	1596
804.245	1646
804.346	1822
804.447	1791
804.548	2059
804.649	4723
804.750	5566
804.851	2033
804.952	1181
805.053	1068
805.154	1625
805.255	693
805.355	1050
805.456	872
805.557	1617
805.658	1040
805.758	1679
805.859	1248
805.960	1147
806.061	779
806.161	1637
806.262	1211
806.362	1011
806.463	1391
806.564	1939
806.664	1060
806.765	2281
806.865	2048
806.966	2657
807.066	1095
807.166	1628
807.267	929
807.367	1074
807.468	1775
807.568	872
807.668	956
807.769	980
807.869	1561
807.969	1311
808.069	1630
808.170	1181
808.270	647
808.370	1507
808.470	1783
808.570	4558
808.670	3677
808.770	1276
808.870	932
808.970	1556
809.070	1232
809.170	1717
809.271	1477
809.370	2076
809.470	1543
809.570	1205
809.670	1146
809.770	1275
809.870	917
809.970	1185
810.070	1216
810.169	1423
810.269	673
810.369	1828
810.469	371
810.568	577
810.668	1001
810.768	1065
810.867	919
810.967	783
811.066	369
811.166	939
811.265	1117
811.365	595
811.464	1536
811.564	1702
811.663	1209
811.763	1196
811.862	1123
811.962	1240
812.061	709
812.160	1419
812.260	894
812.359	1802
812.458	1201
812.557	3366
812.657	8117
812.756	13742
812.855	3984
812.954	1854
813.053	1501
813.153	1358
813.252	1051
813.351	1496
813.450	1005
813.549	1686
813.648	1394
813.747	1127
813.846	1479
813.945	1028
814.044	1334
814.143	2157
814.242	1106
814.341	1492
814.439	1267
814.538	1703
814.637	1143
814.736	1458
814.835	2192
814.933	1213
815.032	2135
815.131	2209
815.229	1534
815.328	1900
815.427	2970
815.525	2803
815.624	2788
815.722	2513
815.821	2743
815.919	2476
816.018	2784
816.116	3674
816.215	3196
816.313	3370
816.412	3201
816.510	3458
816.609	4401
816.707	3893
816.805	4038
816.904	4371
817.002	4552
817.100	5106
817.198	4378
817.296	5075
817.395	5242
817.493	5911
817.591	6132
817.689	8281
817.787	9437
817.885	11973
817.983	19669
818.081	34790
818.179	73290
818.277	177149
818.375	447759
818.473	457894
818.571	132236
818.669	46824
818.767	32002
818.865	31662
818.963	27799
819.061	27092
819.158	40552
819.256	68124
819.354	148836
819.452	342395
819.549	792731
819.647	603737
819.745	163976
819.842	61745
819.940	35399
820.038	25557
820.135	20057
820.233	15375
820.330	12988
820.428	10290
820.525	7850
820.623	8092
820.720	6406
820.818	7137
820.915	6543
821.012	6660
821.110	8158
821.207	7248
821.304	6209
821.402	5661
821.499	7555
821.596	12821
821.693	24442
821.791	15947
821.888	6174
821.985	7528
822.082	13287
822.179	13663
822.276	8337
822.373	11598
822.470	7650
822.567	3291
822.664	3444
822.761	3472
822.858	2237
822.955	3389
823.052	2826
823.149	2244
823.246	3528
823.343	2627
823.440	2002
823.536	2003
823.633	2074
823.730	2258
823.827	1886
823.923	2208
824.020	3018
824.117	3166
824.213	6369
824.310	10781
824.407	5684
824.503	2069
824.600	2488
824.696	2430
824.793	2361
824.889	3678
824.986	4251
825.082	3001
825.179	2151
825.275	1769
825.371	3146
825.468	2319
825.564	2081
825.660	1827
825.757	1982
825.853	2430
825.949	1278
826.045	1872
826.142	1429
826.238	1450
826.334	1464
826.430	1203
826.526	1425
826.622	894
826.718	1514
826.814	2050
826.910	2115
827.006	1110
827.102	826
827.198	1226
827.294	1604
827.390	1744
827.486	1126
827.582	876
827.678	751
827.774	1621
827.869	2078
827.965	1337
828.061	1508
828.157	1706
828.252	2320
828.348	894
828.444	1493
828.539	856
828.635	1104
828.731	628
828.826	750
828.922	1519
829.017	1396
829.113	1722
829.208	1767
829.304	1243
829.399	1427
829.495	1666
829.590	2349
829.685	1086
829.781	1436
829.876	1959
829.971	1489
830.066	1096
830.162	934
830.257	1110
830.352	1564
830.447	2402
830.543	1140
830.638	1116
830.733	2445
830.828	2503
830.923	1443
831.018	1243
831.113	1935
831.208	2132
831.303	1833
831.398	1131
831.493	1380
831.588	1335
831.683	1937
831.778	997
831.873	559
831.967	550
832.062	644
832.157	1582
832.252	1862
832.346	1639
832.441	1665
832.536	2188
832.631	4197
832.725	8500
832.820	9752
832.914	2295
833.009	1792
833.104	1630
833.198	2349
833.293	2635
833.387	2397
833.482	2160
833.576	1477
833.670	1632
833.765	1863
833.859	2021
833.954	3099
834.048	2285
834.142	1662
834.237	1359
834.331	465
834.425	1371
834.519	718
834.613	936
834.708	613
834.802	773
834.896	1245
834.990	902
835.084	591
835.178	846
835.272	875
835.366	761
835.460	1904
835.554	1523
835.648	605
835.742	1269
835.836	874
835.930	584
836.024	572
836.117	1974
836.211	1588
836.305	2014
836.399	2291
836.493	3445
836.586	2264
836.680	1047
836.774	1703
836.867	1231
836.961	1062
837.055	379
837.148	479
837.242	1385
837.335	1118
837.429	1166
837.522	947
837.616	1162
837.709	1289
837.803	3519
837.896	4168
837.989	1909
838.083	1626
838.176	2180
838.269	4991
838.363	5534
838.456	1404
838.549	1303
838.642	2933
838.735	5346
838.829	11713
838.922	5563
839.015	1134
839.108	704
839.201	1199
839.294	1171
839.387	978
839.480	1157
839.573	1405
839.666	2470
839.759	3242
839.852	1360
839.945	85
840.038	1004
840.131	572
840.223	686
840.316	151
840.409	928
840.502	997
840.594	1450
840.687	242
840.780	1222
840.873	987
840.965	1214
841.058	893
841.150	2337
841.243	3889
841.336	4193
841.428	993
841.521	458
841.613	415
841.706	1192
841.798	1360
841.890	1153
841.983	478
842.075	1542
842.167	1375
842.260	95
842.352	1026
842.444	2288
842.537	3468
842.629	5617
842.721	7801
842.813	2545
842.905	258
842.997	1518
843.090	626
843.182	1512
843.274	2904
843.366	6494
843.458	11735
843.550	24387
843.642	17991
843.734	3847
843.826	1979
843.918	2854
844.009	2555
844.101	1492
844.193	777
844.285	1441
844.377	2771
844.469	5741
844.560	8482
844.652	16085
844.744	16618
844.835	5813
844.927	1416
845.019	1195
845.110	2214
845.202	1862
845.293	689
845.385	762
845.476	630
845.568	877
845.659	642
845.751	1184
845.842	869
845.934	231
846.025	931
846.116	1229
846.208	768
846.299	1264
846.390	1118
846.482	1654
846.573	1506
846.664	2294
846.755	2612
846.846	4607
846.937	3878
847.029	1413
847.120	94
847.211	964
847.302	1345
847.393	4
847.484	689
847.575	858
847.666	707
847.757	800
847.847	1209
847.938	995
848.029	894
848.120	1172
848.211	878
848.302	1127
848.392	666
848.483	1068
848.574	229
848.664	1074
848.755	589
848.846	1053
848.936	841
849.027	1217
849.118	1362
849.208	1466
849.299	2381
849.389	4454
849.480	7966
849.570	19727
849.661	41326
849.751	70187
849.841	133980
849.932	62278
850.022	8435
850.112	3375
850.203	2324
850.293	1939
850.383	2075
850.474	1280
850.564	1527
850.654	1268
850.744	1266
850.834	1256
850.924	802
851.014	1512
851.104	1682
851.194	1435
851.284	1555
851.374	1702
851.464	2281
851.554	2086
851.644	2381
851.734	2385
851.824	2666
851.914	2156
852.004	1275
852.094	721
852.183	903
852.273	1552
852.363	867
852.452	1068
852.542	1385
852.632	1409
852.721	2085
852.811	1857
852.901	1817
852.990	1694
853.080	2929
853.169	2607
853.259	3082
853.348	4074
853.438	4609
853.527	6121
853.617	8960
853.706	14604
853.795	27957
853.885	54587
853.974	120419
854.063	226351
854.152	379642
854.242	669797
854.331	312731
854.420	55629
854.509	19738
854.598	13078
854.687	10990
854.777	8002
854.866	7259
854.955	6199
855.044	3783
855.133	2294
855.222	2899
855.311	2417
855.400	2941
855.488	2655
855.577	2549
855.666	3165
855.755	2813
855.844	2027
855.933	1930
856.021	2176
856.110	1916
856.199	1334
856.288	1903
856.376	1371
856.465	1000
856.554	2717
856.642	1930
856.731	1874
856.819	2154
856.908	2283
856.996	1162
857.085	1791
857.173	1211
857.262	1448
857.350	698
857.438	1276
857.527	1513
857.615	588
857.703	1027
857.792	1426
857.880	1468
857.968	1589
858.056	1104
858.145	1430
858.233	1168
858.321	877
858.409	1617
858.497	82
858.585	464
858.673	430
858.761	1006
858.849	1335
858.937	903
859.025	1297
859.113	1041
859.201	1472
859.289	1260
859.377	2775
859.465	3006
859.552	2434
859.640	694
859.728	1307
859.816	1731
859.903	1520
859.991	231
860.079	1572
860.166	1180
860.254	811
860.342	928
860.429	1234
860.517	222
860.604	567
860.692	671
860.779	451
860.867	892
860.954	1179
861.042	1377
861.129	1211
861.216	2506
861.304	1500
861.391	1025
861.478	948
861.565	1534
861.653	1101
861.740	286
861.827	702
861.914	1435
862.001	929
862.089	1283
862.176	1378
862.263	505
862.350	1000
862.437	744
862.524	1647
862.611	858
862.698	1977
862.785	3480
862.871	5070
862.958	7101
863.045	4491
863.132	1944
863.219	1259
863.306	493
863.392	1250
863.479	1309
863.566	996
863.652	1205
863.739	916
863.826	81
863.912	1203
863.999	792
864.086	1447
864.172	449
864.259	1225
864.345	1359
864.432	1994
864.518	1341
864.604	2075
864.691	1396
864.777	2420
864.863	2085
864.950	1887
865.036	2585
865.122	3346
865.209	4989
865.295	5376
865.381	5909
865.467	7249
865.553	8716
865.639	10859
865.726	17278
865.812	30082
865.898	59655
865.984	117800
866.070	170627
866.156	299183
866.242	399431
866.328	131863
866.414	25417
866.499	11508
866.585	8593
866.671	7859
866.757	6105
866.843	4597
866.928	5322
867.014	4559
867.100	4433
867.186	4523
867.271	4316
867.357	4646
867.442	5347
867.528	6876
867.614	5164
867.699	5384
867.785	8503
867.870	9804
867.956	14708
868.041	20920
868.127	13924
868.212	9156
868.297	13879
868.383	13469
868.468	7461
868.553	9236
868.639	11020
868.724	10382
868.809	15016
868.894	16994
868.979	5695
869.065	2839
869.150	2594
869.235	2713
869.320	2907
869.405	2428
869.490	1997
869.575	1283
869.660	2622
869.745	2536
869.830	2541
869.915	3049
870.000	2519
870.085	3282
870.169	3016
870.254	4507
870.339	6614
870.424	3675
870.509	2444
870.593	2277
870.678	1957
870.763	3080
870.847	3032
870.932	3079
871.016	4473
871.101	5810
871.186	5737
871.270	3468
871.355	3845
871.439	1896
871.523	1871
871.608	3315
871.692	2687
871.777	3843
871.861	5186
871.945	4465
872.030	2162
872.114	2952
872.198	1911
872.282	1589
872.367	1814
872.451	1651
872.535	1349
872.619	2148
872.703	1652
872.787	2120
872.871	2908
872.955	1754
873.039	1907
873.123	1567
873.207	1702
873.291	1697
873.375	2044
873.459	1860
873.543	1522
873.627	2038
873.711	2290
873.794	1864
873.878	1924
873.962	1774
874.045	2215
874.129	2141
874.137	2143
874.213	2156
874.245	2138
874.296	2116
874.352	2588
874.380	2814
874.460	1505
874.464	1453
874.547	1867
874.568	1867
874.631	1846
874.676	2269
874.714	2630
874.784	1822
874.798	1661
874.881	2510
874.892	2319
874.965	1051
874.999	1383
875.048	1821
875.107	2139
875.131	2267
875.215	2749
875.215	2748
875.298	1608
875.323	1526
875.381	1358
875.430	1758
875.465	2051
875.538	2365
875.548	2406
875.631	1613
875.646	1686
875.714	2014
875.753	1545
875.798	1013
875.861	1248
875.881	1325
875.964	1438
875.968	1455
876.047	1804
876.076	1978
876.130	2275
876.183	1497
876.213	1077
876.291	2688
876.296	2791
876.379	2664
876.398	2658
876.462	2637
876.506	2153
876.545	1704
876.613	2073
876.628	2190
876.711	1232
876.721	1317
876.794	1802
876.828	1984
876.877	2331
876.935	2212
876.960	2103
877.043	1727
877.043	1728
877.125	2300
877.150	2324
877.208	2277
877.258	2790
877.291	3124
877.365	2682
877.374	2627
877.456	2464
877.472	2464
877.539	2554
877.579	2680
877.622	2811
877.687	2391
877.704	2279
877.787	2138
877.794	2173
877.869	2580
877.901	2639
877.952	2565
878.008	2083
878.034	1904
878.115	1889
878.117	1892
878.199	1666
878.222	1852
878.282	2130
878.329	2030
878.364	2123
878.437	2228
878.447	2213
878.529	1578
878.544	1559
878.611	1481
878.651	1489
878.694	1544
878.758	1522
878.776	1519
878.858	2200
878.865	2201
878.941	2223
878.972	2332
879.023	2534
879.078	2505
879.105	2448
879.185	1830
879.187	1829
879.269	2803
879.292	3065
879.351	3438
879.399	3102
879.433	2740
879.506	1713
879.516	1620
879.598	1224
879.613	1316
879.680	1877
879.720	1919
879.762	1952
879.827	2370
879.844	2470
879.926	2400
879.933	2387
880.007	2170
880.040	2391
880.089	2849
880.147	3453
880.171	3868
880.253	6140
880.254	6160
880.335	9914
880.360	11287
880.417	15855
880.467	18847
880.499	23679
880.574	41899
880.580	42809
880.662	52441
880.680	48790
880.744	23587
880.787	11448
880.825	6378
880.893	3179
880.907	2946
880.989	2743
881.000	2692
881.070	2234
881.106	2114
881.152	2348
881.213	2529
881.233	2331
881.315	1534
881.319	1504
881.396	2035
881.426	2161
881.478	1987
881.532	1994
881.559	2094
881.639	2177
881.641	2178
881.722	1802
881.745	1814
881.803	1959
881.852	1892
881.885	1867
881.958	2026
881.966	2069
882.047	2756
882.064	2859
882.129	2973
882.171	2874
882.210	3300
882.277	4353
882.291	4811
882.372	8669
882.383	8811
882.454	5539
882.489	3896
882.535	2768
882.596	1827
882.616	1880
882.697	2551
882.702	2566
882.778	2142
882.808	1912
882.859	1809
882.914	1924
882.940	1791
883.020	1399
883.021	1406
883.102	1953
883.127	1951
883.183	1760
883.233	1901
883.264	1962
883.339	1712
883.345	1664
883.426	1451
883.445	1352
883.507	1647
883.551	1693
883.587	1581
883.657	1663
883.668	1829
883.749	2973
883.763	3148
883.830	2559
883.869	2083
883.910	1743
883.975	1258
883.991	1231
884.072	1232
884.081	1263
884.152	1636
884.187	1503
884.233	1784
884.292	2825
884.314	2832
884.394	2019
884.398	1991
884.475	1552
884.504	1363
884.555	1452
884.610	1358
884.636	1474
884.716	2150
884.716	2156
884.797	2166
884.821	2168
884.877	2437
884.927	2327
884.958	2078
885.033	1679
885.038	1629
885.118	1051
885.139	800
885.199	1069
885.244	1391
885.279	1477
885.350	1735
885.359	1828
885.439	2323
885.456	2445
885.520	2253
885.561	2126
885.600	1935
885.667	1462
885.680	1448
885.760	1565
885.773	1569
885.840	2281
885.878	2593
885.920	2398
885.984	2256
886.000	2302
886.080	2409
886.089	2408
886.160	2233
886.195	2231
886.240	2461
886.300	2577
886.320	2524
886.400	2448
886.406	2435
886.480	3082
886.511	3278
886.560	3321
886.616	3554
886.640	3764
886.720	4290
886.722	4286
886.800	3067
886.827	2738
886.879	2647
886.932	2512
886.959	2479
887.038	2357
887.039	2365
887.119	2484
887.143	2538
887.198	2207
887.248	1962
887.278	2160
887.354	2447
887.358	2436
887.437	2278
887.459	2155
887.517	2182
887.564	2271
887.596	2127
887.669	1825
887.676	1832
887.755	1778
887.774	1742
887.835	2092
887.880	2480
887.914	2477
887.985	2296
887.994	2282
888.073	2177
888.090	2145
888.153	2650
888.195	2938
888.232	2961
888.300	3035
888.311	3027
888.391	2950
888.405	2917
888.470	2334
888.510	1978
888.549	1880
888.615	1682
888.628	1794
888.708	2476
888.720	2573
888.787	2696
888.825	2740
888.866	2461
888.930	2076
888.945	2126
889.024	2327
889.035	2349
889.103	2683
889.140	2830
889.182	2799
889.245	2791
889.261	2723
889.340	2331
889.349	2282
889.419	2510
889.454	2618
889.498	2454
889.559	2195
889.577	2285
889.656	2682
889.664	2717
889.735	2728
889.768	2726
889.814	2537
889.873	2275
889.978	2510
890.083	2875
890.187	2887
890.292	2605
890.397	2936
890.501	2623
890.606	1681
890.710	2380
890.815	2372
890.919	3262
891.024	2920
891.128	3494
891.233	3073
891.337	2834
891.442	2653
891.546	2793
891.650	2549
891.755	2636
891.859	2627
891.963	2359
892.068	2968
892.172	3070
892.276	2522
892.380	2944
892.484	2414
892.589	3864
892.693	4393
892.797	3839
892.901	2242
893.005	1921
893.109	1737
893.213	3448
893.317	2426
893.421	2305
893.525	1405
893.629	2459
893.733	1867
893.837	2329
893.941	2707
894.045	2640
894.148	1592
894.252	3169
894.356	1962
894.460	3140
894.564	3355
894.667	2855
894.771	2828
894.875	1947
894.978	1965
895.082	2416
895.186	2452
895.289	3159
895.393	2130
895.496	3343
895.600	1505
895.703	2461
895.807	1915
895.910	1824
896.014	2438
896.117	1483
896.221	2076
896.324	2688
896.427	2305
896.531	1509
896.634	1180
896.737	2275
896.840	1542
896.944	2474
897.047	2784
897.150	2311
897.253	1264
897.356	2501
897.460	1329
897.563	3087
897.666	2288
897.769	1550
897.872	1516
897.975	3048
898.078	2462
898.181	2282
898.284	1683
898.387	2647
898.490	2236
898.593	2083
898.695	1330
898.798	2324
898.901	2316
899.004	2891
899.107	1963
899.209	2533
899.312	1193
899.415	2916
899.518	1478
899.620	1940
899.723	2322
899.826	3466
899.928	7283
900.031	7918
900.133	2375
900.236	2041
900.338	1542
900.441	2117
900.543	1629
900.646	1652
900.748	1710
900.851	2171
900.953	2357
901.055	2849
901.158	2363
901.260	4356
901.362	1887
901.465	2246
901.567	1618
901.669	1588
901.771	2057
901.873	2062
901.976	1534
902.078	1841
902.180	2307
902.282	2257
902.384	2829
902.486	2329
902.588	2790
902.690	3333
902.792	3336
902.894	2171
902.996	2407
903.098	3075
903.200	2155
903.302	1912
903.404	1746
903.505	2740
903.607	1746
903.709	1846
903.811	2764
903.913	2786
904.014	1811
904.116	1867
904.218	2458
904.319	2251
904.421	2039
904.523	3412
904.624	2210
904.726	2303
904.827	1755
904.929	2149
905.030	1857
905.132	2842
905.233	2642
905.335	2080
905.436	1696
905.537	2386
905.639	1989
905.740	1526
905.841	1844
905.943	2221
906.044	2572
906.145	1841
906.247	2641
906.348	2264
906.449	1716
906.550	2187
906.651	1592
906.752	2325
906.854	1467
906.955	1891
907.056	1645
907.157	2936
907.258	2214
907.359	1922
907.460	1749
907.561	1176
907.662	1988
907.762	2299
907.863	2265
907.964	2627
908.065	2636
908.166	2495
908.267	1666
908.367	1968
908.468	2218
908.569	1817
908.670	3275
908.770	3783
908.871	4192
908.971	5368
909.072	4656
909.173	3450
909.273	1460
909.374	2762
909.474	1033
909.575	2000
909.675	2235
909.776	2873
909.876	2046
909.977	2485
910.077	1499
910.177	2528
910.278	2247
910.378	2425
910.478	1757
910.579	2209
910.679	2099
910.779	2176
910.879	1781
910.980	2962
911.080	1625
911.180	2214
911.280	1203
911.380	2727
911.480	1570
911.580	2217
911.680	2493
911.780	2007
911.880	2469
911.980	3603
912.080	2026
912.180	2449
912.280	1840
912.380	2845
912.480	1382
912.580	1801
912.679	1139
912.779	1775
912.879	1422
912.979	1508
913.078	1798
913.178	2274
913.278	1735
913.377	1432
913.477	1573
913.577	999
913.676	2308
913.776	2077
913.875	1658
913.975	2604
914.074	1530
914.174	2561
914.273	1695
914.373	2313
914.472	2243
914.572	1570
914.671	1301
914.770	1706
914.870	1494
914.969	1978
915.068	1287
915.167	2986
915.267	1411
915.366	1007
915.465	1277
915.564	1293
915.663	2103
915.763	1763
915.862	1650
915.961	1947
916.060	2121
916.159	1821
916.258	1957
916.357	2126
916.456	2325
916.555	1816
916.654	1784
916.752	2458
916.851	2910
916.950	3270
917.049	1666
917.148	1314
917.247	2013
917.345	2365
917.444	1469
917.543	1681
917.642	1543
917.740	2339
917.839	2270
917.937	1857
918.036	2965
918.135	1865
918.233	760
918.332	1688
918.430	2112
918.529	2240
918.627	1384
918.726	2626
918.824	1904
918.923	1610
919.021	1738
919.119	2623
919.218	1286
919.316	1939
919.414	2171
919.512	1872
919.611	2065
919.709	2421
919.807	2162
919.905	2177
920.003	1905
920.102	3175
920.200	1684
920.298	2054
920.396	2561
920.494	2094
920.592	1999
920.690	2605
920.788	1972
920.886	2241
920.984	2312
921.082	3785
921.180	1948
921.277	2504
921.375	3190
921.473	3454
921.571	3320
921.669	2837
921.766	3280
921.864	3023
921.962	2992
922.060	3343
922.157	2886
922.255	2944
922.352	3399
922.450	3488
922.548	2802
922.645	2857
922.743	4035
922.840	3865
922.938	5704
923.035	6457
923.133	5353
923.230	6388
923.327	6447
923.425	7637
923.522	6765
923.619	5917
923.717	5816
923.814	5456
923.911	5460
924.008	5870
924.106	5615
924.203	5450
924.300	5019
924.397	6379
924.494	5428
924.591	5965
924.688	6002
924.786	6395
924.883	4835
924.979	5168
925.077	4935
925.173	5257
925.270	5318
925.367	5815
925.464	5390
925.561	6633
925.658	7019
925.755	7231
925.852	6905
925.948	8154
926.045	6689
926.142	6517
926.239	7307
926.335	6253
926.432	5491
926.529	6529
926.625	7026
926.722	6699
926.818	4141
926.915	5098
927.011	5608
927.108	5385
927.204	5532
927.301	4451
927.397	4842
927.494	5269
927.590	5725
927.687	3676
927.783	4730
927.879	5498
927.976	4572
928.072	4922
928.168	4502
928.264	5195
928.361	4383
928.457	4951
928.553	4856
928.649	5647
928.745	3975
928.841	4221
928.937	3614
929.033	4961
929.129	4999
929.225	4547
929.321	5104
929.417	4636
929.513	3717
929.609	4932
929.705	3850
929.801	4329
929.897	4331
929.993	4546
930.089	4598
930.184	3613
930.280	3986
930.376	4562
930.471	4657
930.567	4520
930.663	3099
930.758	4199
930.854	3280
930.950	4418
931.045	4175
931.141	3671
931.236	3810
931.332	4270
931.427	3481
931.523	4176
931.618	4352
931.714	3949
931.809	3468
931.905	4577
932.000	4013
932.095	3033
932.191	3001
932.286	5253
932.381	4820
932.476	3613
932.572	2920
932.667	4771
932.762	3523
932.857	4009
932.952	2984
933.047	4590
933.142	3418
933.237	3430
933.332	3970
933.427	4356
933.522	4138
933.617	3427
933.712	3714
933.807	2849
933.902	3908
933.997	4238
934.092	3866
934.187	3382
934.282	3694
934.376	3773
934.471	4057
934.566	3237
934.661	3335
934.755	3498
934.850	3472
934.945	4296
935.039	3235
935.134	3700
935.228	3095
935.323	4263
935.417	5166
935.512	2961
935.606	3140
935.701	3838
935.795	3642
935.890	3900
935.984	3587
936.079	3225
936.173	2067
936.267	3493
936.362	1894
936.456	3060
936.550	3659
936.644	3928
936.738	3074
936.833	3132
936.927	2865
937.021	3182
937.115	2213
937.209	2961
937.303	2835
937.397	2593
937.491	2610
937.585	3043
937.679	2977
937.773	3413
937.867	2621
937.961	2785
938.055	3445
938.149	3888
938.243	3179
938.337	3475
938.430	3259
938.524	2644
938.618	4002
938.712	4117
938.805	3596
938.899	3636
938.993	3363
939.086	5141
939.180	2885
939.274	4623
939.367	4341
939.461	4745
939.554	3637
939.648	3021
939.741	2364
939.835	3702
939.928	2986
940.022	4097
940.115	4194
940.208	3946
940.302	3384
940.395	4331
940.488	3659
940.582	2600
940.675	1801
940.768	3109
940.861	2324
940.954	3745
941.048	3540
941.141	2068
941.234	3875
941.327	5155
941.420	6802
941.513	7433
941.606	4446
941.699	3675
941.792	2741
941.885	3860
941.978	3617
942.071	3452
942.164	2326
942.257	2549
942.349	2459
942.442	3628
942.535	2865
942.628	2271
942.721	2782
942.813	2569
942.906	2282
942.999	2885
943.091	2045
943.184	2877
943.277	2308
943.369	3098
943.462	1230
943.554	2793
943.647	2209
943.739	3118
943.832	3282
943.924	3329
944.017	1204
944.109	2248
944.201	1934
944.294	2529
944.386	2927
944.478	3391
944.571	2250
944.663	3185
944.755	2460
944.847	2761
944.940	2387
945.032	2784
945.124	2040
945.216	2062
945.308	2301
945.400	3286
945.492	2209
945.584	3422
945.676	2457
945.768	2337
945.860	3249
945.952	3609
946.044	3330
946.136	3005
946.228	2189
946.320	2690
946.412	2189
946.503	2914
946.595	3245
946.687	2819
946.779	1699
946.870	2002
946.962	2434
947.054	2943
947.145	1969
947.237	2126
947.329	1911
947.420	2867
947.512	2403
947.603	1988
947.695	1431
947.786	1929
947.878	1687
947.969	2225
948.061	2063
948.152	3033
948.243	1282
948.335	1963
948.426	2018
948.517	2472
948.609	2093
948.700	2115
948.791	2055
948.882	2382
948.973	1029
949.065	2673
949.156	2403
949.247	2469
949.338	2624
949.429	2403
949.520	1815
949.611	1810
949.702	2222
949.793	2015
949.884	2603
949.975	1867
950.066	1318
950.157	1875
950.247	1749
950.338	2019
950.429	1517
950.520	2699
950.611	3216
950.701	3100
950.792	2541
950.883	3264
950.973	2626
951.064	3223
951.155	2629
951.245	3341
951.336	2519
951.427	2297
951.517	2856
951.608	2723
951.698	2005
951.788	1565
951.879	1221
951.969	2018
952.060	601
952.150	2351
952.240	2220
952.331	1840
952.421	2338
952.511	2387
952.602	1919
952.692	768
952.782	1436
952.872	2347
952.962	652
953.052	1609
953.143	1487
953.233	2586
953.323	1912
953.413	1799
953.503	2321
953.593	2395
953.683	2156
953.773	2340
953.863	1224
953.953	2134
954.042	2610
954.132	2161
954.222	2312
954.312	2458
954.402	2231
954.492	2688
954.581	3829
954.671	8041
954.761	3531
954.850	2137
954.940	1102
955.030	1944
955.119	546
955.209	1213
955.298	1731
955.388	1803
955.477	2351
955.567	1742
955.656	1293
955.746	1466
955.835	1415
955.925	1671
956.014	1714
956.103	1752
956.193	2344
956.282	2259
956.371	1734
956.461	1365
956.550	2077
956.639	1425
956.728	1361
956.817	2603
956.906	1321
956.995	3476
957.085	2093
957.174	2174
957.263	2161
957.352	2060
957.441	1424
957.530	2218
957.619	910
957.708	2066
957.796	1507
957.885	2087
957.974	2074
958.063	1292
958.152	861
958.241	1360
958.329	1212
958.418	1410
958.507	1578
958.596	2178
958.684	1630
958.773	1893
958.861	1490
958.950	1950
959.039	2182
959.127	1978
959.216	1613
959.304	1704
959.393	1116
959.481	1778
959.570	1536
959.658	1865
959.746	1761
959.835	2228
959.923	3922
960.011	8876
960.100	4424
960.188	2429
960.276	1210
960.365	1620
960.453	824
960.541	1235
960.629	988
960.717	1194
960.805	810
960.893	1243
960.981	705
961.069	1179
961.158	1021
961.245	2001
961.333	1484
961.421	2382
961.509	1658
961.597	1390
961.685	689
961.773	915
961.861	1009
961.949	1716
962.036	1432
962.124	1622
962.212	614
962.299	1719
962.387	917
962.475	1512
962.562	1220
962.650	2329
962.738	1499
962.825	1526
962.913	1533
963.000	1578
963.088	1666
963.175	2235
963.263	1101
963.350	1592
963.438	2143
963.525	3209
963.612	4311
963.700	6672
963.787	16561
963.874	44182
963.962	18541
964.049	2722
964.136	1386
964.223	598
964.310	1039
964.398	1503
964.485	927
964.572	2311
964.659	3143
964.746	7157
964.833	5760
964.920	2284
965.007	1110
965.094	1373
965.181	1175
965.268	1897
965.355	1686
965.441	1279
965.528	1455
965.615	1626
965.702	1414
965.789	1468
965.875	1431
965.962	1674
966.049	1614
966.136	1854
966.222	1991
966.309	1916
966.395	2333
966.482	2529
966.569	1218
966.655	983
966.742	1051
966.828	1558
966.915	457
967.001	1504
967.087	1513
967.174	1530
967.260	2415
967.347	2857
967.433	6220
967.519	13805
967.605	29759
967.692	11006
967.778	1519
967.864	1575
967.950	706
968.036	472
968.123	1563
968.209	345
968.295	385
968.381	1207
968.467	1452
968.553	1043
968.639	1744
968.725	1647
968.811	3438
968.897	6798
968.983	4641
969.069	1922
969.154	969
969.240	1873
969.326	364
969.412	1057
969.497	684
969.583	1093
969.669	1476
969.755	121
969.840	1200
969.926	1680
970.012	2270
970.097	4114
970.183	4319
970.268	5253
970.354	2415
970.439	4073
970.525	7521
970.610	18058
970.696	7713
970.781	1431
970.866	972
970.952	419
971.037	447
971.122	205
971.208	1288
971.293	141
971.378	1459
971.463	1434
971.549	1089
971.634	1072
971.719	745
971.804	1727
971.889	3219
971.974	3529
972.059	507
972.144	812
972.229	847
972.314	569
972.399	1000
972.484	1038
972.569	420
972.654	1883
972.739	3280
972.824	7877
972.908	10110
972.993	2392
973.078	679
973.163	1021
973.247	1210
973.332	893
973.417	710
973.501	872
973.586	523
973.671	591
973.755	1729
973.840	2535
973.924	2502
974.009	2454
974.093	1584
974.178	2883
974.262	3028
974.346	6940
974.431	8303
974.515	1904
974.600	70
974.684	1012
974.768	1043
974.852	647
974.937	714
975.021	470
975.105	1180
975.189	1183
975.273	941
975.358	949
975.442	576
975.526	1446
975.610	-335
975.694	1697
975.778	591
975.862	766
975.946	489
976.030	924
976.114	1068
976.198	1021
976.281	1118
976.365	1277
976.449	550
976.533	576
976.617	681
976.700	492
976.784	922
976.868	1798
976.951	1983
977.035	4110
977.119	3311
977.202	1220
977.286	879
977.369	1296
977.453	886
977.536	1904
977.620	1503
977.703	1780
977.787	570
977.870	1410
977.953	1730
978.037	1659
978.120	1752
978.203	2248
978.287	4927
978.370	10759
978.453	5838
978.536	1209
978.620	2434
978.703	2410
978.786	6157
978.869	3773
978.952	1157
979.035	728
979.118	1241
979.201	610
979.284	878
979.367	994
979.450	975
979.533	309
979.616	632
979.699	518
979.782	358
979.865	1106
979.948	1304
980.030	1031
980.113	908
980.196	174
980.279	208
980.361	693
980.444	313
980.526	1337
980.609	348
980.692	2030
980.774	1981
980.857	1114
980.939	544
981.022	746
981.104	598
981.187	854
981.269	1061
981.352	378
981.434	494
981.516	1046
981.599	647
981.681	341
981.763	300
981.846	136
981.928	276
982.010	1437
982.092	543
982.174	484
982.256	813
982.339	228
982.421	519
982.503	1114
982.585	474
982.667	659
982.749	756
982.831	874
982.913	-192
982.995	699
983.077	551
983.158	783
983.240	926
983.322	1124
983.404	1151
983.486	974
983.568	1102
983.649	1096
983.731	729
983.813	1466
983.894	529
983.976	1213
984.058	1788
984.139	1154
984.221	885
984.302	1328
984.384	1332
984.465	449
984.547	722
984.628	905
984.710	329
984.791	954
984.872	3
984.954	898
985.035	-315
985.116	748
985.198	656
985.279	1187
985.360	1624
985.441	322
985.522	141
985.604	1195
985.685	83
985.766	1333
985.847	1230
985.928	486
986.009	372
986.090	327
986.171	1128
986.252	1009
986.333	1360
986.414	1014
986.495	598
986.576	471
986.656	900
986.737	330
986.818	431
986.899	1398
986.980	1266
987.060	1089
987.141	-182
987.222	783
987.302	868
987.383	1772
987.464	625
987.544	1127
987.625	1209
987.705	1752
987.786	813
987.866	1298
987.947	1312
988.027	1386
988.108	465
988.188	1059
988.268	955
988.349	816
988.429	762
988.509	1093
988.589	944
988.670	585
988.750	1798
988.830	817
988.910	1064
988.990	1594
989.070	437
989.151	1191
989.231	1042
989.311	458
989.391	317
989.471	916
989.551	144
989.631	916
989.711	258
989.791	712
989.870	733
989.950	1364
990.030	93
990.110	642
990.190	1557
990.269	15
990.349	-458
990.429	934
990.509	629
990.588	880
990.668	453
990.747	451
990.827	546
990.907	488
990.986	-168
991.066	1076
991.145	62
991.225	59
991.304	174
991.383	1128
991.463	816
991.542	581
991.622	247
991.701	861
991.780	569
991.859	650
991.939	119
992.018	353
992.097	1026
992.176	340
992.256	62
992.335	369
992.414	-239
992.493	1413
992.572	424
992.651	578
992.730	1417
992.809	1499
992.888	304
992.967	758
993.046	228
993.125	353
993.203	147
993.282	368
993.361	777
993.440	480
993.519	-398
993.597	-364
993.676	454
993.755	683
993.834	474
993.912	206
993.991	151
994.069	522
994.148	105
994.226	752
994.305	-181
994.384	-818
994.462	232
994.540	930
994.619	-60
994.697	748
994.776	-331
994.854	756
994.932	295
995.011	-561
995.089	20
995.167	654
995.245	582
995.324	260
995.402	602
995.480	-262
995.558	-548
995.636	-317
995.714	-324
995.792	721
995.870	-345
995.948	264
996.026	-597
996.104	-282
996.182	560
996.260	264
996.338	662
996.416	-39
996.494	-577
996.572	381
996.649	-145
996.727	-639
996.805	252
996.883	-290
996.960	-625
997.038	179
997.116	-6
997.193	335
997.271	182
997.348	266
997.426	458
997.504	-576
997.581	154
997.658	-151
997.736	-368
997.813	62
997.891	-298
997.968	-494
998.046	0
998.123	166
998.200	347
998.277	480
998.355	170
998.432	-479
998.509	-315
998.586	670
998.663	-546
998.741	-366
998.818	136
998.895	-147
998.972	-495
999.049	489
999.126	69
999.203	-383
999.280	-610
999.357	-630
999.434	-958
999.511	555
999.587	-591
999.664	-671
999.741	234
999.818	-11
999.895	-15
999.971	-17
1000.048	-120
1000.125	433
1000.202	-473
1000.278	625
1000.355	143
1000.431	-376
1000.508	-230
1000.584	84
1000.661	255
1000.738	-510
1000.814	-30
1000.890	-247
1000.967	-245
1001.043	-666
1001.120	-355
1001.196	816
1001.272	-1319
1001.349	-568
1001.425	577
1001.501	505
1001.577	-778
1001.654	-104
1001.730	149
1001.806	-645
1001.882	-918
1001.958	-294
1002.034	-1094
1002.110	-350
1002.186	-765
1002.262	-1076
1002.338	-839
1002.414	-173
1002.490	-488
1002.566	-637
1002.642	-667
1002.718	-321
1002.794	-204
1002.870	4
1002.945	35
1003.021	468
1003.097	-1041
1003.173	165
1003.248	-226
1003.324	-470
1003.400	-1272
1003.475	-478
1003.551	-1078
1003.626	-1192
1003.702	-757
1003.777	-1213
1003.853	-453
1003.928	345
1004.004	-579
1004.079	-263
1004.155	-1452
1004.230	-415
1004.305	-1642
1004.381	-350
1004.456	-483
1004.531	-1170
1004.607	-668
1004.682	-469
1004.757	-671
1004.832	-103
1004.907	-1084
1004.982	-268
1005.057	-123
1005.133	-1049
1005.208	-1092
1005.283	-933
1005.358	-1045
1005.433	-142
1005.508	-387
1005.583	-1095
1005.657	-840
1005.732	109
1005.807	147
1005.882	-733
1005.957	-789
1006.032	-663
1006.106	-714
1006.181	105
1006.256	-870
1006.331	-667
1006.405	-437
1006.480	190
1006.554	-971
1006.629	-1148
1006.704	-942
1006.778	-286
1006.853	-1006
1006.927	-503
1007.002	-388
1007.076	-193
1007.150	-750
1007.225	331
1007.299	-230
1007.373	51
1007.448	-738
1007.522	-408
1007.596	-386
1007.671	-1419
1007.745	389
1007.819	-1131
1007.893	-1285
1007.967	-102
1008.041	-872
1008.115	-141
1008.190	-882
1008.264	-338
1008.338	-1218
1008.412	-142
1008.486	-1210
1008.560	-174
1008.633	-1002
1008.707	-956
1008.781	-491
1008.855	-1046
1008.929	-801
1009.003	-1310
1009.076	-867
1009.150	-201
1009.224	-1117
1009.298	-544
1009.371	-2207
1009.445	-466
1009.519	-1100
1009.592	-1132
1009.666	-1547
1009.739	-1775
1009.813	-1840
1009.886	-81
1009.960	-1175
1010.033	-301
1010.107	-768
1010.180	-889
1010.253	-1706
1010.327	-1289
1010.400	-1271
1010.473	-1385
1010.547	-499
1010.620	158
1010.693	-937
1010.766	143
1010.840	-1245
1010.913	-1078
1010.986	-1462
1011.059	-188
1011.132	-1246
1011.205	-262
1011.278	-419
1011.351	-988
1011.424	-1354
1011.497	-1119
1011.570	-1406
1011.643	-1288
1011.716	-1875
1011.789	-425
1011.862	-1125
1011.934	-632
1012.007	-1640
1012.080	530
1012.153	-724
1012.225	-320
1012.298	-1208
1012.371	-703
1012.443	-1093
1012.516	-558
1012.588	-1351
1012.661	-264
1012.733	-1344
1012.806	-683
1012.879	-955
1012.951	-473
1013.023	-1458
1013.096	-519
1013.168	-1354
1013.241	-781
1013.313	-1178
1013.385	-1172
1013.458	-527
1013.530	-696
1013.602	-791
1013.674	-1278
1013.746	-1998
1013.819	-1019
1013.891	-1784
1013.963	-1050
1014.035	-1749
1014.107	-1213
1014.179	-812
1014.251	-384
1014.323	-1128
1014.395	-631
1014.467	-1359
1014.539	-560
1014.611	-1615
1014.683	-1321
1014.754	-849
1014.826	-1332
1014.898	-1533
1014.970	-1725
1015.042	-1544
1015.113	-1549
1015.185	-1321
1015.257	-1082
1015.328	-1648
1015.400	-593
1015.471	-1630
1015.543	-1045
1015.615	-1398
1015.686	-1264
1015.757	-1198
1015.829	-758
1015.901	-1675
1015.972	-932
1016.043	-961
1016.115	-627
1016.186	-1288
1016.257	-1409
1016.328	-1933
1016.400	-658
1016.471	-1172
1016.542	-751
1016.613	-2002
1016.685	-1601
1016.756	-916
1016.827	-941
1016.898	-1297
1016.969	-537
1017.040	-1064
1017.111	-796
1017.182	-909
1017.253	-1303
1017.324	-1997
1017.395	-1503
1017.466	-1093
1017.537	-751
1017.608	-1791
1017.678	-495
1017.749	-1466
1017.820	-1663
1017.891	-1756
1017.961	-2179
1018.032	-1989
1018.103	-811
1018.173	-1642
1018.244	-1286
1018.315	-1287
1018.385	-1252
1018.456	-2006
1018.526	-1212
1018.597	-1613
1018.667	-1530
1018.738	-1346
1018.808	-666
1018.878	-1831
1018.949	-939
1019.019	-1666
1019.089	-785
1019.160	-1280
1019.230	-807
1019.300	-1665
1019.371	-1689
1019.441	-1653
1019.511	-804
1019.581	-1334
1019.651	-1348
1019.721	-1445
1019.791	-992
1019.861	-1618
1019.931	-821
1020.001	-2366
1020.071	-724
1020.141	-1123
1020.211	-867
1020.281	-1694
1020.351	-1120
1020.421	-1315
1020.491	-1140
1020.560	-822
1020.630	-1327
1020.700	-1651
1020.770	-620
1020.839	-692
1020.909	-1640
1020.979	-1888
1021.048	-1244
1021.118	-1477
1021.187	-2034
1021.257	-1399
1021.326	-1277
1021.396	-1666
1021.465	-611
1021.535	-894
1021.604	-913
1021.674	-1378
1021.743	-1230
1021.812	-1340
1021.882	-1130
1021.951	-1640
1022.020	-1007
1022.089	-1676
1022.159	-713
1022.228	-1155
1022.297	-1709
1022.366	-1669
1022.435	-1934
1022.504	-1554
1022.573	-1503
1022.642	-2021
1022.711	-1087
1022.781	-1225
1022.849	-677
1022.918	-1400
1022.987	-961
1023.056	-1293
1023.125	-1196
1023.194	-1899
1023.263	-1357
1023.331	-903
1023.400	-981
1023.469	-1778
1023.538	-1168
1023.606	-1154
1023.675	-1822
1023.744	-1826
1023.812	-700
1023.881	-1842
1023.949	-1248
1024.018	-1465
1024.086	-1775
1024.155	-1001
1024.223	-1618
1024.292	-2110
1024.360	-325
1024.429	-1173
1024.497	-1425
1024.565	-1366
1024.634	-1585
1024.702	-1592
1024.770	-1819
1024.838	-1857
1024.907	-1327
1024.975	-939
1025.043	-1450
1025.111	-1847
1025.179	-1599
1025.247	-1802
1025.315	-991
1025.383	-1488
1025.451	-1309
1025.519	-1789
1025.587	-1314
1025.655	-1487
1025.723	-1570
1025.791	-1419
1025.859	-1363
1025.927	-1485
1025.995	-2286
1026.062	-2231
1026.130	-1161
1026.198	-1485
1026.266	-1258
1026.333	-1488
1026.401	-616
1026.469	-1400
1026.536	-1424
1026.604	-2090
1026.671	-1707
1026.739	-1672
1026.806	-1487
1026.874	-1497
1026.941	-1366
1027.009	-1886
1027.076	-1385
1027.144	-1514
1027.211	-2526
1027.278	-2155
1027.345	-493
1027.413	-2279
1027.480	-1996
1027.547	-1532
1027.614	-1925
1027.682	-1907
1027.749	-816
1027.816	-1309
1027.883	-636
1027.950	-862
1028.017	-1409
1028.084	-902
1028.151	-1884
1028.218	-1566
1028.285	-902
1028.352	-2250
1028.419	-2329
1028.486	-1511
1028.553	-945
1028.619	-1892
1028.686	-1423
1028.753	-1510
1028.820	-1470
1028.886	-2193
1028.953	-1310
1029.020	-1805
1029.086	-1337
1029.153	-1345
1029.220	-1841
1029.286	-1178
1029.353	-1514
1029.419	-1752
1029.486	-1825
1029.552	-2414
1029.619	-1481
1029.685	-1065
1029.751	-1157
1029.818	-912
1029.884	-2348
1029.951	-1445
1030.017	-1494
1030.083	-1387
1030.149	-1329
1030.216	-2483
1030.282	-1583
1030.348	-2242
1030.414	-1607
1030.480	-1101
1030.546	-1641
1030.612	-1953
1030.678	-1827
1030.744	-2035
1030.810	-936
1030.876	-1501
1030.942	-1398
1031.008	-1770
1031.074	-1614
1031.140	-1558
1031.206	-1954
1031.272	-1263
1031.337	-786
1031.403	-1338
1031.469	-1905
1031.534	-1523
1031.600	-1715
1031.666	-2103
1031.731	-1251
1031.797	-1711
1031.863	-1331
1031.928	-1764
1031.994	-2364
1032.059	-1574
1032.125	-1529
1032.190	-1818
1032.256	-694
1032.321	-1132
1032.386	-1284
1032.452	-1464
1032.517	-1128
1032.582	-1296
1032.647	-1947
1032.713	-771
1032.778	-2055
1032.843	-1762
1032.908	-1567
1032.974	-1839
1033.039	-2196
1033.104	-1098
1033.169	-931
1033.234	-2452
1033.299	-985
1033.364	-1041
1033.429	102
1033.494	177
1033.559	394
1033.624	-2048
1033.688	-1383
1033.753	-1635
1033.818	-1459
1033.883	-2060
1033.948	-1205
1034.013	-724
1034.077	-20
1034.142	571
1034.207	1086
1034.271	1119
1034.336	3145
1034.400	3978
1034.465	4897
1034.530	3651
1034.594	3609
1034.658	2088
1034.723	-558
1034.787	-472
1034.852	-1377
1034.916	-1048
1034.981	-2052
1035.045	-1426
1035.109	-1209
1035.173	-1663
1035.238	-1508
1035.302	-1439
1035.366	-1723
1035.430	-1793
1035.495	-1523
1035.559	-2214
1035.623	-841
1035.687	-2281
1035.751	-1463
1035.815	-2036
1035.879	-2047
1035.943	-1284
1036.007	-1662
1036.071	-1831
1036.135	-718
1036.198	-919
1036.262	-1074
1036.326	-1272
1036.390	-1031
1036.454	-977
1036.517	-728
1036.581	-391
1036.645	1015
1036.709	1966
1036.772	2573
1036.836	859
1036.900	213
1036.963	-885
1037.026	-1387
1037.090	-1024
1037.154	-1714
1037.217	-1691
1037.280	-885
1037.344	-1347
1037.407	-981
1037.471	-1090
1037.534	-1207
1037.597	-1961
1037.661	-1940
1037.724	-1188
1037.787	-1345
1037.850	-1295
1037.913	-1635
1037.977	-1980
1038.040	-1771
1038.103	-1764
1038.166	-1349
1038.229	-1854
1038.292	-988
1038.355	-1924
1038.418	-1259
1038.481	-1707
1038.544	-1442
1038.607	-580
1038.670	-1162
1038.732	-1105
1038.795	-1563
1038.858	-1889
1038.921	-1849
1038.984	-1590
1039.046	-1043
1039.109	-1819
1039.172	-887
1039.234	-1969
1039.297	-1258
1039.360	-2137
1039.422	-1963
1039.485	-2005
1039.547	-2378
1039.610	-1367
1039.672	-1633
1039.734	-1343
1039.797	-1270
1039.859	-1201
1039.922	-1301
1039.984	-1955
1040.046	-1876
1040.109	-2195
1040.171	-2166
1040.233	-1979
1040.295	-1811
1040.358	-1815
1040.420	-2049
1040.482	-1802
1040.544	-1784
1040.606	-2474
1040.668	-2058
1040.730	-2002
1040.792	-1733
1040.854	-2489
1040.916	-2038
1040.978	-2658
1041.040	-1119
1041.102	-1729
1041.164	-1826
1041.225	-2416
1041.287	-1761
1041.349	-1873
1041.411	-1004
1041.472	-1666
1041.534	-1900
1041.596	-2087
1041.657	-1213
1041.719	-1813
1041.781	-1447
1041.842	-1891
1041.904	-1428
1041.965	-1169
1042.027	-1325
1042.088	-1890
1042.150	-744
1042.211	-1065
1042.272	-1437
1042.334	-1809
1042.395	-2375
1042.456	-2169
1042.518	-1229
1042.579	-2255
1042.640	-1323
1042.701	-1697
1042.763	-1529
1042.824	-2055
1042.885	-2076
1042.946	-1781
1043.007	-1038
1043.068	-2097
1043.129	-1617
1043.190	-2340
1043.251	-1924
1043.312	-2142
1043.373	-1867
1043.434	-2082
1043.495	-1616
1043.556	-2540
1043.616	-1494
1043.677	-2659
1043.738	-1647
1043.799	-1838
1043.859	-2149
1043.920	-2038
1043.981	-2123
1044.041	-1434
1044.102	-1837
1044.162	-2456
1044.223	-2386
1044.284	-2162
1044.344	-1892
1044.405	-1993
1044.465	-2013
1044.525	-1644
1044.586	-1142
1044.646	-2259
1044.707	-1600
1044.767	-2038
1044.827	-1343
1044.887	-1373
1044.948	-1371
1045.008	-2103
1045.068	-1256
1045.128	-2776
1045.188	-1279
1045.249	-1531
1045.309	-2072
1045.369	-2275
1045.429	-1284
1045.489	-2021
1045.549	-1181
1045.609	-1355
1045.669	-1321
1045.729	-1933
1045.789	-1628
1045.848	-1694
1045.908	-876
1045.968	-2154
1046.028	-1275
1046.088	-2008
1046.147	-1683
1046.207	-2025
1046.267	-1722
1046.326	-1372
1046.386	-1914
1046.446	-1289
1046.505	-1251
1046.565	-1635
1046.624	-841
1046.684	-1350
1046.743	-768
1046.803	-1151
1046.862	-591
1046.922	0
