'Start Wavelength	183.907
'End Wavelength	1046.922
'Gate Delay	5.000
'Gate Width (ms)	1.050
'Laser Output Level	0.000
'X Position	0.000
'Y Position	0.000
'Z Position	0.000
'Grid Point Number	1.000
'Shot Number	100.000
183.907	293.000
183.977	-585.000
184.047	605
184.116	749
184.186	183
184.256	16
184.325	762
184.395	-121
184.465	-335
184.534	557
184.604	-122
184.674	597
184.743	461
184.813	599
184.883	456
184.952	603
185.022	289
185.092	209
185.161	111
185.231	-29
185.301	47
185.370	499
185.440	677
185.509	12
185.579	-172
185.649	-108
185.718	217
185.788	289
185.857	-56
185.927	680
185.996	252
186.066	477
186.136	468
186.205	646
186.275	9
186.344	247
186.414	644
186.483	294
186.553	875
186.622	1893
186.692	733
186.761	632
186.831	237
186.900	62
186.970	753
187.039	961
187.109	1566
187.178	479
187.248	538
187.317	739
187.387	411
187.456	513
187.526	194
187.595	1463
187.664	425
187.734	184
187.803	383
187.873	643
187.942	1387
188.012	919
188.081	279
188.150	1061
188.220	1620
188.289	969
188.358	909
188.428	697
188.497	248
188.567	780
188.636	455
188.705	724
188.775	474
188.844	225
188.913	1121
188.983	299
189.052	1154
189.121	626
189.191	529
189.260	1194
189.329	493
189.399	762
189.468	526
189.537	228
189.606	-181
189.676	766
189.745	258
189.814	1102
189.883	361
189.953	647
190.022	1340
190.091	1499
190.161	1643
190.230	550
190.299	527
190.368	696
190.437	-6
190.507	445
190.576	1222
190.645	73
190.714	89
190.783	566
190.853	1088
190.922	813
190.991	929
191.060	569
191.129	608
191.198	274
191.268	1013
191.337	1019
191.406	1330
191.475	401
191.544	453
191.613	1384
191.682	785
191.752	284
191.821	303
191.890	673
191.959	835
192.028	1094
192.097	775
192.166	299
192.235	775
192.304	980
192.373	394
192.442	810
192.511	1204
192.580	909
192.650	1356
192.719	1089
192.788	1201
192.857	807
192.926	619
192.995	888
193.064	1675
193.133	1788
193.202	1625
193.271	1397
193.340	1736
193.409	1820
193.478	1968
193.547	2229
193.615	2847
193.684	2046
193.753	1670
193.822	1891
193.891	868
193.960	955
194.029	813
194.098	889
194.167	439
194.236	1025
194.305	587
194.374	881
194.443	1155
194.512	1805
194.580	897
194.649	1379
194.718	604
194.787	644
194.856	-69
194.925	1035
194.994	1152
195.062	883
195.131	964
195.200	948
195.269	1118
195.338	1130
195.407	1119
195.475	1367
195.544	1207
195.613	791
195.682	903
195.751	1292
195.819	603
195.888	1748
195.957	1225
196.026	1684
196.094	1101
196.163	1220
196.232	586
196.301	789
196.369	529
196.438	1277
196.507	661
196.576	352
196.644	902
196.713	830
196.782	390
196.850	856
196.919	1018
196.988	891
197.056	638
197.125	1698
197.194	1011
197.262	729
197.331	861
197.400	931
197.468	694
197.537	1025
197.606	1448
197.674	1593
197.743	2397
197.812	1194
197.880	1982
197.949	1077
198.017	1679
198.086	977
198.155	594
198.223	1563
198.292	2217
198.360	1614
198.429	1595
198.497	889
198.566	2025
198.635	1808
198.703	1329
198.772	1613
198.840	1864
198.909	2486
198.977	1524
199.046	1476
199.114	1464
199.183	1019
199.251	1141
199.320	1448
199.388	1590
199.457	620
199.525	724
199.594	849
199.662	1412
199.731	974
199.799	1825
199.867	1496
199.936	1607
200.004	952
200.073	1368
200.141	1259
200.210	945
200.278	1480
200.346	2079
200.415	2841
200.483	1868
200.552	2136
200.620	1157
200.688	1579
200.757	1392
200.825	436
200.893	1292
200.962	949
201.030	1571
201.098	1025
201.167	1469
201.235	1336
201.303	2031
201.372	672
201.440	1580
201.508	1379
201.577	1413
201.645	1972
201.713	1084
201.781	1342
201.850	1689
201.918	1132
201.986	1353
202.055	1305
202.123	611
202.191	917
202.259	1425
202.327	1719
202.396	1048
202.464	1321
202.532	1626
202.600	3639
202.669	2007
202.737	1249
202.805	1087
202.873	1301
202.941	2037
203.009	1156
203.078	1612
203.146	1612
203.214	1496
203.282	1685
203.350	872
203.418	1506
203.487	1758
203.555	1054
203.623	1602
203.691	1462
203.759	1437
203.827	1512
203.895	1744
203.963	1828
204.031	2278
204.099	1753
204.168	1229
204.236	1577
204.304	1991
204.372	1684
204.440	2147
204.508	1795
204.576	1450
204.644	1467
204.712	1421
204.780	2237
204.848	2113
204.916	1590
204.984	1658
205.052	2432
205.120	1083
205.188	2464
205.256	1716
205.324	1192
205.392	1811
205.460	1621
205.528	2331
205.596	2249
205.664	1646
205.732	1953
205.799	3725
205.867	2759
205.935	1443
206.003	2372
206.071	1395
206.139	1910
206.207	2147
206.275	2211
206.343	1645
206.411	1915
206.478	2180
206.546	1797
206.614	1890
206.682	2104
206.750	2025
206.818	3285
206.885	3872
206.953	1763
207.021	1766
207.089	2420
207.157	1998
207.225	2248
207.292	2059
207.360	2815
207.428	2275
207.496	1841
207.563	2211
207.631	1803
207.699	2624
207.767	2334
207.834	2332
207.902	2740
207.970	2670
208.038	2108
208.105	2690
208.173	2164
208.241	1927
208.309	3247
208.376	2701
208.444	2614
208.512	2846
208.579	2308
208.647	2932
208.715	2376
208.782	2552
208.850	1861
208.918	2772
208.985	2292
209.053	3153
209.120	2146
209.188	1980
209.256	2479
209.323	2158
209.391	2108
209.459	3121
209.526	2574
209.594	1783
209.661	2358
209.729	2538
209.796	2049
209.864	3448
209.932	2311
209.999	3396
210.067	2641
210.134	2481
210.202	3214
210.269	3231
210.337	3809
210.404	2859
210.472	1424
210.539	2677
210.607	2760
210.674	2557
210.742	2988
210.809	2611
210.877	3018
210.944	3371
211.012	2474
211.079	4260
211.146	2139
211.214	3713
211.281	4494
211.349	3265
211.416	2857
211.484	3562
211.551	3117
211.618	3153
211.686	2906
211.753	2933
211.821	3172
211.888	3408
211.955	2915
212.023	3313
212.090	2963
212.157	2830
212.225	2995
212.292	3798
212.359	5921
212.427	9278
212.494	4521
212.561	3769
212.629	3170
212.696	3234
212.763	3264
212.831	2849
212.898	3214
212.965	2735
213.032	2800
213.100	3165
213.167	4064
213.234	3731
213.301	3233
213.369	2433
213.436	2058
213.503	3184
213.570	3389
213.638	2314
213.705	2642
213.772	2638
213.839	2739
213.906	2662
213.973	2967
214.041	2683
214.108	2810
214.175	2974
214.242	2047
214.309	2570
214.376	2996
214.444	3196
214.511	3955
214.578	3548
214.645	4009
214.712	3952
214.779	3946
214.846	3486
214.913	3953
214.980	4350
215.048	4800
215.115	5555
215.182	4526
215.249	3674
215.316	3593
215.383	3525
215.450	3299
215.517	2741
215.584	3304
215.651	2934
215.718	2318
215.785	2969
215.852	3414
215.919	3392
215.986	3385
216.053	2491
216.120	2525
216.187	2778
216.254	2424
216.321	2750
216.388	3709
216.455	3469
216.522	3504
216.589	3383
216.656	5222
216.722	5139
216.789	5230
216.856	5908
216.923	4649
216.990	4269
217.057	5247
217.124	5496
217.191	5099
217.258	6942
217.324	6936
217.391	6971
217.458	5616
217.525	4776
217.592	4563
217.659	3894
217.725	3517
217.792	4458
217.859	3451
217.926	3658
217.993	2964
218.059	2551
218.126	2161
218.193	2884
218.260	3377
218.327	2867
218.393	2438
218.460	2520
218.527	2033
218.594	2664
218.660	3572
218.727	3356
218.794	2016
218.860	2505
218.927	1514
218.994	2715
219.061	2520
219.127	2551
219.194	3017
219.261	2510
219.327	2549
219.394	3022
219.461	2340
219.527	2279
219.594	2527
219.661	2965
219.727	2454
219.794	2863
219.860	2718
219.927	2840
219.994	5476
220.060	7459
220.127	6666
220.193	5600
220.260	4670
220.326	7658
220.393	10556
220.460	10312
220.526	7515
220.593	5656
220.659	5120
220.726	5853
220.792	9232
220.859	10534
220.925	14154
220.992	14545
221.058	13345
221.125	10622
221.191	8285
221.258	5123
221.324	3981
221.391	3327
221.457	2655
221.524	3592
221.590	4040
221.657	7921
221.723	4729
221.789	6091
221.856	4696
221.922	3785
221.989	2981
222.055	3197
222.121	3002
222.188	4259
222.254	3936
222.321	3111
222.387	2561
222.453	2208
222.520	2165
222.586	2343
222.652	2084
222.719	2009
222.785	2337
222.851	2243
222.918	2168
222.984	2108
223.050	2033
223.116	1953
223.183	2755
223.249	1348
223.315	979
223.382	1519
223.448	2288
223.514	1024
223.580	1853
223.647	1863
223.713	2349
223.779	1934
223.845	1986
223.911	2419
223.978	1998
224.044	1469
224.110	1920
224.176	2311
224.242	1326
224.309	1276
224.375	1901
224.441	1586
224.507	1814
224.573	1612
224.639	2249
224.705	1768
224.772	1930
224.838	2167
224.904	2442
224.970	1866
225.036	1780
225.102	2476
225.168	2281
225.234	2260
225.300	2305
225.366	1963
225.432	1844
225.499	2098
225.565	2101
225.631	2696
225.697	2335
225.763	3591
225.829	4034
225.895	3759
225.961	4886
226.027	4554
226.093	4041
226.159	5275
226.225	9970
226.291	17307
226.357	19192
226.423	12437
226.489	8587
226.554	6249
226.620	5249
226.686	6789
226.752	9901
226.818	17239
226.884	21164
226.950	19158
227.016	11304
227.082	8761
227.148	5175
227.214	5401
227.279	5156
227.345	4655
227.411	5673
227.477	8979
227.543	12152
227.609	11868
227.674	7130
227.740	4703
227.806	3799
227.872	3034
227.938	2586
228.003	4230
228.069	2782
228.135	2255
228.201	2166
228.267	2537
228.332	3167
228.398	3562
228.464	2917
228.530	2572
228.595	2281
228.661	1954
228.727	3179
228.792	3211
228.858	2188
228.924	2168
228.990	2499
229.055	2624
229.121	2421
229.187	2446
229.252	2393
229.318	1789
229.384	1883
229.449	2536
229.515	1276
229.581	766
229.646	2434
229.712	2016
229.777	3760
229.843	3073
229.909	3760
229.974	3348
230.040	3741
230.105	3520
230.171	2969
230.236	4151
230.302	5316
230.368	3460
230.433	2758
230.499	2907
230.564	3605
230.630	2496
230.695	2659
230.761	2937
230.826	2347
230.892	3560
230.957	2065
231.023	2562
231.088	2906
231.154	2663
231.219	2936
231.284	3620
231.350	3466
231.415	2557
231.481	2738
231.546	2245
231.612	1693
231.677	2289
231.742	1614
231.808	2324
231.873	1523
231.939	1924
232.004	3347
232.069	2287
232.135	2092
232.200	2851
232.265	2467
232.331	1464
232.396	2004
232.461	1900
232.527	1968
232.592	2031
232.657	2310
232.723	2797
232.788	1867
232.853	2190
232.918	1988
232.984	2518
233.049	1390
233.114	2958
233.179	3415
233.245	3218
233.310	2424
233.375	1853
233.440	2481
233.506	2509
233.571	1912
233.636	1751
233.701	2238
233.766	2097
233.832	1989
233.897	1942
233.962	2042
234.027	1918
234.092	2930
234.157	2456
234.222	3048
234.288	3933
234.353	5101
234.418	4994
234.483	4362
234.548	3703
234.613	3303
234.678	3475
234.743	3204
234.808	5769
234.873	4089
234.938	3362
235.004	3311
235.069	3391
235.134	1515
235.199	3378
235.264	3016
235.329	3399
235.394	2743
235.459	2348
235.524	2684
235.589	2881
235.654	1982
235.719	1968
235.784	2757
235.849	3297
235.913	3339
235.978	3821
236.043	4137
236.108	2874
236.173	3117
236.238	3297
236.303	2764
236.368	3109
236.433	4302
236.498	4945
236.563	6495
236.627	16344
236.692	31969
236.757	24919
236.822	12083
236.887	9103
236.952	6731
237.017	7043
237.081	7594
237.146	10909
237.211	21854
237.276	35156
237.341	36157
237.405	21789
237.470	12012
237.535	7092
237.600	5496
237.664	5077
237.729	3680
237.794	8883
237.859	13087
237.923	7090
237.988	3946
238.053	4231
238.118	4328
238.182	7965
238.247	5667
238.312	4063
238.376	3524
238.441	2137
238.506	3761
238.570	1959
238.635	2927
238.700	2857
238.764	3072
238.829	4650
238.893	3854
238.958	3452
239.023	3601
239.087	3490
239.152	3962
239.216	2712
239.281	3512
239.346	2419
239.410	2893
239.475	3251
239.539	7390
239.604	4930
239.668	3460
239.733	5146
239.797	12739
239.862	22223
239.926	14316
239.991	6426
240.055	3896
240.120	4029
240.184	3893
240.249	2004
240.313	1959
240.378	2935
240.442	4719
240.507	5287
240.571	2474
240.635	3188
240.700	3504
240.764	2234
240.829	2741
240.893	1812
240.957	2497
241.022	5012
241.086	4955
241.151	3087
241.215	1981
241.279	3466
241.344	3058
241.408	3812
241.472	3935
241.537	4640
241.601	4077
241.665	3071
241.730	3058
241.794	3711
241.858	4005
241.922	3317
241.987	4139
242.051	3680
242.115	3103
242.179	3255
242.244	3163
242.308	3519
242.372	3837
242.436	3838
242.501	3539
242.565	3193
242.629	2429
242.693	3388
242.757	2343
242.822	3378
242.886	3465
242.950	2925
243.014	2909
243.078	2885
243.142	3340
243.206	3395
243.271	3626
243.335	3806
243.399	4102
243.463	17502
243.527	27150
243.591	9321
243.655	5123
243.719	2847
243.783	4374
243.847	7458
243.911	6380
243.975	7349
244.040	4375
244.104	3886
244.168	3050
244.232	4308
244.296	5683
244.360	6279
244.424	3051
244.488	3109
244.552	3063
244.615	1987
244.679	3055
244.743	3135
244.807	2601
244.871	2677
244.935	2996
244.999	2242
245.063	2703
245.127	3800
245.191	5859
245.255	4626
245.319	3813
245.383	2184
245.446	3415
245.510	2095
245.574	2563
245.638	2844
245.702	3719
245.766	6842
245.829	4223
245.893	3501
245.957	3140
246.021	3801
246.085	3534
246.149	3679
246.212	9020
246.276	10105
246.340	5003
246.404	3706
246.467	5436
246.531	5505
246.595	4835
246.659	4276
246.722	3321
246.786	4244
246.850	5203
246.913	5849
246.977	3023
247.041	3202
247.104	3622
247.168	3852
247.232	8703
247.295	12739
247.359	5576
247.423	4737
247.486	7167
247.550	4490
247.614	3853
247.677	4388
247.741	2858
247.804	3483
247.868	3591
247.932	8667
247.995	11903
248.059	5051
248.122	3038
248.186	5082
248.249	8359
248.313	23949
248.376	19939
248.440	12704
248.503	4739
248.567	6022
248.630	7553
248.694	10062
248.757	15054
248.821	22627
248.884	13044
248.948	14317
249.011	18348
249.075	27306
249.138	19114
249.202	8981
249.265	6837
249.328	7140
249.392	6276
249.455	5571
249.519	5467
249.582	6936
249.645	9866
249.709	8614
249.772	7233
249.835	5772
249.899	5340
249.962	5226
250.025	5485
250.089	11432
250.152	11410
250.215	7001
250.279	5622
250.342	5918
250.405	5317
250.468	4933
250.532	7019
250.595	10026
250.658	38819
250.721	40157
250.785	17367
250.848	11021
250.911	7071
250.974	7169
251.038	10395
251.101	13180
251.164	8217
251.227	9133
251.290	8472
251.354	15468
251.417	47345
251.480	34541
251.543	35436
251.606	72443
251.669	45042
251.732	22453
251.795	21898
251.859	25108
251.922	47321
251.985	22154
252.048	11584
252.111	8659
252.174	8325
252.237	15673
252.300	25712
252.363	36639
252.426	52322
252.489	21898
252.552	11222
252.615	8221
252.678	10590
252.741	22542
252.804	33872
252.867	56230
252.930	30848
252.993	16679
253.056	11971
253.119	7088
253.182	6443
253.245	11969
253.308	8312
253.371	6503
253.434	6142
253.497	7235
253.559	11501
253.622	8434
253.685	10881
253.748	8917
253.811	5381
253.874	6305
253.937	5383
254.000	4944
254.062	11034
254.125	12345
254.188	12775
254.251	8083
254.314	4926
254.376	10052
254.439	8643
254.502	7607
254.565	11134
254.628	14299
254.690	7678
254.753	5045
254.816	4769
254.878	4974
254.941	10534
255.004	8363
255.067	4580
255.129	3875
255.192	3215
255.255	2917
255.317	3892
255.380	2810
255.443	2841
255.505	3063
255.568	2199
255.631	3478
255.693	4117
255.756	2950
255.819	3842
255.881	2916
255.944	2116
256.006	2951
256.069	3005
256.132	2940
256.194	4262
256.257	4805
256.319	4491
256.382	5869
256.444	6654
256.507	5964
256.569	5274
256.632	3926
256.694	7697
256.757	29360
256.819	49998
256.882	21214
256.944	9997
257.007	7996
257.069	6260
257.132	5020
257.194	5784
257.257	4374
257.319	4682
257.381	7468
257.444	21527
257.506	66581
257.569	56531
257.631	24567
257.693	14093
257.756	7950
257.818	5387
257.880	4722
257.943	4447
258.005	3685
258.067	3819
258.130	3719
258.192	5020
258.254	6182
258.317	4125
258.379	3825
258.441	10238
258.503	7510
258.566	9018
258.628	7337
258.690	3818
258.753	5025
258.815	7549
258.877	5132
258.939	4853
259.001	3781
259.064	4412
259.126	3918
259.188	4762
259.250	4940
259.312	4991
259.375	8357
259.437	5277
259.499	4263
259.561	4089
259.623	4212
259.685	3572
259.747	3976
259.809	9006
259.872	9872
259.934	20103
259.996	13256
260.058	5506
260.120	3494
260.182	3008
260.244	3287
260.306	3144
260.368	3549
260.430	2818
260.492	5314
260.554	7883
260.616	5577
260.678	13129
260.740	9588
260.802	3819
260.864	4899
260.926	2788
260.988	4502
261.050	3411
261.112	7360
261.174	13788
261.236	7519
261.298	5383
261.359	7143
261.421	6202
261.483	3776
261.545	3336
261.607	3038
261.669	3324
261.731	4830
261.793	9455
261.854	4187
261.916	4732
261.978	3372
262.040	3573
262.102	3116
262.164	3098
262.225	3295
262.287	4076
262.349	7986
262.411	5254
262.472	3717
262.534	4728
262.596	6153
262.658	4411
262.719	2902
262.781	3909
262.843	6272
262.904	3519
262.966	3167
263.028	4654
263.090	22515
263.151	34723
263.213	11982
263.275	7584
263.336	4326
263.398	3360
263.459	2615
263.521	3830
263.583	8371
263.644	5036
263.706	3205
263.767	2941
263.829	2466
263.891	2002
263.952	1894
264.014	1330
264.075	4659
264.137	5888
264.198	3508
264.260	2499
264.321	2765
264.383	7282
264.444	9997
264.506	3982
264.567	3037
264.629	7547
264.690	7032
264.752	4726
264.813	3784
264.875	2800
264.936	3664
264.998	3399
265.059	4028
265.120	4258
265.182	9231
265.243	42579
265.305	27350
265.366	9022
265.427	5244
265.489	4862
265.550	3315
265.611	4410
265.673	3540
265.734	2298
265.795	2513
265.857	3157
265.918	3948
265.979	13900
266.040	58313
266.102	33165
266.163	12214
266.224	8114
266.286	5233
266.347	3019
266.408	4451
266.469	3518
266.530	3703
266.592	2701
266.653	6505
266.714	7671
266.775	4530
266.836	2698
266.898	2472
266.959	4540
267.020	3941
267.081	3831
267.142	3378
267.203	3543
267.264	2475
267.326	4909
267.387	3533
267.448	3003
267.509	3829
267.570	2851
267.631	2493
267.692	2773
267.753	3504
267.814	2037
267.875	6217
267.936	8802
267.997	4908
268.058	3838
268.119	3018
268.180	2929
268.241	2408
268.302	3026
268.363	2260
268.424	2883
268.485	3123
268.546	1838
268.607	2427
268.668	2305
268.729	2567
268.790	3256
268.851	3483
268.912	8504
268.972	6921
269.033	3696
269.094	2146
269.155	3346
269.216	2455
269.277	2378
269.338	3196
269.398	3223
269.459	2523
269.520	4101
269.581	5329
269.642	5202
269.702	4344
269.763	3775
269.824	3982
269.885	5150
269.945	5457
270.006	3412
270.067	2682
270.128	3443
270.188	2483
270.249	2573
270.310	2492
270.370	3129
270.431	3135
270.492	2989
270.553	3870
270.613	6352
270.674	9543
270.734	4364
270.795	3446
270.856	5327
270.916	3001
270.977	2321
271.038	4198
271.098	3608
271.159	5891
271.219	4266
271.280	3295
271.340	3234
271.401	3143
271.462	4836
271.522	3460
271.583	2961
271.643	3344
271.704	3256
271.764	4243
271.825	9079
271.885	26820
271.946	23375
272.006	9321
272.066	16774
272.127	21191
272.187	13974
272.248	6862
272.308	6963
272.369	15216
272.429	6983
272.489	7491
272.550	6884
272.610	7970
272.671	5099
272.731	5656
272.791	6369
272.852	4771
272.912	4674
272.972	3371
273.033	3214
273.093	4273
273.153	5085
273.214	4427
273.274	3578
273.334	15209
273.394	19426
273.455	7517
273.515	10817
273.575	18149
273.635	7554
273.696	12875
273.756	17441
273.816	7655
273.876	5596
273.936	8136
273.997	8238
274.057	3143
274.117	4549
274.177	7863
274.237	28864
274.297	14211
274.358	11597
274.418	17764
274.478	10620
274.538	5636
274.598	4433
274.658	9445
274.718	9323
274.778	4284
274.838	3444
274.898	6756
274.958	12359
275.018	19741
275.078	11090
275.138	5990
275.198	3429
275.258	3568
275.318	4349
275.378	6812
275.438	6883
275.498	5646
275.558	8695
275.618	17091
275.678	13094
275.738	11121
275.798	6695
275.858	4854
275.918	2915
275.978	4088
276.038	3843
276.098	4444
276.157	8521
276.217	16866
276.277	7333
276.337	5648
276.397	4336
276.457	4944
276.517	3680
276.576	3797
276.636	2989
276.696	5750
276.756	11813
276.815	5796
276.875	4709
276.935	5007
276.995	4242
277.055	4569
277.114	4406
277.174	6773
277.234	13478
277.293	5452
277.353	3407
277.413	3080
277.472	4047
277.532	3598
277.592	4377
277.651	15668
277.711	16424
277.771	9506
277.830	28232
277.890	14042
277.950	18033
278.009	33313
278.069	11850
278.128	19444
278.188	17197
278.248	10301
278.307	24628
278.367	10395
278.426	5513
278.486	4382
278.545	3555
278.605	4287
278.664	3290
278.724	3687
278.783	12393
278.843	18204
278.902	5651
278.962	4402
279.021	5556
279.081	4860
279.140	4906
279.199	5233
279.259	3955
279.318	4670
279.378	5834
279.437	11086
279.496	35268
279.556	84128
279.615	40224
279.675	13629
279.734	10424
279.793	18327
279.853	22684
279.912	8961
279.971	6190
280.031	6083
280.090	15272
280.149	16911
280.208	13244
280.268	61762
280.327	37496
280.386	11322
280.445	12774
280.505	10094
280.564	5669
280.623	4837
280.682	9793
280.742	10418
280.801	4858
280.860	3891
280.919	3626
280.978	3240
281.037	3018
281.097	3174
281.156	3215
281.215	3120
281.274	5633
281.333	17446
281.392	7399
281.451	3962
281.510	2621
281.569	3231
281.628	2759
281.688	3017
281.747	4614
281.806	3027
281.865	2495
281.924	3042
281.983	3235
282.042	2766
282.101	2907
282.160	2841
282.219	3030
282.278	3987
282.337	10889
282.396	4777
282.454	4229
282.513	5177
282.572	15005
282.631	6380
282.690	3929
282.749	3374
282.808	3941
282.867	4177
282.926	3447
282.985	3275
283.043	3133
283.102	3125
283.161	3152
283.220	9501
283.279	12828
283.338	5120
283.396	4321
283.455	3395
283.514	4562
283.573	6447
283.631	4134
283.690	3728
283.749	3538
283.808	8031
283.866	6556
283.925	3626
283.984	4574
284.043	5610
284.101	4015
284.160	3371
284.219	3995
284.277	4147
284.336	7682
284.395	20589
284.453	10783
284.512	6569
284.570	9033
284.629	6615
284.688	7248
284.746	7808
284.805	8016
284.863	10761
284.922	12445
284.981	16369
285.039	21199
285.098	39834
285.156	95242
285.215	124227
285.273	125741
285.332	74943
285.390	42295
285.449	26500
285.507	18963
285.566	14087
285.624	10751
285.683	8403
285.741	7162
285.799	7062
285.858	6712
285.916	6345
285.975	5323
286.033	4620
286.091	5025
286.150	4678
286.208	3691
286.267	3628
286.325	4512
286.383	7108
286.442	5913
286.500	3905
286.558	3763
286.616	3546
286.675	5384
286.733	3740
286.791	3324
286.850	4599
286.908	5649
286.966	8421
287.024	4597
287.083	4418
287.141	3953
287.199	4120
287.257	5135
287.315	3801
287.374	5490
287.432	10152
287.490	5189
287.548	4474
287.606	3524
287.664	3984
287.723	5355
287.781	4910
287.839	3823
287.897	4846
287.955	4843
288.013	6844
288.071	17686
288.129	84568
288.187	141125
288.245	53432
288.303	22212
288.361	13862
288.419	9700
288.477	7370
288.535	5149
288.593	5297
288.651	4150
288.709	3416
288.767	3920
288.825	2595
288.883	3570
288.941	4272
288.999	3149
289.057	3483
289.115	3477
289.173	3524
289.231	3527
289.289	3386
289.346	4066
289.404	4922
289.462	6137
289.520	5047
289.578	3544
289.636	3080
289.694	3356
289.751	2389
289.809	3207
289.867	3286
289.925	4856
289.983	3766
290.040	3083
290.098	3356
290.156	3678
290.214	3929
290.271	3476
290.329	3280
290.387	3113
290.444	3336
290.502	2752
290.560	3630
290.617	3026
290.675	3210
290.733	3433
290.790	3218
290.848	3536
290.906	3056
290.963	2819
291.021	3036
291.078	3725
291.136	3211
291.194	9887
291.251	12472
291.309	3473
291.366	3801
291.424	3672
291.481	3695
291.539	2868
291.596	2407
291.654	2484
291.711	2741
291.769	3414
291.826	5374
291.884	3554
291.941	2565
291.999	2361
292.056	3295
292.114	2698
292.171	3520
292.228	4153
292.286	4601
292.343	6711
292.401	6811
292.458	4653
292.515	3838
292.573	5528
292.630	3989
292.687	3770
292.745	3127
292.802	4073
292.859	8974
292.917	15443
292.974	7240
293.031	4137
293.089	3143
293.146	3293
293.203	3864
293.260	2231
293.318	2238
293.375	3215
293.432	2582
293.489	3670
293.546	2890
293.604	3989
293.661	12739
293.718	19976
293.775	8684
293.832	6027
293.889	5943
293.947	4886
294.004	3270
294.061	4424
294.118	9599
294.175	13980
294.232	11846
294.289	5937
294.346	6507
294.403	6807
294.460	4482
294.517	4088
294.574	3468
294.631	2623
294.688	3572
294.745	10266
294.802	26298
294.859	17493
294.916	7636
294.973	5450
295.030	5322
295.087	4066
295.144	3462
295.201	3862
295.258	3596
295.315	4097
295.372	13632
295.429	16214
295.486	7495
295.542	5390
295.599	12856
295.656	13389
295.713	14422
295.770	15523
295.827	6368
295.883	5321
295.940	3547
295.997	7090
296.054	4616
296.111	3861
296.167	3907
296.224	3160
296.281	3502
296.338	3722
296.394	2751
296.451	3798
296.508	12079
296.564	12567
296.621	9757
296.678	26798
296.734	22851
296.791	8352
296.848	5875
296.904	8340
296.961	14921
297.018	21967
297.074	11652
297.131	6139
297.187	4559
297.244	7734
297.301	28884
297.357	28066
297.414	9470
297.470	6236
297.527	4972
297.583	4637
297.640	4650
297.696	3328
297.753	3498
297.809	3510
297.866	3176
297.922	3325
297.979	2489
298.035	3199
298.092	6426
298.148	15019
298.204	9922
298.261	5952
298.317	14555
298.374	24858
298.430	10997
298.486	7152
298.543	4792
298.599	7421
298.656	8821
298.712	14004
298.768	26605
298.824	13499
298.881	6153
298.937	4898
298.993	4912
299.050	4586
299.106	3811
299.162	3661
299.218	4230
299.275	3501
299.331	3588
299.387	9348
299.443	31358
299.500	35990
299.556	16623
299.612	8552
299.668	11104
299.724	28061
299.780	19425
299.837	7728
299.893	12266
299.949	36980
300.005	30343
300.061	33930
300.117	39882
300.173	15935
300.229	8994
300.285	10467
300.341	10062
300.397	5575
300.453	4047
300.510	4820
300.566	5040
300.622	11934
300.678	44460
300.734	39772
300.790	25830
300.845	24416
300.901	31695
300.957	35874
301.013	16680
301.069	8002
301.125	6822
301.181	6011
301.237	4486
301.293	4066
301.349	4167
301.405	4368
301.461	6017
301.516	7309
301.572	6020
301.628	7537
301.684	5907
301.740	12922
301.796	14098
301.851	10625
301.907	14527
301.963	11946
302.019	30957
302.074	63688
302.130	48932
302.186	22632
302.242	11133
302.297	7783
302.353	9219
302.409	15333
302.464	10207
302.520	11672
302.576	25891
302.631	22130
302.687	11568
302.743	6504
302.798	5441
302.854	4144
302.910	5409
302.965	6254
303.021	9732
303.076	8084
303.132	11236
303.187	10752
303.243	6303
303.299	5161
303.354	4993
303.410	5119
303.465	3834
303.521	3919
303.576	4034
303.632	4450
303.687	10287
303.743	22127
303.798	13653
303.853	6965
303.909	4823
303.964	4875
304.020	7454
304.075	8522
304.130	9056
304.186	15473
304.241	14343
304.297	10753
304.352	7117
304.358	6847
304.407	4661
304.449	5533
304.463	5830
304.518	4512
304.539	4264
304.573	3862
304.629	3761
304.630	3830
304.684	7003
304.720	15046
304.739	19166
304.794	18795
304.811	16187
304.850	9778
304.902	6252
304.905	6040
304.960	5424
304.992	5689
305.015	5865
305.071	5350
305.083	5148
305.126	4375
305.173	3656
305.181	3546
305.236	3123
305.264	3379
305.292	3683
305.347	5535
305.354	5577
305.402	5852
305.445	6128
305.457	6175
305.512	6347
305.535	5830
305.567	5204
305.622	6133
305.626	6446
305.678	12080
305.716	21377
305.733	25031
305.788	19132
305.807	17070
305.843	13158
305.897	20815
305.898	20922
305.953	15947
305.988	12127
306.008	9873
306.063	7092
306.078	6391
306.118	4783
306.168	3544
306.173	3455
306.228	3215
306.259	2964
306.283	2685
306.338	2995
306.349	3112
306.393	3857
306.440	4917
306.448	5030
306.503	3914
306.530	4030
306.558	4679
306.613	9744
306.620	10226
306.668	13434
306.711	18275
306.723	19122
306.778	12387
306.801	10032
306.833	7166
306.888	4641
306.892	4611
306.943	4762
306.982	3926
306.997	3623
307.052	3469
307.072	3339
307.107	3179
307.162	3323
307.163	3327
307.217	3746
307.253	4277
307.272	4554
307.327	4450
307.343	4518
307.381	4431
307.434	4204
307.436	4266
307.491	7589
307.524	11782
307.546	14153
307.600	14139
307.614	13129
307.655	8359
307.704	5715
307.710	5613
307.765	5843
307.795	6371
307.819	7156
307.874	9493
307.885	9575
307.929	9286
307.975	10097
307.984	10637
308.038	15422
308.065	20911
308.093	33260
308.148	76469
308.156	84301
308.202	136394
308.246	154872
308.257	147025
308.312	81208
308.336	57263
308.366	43886
308.421	25196
308.426	23833
308.475	16674
308.517	12301
308.530	11308
308.585	8816
308.607	8377
308.639	8084
308.694	7502
308.697	7577
308.748	9785
308.787	11336
308.803	11449
308.857	10010
308.877	9788
308.912	9750
308.967	10796
308.967	10825
309.021	14550
309.058	18934
309.076	23267
309.130	41900
309.148	50988
309.185	91992
309.238	158990
309.239	159712
309.293	180027
309.328	175704
309.348	150534
309.402	75207
309.418	55813
309.457	38905
309.508	22849
309.511	22327
309.566	17784
309.598	16080
309.620	16098
309.674	18843
309.688	19385
309.729	18532
309.778	14917
309.783	14496
309.837	10561
309.868	9105
309.892	9879
309.946	14530
309.959	16067
310.001	21989
310.049	24959
310.055	24122
310.109	14556
310.139	10013
310.163	8070
310.218	5384
310.229	4880
310.272	4381
310.319	3911
310.326	3855
310.381	3820
310.409	3793
310.435	3423
310.489	2904
310.499	2772
310.543	2651
310.589	2965
310.598	2999
310.652	2736
310.679	2727
310.706	2914
310.760	3242
310.769	3285
310.814	2986
310.859	2778
310.868	2829
310.923	3185
310.948	3308
310.977	3353
311.031	3526
311.038	3547
311.085	3161
311.128	2713
311.139	2697
311.193	2731
311.218	2766
311.247	2878
311.301	2999
311.308	3015
311.356	2512
311.398	2062
311.410	2111
311.464	2473
311.488	2578
311.518	2590
311.572	2761
311.578	2785
311.626	3228
311.668	3530
311.680	3426
311.734	2977
311.758	2796
311.788	3137
311.842	3785
311.847	3854
311.896	3737
311.937	3679
311.950	3594
312.004	3207
312.027	3045
312.058	2977
312.112	2893
312.117	2887
312.165	3008
312.207	3124
312.297	3413
312.386	2648
312.476	3023
312.566	4742
312.656	3349
312.745	3113
312.835	3578
312.925	2736
313.015	3708
313.104	3208
313.194	3548
313.284	3453
313.374	3342
313.463	4499
313.553	3766
313.643	3907
313.732	3991
313.822	3305
313.912	4028
314.001	5102
314.091	5509
314.180	5482
314.270	5531
314.360	5618
314.449	4722
314.539	4579
314.628	4896
314.718	4208
314.808	4477
314.897	5541
314.987	5526
315.076	6478
315.166	5811
315.255	5861
315.345	5345
315.434	4691
315.524	4752
315.613	4967
315.703	6207
315.792	11921
315.881	43366
315.971	19971
316.060	6887
316.150	6398
316.239	6012
316.328	4285
316.418	4633
316.507	4650
316.597	5899
316.686	5792
316.775	5807
316.865	6103
316.954	4411
317.043	3943
317.133	4231
317.222	3267
317.311	3384
317.400	2606
317.490	4160
317.579	4612
317.668	4545
317.757	7517
317.847	19852
317.936	73508
318.025	29015
318.114	16396
318.203	10010
318.293	8270
318.382	17960
318.471	15218
318.560	15993
318.649	17541
318.738	6542
318.828	4198
318.917	4088
319.006	3606
319.095	6827
319.184	20008
319.273	14148
319.362	6841
319.451	2468
319.540	3510
319.629	4764
319.718	8623
319.807	4533
319.896	7399
319.985	24567
320.074	11790
320.163	3367
320.252	4315
320.341	4577
320.430	4722
320.519	4930
320.608	4365
320.697	4519
320.786	5499
320.875	6626
320.964	7936
321.053	8732
321.142	9442
321.230	12189
321.319	11122
321.408	17587
321.497	15260
321.586	11002
321.675	9277
321.764	7770
321.852	7057
321.941	9699
322.030	9003
322.119	8727
322.207	15224
322.296	12766
322.385	12281
322.474	16076
322.562	25624
322.651	18798
322.740	11095
322.829	12310
322.917	9601
323.006	8050
323.095	6830
323.183	5574
323.272	5022
323.361	7788
323.449	17395
323.538	8933
323.626	11968
323.715	10441
323.804	4181
323.892	9621
323.981	8965
324.069	4169
324.158	6659
324.246	8324
324.335	3960
324.424	6025
324.512	3756
324.601	4036
324.689	4581
324.778	5855
324.866	6001
324.954	3244
325.043	2424
325.131	3716
325.220	5734
325.308	5301
325.397	4797
325.485	4046
325.574	3052
325.662	2829
325.750	3124
325.839	3302
325.927	3234
326.015	3677
326.104	3222
326.192	3930
326.280	3279
326.369	2855
326.457	3356
326.545	5117
326.634	3580
326.722	2640
326.810	3005
326.898	3850
326.987	4313
327.075	4002
327.163	5430
327.251	3080
327.340	4191
327.428	5833
327.516	5803
327.604	3969
327.692	3716
327.781	2785
327.869	3121
327.957	2444
328.045	2862
328.133	2687
328.221	1946
328.309	2662
328.397	2624
328.485	3253
328.574	6135
328.662	12311
328.750	7410
328.838	3609
328.926	3145
329.014	3374
329.102	3430
329.190	5136
329.278	4561
329.366	2778
329.454	1985
329.542	2309
329.630	2173
329.718	2739
329.806	2638
329.893	2865
329.981	3105
330.069	2731
330.157	4406
330.245	9757
330.333	6013
330.421	2726
330.509	3841
330.597	8350
330.684	7655
330.772	3479
330.860	3402
330.948	3937
331.036	3255
331.123	2244
331.211	2021
331.299	2339
331.387	4623
331.475	6347
331.562	3543
331.650	2233
331.738	2851
331.825	3273
331.913	2896
332.001	1986
332.089	2715
332.176	3567
332.264	4818
332.352	6213
332.439	2938
332.527	2520
332.614	2877
332.702	2725
332.790	2860
332.877	3265
332.965	5588
333.052	2993
333.140	3416
333.228	4399
333.315	3159
333.403	2871
333.490	3994
333.578	4987
333.665	5886
333.753	4723
333.840	3661
333.928	4354
334.015	5108
334.103	8874
334.190	25512
334.278	13773
334.365	13909
334.452	17799
334.540	9826
334.627	7496
334.715	9484
334.802	12521
334.889	32609
334.977	58114
335.064	32227
335.151	12210
335.239	7720
335.326	6784
335.413	14517
335.501	24573
335.588	7155
335.675	5950
335.762	8310
335.850	11297
335.937	14849
336.024	27578
336.111	63790
336.199	68402
336.286	27283
336.373	12460
336.460	8123
336.547	5994
336.635	6129
336.722	5174
336.809	4747
336.896	4073
336.983	7896
337.070	17542
337.157	29802
337.245	14754
337.332	12403
337.419	3974
337.506	3777
337.593	3120
337.680	5985
337.767	17015
337.854	6779
337.941	5571
338.028	5895
338.115	4546
338.202	3579
338.289	5183
338.376	12629
338.463	6800
338.550	8547
338.637	12782
338.724	4087
338.811	5111
338.898	2916
338.984	2942
339.071	3347
339.158	2903
339.245	5949
339.332	4099
339.419	4251
339.506	4556
339.593	2959
339.679	2429
339.766	2855
339.853	2743
339.940	5164
340.027	3266
340.113	2874
340.200	3249
340.287	3173
340.374	3234
340.460	5058
340.547	2890
340.634	3391
340.720	8441
340.807	8352
340.894	2512
340.980	3166
341.067	2906
341.154	3495
341.240	3591
341.327	6670
341.414	3984
341.500	3530
341.587	2751
341.674	2827
341.760	4247
341.847	4471
341.933	2880
342.020	2355
342.106	2952
342.193	3461
342.279	3755
342.366	3479
342.452	4144
342.539	3151
342.625	4590
342.712	11270
342.798	6166
342.885	3091
342.971	2783
343.058	2931
343.144	2182
343.230	2388
343.317	2636
343.403	2639
343.490	2870
343.576	2191
343.662	2792
343.749	3028
343.835	3942
343.921	4788
344.008	21104
344.094	67469
344.180	19511
344.267	4965
344.353	13444
344.439	19832
344.525	6546
344.612	3226
344.698	3344
344.784	3305
344.870	3084
344.957	2107
345.043	3956
345.129	3407
345.215	4316
345.301	3447
345.387	2037
345.474	2567
345.560	2484
345.646	2646
345.732	2380
345.818	2906
345.904	2617
345.990	2853
346.076	2512
346.162	2293
346.249	2730
346.335	2651
346.421	2586
346.507	5790
346.593	24277
346.679	9383
346.765	3329
346.851	5235
346.937	4678
347.023	3101
347.108	3272
347.194	2325
347.280	3087
347.366	4045
347.452	11788
347.538	36833
347.624	23982
347.710	19132
347.796	4980
347.882	3057
347.967	3297
348.053	3198
348.139	3378
348.225	2627
348.311	2724
348.397	2732
348.482	3275
348.568	3575
348.654	4170
348.740	12674
348.825	17588
348.911	6080
348.997	11540
349.083	30399
349.168	6543
349.254	2991
349.340	3172
349.425	3224
349.511	2594
349.597	3794
349.682	4120
349.768	14913
349.854	10616
349.939	2952
350.025	2272
350.110	2468
350.196	2071
350.282	2226
350.367	2229
350.453	3257
350.538	3165
350.624	3381
350.709	3130
350.795	2006
350.880	2779
350.966	2899
351.051	3216
351.137	3143
351.222	3024
351.308	4179
351.393	12800
351.479	5606
351.564	2751
351.649	2757
351.735	2577
351.820	2160
351.906	2990
351.991	3056
352.076	7372
352.162	14014
352.247	4496
352.332	2814
352.418	3192
352.503	4872
352.588	14480
352.673	15529
352.759	4417
352.844	3175
352.929	2825
353.014	3270
353.100	3402
353.185	3085
353.270	4522
353.355	4826
353.441	2745
353.526	2933
353.611	4068
353.696	5149
353.781	3486
353.866	2921
353.952	2709
354.037	3482
354.122	7051
354.207	6694
354.292	4723
354.377	2320
354.462	2377
354.547	2531
354.632	3352
354.717	3339
354.802	4231
354.887	2993
354.972	2612
355.057	2444
355.142	2653
355.227	3292
355.312	3005
355.397	5213
355.482	11033
355.567	8128
355.652	5096
355.737	6045
355.822	14773
355.907	19292
355.991	3995
356.076	2399
356.161	2728
356.246	2149
356.331	3100
356.416	5194
356.501	25515
356.585	41958
356.670	6973
356.755	4339
356.840	5010
356.924	15163
357.009	69193
357.094	37412
357.179	6084
357.263	4846
357.348	4250
357.433	4323
357.517	4326
357.602	3840
357.687	3500
357.771	5724
357.856	18885
357.941	15664
358.025	12267
358.110	68164
358.195	47666
358.279	6970
358.364	4493
358.448	9736
358.533	27872
358.617	24056
358.702	21915
358.787	12042
358.871	5667
358.956	5528
359.040	3216
359.125	3369
359.209	4085
359.294	8741
359.378	20333
359.462	9684
359.547	4664
359.631	3110
359.716	3630
359.800	2712
359.885	3710
359.969	2857
360.053	3327
360.138	3297
360.222	3062
360.306	5160
360.391	5291
360.475	7619
360.559	19936
360.644	11706
360.728	10664
360.812	13499
360.896	49759
360.981	22706
361.065	9296
361.149	4571
361.233	4167
361.318	4349
361.402	4618
361.486	4599
361.570	4045
361.654	5256
361.739	6721
361.823	23725
361.907	56630
361.991	14897
362.075	7742
362.159	11199
362.243	13937
362.327	29543
362.411	65903
362.495	31979
362.580	10214
362.664	8661
362.748	8994
362.832	12752
362.916	23200
363.000	75646
363.084	176336
363.168	125833
363.252	31930
363.336	12244
363.420	10021
363.503	18862
363.587	29573
363.671	9728
363.755	6793
363.839	8634
363.923	7066
364.007	10117
364.091	12177
364.175	16257
364.258	51169
364.342	96290
364.426	217026
364.510	159360
364.594	39966
364.677	17058
364.761	41996
364.845	44014
364.929	11613
365.013	8629
365.096	7491
365.180	8482
365.264	8519
365.347	32020
365.431	21152
365.515	6141
365.598	3646
365.682	4967
365.766	4827
365.849	5572
365.933	4302
366.017	5385
366.100	4537
366.184	3155
366.267	3054
366.351	3659
366.435	3237
366.518	3232
366.602	3411
366.685	3208
366.769	4272
366.852	4199
366.936	6454
367.019	5351
367.103	3929
367.186	6069
367.270	5175
367.353	3864
367.436	4241
367.520	4675
367.603	4961
367.687	5028
367.770	6872
367.853	6130
367.937	10842
368.020	24451
368.104	8444
368.187	5016
368.270	7105
368.353	7344
368.437	5523
368.520	7551
368.603	8013
368.687	10762
368.770	27129
368.853	10247
368.936	5561
369.020	6297
369.103	3945
369.186	3295
369.269	4489
369.352	4310
369.436	5632
369.519	4153
369.602	3826
369.685	3733
369.768	3393
369.851	2945
369.934	3393
370.018	2144
370.101	4287
370.184	5012
370.267	3800
370.350	6058
370.433	7974
370.516	20629
370.599	46513
370.682	19464
370.765	11422
370.848	14590
370.931	30799
371.014	16878
371.097	3901
371.180	3541
371.263	3318
371.346	2870
371.429	2921
371.511	3555
371.594	3529
371.677	5329
371.760	6553
371.843	6227
371.926	19735
372.009	63167
372.091	27357
372.174	10885
372.257	30963
372.340	18935
372.423	7114
372.505	8278
372.588	4966
372.671	8117
372.754	27376
372.836	20814
372.919	8640
373.002	17308
373.085	8629
373.167	5479
373.250	11263
373.332	29467
373.415	35918
373.498	85958
373.580	43639
373.663	47324
373.746	88883
373.828	20788
373.911	7355
373.993	7064
374.076	14641
374.159	19914
374.241	8714
374.324	21975
374.406	22204
374.489	20121
374.571	70141
374.654	40882
374.736	14186
374.819	40196
374.901	59070
374.983	75809
375.066	20680
375.148	8400
375.231	14164
375.313	30021
375.395	16813
375.478	7614
375.560	6214
375.643	6385
375.725	11962
375.807	49385
375.890	50256
375.972	12535
376.054	7517
376.136	9038
376.219	6649
376.301	12263
376.383	46037
376.465	26702
376.548	8832
376.630	11643
376.712	34285
376.794	25843
376.877	4975
376.959	3188
377.041	3200
377.123	3957
377.205	5630
377.287	2640
377.369	3112
377.452	3500
377.534	3965
377.616	3193
377.698	4368
377.780	3001
377.862	4287
377.944	3290
378.026	3263
378.108	2996
378.190	2934
378.272	2589
378.354	3166
378.436	2676
378.518	3462
378.600	6591
378.682	7395
378.764	15489
378.846	16998
378.928	5250
379.010	5895
379.091	5018
379.173	3860
379.255	3608
379.337	3490
379.419	6953
379.501	24093
379.583	14736
379.664	3719
379.746	5334
379.828	14173
379.910	22185
379.991	24477
380.073	6552
380.155	4079
380.237	3636
380.318	3282
380.400	3203
380.482	4172
380.564	6513
380.645	5118
380.727	5989
380.809	5025
380.890	4192
380.972	3083
381.053	3067
381.135	3215
381.217	5483
381.298	16324
381.380	12876
381.461	6725
381.543	27197
381.624	53374
381.706	13286
381.787	5578
381.869	6827
381.951	13143
382.032	59441
382.113	55165
382.195	10416
382.276	7075
382.358	10065
382.439	31828
382.521	38337
382.602	64303
382.684	34092
382.765	34409
382.846	43710
382.928	40562
383.009	29910
383.090	14684
383.172	47647
383.253	99225
383.334	43521
383.416	47343
383.497	34943
383.578	10340
383.659	13161
383.741	39638
383.822	132667
383.903	97029
383.984	29937
384.066	56601
384.147	45828
384.228	13161
384.309	7684
384.390	8419
384.471	7684
384.553	6225
384.634	5857
384.715	6585
384.796	5203
384.877	4487
384.958	13343
385.039	22768
385.120	9835
385.201	6009
385.282	5166
385.363	5964
385.444	5636
385.525	9072
385.606	26859
385.687	33537
385.768	9773
385.849	7575
385.930	23723
386.011	56859
386.092	23893
386.173	8060
386.254	6409
386.335	6676
386.416	5952
386.496	10968
386.577	19858
386.658	10871
386.739	6934
386.820	6596
386.901	5900
386.981	6709
387.062	7312
387.143	9562
387.224	19781
387.304	26959
387.385	14959
387.466	11514
387.547	13833
387.627	14001
387.708	14710
387.789	31515
387.869	48398
387.950	21152
388.031	7904
388.111	4846
388.192	7446
388.273	8626
388.353	7776
388.434	6458
388.514	8654
388.595	28547
388.676	46779
388.756	24094
388.837	15952
388.917	14197
388.998	5768
389.078	5278
389.159	5671
389.239	5128
389.320	6264
389.400	5265
389.480	8154
389.561	19971
389.641	16615
389.722	6635
389.802	7339
389.883	9325
389.963	23206
390.043	21161
390.124	6940
390.204	8005
390.284	18122
390.365	15994
390.445	11883
390.525	32573
390.605	40581
390.686	16825
390.766	8240
390.846	6279
390.927	5520
391.007	5755
391.087	5900
391.167	5937
391.247	5820
391.328	7180
391.408	7738
391.488	7458
391.568	6090
391.648	6769
391.728	8205
391.808	8563
391.888	8251
391.969	13472
392.049	23099
392.129	15245
392.209	13798
392.289	27398
392.369	23415
392.449	15517
392.529	14331
392.609	15169
392.689	17641
392.769	32056
392.849	38263
392.929	32890
393.009	54163
393.089	68707
393.169	93999
393.248	222107
393.328	583274
393.408	756784
393.488	387375
393.568	134392
393.648	66406
393.728	41448
393.807	28666
393.887	24897
393.967	20316
394.047	19346
394.127	19298
394.206	24782
394.286	53147
394.366	211115
394.446	325776
394.525	111584
394.605	29954
394.685	18130
394.764	19285
394.844	27745
394.924	35977
395.003	18041
395.083	11389
395.163	9840
395.242	8846
395.322	10099
395.402	9126
395.481	10742
395.561	14158
395.640	34836
395.720	63076
395.799	51321
395.879	36951
395.958	30739
396.038	75935
396.117	279280
396.197	417130
396.276	168342
396.356	51795
396.435	34295
396.515	32949
396.594	41578
396.673	71849
396.753	198071
396.832	542572
396.912	556326
396.991	195375
397.070	64165
397.150	34934
397.229	27117
397.308	36861
397.388	80697
397.467	51104
397.546	16216
397.625	10793
397.705	11936
397.784	9354
397.863	8782
397.942	7011
398.022	7042
398.101	8905
398.180	20030
398.259	15513
398.338	7068
398.417	5696
398.497	5239
398.576	4994
398.655	4892
398.734	5168
398.813	3726
398.892	6856
398.971	19759
399.050	16512
399.129	4506
399.208	3237
399.287	4264
399.366	3718
399.445	3333
399.524	2970
399.603	2954
399.682	4797
399.761	6501
399.840	19499
399.919	23386
399.998	5697
400.077	3032
400.156	2010
400.235	5013
400.313	3438
400.392	3881
400.471	7821
400.550	15091
400.629	6952
400.708	3146
400.786	3250
400.865	4151
400.944	5502
401.023	4777
401.102	1924
401.180	2127
401.259	2416
401.338	2379
401.416	2842
401.495	2542
401.574	2829
401.652	2186
401.731	3264
401.810	2814
401.888	2246
401.967	2003
402.046	3112
402.124	2678
402.203	2870
402.281	3258
402.360	2981
402.438	4850
402.517	5341
402.596	3568
402.674	2704
402.753	2544
402.831	2381
402.910	3024
402.988	5641
403.066	20808
403.145	18655
403.223	7355
403.302	17798
403.380	18187
403.459	15212
403.537	8500
403.615	3534
403.694	2232
403.772	3260
403.850	2267
403.929	2057
404.007	2129
404.085	4049
404.164	3739
404.242	2809
404.320	3350
404.398	3560
404.477	6602
404.555	38011
404.633	53279
404.711	11375
404.789	3364
404.868	2105
404.946	2349
405.024	2392
405.102	2165
405.180	1287
405.258	1513
405.336	2475
405.415	1525
405.493	3036
405.571	3292
405.649	2191
405.727	1940
405.805	3660
405.883	3519
405.961	3742
406.039	2778
406.117	1715
406.195	2650
406.273	7025
406.351	32998
406.429	31251
406.507	5070
406.585	2374
406.663	2237
406.740	2706
406.818	1559
406.896	1650
406.974	2738
407.052	2652
407.130	15649
407.208	34163
407.285	11260
407.363	2524
407.441	2471
407.519	1508
407.596	2169
407.674	2350
407.752	6119
407.830	9030
407.907	4843
407.985	1653
408.063	2546
408.141	791
408.218	2390
408.296	2786
408.373	2611
408.451	2934
408.529	3226
408.606	2549
408.684	2909
408.762	2373
408.839	2894
408.917	2649
408.994	3219
409.072	4073
409.149	5097
409.227	8412
409.304	15322
409.382	15453
409.459	16308
409.537	22311
409.614	21682
409.692	14738
409.769	13233
409.846	21206
409.924	30562
410.001	22458
410.079	13321
410.156	9114
410.233	6251
410.311	6084
410.388	4872
410.465	4503
410.543	5378
410.620	5268
410.697	4403
410.775	4531
410.852	3877
410.929	6793
411.006	7312
411.083	6160
411.161	7059
411.238	8503
411.315	4716
411.392	3452
411.469	3937
411.547	5314
411.624	2915
411.701	3401
411.778	3764
411.855	3478
411.932	2722
412.009	2819
412.086	2583
412.163	1892
412.240	2743
412.317	3350
412.394	3589
412.471	3059
412.548	1676
412.625	1998
412.702	1748
412.779	3709
412.856	3735
412.933	1965
413.010	2041
413.087	2421
413.164	5557
413.241	13774
413.318	4672
413.395	3320
413.471	3663
413.548	3233
413.625	2468
413.702	1493
413.779	2020
413.855	2034
413.932	1583
414.009	1087
414.086	1620
414.162	1762
414.239	2249
414.316	5375
414.393	15400
414.469	9749
414.546	1876
414.623	2061
414.699	1355
414.776	2440
414.853	1457
414.929	1629
415.006	1714
415.082	1101
415.159	1320
415.236	1731
415.312	1805
415.389	1832
415.465	2732
415.542	1768
415.618	951
415.695	2253
415.771	1417
415.848	1659
415.924	2327
416.000	1867
416.077	1283
416.153	1042
416.230	1094
416.306	725
416.383	1161
416.459	2130
416.535	955
416.612	614
416.688	1429
416.764	1994
416.841	1166
416.917	1811
416.993	1645
417.069	2190
417.146	1308
417.222	2777
417.298	2658
417.374	1085
417.451	1958
417.527	1070
417.603	1523
417.679	2138
417.755	1679
417.831	1119
417.908	1734
417.984	1730
418.060	426
418.136	1908
418.212	3483
418.288	2245
418.364	1464
418.440	1369
418.516	2735
418.592	2454
418.668	3500
418.744	4526
418.820	4336
418.896	2126
418.972	1753
419.048	1715
419.124	3164
419.200	2536
419.276	2439
419.352	1186
419.428	1912
419.504	1812
419.579	2901
419.655	2319
419.731	2694
419.807	3474
419.883	6138
419.959	6157
420.034	3357
420.110	2864
420.186	9925
420.262	12500
420.337	4284
420.413	3435
420.489	3443
420.565	4290
420.640	3836
420.716	4409
420.792	3831
420.867	5657
420.943	3943
421.019	4466
421.094	5057
421.170	5723
421.245	4604
421.321	6541
421.397	6521
421.472	8383
421.548	9850
421.623	11193
421.699	11298
421.774	11560
421.850	11837
421.925	15055
422.001	18033
422.076	20796
422.152	24558
422.227	32596
422.302	45462
422.378	66804
422.453	109446
422.529	198675
422.604	331227
422.679	345077
422.755	345323
422.830	289524
422.905	163499
422.981	96712
423.056	63967
423.131	46299
423.207	33910
423.282	26366
423.357	23456
423.432	19260
423.508	16699
423.583	16667
423.658	15574
423.733	11065
423.808	9566
423.883	10621
423.959	10817
424.034	13188
424.109	13349
424.184	9233
424.259	7304
424.334	6183
424.409	5293
424.484	4807
424.559	6107
424.634	4847
424.709	4510
424.784	4682
424.859	4231
424.934	4041
425.009	7728
425.084	13522
425.159	9724
425.234	3919
425.309	2963
425.384	6412
425.459	14054
425.534	7309
425.609	2519
425.683	2486
425.758	2773
425.833	3282
425.908	3907
425.983	3960
426.058	10883
426.132	8635
426.207	3011
426.282	3476
426.357	3170
426.431	1801
426.506	2697
426.581	2209
426.655	3065
426.730	1839
426.805	2112
426.879	2993
426.954	2708
427.029	2068
427.103	9226
427.178	29792
427.253	23884
427.327	4480
427.402	3839
427.476	9031
427.551	9378
427.625	3427
427.700	2704
427.774	2168
427.849	2816
427.923	2749
427.998	2866
428.072	2952
428.147	5786
428.221	22051
428.296	98031
428.370	98126
428.444	17046
428.519	5668
428.593	5866
428.667	5248
428.742	5964
428.816	10692
428.890	45183
428.965	121432
429.039	54578
429.113	10673
429.188	5059
429.262	3620
429.336	3598
429.410	6772
429.485	6956
429.559	4763
429.633	4769
429.707	4958
429.781	7610
429.855	44351
429.930	110100
430.004	50068
430.078	21108
430.152	35373
430.226	110557
430.300	184986
430.374	56015
430.448	11558
430.522	7996
430.596	17874
430.670	22967
430.744	68210
430.818	140044
430.892	44704
430.966	6970
431.040	3093
431.114	1773
431.188	1929
431.262	2056
431.336	1672
431.410	3586
431.484	4204
431.557	5949
431.631	3266
431.705	4364
431.779	14745
431.853	84838
431.927	108158
432.000	20985
432.074	4313
432.148	2047
432.222	2255
432.295	968
432.369	1804
432.443	1573
432.516	7767
432.590	29899
432.664	21465
432.737	3108
432.811	1061
432.885	936
432.958	821
433.032	1044
433.106	694
433.179	950
433.253	714
433.326	1123
433.400	1016
433.473	875
433.547	774
433.620	515
433.694	1369
433.767	2240
433.841	1036
433.914	586
433.988	1423
434.061	1501
434.134	1083
434.208	1278
434.281	492
434.355	504
434.428	1100
434.501	1152
434.575	717
434.648	850
434.721	690
434.795	454
434.868	574
434.941	252
435.014	488
435.088	1166
435.161	1967
435.234	2878
435.307	3620
435.381	3697
435.454	5105
435.527	10658
435.600	14601
435.673	10740
435.746	6723
435.819	4594
435.892	3585
435.966	3136
436.039	1728
436.112	2531
436.185	887
436.258	1611
436.331	666
436.404	1206
436.477	528
436.550	925
436.623	184
436.696	871
436.769	1365
436.842	1549
436.915	1022
436.987	1655
437.060	865
437.133	1295
437.206	724
437.279	1238
437.352	553
437.425	108
437.498	1151
437.570	1278
437.643	2196
437.716	855
437.789	89
437.861	1402
437.934	6723
438.007	5998
438.080	1673
438.152	1666
438.225	1724
438.298	10196
438.370	47804
438.443	37498
438.516	9637
438.588	2397
438.661	926
438.734	1142
438.806	753
438.879	1400
438.951	1460
439.024	3833
439.096	2085
439.169	990
439.241	812
439.314	-257
439.386	951
439.459	1603
439.531	2816
439.604	1990
439.676	781
439.749	1032
439.821	650
439.893	1040
439.966	418
440.038	1907
440.110	1909
440.183	1160
440.255	-154
440.327	1604
440.400	3688
440.472	21385
440.544	28744
440.617	5329
440.689	2827
440.761	2947
440.833	6359
440.905	5759
440.978	2199
441.050	1144
441.122	1025
441.194	1124
441.266	1328
441.338	419
441.411	1410
441.483	5750
441.555	14286
441.627	5736
441.699	3049
441.771	1515
441.843	1223
441.915	1920
441.987	1812
442.059	2502
442.131	2754
442.203	3514
442.275	4840
442.347	6216
442.419	9554
442.491	45849
442.563	164948
442.635	119940
442.706	23198
442.778	10442
442.850	4924
442.922	3851
442.994	3898
443.066	4443
443.137	5223
443.209	6239
443.281	8861
443.353	16284
443.425	52523
443.496	213072
443.568	323647
443.640	181104
443.711	41142
443.783	11803
443.855	7316
443.926	4563
443.998	4050
444.070	3744
444.141	3238
444.213	3673
444.285	3645
444.356	4193
444.428	3630
444.499	2050
444.571	2518
444.642	2594
444.714	2346
444.785	3874
444.857	4080
444.928	4454
445.000	5566
445.071	5696
445.143	7111
445.214	10022
445.285	14594
445.357	30907
445.428	109220
445.500	318230
445.571	299261
445.642	210699
445.714	83937
445.785	25302
445.856	10503
445.928	7164
445.999	6037
446.070	6166
446.141	4285
446.213	3781
446.284	3414
446.355	2597
446.426	1666
446.497	1217
446.569	1472
446.640	2149
446.711	2231
446.782	955
446.853	1504
446.924	1751
446.995	1508
447.066	1405
447.138	1666
447.209	1730
447.280	1125
447.351	316
447.422	252
447.493	826
447.564	1331
447.635	370
447.706	1335
447.777	1131
447.847	-86
447.918	-557
447.989	613
448.060	718
448.131	1059
448.202	2146
448.273	1282
448.344	1618
448.414	1175
448.485	385
448.556	-345
448.627	-106
448.698	557
448.768	-77
448.839	-198
448.910	333
448.981	516
449.051	882
449.122	459
449.193	427
449.263	-461
449.334	395
449.405	930
449.475	2105
449.546	2666
449.616	2217
449.687	2170
449.758	1190
449.828	1212
449.899	1060
449.969	653
450.040	1116
450.110	227
450.181	1014
450.251	-120
450.322	565
450.392	578
450.463	341
450.533	643
450.604	107
450.674	388
450.744	1182
450.815	745
450.885	1231
450.955	1199
451.026	1249
451.096	1069
451.166	1058
451.237	1737
451.307	3963
451.377	3279
451.447	1737
451.518	569
451.588	345
451.658	1783
451.728	1286
451.799	2484
451.869	4833
451.939	1562
452.009	694
452.079	884
452.149	1232
452.219	1055
452.289	2906
452.360	3934
452.430	1628
452.500	1585
452.570	3223
452.640	6108
452.710	20342
452.780	33342
452.850	18627
452.920	9305
452.990	4545
453.060	2610
453.129	1883
453.199	2102
453.269	2940
453.339	10047
453.409	17185
453.479	10232
453.549	17347
453.619	19665
453.688	11459
453.758	3125
453.828	585
453.898	1496
453.968	538
454.037	683
454.087	614
454.107	570
454.168	291
454.177	231
454.247	13
454.249	44
454.316	324
454.330	320
454.386	245
454.411	771
454.456	1563
454.492	2364
454.525	3054
454.574	2402
454.595	2108
454.655	986
454.665	783
454.734	1039
454.736	1063
454.804	1180
454.817	1528
454.873	2703
454.898	3154
454.943	3910
454.979	2904
455.013	2039
455.060	1984
455.082	1941
455.141	1202
455.152	1037
455.221	2615
455.222	2657
455.291	3668
455.303	3392
455.360	2232
455.384	2265
455.430	2221
455.465	2440
455.499	2621
455.546	2820
455.569	2797
455.627	3096
455.638	3185
455.707	1801
455.708	1818
455.777	1392
455.789	1467
455.846	1773
455.869	1542
455.916	1088
455.950	1463
455.985	1766
456.031	1436
456.054	1245
456.112	1401
456.124	1452
456.193	1448
456.193	1428
456.262	2089
456.274	2038
456.332	1674
456.355	1747
456.401	1805
456.436	1485
456.470	1277
456.516	1688
456.540	1774
456.597	2108
456.609	2174
456.678	1392
456.678	1372
456.747	1621
456.759	1676
456.817	1907
456.840	2015
456.886	2109
456.920	2000
456.955	1953
457.001	2169
457.024	2227
457.082	2388
457.093	2391
457.162	2737
457.163	2755
457.232	2513
457.243	2530
457.301	2714
457.324	2680
457.370	2584
457.405	2843
457.439	3186
457.485	3261
457.508	3294
457.566	4284
457.577	4698
457.646	6981
457.647	7049
457.715	15385
457.727	16955
457.784	27393
457.808	34530
457.853	41864
457.889	54668
457.922	58687
457.969	42098
457.991	42849
458.050	44019
458.060	44757
458.129	71881
458.130	73120
458.198	80655
458.211	74132
458.267	51730
458.292	36026
458.336	20364
458.372	18645
458.405	23168
458.453	33874
458.474	42509
458.533	72069
458.543	73923
458.611	116835
458.614	118314
458.680	91925
458.694	73525
458.749	35910
458.775	24820
458.818	11238
458.855	8705
458.887	7048
458.936	5607
458.955	5135
459.016	5051
459.024	5028
459.093	4930
459.097	4890
459.162	3928
459.177	4015
459.230	4556
459.257	4589
459.299	4533
459.338	4808
459.368	5225
459.418	5929
459.437	5668
459.499	4316
459.505	4291
459.574	3775
459.579	3793
459.643	3747
459.659	3717
459.711	3748
459.740	3821
459.780	3766
459.820	3812
459.849	3947
459.900	3758
459.917	3631
459.981	4377
459.986	4437
460.054	4083
460.061	4072
460.123	4034
460.141	4089
460.191	4367
460.222	4405
460.260	4280
460.302	4713
460.328	4654
460.382	4354
460.397	4457
460.462	4068
460.465	4057
460.534	5184
460.543	5218
460.602	7649
460.623	8716
460.671	12334
460.703	15376
460.739	13912
460.783	12902
460.808	12291
460.864	6267
460.876	5727
460.944	4075
460.945	4051
461.013	3940
461.024	3991
461.081	4536
461.104	4584
461.150	4255
461.184	4187
461.218	4383
461.264	4370
461.286	4419
461.345	4662
461.355	4537
461.423	4006
461.425	3985
461.491	4252
461.505	4354
461.559	4853
461.585	5067
461.628	5964
461.665	6944
461.696	7306
461.745	8012
461.764	7524
461.825	5412
461.832	5405
461.901	4475
461.905	4497
461.969	4589
461.985	4474
462.037	4455
462.065	4667
462.105	4676
462.145	4407
462.173	4686
462.225	5643
462.241	5965
462.305	6843
462.310	6745
462.378	5817
462.385	5587
462.446	5198
462.465	5214
462.514	5174
462.545	5224
462.582	5209
462.625	5085
462.650	4760
462.705	4213
462.718	4274
462.785	4234
462.786	4233
462.854	4117
462.865	4127
462.922	4595
462.945	4888
462.990	5018
463.025	4772
463.058	4554
463.104	4469
463.126	4449
463.184	4190
463.194	4177
463.262	4217
463.264	4217
463.330	4579
463.344	4613
463.398	4585
463.424	4622
463.466	4757
463.504	4965
463.533	5015
463.583	5029
463.601	4996
463.663	4734
463.669	4803
463.737	5391
463.743	5463
463.805	6249
463.823	6497
463.873	7527
463.903	8060
463.940	8055
463.982	8368
464.008	7780
464.062	6242
464.076	6130
464.142	4867
464.144	4866
464.211	5112
464.221	5129
464.279	4535
464.301	4358
464.347	4509
464.381	4599
464.414	4922
464.461	5380
464.482	5568
464.540	6011
464.550	6124
464.617	7048
464.620	7071
464.685	7629
464.699	7679
464.753	9689
464.779	10691
464.820	12236
464.859	13733
464.888	12599
464.938	10579
464.956	10658
465.018	10742
465.023	10713
465.091	10094
465.098	10027
465.158	10314
465.177	10399
465.226	10076
465.257	9843
465.293	10096
465.336	10252
465.361	10085
465.416	9663
465.428	9757
465.495	10458
465.496	10486
465.563	12137
465.575	12457
465.631	14077
465.654	14731
465.698	11847
465.734	9355
465.765	9186
465.813	8673
465.833	8682
465.893	8983
465.900	8958
465.968	8482
465.972	8445
466.035	8561
466.052	8539
466.102	8656
466.131	8721
466.170	8422
466.210	8097
466.237	8503
466.290	9184
466.304	9056
466.369	8420
466.372	8435
466.439	8401
466.449	8387
466.506	9387
466.528	9743
466.573	10489
466.607	10988
466.641	12281
466.687	14032
466.708	14896
466.766	17294
466.775	16563
466.842	10803
466.845	10509
466.909	9992
466.925	9845
466.977	9614
467.004	9492
467.044	10893
467.083	12255
467.111	13599
467.163	16066
467.178	16690
467.242	19126
467.245	19017
467.312	15995
467.321	15564
467.379	15049
467.400	14819
467.446	15013
467.480	15103
467.559	13800
467.638	13173
467.717	14301
467.796	13532
467.875	14509
467.955	14116
468.034	15627
468.113	21066
468.192	26065
468.271	19779
468.350	23542
468.429	32270
468.508	35417
468.588	22569
468.667	17344
468.746	14587
468.825	13905
468.904	12061
468.983	13221
469.062	12628
469.141	13248
469.220	11865
469.299	12479
469.378	14192
469.456	18741
469.535	15583
469.614	13979
469.693	14188
469.772	14926
469.851	16216
469.930	13894
470.009	14329
470.088	13783
470.166	14942
470.245	17237
470.324	17390
470.403	15301
470.482	13055
470.560	13041
470.639	12214
470.718	13419
470.797	12594
470.875	13164
470.954	12739
471.033	14312
471.111	11169
471.190	11491
471.269	11115
471.347	12000
471.426	12598
471.505	13774
471.583	16164
471.662	16139
471.740	13282
471.819	13446
471.898	12277
471.976	12123
472.055	12290
472.133	12724
472.212	13723
472.290	13456
472.369	11210
472.447	12511
472.526	11786
472.604	11669
472.683	11971
472.761	12057
472.839	12550
472.918	12819
472.996	11870
473.075	10864
473.153	11898
473.231	11138
473.310	12609
473.388	11300
473.466	11287
473.545	13585
473.623	15761
473.701	13624
473.780	12887
473.858	11808
473.936	12401
474.014	12681
474.093	12631
474.171	12353
474.249	13307
474.327	12414
474.405	11421
474.484	11502
474.562	10656
474.640	11003
474.718	10604
474.796	10779
474.874	10312
474.952	9959
475.030	10310
475.108	9703
475.187	11556
475.265	10385
475.343	13828
475.421	15342
475.499	11075
475.577	10934
475.655	11036
475.733	13473
475.811	15354
475.889	15861
475.966	12571
476.044	10872
476.122	11029
476.200	11776
476.278	10609
476.356	9729
476.434	9549
476.512	9902
476.590	11604
476.667	11264
476.745	8438
476.823	10066
476.901	9014
476.979	9660
477.056	9456
477.134	9963
477.212	9691
477.290	10317
477.367	8771
477.445	9945
477.523	8771
477.601	8800
477.678	8839
477.756	10287
477.834	9145
477.911	9182
477.989	8642
478.066	8781
478.144	9186
478.222	10668
478.299	11692
478.377	12422
478.454	8415
478.532	8595
478.609	8621
478.687	9317
478.764	7839
478.842	8946
478.919	8820
478.997	8132
479.074	8433
479.152	7631
479.229	8937
479.307	8286
479.384	7115
479.461	8029
479.539	7000
479.616	8658
479.694	7442
479.771	7563
479.848	7877
479.926	8689
480.003	8510
480.080	9085
480.157	7464
480.235	7646
480.312	6826
480.389	7553
480.467	9207
480.544	10068
480.621	9356
480.698	9284
480.775	9228
480.853	8442
480.930	6970
481.007	7402
481.084	7929
481.161	8269
481.238	7867
481.315	8018
481.392	7840
481.470	7638
481.547	8312
481.624	7972
481.701	7270
481.778	7555
481.855	8898
481.932	8721
482.009	10838
482.086	10998
482.163	10386
482.240	13773
482.317	16496
482.393	13728
482.470	10003
482.547	9081
482.624	8645
482.701	9339
482.778	8316
482.855	7550
482.932	8970
483.009	8310
483.085	9414
483.162	11704
483.239	12099
483.316	11873
483.393	12125
483.469	9978
483.546	8407
483.623	8230
483.699	7162
483.776	7989
483.853	7964
483.930	9826
484.006	13849
484.083	22219
484.160	33991
484.236	61718
484.313	47410
484.389	35431
484.466	31964
484.543	32468
484.619	34978
484.696	38187
484.772	33263
484.849	29455
484.925	26636
485.002	27496
485.078	26540
485.155	26860
485.231	25049
485.308	24244
485.384	24013
485.461	24897
485.537	26741
485.614	28265
485.690	23551
485.766	22886
485.843	23608
485.919	25428
485.995	25042
486.072	22473
486.148	21285
486.224	21161
486.301	20852
486.377	22546
486.453	23746
486.530	25112
486.606	33284
486.682	37166
486.758	31524
486.835	30583
486.911	27654
486.987	31381
487.063	34722
487.139	39575
487.215	33572
487.292	27855
487.368	28371
487.444	32418
487.520	38948
487.596	51194
487.672	109295
487.748	306568
487.824	473918
487.900	143932
487.976	43586
488.052	32476
488.128	31590
488.204	26611
488.280	23149
488.356	24313
488.432	26097
488.508	30196
488.584	22191
488.660	20748
488.736	20630
488.812	20440
488.888	23558
488.964	27530
489.039	33211
489.115	43267
489.191	30692
489.267	19376
489.343	18772
489.418	18127
489.494	18209
489.570	17684
489.646	18745
489.722	18649
489.797	17737
489.873	18732
489.949	22282
490.024	23044
490.100	16685
490.176	17864
490.251	17249
490.327	21420
490.403	15907
490.478	17148
490.554	14373
490.629	15761
490.705	14598
490.781	16354
490.856	14641
490.932	16158
491.007	15814
491.083	16802
491.158	13678
491.234	15865
491.309	17685
491.385	18771
491.460	13390
491.536	14240
491.611	14002
491.686	13822
491.762	15674
491.837	19955
491.913	30172
491.988	34374
492.063	43894
492.139	15746
492.214	14320
492.289	12765
492.365	11653
492.440	13012
492.515	11481
492.590	11565
492.666	10437
492.741	12088
492.816	13031
492.891	11288
492.967	11786
493.042	9232
493.117	10902
493.192	10036
493.267	10850
493.342	12949
493.418	12453
493.493	10974
493.568	9559
493.643	10743
493.718	11184
493.793	10693
493.868	13435
493.943	10976
494.018	10736
494.093	9275
494.168	8691
494.243	9287
494.318	9450
494.393	9284
494.468	9079
494.543	9212
494.618	9125
494.693	9008
494.768	8029
494.842	9887
494.917	7615
494.992	9644
495.067	8348
495.142	8091
495.217	8671
495.292	8335
495.366	7903
495.441	9059
495.516	10249
495.591	14365
495.665	30664
495.740	65675
495.815	28660
495.890	9280
495.964	7832
496.039	9904
496.114	8031
496.188	9127
496.263	8848
496.338	7614
496.412	8582
496.487	9011
496.561	9276
496.636	9598
496.710	8544
496.785	8565
496.860	8458
496.934	7558
497.009	7687
497.083	8629
497.158	7167
497.232	8229
497.307	8954
497.381	8039
497.455	7754
497.530	9685
497.604	8072
497.679	6999
497.753	9826
497.827	11048
497.902	8589
497.976	12820
498.050	26830
498.125	79612
498.199	87747
498.273	15653
498.348	10920
498.422	9766
498.496	10793
498.570	9657
498.645	7843
498.719	7510
498.793	7996
498.867	10905
498.941	15276
499.016	34259
499.090	87968
499.164	35920
499.238	8544
499.312	7946
499.386	9848
499.460	9791
499.534	7681
499.609	8857
499.683	10757
499.757	9800
499.831	18034
499.905	55610
499.979	55069
500.053	10414
500.127	11835
500.201	9884
500.275	8166
500.349	7894
500.422	8214
500.496	10431
500.570	18653
500.644	35042
500.718	57694
500.792	17585
500.866	7962
500.940	8161
501.013	7583
501.087	7300
501.161	11054
501.235	12588
501.309	19497
501.382	46116
501.456	43806
501.530	11328
501.603	15926
501.677	9957
501.751	6078
501.825	7032
501.898	10483
501.972	20064
502.046	14167
502.119	6616
502.193	10860
502.266	20243
502.340	12560
502.413	11899
502.487	18283
502.561	11826
502.634	7919
502.708	7945
502.781	7416
502.855	6320
502.928	5588
503.002	6251
503.075	5533
503.149	6374
503.222	6243
503.295	6470
503.369	6631
503.442	8185
503.516	15919
503.589	32761
503.662	24382
503.736	13240
503.809	21593
503.882	24023
503.956	38145
504.029	69446
504.102	169385
504.175	261511
504.249	88293
504.322	27381
504.395	15727
504.468	11448
504.542	8216
504.615	8076
504.688	7422
504.761	6767
504.834	7195
504.907	8034
504.980	10188
505.053	6291
505.127	6780
505.200	8381
505.273	6362
505.346	5730
505.419	4283
505.492	5750
505.565	5212
505.638	5290
505.711	4045
505.784	4971
505.857	3740
505.930	5047
506.003	4013
506.076	5382
506.149	4578
506.221	4404
506.294	6521
506.367	10564
506.440	24886
506.513	16537
506.586	5390
506.659	5319
506.731	5059
506.804	4842
506.877	6232
506.950	5251
507.022	4889
507.095	5947
507.168	4623
507.241	6204
507.313	5174
507.386	3828
507.459	5423
507.531	4803
507.604	3631
507.677	5449
507.749	2752
507.822	6748
507.894	15268
507.967	22059
508.040	14345
508.112	12577
508.185	10805
508.257	9288
508.330	11199
508.402	9451
508.475	9072
508.547	8971
508.620	8906
508.692	10060
508.765	8411
508.837	8070
508.909	8812
508.982	8436
509.054	8852
509.127	8236
509.199	7230
509.271	7455
509.344	7368
509.416	7026
509.488	6922
509.560	8000
509.633	7556
509.705	7672
509.777	7899
509.849	8758
509.922	7333
509.994	8017
510.066	8127
510.138	10557
510.210	22574
510.283	21695
510.355	16657
510.427	13019
510.499	12381
510.571	11100
510.643	11585
510.715	14487
510.787	12167
510.859	12398
510.931	11689
511.003	13273
511.076	12844
511.148	10961
511.219	9909
511.291	11709
511.363	11800
511.435	10613
511.507	9178
511.579	10775
511.651	10138
511.723	9601
511.795	9164
511.867	9395
511.939	9631
512.010	11648
512.082	10761
512.154	9096
512.226	10655
512.298	16227
512.369	24502
512.441	18716
512.513	15665
512.585	13959
512.656	13221
512.728	13367
512.800	12179
512.871	11564
512.943	11646
513.015	10727
513.086	11052
513.158	12042
513.230	12050
513.301	13306
513.373	12856
513.444	11702
513.516	9955
513.588	11399
513.659	9995
513.731	11634
513.802	11228
513.874	15451
513.945	18621
514.016	11810
514.088	10055
514.159	10406
514.231	13282
514.302	20223
514.374	16729
514.445	14292
514.516	15420
514.588	13085
514.659	12967
514.730	14067
514.802	12960
514.873	11375
514.944	12165
515.016	12491
515.087	11878
515.158	11992
515.229	13734
515.301	10344
515.372	11272
515.443	9433
515.514	10790
515.585	9057
515.656	10155
515.728	10882
515.799	9597
515.870	10407
515.941	11292
516.012	10605
516.083	15826
516.154	14957
516.225	15366
516.296	13328
516.367	12322
516.438	13295
516.509	15645
516.580	22780
516.651	52792
516.722	152502
516.793	67912
516.864	16811
516.935	16287
517.006	18812
517.077	26533
517.148	60486
517.219	185865
517.289	268807
517.360	52375
517.431	21099
517.502	12217
517.573	12395
517.643	12560
517.714	14456
517.785	15432
517.856	13285
517.926	15574
517.997	15716
518.068	18324
518.138	26543
518.209	44346
518.280	139066
518.350	430505
518.421	162250
518.492	26516
518.562	25249
518.633	32269
518.703	52124
518.774	116374
518.845	307447
518.915	319426
518.986	78933
519.056	32307
519.127	29121
519.197	31484
519.268	40434
519.338	27840
519.408	14180
519.479	15927
519.549	12615
519.620	10430
519.690	9934
519.760	10327
519.831	10087
519.901	9243
519.971	8977
520.042	9607
520.112	9739
520.182	10260
520.253	11263
520.323	11472
520.393	18317
520.463	27015
520.534	19164
520.604	35045
520.674	15418
520.744	15286
520.814	38338
520.885	30168
520.955	15789
521.025	35042
521.095	20440
521.165	8509
521.235	8586
521.305	7755
521.375	8980
521.445	9024
521.515	9465
521.585	9879
521.655	9429
521.725	8862
521.795	10045
521.865	7372
521.935	10514
522.005	9091
522.075	7343
522.145	7881
522.215	7454
522.285	8961
522.355	9582
522.424	13053
522.494	11726
522.564	10229
522.634	15647
522.704	35625
522.774	18195
522.843	7692
522.913	7266
522.983	8213
523.053	7741
523.122	8018
523.192	10106
523.262	19164
523.331	19363
523.401	8250
523.471	7465
523.540	7677
523.610	6902
523.680	6508
523.749	7868
523.819	8277
523.888	7810
523.958	6664
524.027	7018
524.097	7418
524.166	8111
524.236	6944
524.305	8585
524.375	7186
524.444	7870
524.514	7713
524.583	7238
524.653	7925
524.722	9746
524.791	7158
524.861	8644
524.930	7415
524.999	7480
525.069	8951
525.138	7535
525.207	8446
525.277	8912
525.346	8746
525.415	8423
525.484	9403
525.554	9640
525.623	10633
525.692	12426
525.761	14485
525.830	17246
525.900	25138
525.969	45867
526.038	100595
526.107	207067
526.176	575034
526.245	492068
526.314	139695
526.383	276370
526.452	433308
526.522	530425
526.591	552258
526.660	81903
526.729	40681
526.797	52972
526.867	104732
526.935	312112
527.004	848890
527.073	594273
527.142	63321
527.211	22316
527.280	15938
527.349	13216
527.418	9881
527.487	10399
527.555	9018
527.624	8398
527.693	6708
527.762	8520
527.831	7121
527.899	7751
527.968	7713
528.037	6849
528.106	8183
528.174	10128
528.243	9335
528.312	9319
528.380	10378
528.449	6780
528.518	6275
528.586	6196
528.655	6958
528.723	6047
528.792	5926
528.861	5780
528.929	4706
528.998	6530
529.066	5291
529.135	5118
529.203	4830
529.272	5053
529.340	6742
529.409	5980
529.477	5028
529.545	5209
529.614	7673
529.682	6978
529.751	6929
529.819	9297
529.887	7019
529.956	6144
530.024	6253
530.092	4963
530.161	6811
530.229	8001
530.297	6423
530.365	5949
530.434	4728
530.502	6465
530.570	5926
530.638	4957
530.707	6189
530.775	6693
530.843	5617
530.911	6479
530.979	6092
531.047	5558
531.115	6184
531.183	6673
531.252	6833
531.320	6215
531.388	5576
531.456	6756
531.524	4847
531.592	6729
531.660	6826
531.728	6795
531.796	5711
531.864	6089
531.932	6310
532.000	6227
532.067	7112
532.135	8750
532.203	7089
532.271	7812
532.339	10307
532.407	16757
532.475	12498
532.542	9510
532.610	10390
532.678	12870
532.746	33988
532.814	76428
532.881	24484
532.949	9214
533.017	8171
533.084	7304
533.152	7059
533.220	7387
533.287	6689
533.355	6790
533.423	7784
533.490	7533
533.558	7748
533.625	9033
533.693	10475
533.761	8939
533.828	8710
533.896	7859
533.963	11189
534.031	13090
534.098	15014
534.166	14507
534.233	11367
534.300	12611
534.368	12419
534.435	13063
534.503	12790
534.570	16565
534.637	16724
534.705	22005
534.772	32094
534.840	67714
534.907	237302
534.974	345213
535.041	45227
535.109	15042
535.176	12307
535.243	12838
535.310	11938
535.378	11585
535.445	12113
535.512	12749
535.579	12336
535.646	11707
535.714	12670
535.781	16496
535.848	14865
535.915	14107
535.982	12830
536.049	12585
536.116	12576
536.183	11994
536.250	11210
536.317	12533
536.384	14366
536.451	14922
536.518	14378
536.585	13993
536.652	15491
536.719	15846
536.786	14967
536.853	15141
536.920	16394
536.987	20110
537.053	20466
537.120	42835
537.187	42856
537.254	15789
537.321	14003
537.388	15668
537.454	13575
537.521	14065
537.588	14610
537.654	16559
537.721	18620
537.788	19040
537.855	14961
537.921	16355
537.988	14684
538.055	14350
538.121	13318
538.188	12825
538.254	13895
538.321	17487
538.388	16861
538.454	16276
538.521	16748
538.587	15772
538.654	14651
538.720	14054
538.787	15237
538.853	15127
538.920	14821
538.986	13977
539.053	14061
539.119	14141
539.185	14912
539.252	16549
539.318	17679
539.385	19510
539.451	18875
539.517	18804
539.583	18176
539.650	22456
539.716	37722
539.782	20328
539.849	15425
539.915	14994
539.981	14814
540.047	16286
540.114	15264
540.180	14791
540.246	17014
540.312	18283
540.378	20206
540.444	22141
540.510	23767
540.576	40197
540.643	22060
540.709	15281
540.775	16013
540.841	16407
540.907	17445
540.973	23024
541.039	20899
541.105	19474
541.171	16803
541.237	17535
541.303	18224
541.369	18371
541.435	18079
541.500	20050
541.566	16901
541.632	14384
541.698	14631
541.764	16336
541.830	15672
541.896	15948
541.961	15177
542.027	15914
542.093	16976
542.159	17703
542.224	17333
542.290	20346
542.356	20297
542.421	21388
542.487	15599
542.553	15262
542.618	16866
542.684	16199
542.750	15523
542.815	18309
542.881	19851
542.947	35803
543.012	33871
543.078	15982
543.143	14914
543.209	16658
543.274	16771
543.340	17888
543.405	21620
543.471	28939
543.536	18031
543.602	16623
543.667	16032
543.732	16359
543.798	16435
543.863	19054
543.928	16492
543.994	17032
544.059	16805
544.124	17347
544.190	17292
544.255	18350
544.320	18449
544.386	18191
544.451	19781
544.516	22198
544.581	20802
544.646	29854
544.712	41114
544.777	22549
544.842	20371
544.907	18351
544.972	18812
545.037	18780
545.102	19724
545.168	19919
545.233	20437
545.298	21185
545.363	22488
545.428	24840
545.493	26480
545.558	36678
545.623	26703
545.688	22056
545.753	22471
545.818	23082
545.883	23676
545.947	26234
546.012	26006
546.077	25744
546.142	28371
546.207	27898
546.272	30336
546.337	31556
546.401	31994
546.466	33616
546.531	32426
546.596	36246
546.661	36800
546.725	39322
546.790	40296
546.855	43004
546.919	47166
546.984	53263
547.049	56006
547.113	63613
547.178	69848
547.243	81126
547.307	93005
547.372	104004
547.436	104185
547.501	108915
547.565	118358
547.630	108671
547.695	102817
547.759	104798
547.823	105065
547.888	108635
547.952	111107
548.017	114441
548.081	115759
548.146	116279
548.210	119261
548.274	128231
548.339	128219
548.403	115022
548.468	107793
548.532	105448
548.596	108646
548.660	111195
548.725	121433
548.789	130569
548.853	128762
548.917	120567
548.982	119155
549.046	106595
549.110	95971
549.174	97955
549.238	113295
549.303	126385
549.367	129452
549.431	122619
549.495	116117
549.559	116217
549.623	132873
549.687	150707
549.751	148109
549.815	170336
549.879	178323
549.943	168830
550.007	176109
550.071	175801
550.135	159562
550.199	148206
550.263	144966
550.327	137631
550.391	138655
550.455	154188
550.519	164777
550.582	175679
550.646	197393
550.710	203829
550.774	198202
550.838	200331
550.901	204963
550.965	218042
551.029	226279
551.093	242367
551.156	262745
551.220	293972
551.284	339543
551.347	270792
551.411	223622
551.475	212629
551.538	215611
551.602	204510
551.666	191010
551.729	180972
551.793	172714
551.856	172831
551.920	169061
551.983	169455
552.047	169498
552.110	169435
552.174	168902
552.237	176019
552.301	162901
552.364	155755
552.428	151007
552.491	153571
552.554	158394
552.618	155366
552.681	161331
552.745	156292
552.808	161325
552.871	170091
552.934	165034
552.998	159115
553.061	153984
553.124	149346
553.187	147053
553.251	153786
553.314	154556
553.377	154552
553.440	162970
553.503	168525
553.567	168616
553.630	166096
553.693	164135
553.756	165564
553.819	162891
553.882	156817
553.945	155446
554.008	156880
554.071	159305
554.134	160763
554.197	151532
554.260	149365
554.323	150887
554.386	152825
554.449	158324
554.512	159443
554.575	152963
554.638	150939
554.701	149395
554.764	149236
554.827	143909
554.889	137820
554.952	130691
555.015	127037
555.078	129145
555.141	131075
555.203	129490
555.266	127371
555.329	127205
555.391	123708
555.454	120505
555.517	117622
555.580	113571
555.642	108085
555.705	107577
555.768	107022
555.830	103096
555.893	98739
555.955	96049
556.018	95916
556.080	93991
556.143	97848
556.206	96323
556.268	93124
556.330	93060
556.393	88895
556.455	87150
556.518	84359
556.580	83174
556.643	78981
556.705	77887
556.767	75077
556.830	75841
556.892	75178
556.955	74216
557.017	73493
557.079	70930
557.142	68934
557.204	67458
557.266	70861
557.328	65816
557.391	59015
557.453	58451
557.515	58480
557.577	57896
557.639	58462
557.701	57187
557.764	55637
557.826	56715
557.888	59766
557.950	63782
558.012	75744
558.074	99113
558.136	167772
558.198	410767
558.260	185954
558.322	57966
558.384	56407
558.446	58427
558.508	63719
558.570	73872
558.632	97846
558.694	142689
558.756	226724
558.818	481623
558.880	1128667
558.942	520104
559.003	409570
559.065	243704
559.127	75006
559.189	76014
559.251	98340
559.312	147978
559.374	273228
559.436	789696
559.498	504163
559.559	93420
559.621	78998
559.683	102483
559.744	160437
559.806	389458
559.868	689058
559.929	176860
559.991	96568
560.052	141597
560.114	378487
560.176	306606
560.237	200785
560.299	382695
560.360	102504
560.422	33944
560.483	30631
560.545	27947
560.606	27363
560.667	27007
560.729	26235
560.790	24769
560.852	25072
560.913	23619
560.974	23861
561.036	22851
561.097	23296
561.158	22529
561.220	23768
561.281	22526
561.342	21769
561.403	22758
561.465	22866
561.526	26503
561.587	31377
561.648	21171
561.709	19941
561.771	19610
561.832	19807
561.893	18680
561.954	19102
562.015	19623
562.076	18817
562.137	17759
562.198	18788
562.259	18187
562.320	18523
562.381	19700
562.442	20230
562.503	19429
562.564	16880
562.625	17045
562.686	18301
562.747	17527
562.808	17811
562.869	16765
562.930	17696
562.991	16726
563.051	16481
563.112	16438
563.173	16645
563.234	15348
563.294	16095
563.355	15769
563.416	15996
563.477	15370
563.537	15962
563.598	16069
563.659	15451
563.720	15349
563.780	15178
563.841	15519
563.901	15081
563.962	14896
564.023	15325
564.083	15164
564.144	15379
564.204	14591
564.265	14204
564.325	13790
564.386	17021
564.446	15715
564.507	13636
564.567	14498
564.628	14232
564.688	14265
564.749	13755
564.809	14244
564.869	14514
564.930	13550
564.990	14962
565.050	12670
565.111	13766
565.171	13205
565.231	13447
565.292	14247
565.352	12841
565.412	12928
565.472	14270
565.532	13539
565.593	13465
565.653	14798
565.713	13891
565.773	14300
565.833	15453
565.893	15208
565.953	13984
566.013	13090
566.074	13732
566.134	13337
566.194	14026
566.254	15658
566.314	14253
566.374	12849
566.434	13143
566.494	13104
566.554	13214
566.614	13888
566.673	14137
566.733	14138
566.793	14254
566.853	13761
566.913	14718
566.973	14453
567.033	14299
567.092	14810
567.152	14452
567.212	14624
567.272	14075
567.331	15068
567.391	14703
567.451	14418
567.511	15595
567.570	16501
567.630	14843
567.690	14076
567.749	14384
567.809	13048
567.868	14300
567.928	13364
567.988	15166
568.047	14669
568.107	13815
568.166	14999
568.226	16545
568.285	17700
568.345	17357
568.404	16317
568.464	15386
568.523	14430
568.582	14988
568.642	15759
568.701	16692
568.761	17446
568.820	21344
568.879	19755
568.939	17776
568.998	17300
569.057	15516
569.116	15190
569.176	13917
569.235	13401
569.294	14001
569.353	12294
569.413	13582
569.472	12432
569.531	13267
569.590	13750
569.649	13369
569.708	13433
569.767	13533
569.827	14240
569.886	14426
569.945	13450
570.004	13785
570.063	13611
570.122	13704
570.181	14256
570.240	14027
570.299	14699
570.358	16472
570.417	13161
570.475	13356
570.534	14784
570.593	14732
570.652	14472
570.711	15220
570.770	13456
570.829	14582
570.887	13855
570.946	15128
571.005	13423
571.064	13754
571.122	13890
571.181	13926
571.240	13608
571.299	13050
571.357	13526
571.416	14265
571.475	13336
571.533	14729
571.592	13960
571.650	14651
571.709	13857
571.768	16412
571.826	16469
571.885	15260
571.943	14095
572.002	13105
572.060	12903
572.119	13225
572.177	12832
572.236	12511
572.294	13350
572.352	13340
572.411	14739
572.469	12794
572.528	12953
572.586	13799
572.644	13473
572.703	15348
572.761	13381
572.819	12096
572.877	11972
572.936	11792
572.994	12339
573.052	10731
573.110	12957
573.169	12648
573.227	11522
573.285	12819
573.343	11590
573.401	12217
573.459	12378
573.517	12447
573.576	12818
573.634	12429
573.692	12483
573.750	13131
573.808	13200
573.866	11843
573.924	11882
573.982	12068
574.040	11829
574.098	11254
574.155	11201
574.213	11816
574.271	11640
574.329	13554
574.387	11388
574.445	10486
574.503	10214
574.560	10919
574.618	10763
574.676	11280
574.734	10576
574.792	10980
574.849	10644
574.907	10324
574.965	9657
575.022	8676
575.080	8826
575.138	8317
575.195	9046
575.253	9733
575.311	8849
575.368	9481
575.426	9184
575.483	9636
575.541	8671
575.598	9966
575.656	9223
575.713	10027
575.771	10243
575.828	9256
575.886	8646
575.943	9229
576.001	8470
576.058	9254
576.115	9273
576.173	9461
576.230	9744
576.287	9125
576.345	9681
576.402	9497
576.459	9847
576.517	9586
576.574	8519
576.631	10116
576.688	8044
576.746	7946
576.803	8545
576.860	8703
576.917	8648
576.974	9193
577.031	8716
577.089	9656
577.146	8360
577.203	8217
577.260	8577
577.317	8425
577.374	8105
577.431	8588
577.488	8577
577.545	8767
577.602	7945
577.659	8762
577.716	8833
577.773	8796
577.830	8449
577.886	8026
577.943	7757
578.000	7984
578.057	7960
578.114	8450
578.171	8009
578.227	7913
578.284	7728
578.341	9155
578.398	8382
578.454	9066
578.511	7822
578.568	8722
578.625	8223
578.681	8098
578.738	7531
578.794	7793
578.851	8132
578.908	9458
578.964	8309
579.021	8438
579.077	8262
579.134	8994
579.190	8324
579.247	8490
579.303	7829
579.360	7506
579.416	7794
579.473	8070
579.529	7925
579.586	8359
579.642	8350
579.698	8531
579.755	9198
579.811	8885
579.867	8166
579.924	8781
579.980	7876
580.036	8807
580.093	8657
580.149	8408
580.205	8565
580.261	8391
580.317	8773
580.374	8350
580.430	9475
580.486	9093
580.542	8828
580.598	9021
580.619	9257
580.654	9675
580.692	8994
580.710	8671
580.765	8720
580.767	8731
580.823	8900
580.838	8913
580.879	8969
580.911	8847
580.935	8783
580.984	9135
580.991	9190
581.047	9414
581.057	9345
581.103	9103
581.130	9103
581.159	9119
581.203	8757
581.215	8665
581.270	8602
581.276	8598
581.326	8692
581.349	8689
581.382	8650
581.422	8778
581.438	8840
581.494	9403
581.494	9385
581.550	8259
581.567	8256
581.606	8234
581.640	8635
581.661	8911
581.713	9588
581.717	9642
581.773	8075
581.786	8190
581.829	8636
581.859	8331
581.885	8064
581.932	8615
581.940	8734
581.996	8329
582.004	8378
582.052	8527
582.077	8362
582.107	8234
582.150	8939
582.163	9148
582.219	7950
582.223	7978
582.274	8329
582.296	8353
582.330	8364
582.368	8395
582.386	8472
582.441	8191
582.441	8192
582.497	8864
582.514	8751
582.552	8673
582.587	8736
582.608	8781
582.659	8106
582.663	8050
582.719	9162
582.732	9029
582.774	8624
582.805	8763
582.830	8946
582.877	9196
582.885	9202
582.941	8851
582.950	8792
582.996	8590
583.023	8787
583.052	8939
583.095	8090
583.107	7917
583.162	8234
583.168	8271
583.218	8506
583.240	8602
583.273	8743
583.313	8391
583.328	8245
583.384	8530
583.385	8522
583.439	8282
583.458	8493
583.494	8872
583.531	8639
583.549	8581
583.603	9101
583.605	9110
583.660	8469
583.676	8575
583.715	8962
583.748	8570
583.770	8284
583.820	8904
583.825	8965
583.881	8728
583.893	8767
583.936	8841
583.965	8522
583.991	8261
584.038	8569
584.046	8644
584.101	8855
584.110	8848
584.156	8721
584.183	8626
584.211	8548
584.255	8938
584.266	9009
584.321	9032
584.328	9016
584.376	9177
584.400	9252
584.431	9136
584.472	8793
584.486	8697
584.541	9351
584.545	9382
584.596	9908
584.617	9886
584.651	9953
584.689	10291
584.706	10426
584.761	10477
584.762	10480
584.816	10353
584.834	10363
584.871	10784
584.906	11048
584.926	11081
584.978	11088
584.980	11098
585.035	11952
585.051	12238
585.090	12786
585.123	13393
585.145	14120
585.195	15257
585.200	15400
585.254	18515
585.267	19383
585.309	22165
585.340	25122
585.364	27700
585.412	35354
585.419	36540
585.473	48752
585.484	52426
585.528	69150
585.556	82515
585.583	102838
585.628	147222
585.637	166816
585.692	348691
585.700	389715
585.747	631770
585.772	595574
585.801	408767
585.845	162920
585.856	123430
585.910	45872
585.917	38107
585.965	27482
585.989	23979
586.019	21715
586.061	18957
586.074	18496
586.128	17937
586.133	17866
586.183	17032
586.205	16719
586.237	16726
586.277	16366
586.292	16158
586.346	16648
586.349	16615
586.401	15925
586.421	16108
586.455	16509
586.493	16359
586.509	16476
586.564	17325
586.565	17355
586.618	19548
586.637	20489
586.672	21970
586.709	22983
586.727	23946
586.781	28145
586.781	28148
586.835	21875
586.853	20692
586.889	18767
586.925	16660
586.944	16041
586.996	16121
586.998	16143
587.052	15915
587.068	16114
587.106	16368
587.140	16022
587.161	15911
587.212	16795
587.215	16841
587.269	16318
587.284	16526
587.323	17254
587.356	17456
587.377	17490
587.427	18039
587.431	18102
587.485	18474
587.499	18590
587.539	18470
587.571	18572
587.593	19046
587.643	20285
587.648	20355
587.702	20853
587.715	20954
587.755	21469
587.786	21582
587.810	21577
587.858	21666
587.864	21676
587.917	22188
587.930	22223
587.971	22658
588.001	22981
588.025	23191
588.073	23621
588.079	23694
588.133	24469
588.145	24563
588.187	24989
588.217	25389
588.241	26252
588.288	27807
588.295	28076
588.348	31124
588.360	31644
588.402	33170
588.431	34331
588.456	35728
588.503	38835
588.510	39454
588.564	45302
588.575	46785
588.617	53005
588.646	58532
588.671	63629
588.718	75543
588.725	77962
588.778	101735
588.789	107371
588.832	154057
588.861	192257
588.886	278035
588.932	472928
588.939	512293
588.993	806820
589.004	838282
589.047	555274
589.075	365975
589.100	257980
589.147	100765
589.154	96182
589.207	73226
589.218	69253
589.261	67700
589.290	68305
589.314	70930
589.361	78682
589.368	81389
589.421	105639
589.433	112156
589.475	187805
589.504	252111
589.528	371074
589.576	624747
589.582	623488
589.635	500104
589.647	469720
589.689	233103
589.718	88887
589.742	71350
589.790	44000
589.795	43170
589.849	36130
589.861	34682
589.902	32877
589.932	31625
589.955	30504
590.004	27846
590.009	27711
590.062	26914
590.075	26621
590.115	25888
590.146	25243
590.168	25051
590.218	24683
590.222	24702
590.275	25100
590.289	25130
590.328	25252
590.360	25331
590.381	25231
590.431	24986
590.435	24980
590.488	24626
590.503	24541
590.541	24946
590.574	25300
590.594	25199
590.645	24982
590.647	25035
590.700	26113
590.716	26460
590.753	26570
590.787	26693
590.806	26959
590.859	27666
590.859	27675
590.912	27464
590.930	27314
590.965	27861
591.001	28574
591.018	28568
591.071	28474
591.072	28460
591.124	27427
591.143	27051
591.177	27370
591.214	27808
591.230	28199
591.283	29518
591.285	29544
591.336	28571
591.356	28191
591.389	28553
591.427	28940
591.442	28603
591.495	27337
591.498	27227
591.547	27308
591.569	27358
591.600	27657
591.640	28070
591.653	28295
591.706	29195
591.711	29269
591.759	29419
591.782	29496
591.811	30168
591.853	31184
591.864	31305
591.917	31709
591.924	31745
591.969	31123
591.995	30776
592.022	31080
592.066	31484
592.075	31635
592.127	32556
592.137	32707
592.180	33114
592.208	33325
592.233	33569
592.279	34005
592.285	34032
592.338	34158
592.350	34163
592.390	34406
592.421	34555
592.443	34834
592.491	35455
592.495	35481
592.548	35595
592.562	35612
592.600	35660
592.633	35675
592.653	35623
592.704	35250
592.705	35465
592.775	36176
592.846	37942
592.916	37840
592.987	37946
593.058	39769
593.128	39204
593.199	38618
593.270	38911
593.341	39322
593.411	39319
593.482	42147
593.553	43221
593.623	43341
593.694	43758
593.764	45997
593.835	44631
593.906	44925
593.976	45353
594.047	48244
594.117	49713
594.188	51246
594.258	49762
594.329	50825
594.399	50860
594.470	53227
594.540	54229
594.611	56055
594.681	54845
594.751	55660
594.822	56273
594.892	60686
594.963	60212
595.033	62808
595.103	64342
595.174	65632
595.244	67440
595.314	70012
595.384	70677
595.455	71949
595.525	75073
595.595	76399
595.665	78293
595.736	76069
595.806	76757
595.876	78528
595.946	76579
596.016	80295
596.087	83769
596.157	83503
596.227	84081
596.297	87649
596.367	93207
596.437	99285
596.507	100751
596.577	99915
596.647	102509
596.717	105750
596.787	110365
596.857	109390
596.927	109560
596.997	110685
597.067	111814
597.137	112774
597.207	113691
597.277	115938
597.347	112001
597.417	107241
597.487	105769
597.557	108458
597.626	111900
597.696	112946
597.766	113459
597.836	111162
597.906	102877
597.975	100056
598.045	98991
598.115	104788
598.185	109063
598.254	122367
598.324	134373
598.394	140087
598.464	136453
598.533	135132
598.603	127103
598.672	118718
598.742	122483
598.812	122782
598.881	125454
598.951	126008
599.020	124490
599.090	130765
599.159	133850
599.229	130019
599.299	124664
599.368	126552
599.437	130582
599.507	119489
599.576	112730
599.646	111111
599.715	108842
599.785	109118
599.854	107286
599.924	106258
599.993	103417
600.062	103909
600.132	106799
600.201	111777
600.270	125022
600.340	140667
600.409	138687
600.478	137329
600.547	136907
600.617	137249
600.686	105853
600.755	93955
600.824	86784
600.894	83532
600.963	84034
601.032	82141
601.101	80729
601.170	76665
601.239	73830
601.308	72634
601.378	72488
601.447	73782
601.516	72872
601.585	74733
601.654	76332
601.723	76054
601.792	76396
601.861	80152
601.930	81583
601.999	83597
602.068	82457
602.137	83894
602.206	85403
602.275	87316
602.343	88746
602.412	88711
602.481	88602
602.550	89447
602.619	91388
602.688	92845
602.756	93610
602.825	95145
602.894	96676
602.963	99102
603.032	101409
603.100	101491
603.169	101637
603.238	101240
603.307	104082
603.375	104102
603.444	104500
603.513	107531
603.581	107176
603.650	111251
603.719	111127
603.787	111623
603.856	114815
603.924	118538
603.993	123195
604.061	127019
604.130	132402
604.198	135279
604.267	137232
604.335	140271
604.404	141614
604.472	145196
604.541	144863
604.609	147845
604.678	146742
604.746	147745
604.815	151852
604.883	155253
604.951	155959
605.020	155951
605.088	161183
605.156	165319
605.225	168333
605.293	168795
605.361	168071
605.429	172973
605.498	172977
605.566	177562
605.634	184597
605.702	192242
605.771	199408
605.839	202941
605.907	199278
605.975	192550
606.043	186149
606.111	187861
606.180	184183
606.248	183842
606.316	181048
606.384	180971
606.452	181631
606.520	186405
606.588	195811
606.656	196670
606.724	195961
606.792	187188
606.860	170413
606.928	152628
606.996	144001
607.064	139743
607.132	143049
607.200	149103
607.267	159197
607.335	157732
607.403	166159
607.471	162836
607.539	153403
607.607	158519
607.674	142486
607.742	137469
607.810	137782
607.878	137436
607.946	139014
608.013	144781
608.081	149011
608.149	151111
608.216	152661
608.284	160023
608.352	159650
608.419	160367
608.487	156766
608.555	153370
608.622	157682
608.690	163992
608.757	180999
608.825	191463
608.893	187101
608.960	181179
609.028	169608
609.095	166952
609.163	166955
609.230	157508
609.298	135936
609.365	139982
609.432	152160
609.500	160827
609.567	183304
609.635	211031
609.702	231505
609.769	227634
609.837	194546
609.904	150968
609.971	152594
610.039	164100
610.106	197560
610.173	320098
610.241	723814
610.308	783319
610.375	234624
610.442	169756
610.509	156014
610.577	153577
610.644	156483
610.711	160146
610.778	165539
610.845	169737
610.912	178963
610.980	190755
611.047	192045
611.114	190167
611.181	185635
611.248	181252
611.315	186422
611.382	194443
611.449	201119
611.516	205506
611.583	203617
611.650	203062
611.717	205959
611.784	211707
611.851	217733
611.918	230154
611.984	256622
612.051	326715
612.118	536976
612.185	1207548
612.252	1466427
612.319	427496
612.386	281664
612.452	257120
612.519	238469
612.586	228810
612.653	231967
612.719	238131
612.786	237530
612.853	220936
612.919	207804
612.986	213054
613.053	203865
613.120	193699
613.186	181428
613.253	183768
613.319	182724
613.386	182593
613.453	186202
613.519	189644
613.586	185343
613.652	188924
613.719	188203
613.785	187042
613.852	190903
613.918	189369
613.985	188174
614.051	197002
614.118	196424
614.184	192008
614.250	186169
614.317	193469
614.383	189046
614.449	194028
614.516	192988
614.582	192875
614.648	191515
614.715	188483
614.781	187410
614.847	182533
614.914	185031
614.980	179770
615.046	176923
615.112	182134
615.179	185978
615.245	186469
615.311	185482
615.377	184186
615.443	191455
615.509	188761
615.575	197672
615.642	198016
615.708	197370
615.774	205613
615.840	216991
615.906	232547
615.972	264612
616.038	353339
616.104	617814
616.170	1315657
616.236	1936156
616.302	637750
616.368	373741
616.434	289224
616.500	237527
616.565	247451
616.631	317525
616.697	298224
616.763	266899
616.829	342794
616.895	619009
616.961	792823
617.026	398937
617.092	218101
617.158	198732
617.224	193077
617.289	181464
617.355	171937
617.421	165972
617.487	167402
617.552	160218
617.618	156139
617.684	155718
617.749	159106
617.815	152557
617.880	148584
617.946	146854
618.012	148346
618.077	154222
618.143	149953
618.208	146559
618.274	153755
618.339	163352
618.405	142296
618.470	130564
618.536	133484
618.601	130566
618.667	126758
618.732	117150
618.798	115833
618.863	114610
618.928	113822
618.994	113836
619.059	114725
619.124	116467
619.190	116184
619.255	114341
619.320	113806
619.386	112587
619.451	114051
619.516	111207
619.581	110143
619.647	113094
619.712	116191
619.777	109878
619.842	109501
619.907	110532
619.972	112088
620.038	114293
620.103	108898
620.168	109017
620.233	109213
620.298	112017
620.363	112046
620.428	115118
620.493	118047
620.558	121324
620.623	120838
620.688	122493
620.753	120133
620.818	122070
620.883	121482
620.948	124166
621.013	120678
621.078	120024
621.143	120478
621.207	123256
621.272	121817
621.337	117880
621.402	115196
621.467	116673
621.532	115028
621.596	115620
621.661	112766
621.726	109446
621.791	111835
621.855	112084
621.920	109506
621.985	113197
622.049	114220
622.114	114557
622.179	114763
622.243	116907
622.308	121069
622.373	125630
622.437	125648
622.502	119285
622.566	115776
622.631	114747
622.695	117065
622.760	117729
622.824	115984
622.889	117153
622.953	117726
623.018	123307
623.082	129297
623.147	124581
623.211	122489
623.276	120309
623.340	119158
623.404	112275
623.469	113272
623.533	113254
623.597	112222
623.662	110564
623.726	106444
623.790	99534
623.854	94389
623.919	96287
623.983	95630
624.047	98602
624.111	98148
624.176	102008
624.240	102133
624.304	106559
624.368	103403
624.432	100416
624.496	102952
624.560	107428
624.625	110242
624.689	108751
624.753	111841
624.817	113107
624.881	106695
624.945	100703
625.009	92045
625.073	93953
625.137	96754
625.201	101949
625.265	105433
625.329	99652
625.393	98174
625.456	99750
625.520	102425
625.584	104293
625.648	105429
625.712	107810
625.776	114213
625.839	113800
625.903	98005
625.967	82032
626.031	84686
626.095	98188
626.158	103459
626.222	83126
626.286	70436
626.349	68307
626.413	64872
626.477	62457
626.540	63389
626.604	63383
626.668	62256
626.731	60869
626.795	61933
626.858	61206
626.922	61349
626.986	59044
627.049	59595
627.113	61722
627.176	61270
627.240	57984
627.303	59763
627.366	58242
627.430	58090
627.493	58394
627.557	57117
627.620	57515
627.684	59622
627.747	61067
627.810	58368
627.874	52708
627.937	48006
628.000	49458
628.064	50163
628.127	46207
628.190	44318
628.253	42387
628.317	41398
628.380	38848
628.443	38081
628.506	38392
628.569	37658
628.632	34628
628.696	34619
628.759	34693
628.822	33994
628.885	32742
628.948	33071
629.011	32468
629.074	31314
629.137	30589
629.200	29921
629.263	28813
629.326	28427
629.389	29313
629.452	28597
629.515	28266
629.578	28028
629.641	28405
629.704	28193
629.767	27771
629.830	27666
629.892	25515
629.955	26118
630.018	27088
630.081	26639
630.144	27452
630.207	26178
630.269	25820
630.332	25566
630.395	25041
630.458	24530
630.520	24239
630.583	25015
630.646	23864
630.708	24486
630.771	25355
630.834	27048
630.896	25676
630.959	25565
631.021	25257
631.084	25627
631.146	25966
631.209	25185
631.272	25431
631.334	24891
631.397	25459
631.459	26070
631.522	27461
631.584	29014
631.646	30216
631.709	32170
631.771	33880
631.834	32702
631.896	30018
631.958	28022
632.021	26863
632.083	25169
632.145	24889
632.208	24648
632.270	24069
632.332	24476
632.395	23382
632.457	23681
632.519	24500
632.581	23614
632.643	22765
632.706	23413
632.768	22743
632.830	22727
632.892	23077
632.954	24427
633.016	24307
633.078	23273
633.141	22889
633.203	23566
633.265	23409
633.327	23638
633.389	22936
633.451	23559
633.513	24142
633.575	25891
633.637	24737
633.698	25283
633.760	25325
633.822	26854
633.884	27371
633.946	28056
634.008	28259
634.070	29767
634.132	30720
634.193	34044
634.255	37829
634.317	39374
634.379	41417
634.441	36242
634.502	32387
634.564	28939
634.626	26003
634.687	25231
634.749	23543
634.811	22954
634.873	22473
634.934	23261
634.996	22735
635.057	22943
635.119	23409
635.181	24263
635.242	24109
635.304	23225
635.365	24660
635.427	23746
635.488	24085
635.550	23193
635.611	23051
635.673	23420
635.734	25864
635.796	27003
635.857	28542
635.918	31008
635.980	34858
636.041	39254
636.102	41501
636.164	43365
636.225	41827
636.286	35794
636.348	31678
636.409	28812
636.470	25655
636.531	25064
636.593	23873
636.654	22510
636.715	22032
636.776	21061
636.838	20623
636.899	20361
636.960	19702
637.021	19503
637.082	20094
637.143	18830
637.204	18035
637.265	18852
637.326	18878
637.387	19306
637.448	18852
637.509	18833
637.570	19204
637.631	18617
637.692	18444
637.753	17709
637.814	17874
637.875	17932
637.936	17770
637.997	17175
638.058	17685
638.119	17494
638.179	17696
638.240	17855
638.301	17414
638.362	17458
638.423	16914
638.483	17178
638.544	15569
638.605	16160
638.666	16073
638.726	17081
638.787	16099
638.848	15291
638.908	15987
638.969	15775
639.030	14840
639.090	14951
639.151	15352
639.211	16778
639.272	15786
639.332	17095
639.393	17734
639.453	16958
639.514	18508
639.574	17642
639.635	15565
639.695	14502
639.756	15292
639.816	14628
639.877	13356
639.937	15890
639.997	17282
640.058	15734
640.118	14098
640.178	14618
640.239	14199
640.299	14052
640.359	14894
640.420	15414
640.480	17374
640.540	19204
640.600	22422
640.661	18653
640.721	15479
640.781	17618
640.841	14540
640.901	15072
640.961	14714
641.021	13838
641.082	17009
641.142	16431
641.202	15499
641.262	12944
641.322	14133
641.382	13412
641.442	13405
641.502	13566
641.562	13772
641.622	12842
641.682	15173
641.742	16659
641.802	18763
641.861	14758
641.921	13799
641.981	14219
642.041	12814
642.101	12760
642.161	12798
642.221	12265
642.280	12675
642.340	11460
642.400	11906
642.460	13027
642.519	13010
642.579	13603
642.639	13495
642.698	11953
642.758	14580
642.818	13611
642.877	13009
642.937	13551
642.997	12950
643.056	14163
643.116	13702
643.175	15237
643.235	13833
643.294	14750
643.354	15611
643.414	16913
643.473	19376
643.532	23767
643.592	32418
643.651	47618
643.711	79730
643.770	146854
643.830	297221
643.889	844191
643.948	601503
644.008	81445
644.067	34632
644.126	26034
644.186	21005
644.245	18179
644.304	14636
644.363	15338
644.423	13982
644.482	14507
644.541	15385
644.600	15306
644.659	19095
644.719	24138
644.778	34389
644.837	55660
644.896	104124
644.955	267298
645.014	247308
645.073	36318
645.132	19878
645.191	17141
645.250	14630
645.309	16770
645.368	17220
645.427	21241
645.486	31519
645.545	72895
645.604	47365
645.663	15471
645.722	14230
645.781	15293
645.840	16344
645.898	20886
645.957	28937
646.016	44439
646.075	77584
646.134	139205
646.192	294537
646.251	782191
646.310	330223
646.369	50456
646.427	29299
646.486	24639
646.545	17957
646.603	15328
646.662	13556
646.721	12983
646.779	13886
646.838	13177
646.896	16337
646.955	22436
647.014	34306
647.072	59438
647.131	150942
647.189	207732
647.248	31151
647.306	14235
647.365	12041
647.423	10462
647.481	11337
647.540	8977
647.598	10103
647.657	9607
647.715	9397
647.773	9578
647.832	9038
647.890	8569
647.948	8200
648.007	8410
648.065	7235
648.123	7553
648.181	8993
648.240	7326
648.298	7762
648.356	7455
648.414	7455
648.472	8572
648.531	7312
648.589	7555
648.647	7570
648.705	7205
648.763	7659
648.821	7818
648.879	8414
648.937	9676
648.995	11841
649.053	15323
649.111	21676
649.169	36886
649.227	65039
649.285	119200
649.343	332617
649.401	456515
649.459	66754
649.516	22583
649.574	14294
649.632	13148
649.690	14148
649.748	17262
649.806	23572
649.863	42350
649.921	98059
649.979	178357
650.037	34181
650.094	10080
650.152	8542
650.210	7153
650.268	6684
650.325	6605
650.383	6059
650.440	5337
650.498	6113
650.556	5272
650.613	5542
650.671	5396
650.728	4583
650.786	5564
650.843	6848
650.901	9296
650.958	6100
651.016	5494
651.073	4317
651.131	4740
651.188	3698
651.246	4895
651.303	4168
651.360	4879
651.418	4104
651.475	4496
651.532	2679
651.590	4853
651.647	3103
651.704	4063
651.762	3661
651.819	3519
651.876	3634
651.933	4361
651.990	3526
652.048	2798
652.105	3367
652.162	3399
652.219	3643
652.276	3768
652.333	4104
652.390	2786
652.448	3357
652.505	3364
652.562	3699
652.619	3075
652.676	3240
652.733	3018
652.790	3327
652.847	2751
652.904	3444
652.961	2254
653.017	2625
653.074	3748
653.131	3850
653.188	3242
653.245	3760
653.302	3270
653.359	2653
653.415	3623
653.472	2740
653.529	2877
653.586	1996
653.642	2953
653.699	3590
653.756	2914
653.813	3056
653.869	3080
653.926	2997
653.983	2597
654.039	2909
654.096	2751
654.152	3711
654.209	2153
654.266	3091
654.322	2626
654.379	3095
654.435	3041
654.492	2905
654.548	2440
654.605	3234
654.661	3615
654.717	2273
654.774	2214
654.830	2487
654.887	2793
654.943	2444
655.000	2816
655.056	2444
655.112	3208
655.168	2700
655.225	2859
655.281	3516
655.337	2824
655.394	3219
655.450	3674
655.506	2367
655.562	2515
655.618	3953
655.675	1372
655.731	2250
655.787	2081
655.843	3440
655.899	2754
655.955	3524
656.011	2376
656.067	1782
656.123	2832
656.179	3295
656.235	3342
656.291	2180
656.347	3948
656.403	2871
656.459	2175
656.515	2975
656.571	2248
656.627	2651
656.683	2166
656.739	3422
656.795	2982
656.850	2482
656.906	3163
656.962	4226
657.018	2914
657.074	3915
657.129	4422
657.185	7418
657.241	14890
657.297	21289
657.352	6070
657.408	1352
657.464	3282
657.519	2295
657.575	1653
657.630	1746
657.686	2111
657.742	1836
657.797	2163
657.853	1973
657.908	2885
657.964	1657
658.019	1911
658.075	2245
658.130	2287
658.186	2045
658.241	2286
658.297	1963
658.352	1388
658.407	1911
658.463	1677
658.518	2580
658.573	2264
658.629	1811
658.684	2557
658.739	1682
658.795	1227
658.850	1479
658.905	2648
658.960	2404
659.016	1479
659.071	1295
659.126	2617
659.181	1035
659.236	2608
659.291	3031
659.346	1526
659.401	1979
659.457	2303
659.512	1891
659.567	2135
659.622	1750
659.677	1666
659.732	1575
659.787	1085
659.842	1607
659.897	1701
659.952	1769
660.007	2170
660.061	1927
660.116	1496
660.171	1332
660.226	1290
660.281	2324
660.336	1685
660.391	1961
660.445	1107
660.500	1507
660.555	1457
660.610	1198
660.664	2514
660.719	578
660.774	1942
660.828	1826
660.883	1103
660.938	1677
660.992	561
661.047	1856
661.101	2318
661.156	707
661.211	1105
661.265	1553
661.320	1025
661.374	1761
661.429	1483
661.483	1935
661.538	1043
661.592	1042
661.647	2325
661.701	1757
661.755	1722
661.810	1716
661.864	1049
661.919	1128
661.973	1784
662.027	1885
662.081	1193
662.136	666
662.190	925
662.244	1224
662.299	1095
662.353	1321
662.407	1565
662.461	1784
662.515	1822
662.569	1507
662.624	2076
662.678	897
662.732	902
662.786	506
662.840	1894
662.894	741
662.948	1056
663.002	1464
663.056	1340
663.110	1007
663.164	1408
663.218	1675
663.272	1287
663.326	1667
663.380	1914
663.434	1750
663.488	1187
663.542	1895
663.595	1059
663.649	534
663.703	1999
663.757	1935
663.811	530
663.864	1406
663.918	1993
663.972	1717
664.026	1443
664.079	916
664.133	1718
664.187	1249
664.240	1977
664.294	1956
664.348	1444
664.401	1576
664.455	1764
664.508	738
664.562	1273
664.615	1188
664.669	928
664.722	1236
664.776	1025
664.829	1660
664.883	1944
664.936	529
664.990	1656
665.043	2116
665.097	1942
665.150	1254
665.203	1241
665.257	1422
665.310	1525
665.363	2187
665.417	1959
665.470	1739
665.523	1377
665.576	1684
665.630	1114
665.683	1001
665.736	1117
665.789	1781
665.842	1176
665.895	676
665.949	1769
666.002	1491
666.055	1748
666.108	1817
666.161	1424
666.214	1317
666.267	2321
666.320	2379
666.373	2105
666.426	2009
666.479	1395
666.532	1977
666.585	585
666.638	2413
666.691	1784
666.744	2046
666.796	1355
666.849	1755
666.902	2253
666.955	1160
667.008	1291
667.060	974
667.113	1460
667.166	2440
667.219	1866
667.271	2333
667.324	2377
667.377	1348
667.430	1752
667.482	1414
667.535	1824
667.587	1987
667.640	2012
667.693	1633
667.745	1602
667.798	3367
667.850	1153
667.903	1222
667.955	1872
668.008	1964
668.060	2173
668.113	1218
668.165	1902
668.218	2254
668.270	1590
668.322	1178
668.375	1112
668.427	1438
668.479	2073
668.532	1737
668.584	1199
668.636	1700
668.689	1642
668.741	1366
668.793	2136
668.845	1252
668.898	2143
668.950	1212
669.002	2126
669.054	1369
669.106	1521
669.158	2450
669.211	1519
669.263	1599
669.315	1648
669.367	1346
669.419	704
669.471	2947
669.523	2588
669.575	3235
669.627	3341
669.679	2266
669.731	1823
669.783	2066
669.835	1907
669.886	2014
669.938	2220
669.990	1857
670.042	731
670.094	1549
670.146	1822
670.197	1695
670.249	1947
670.301	1299
670.353	1992
670.404	3279
670.456	3302
670.508	4020
670.560	5827
670.611	9082
670.663	14196
670.715	24944
670.766	65490
670.818	51971
670.869	8808
670.921	3294
670.972	2907
671.024	1740
671.075	1716
671.127	1991
671.178	1417
671.230	1292
671.281	2947
671.333	3051
671.384	3050
671.436	3822
671.487	6951
671.538	9565
671.590	15895
671.641	24311
671.692	41090
671.744	92493
671.795	119094
671.846	41992
671.897	13812
671.949	6510
672.000	5188
672.051	4087
672.102	3744
672.153	1871
672.204	2582
672.256	1915
672.307	1825
672.358	1393
672.409	1140
672.460	1793
672.511	1546
672.562	802
672.613	1156
672.664	680
672.715	1017
672.766	1825
672.817	539
672.868	845
672.919	929
672.970	577
673.021	1103
673.071	283
673.122	540
673.173	482
673.224	564
673.275	1514
673.326	769
673.376	498
673.427	148
673.478	862
673.528	1829
673.579	871
673.630	1163
673.680	653
673.731	863
673.782	445
673.832	1033
673.883	518
673.934	1301
673.984	329
674.035	920
674.085	719
674.136	1836
674.186	889
674.237	897
674.287	896
674.338	1705
674.388	905
674.438	709
674.489	1395
674.539	1474
674.589	1048
674.640	1503
674.690	1480
674.740	33
674.791	819
674.841	1078
674.891	737
674.942	552
674.992	380
675.042	242
675.092	-659
675.142	448
675.193	1195
675.243	-23
675.293	882
675.343	334
675.393	519
675.443	1080
675.493	113
675.543	961
675.593	857
675.643	797
675.693	390
675.743	432
675.793	905
675.843	195
675.893	647
675.943	780
675.993	305
676.043	489
676.093	541
676.142	623
676.192	276
676.242	352
676.292	4
676.341	10
676.391	877
676.441	-157
676.491	-149
676.540	386
676.590	596
676.640	44
676.689	-120
676.739	-174
676.789	-76
676.838	365
676.888	463
676.937	237
676.987	-32
677.037	249
677.086	287
677.136	458
677.185	116
677.235	388
677.284	4
677.333	303
677.383	298
677.432	460
677.482	476
677.531	643
677.580	-418
677.630	479
677.679	-318
677.728	-301
677.778	1069
677.827	-128
677.876	443
677.925	335
677.975	-138
678.024	1067
678.073	748
678.122	-310
678.171	599
678.220	62
678.269	1266
678.319	429
678.368	983
678.417	743
678.466	1335
678.515	-188
678.564	-196
678.613	321
678.662	13
678.711	73
678.760	612
678.809	-471
678.857	-85
678.906	318
678.955	-15
679.004	1126
679.053	-147
679.102	316
679.151	-214
679.199	842
679.248	61
679.297	100
679.346	153
679.394	388
679.443	376
679.492	-39
679.540	123
679.589	765
679.638	48
679.686	144
679.735	-56
679.784	-251
679.832	1524
679.881	1462
679.929	255
679.978	648
680.026	-665
680.075	421
680.123	-82
680.172	-17
680.220	47
680.268	61
680.317	358
680.365	-320
680.414	-1014
680.462	-927
680.510	-93
680.559	-434
680.607	-256
680.655	-231
680.703	-508
680.752	83
680.800	0
680.848	7
680.896	-499
680.945	-142
680.993	369
681.041	-478
681.089	-470
681.137	-456
681.185	-849
681.233	-222
681.258	-274
681.281	-338
681.329	492
681.377	22
681.380	18
681.425	-339
681.473	118
681.502	262
681.521	335
681.569	110
681.617	39
681.624	108
681.665	447
681.713	617
681.745	595
681.761	554
681.809	204
681.857	-145
681.867	-77
681.904	94
681.952	963
681.989	539
682.000	388
682.048	502
682.096	458
682.111	215
682.143	-364
682.191	658
682.233	490
682.239	452
682.286	588
682.334	879
682.354	728
682.382	485
682.430	789
682.476	1104
682.477	1096
682.525	512
682.572	1225
682.598	561
682.620	-16
682.667	736
682.715	1060
682.720	1129
682.763	1636
682.810	1073
682.841	510
682.857	187
682.905	1319
682.952	1181
682.963	1079
683.000	673
683.047	1448
683.085	1622
683.095	1660
683.142	982
683.190	1258
683.206	983
683.237	419
683.284	1089
683.328	1415
683.332	1429
683.379	1337
683.426	781
683.449	912
683.473	1039
683.521	1849
683.568	1302
683.571	1326
683.615	1476
683.662	1784
683.693	1583
683.709	1462
683.757	1298
683.804	1259
683.814	1385
683.851	1723
683.898	1587
683.936	1142
683.945	1046
683.992	1388
684.039	1978
684.057	1834
684.086	1532
684.133	2233
684.179	2380
684.180	2375
684.227	1693
684.274	2052
684.300	2000
684.321	1929
684.368	2242
684.415	1692
684.422	1670
684.462	1449
684.509	1624
684.543	1994
684.556	2164
684.603	2035
684.649	2145
684.665	2343
684.696	2621
684.743	1872
684.786	2080
684.790	2091
684.837	2126
684.883	2128
684.908	2179
684.930	2223
684.977	2325
685.023	2338
685.029	2326
685.070	2181
685.117	2347
685.150	2328
685.164	2285
685.210	2921
685.257	2351
685.272	2500
685.303	2867
685.350	2430
685.393	2773
685.396	2792
685.443	2583
685.490	2900
685.514	2841
685.536	2733
685.583	2778
685.629	3002
685.636	3034
685.675	3293
685.722	2628
685.757	2964
685.768	3053
685.815	2930
685.861	3321
685.878	3420
685.908	3568
685.954	3004
686.000	3081
686.000	3079
686.047	3168
686.093	3248
686.121	3259
686.139	3327
686.185	2841
686.232	3448
686.242	3443
686.278	3236
686.324	3806
686.363	3384
686.370	3299
686.416	3062
686.463	3811
686.484	3605
686.509	3493
686.555	3608
686.601	3553
686.606	3587
686.647	3741
686.693	3357
686.727	3424
686.739	3440
686.785	3495
686.831	3784
686.848	3685
686.877	3500
686.923	3013
686.969	3972
686.969	3977
687.015	3259
687.061	3455
687.090	3623
687.107	3702
687.153	4097
687.199	3609
687.211	3666
687.245	3711
687.291	3645
687.332	3317
687.336	3308
687.382	3938
687.428	4297
687.453	4137
687.474	4009
687.520	4358
687.565	4413
687.574	4422
687.611	4280
687.657	3892
687.695	4097
687.702	4166
687.748	4383
687.794	4783
687.816	4780
687.839	4684
687.885	3973
687.931	3843
687.937	3853
687.976	3998
688.022	4801
688.058	4325
688.067	4252
688.113	4421
688.158	5074
688.179	5223
688.204	5207
688.249	4862
688.295	4885
688.300	4811
688.340	4597
688.386	5505
688.421	5219
688.431	5058
688.477	4367
688.522	4351
688.542	4439
688.567	4878
688.613	5350
688.658	5408
688.663	5416
688.703	5041
688.749	4895
688.784	4864
688.794	4897
688.839	4516
688.884	4716
688.905	4776
688.930	4887
688.975	5343
689.020	4634
689.026	4643
689.065	4683
689.110	4935
689.146	4621
689.155	4595
689.201	5054
689.246	5077
689.267	5134
689.291	5092
689.336	5425
689.381	5021
689.388	4987
689.426	4942
689.471	4965
689.509	5325
689.516	5387
689.561	5417
689.606	5164
689.630	5179
689.651	5265
689.696	5221
689.741	5562
689.750	5503
689.785	5387
689.830	5683
689.871	5840
689.875	5822
689.920	5473
689.965	5271
689.992	5077
690.010	5086
690.054	4944
690.099	5211
690.112	5216
690.144	5417
690.189	5442
690.233	5883
690.233	5893
690.278	5522
690.323	5696
690.354	5458
690.367	5336
690.412	5365
690.457	4989
690.474	4957
690.501	5137
690.546	5336
690.590	5643
690.595	5591
690.635	4945
690.680	5096
690.716	4786
690.724	4796
690.769	5051
690.813	5465
690.836	5452
690.857	5398
690.902	5617
690.946	5678
690.957	5657
690.991	5522
691.035	5622
691.077	5539
691.080	5562
691.124	5647
691.168	6217
691.198	6321
691.213	6244
691.257	6182
691.301	6219
691.318	6042
691.346	5931
691.390	6335
691.434	5761
691.439	5759
691.478	5702
691.522	5527
691.559	5457
691.567	5537
691.611	5886
691.655	6337
691.680	6440
691.699	6331
691.743	6574
691.787	6372
691.800	6332
691.831	6512
691.875	6576
691.919	7045
691.921	7031
691.964	6663
692.008	6418
692.041	6522
692.052	6632
692.096	6370
692.139	6602
692.162	6640
692.183	6559
692.227	6403
692.271	5962
692.282	5938
692.315	6180
692.359	6522
692.402	6550
692.403	6565
692.447	6500
692.490	6942
692.523	6988
692.534	6918
692.578	6879
692.622	6255
692.643	6062
692.666	6001
692.709	6325
692.753	6343
692.763	6403
692.797	6660
692.840	6416
692.884	6243
692.884	6256
692.928	6168
692.971	6351
693.004	6168
693.015	6128
693.059	6178
693.102	6460
693.124	6214
693.146	6012
693.189	6280
693.233	5955
693.245	5967
693.276	6087
693.320	6320
693.363	6073
693.365	6058
693.407	6016
693.450	6290
693.485	6152
693.493	6161
693.537	5969
693.580	6010
693.605	6109
693.624	6243
693.667	6479
693.710	6423
693.725	6492
693.753	6456
693.797	6389
693.840	6306
693.845	6256
693.883	6372
693.926	6517
693.966	6619
693.970	6638
694.013	6904
694.056	6744
694.086	6956
694.099	7000
694.142	6768
694.185	6531
694.206	6511
694.229	6517
694.272	6303
694.315	6044
694.326	6018
694.358	6318
694.401	6489
694.444	6786
694.446	6773
694.487	6768
694.530	7153
694.566	7080
694.573	7017
694.616	6805
694.659	6598
694.686	6323
694.702	6350
694.745	6544
694.787	6670
694.806	6668
694.830	6761
694.873	6949
694.916	7151
694.926	7200
694.959	7209
695.002	7074
695.044	6921
695.046	6897
695.087	6947
695.130	7126
695.166	7046
695.172	7084
695.215	7364
695.258	7593
695.286	7695
695.301	7720
695.343	7769
695.386	7957
695.406	7977
695.428	7999
695.471	7923
695.514	7934
695.526	7881
695.556	8404
695.599	9382
695.641	10060
695.646	10127
695.684	9794
695.726	9344
695.766	8716
695.769	8731
695.811	8995
695.854	9091
695.886	9105
695.896	9073
695.938	8688
695.981	8426
696.005	8266
696.023	8493
696.065	9131
696.108	9518
696.125	9701
696.150	9882
696.192	10138
696.235	10444
696.245	10486
696.277	10552
696.319	10558
696.361	10578
696.365	10555
696.404	10570
696.446	10373
696.485	10346
696.488	10383
696.530	10462
696.572	10521
696.604	10523
696.614	10561
696.656	10606
696.698	10623
696.724	10631
696.740	10645
696.783	10610
696.825	10636
696.844	10561
696.867	10629
696.909	10767
696.951	10868
696.964	10897
696.992	11034
697.034	11061
697.076	11192
697.083	11168
697.118	11271
697.160	11490
697.202	11615
697.203	11587
697.244	11356
697.286	11108
697.323	10832
697.327	10901
697.369	11324
697.411	11619
697.442	11900
697.453	11924
697.494	11805
697.536	11692
697.562	11635
697.578	11660
697.620	11562
697.661	11482
697.682	11427
697.703	11636
697.744	11998
697.786	12386
697.801	12461
697.828	12576
697.869	12729
697.911	12907
697.921	12899
697.952	12738
697.994	12564
698.035	12303
698.040	12247
698.077	12284
698.118	12263
698.160	12227
698.160	12193
698.201	12483
698.243	12774
698.279	12989
698.284	13055
698.325	13329
698.367	13612
698.399	13809
698.408	13894
698.449	14086
698.491	14277
698.518	14355
698.532	14256
698.573	13843
698.614	13456
698.638	13194
698.656	13329
698.697	13549
698.738	13769
698.757	13831
698.779	13944
698.820	14099
698.862	14253
698.877	14273
698.903	14193
698.944	14001
698.985	13805
698.996	13716
699.026	13528
699.067	13215
699.116	12810
699.235	13728
699.354	13392
699.474	13130
699.593	13253
699.713	12836
699.832	12833
699.951	13541
700.070	13751
700.190	12504
700.309	12350
700.428	11949
700.547	12617
700.667	11313
700.786	12417
700.905	12508
701.024	10932
701.143	12165
701.262	11251
701.381	12486
701.500	12464
701.619	12158
701.738	12042
701.857	12182
701.976	11416
702.095	10725
702.214	11640
702.333	12101
702.452	11280
702.571	11113
702.690	13126
702.809	12370
702.928	10506
703.047	11117
703.165	9992
703.284	10696
703.403	11119
703.522	11016
703.640	10820
703.759	10285
703.878	10852
703.997	10383
704.115	10468
704.234	10576
704.353	11021
704.471	9863
704.590	8357
704.708	9730
704.827	9185
704.946	9814
705.064	9708
705.183	9604
705.301	9590
705.420	9675
705.538	10076
705.656	9226
705.775	8617
705.893	9077
706.012	10441
706.130	9361
706.249	10125
706.367	9641
706.485	8443
706.604	8458
706.722	8156
706.840	8933
706.958	10251
707.077	8622
707.195	8420
707.313	9366
707.431	8223
707.549	8232
707.668	8057
707.786	7858
707.904	8651
708.022	8548
708.140	8333
708.258	7869
708.376	8893
708.494	8298
708.612	8228
708.730	9623
708.848	8979
708.966	9425
709.084	8685
709.202	9014
709.320	8832
709.438	7495
709.556	8170
709.674	8605
709.791	7784
709.909	7792
710.027	7820
710.145	8043
710.263	7736
710.380	7264
710.498	8474
710.616	7030
710.733	7066
710.851	7257
710.969	7586
711.086	7290
711.204	8112
711.322	7639
711.439	7420
711.557	7102
711.674	7687
711.792	6912
711.909	7956
712.027	6537
712.144	6239
712.262	7120
712.379	6740
712.497	7509
712.614	7858
712.732	7218
712.849	8133
712.966	7861
713.084	8502
713.201	8361
713.318	7489
713.436	8978
713.553	8811
713.670	8451
713.787	8552
713.905	9042
714.022	8613
714.139	8019
714.256	10723
714.373	14929
714.490	29119
714.608	62867
714.725	242226
714.842	811217
714.959	182186
715.076	22979
715.193	14179
715.310	12091
715.427	9149
715.544	7860
715.661	8195
715.778	7679
715.895	6945
716.011	7223
716.128	8133
716.245	7007
716.362	7493
716.479	6900
716.596	6029
716.713	6534
716.829	6454
716.946	5811
717.063	5607
717.180	6381
717.296	5114
717.413	5227
717.530	6224
717.646	5820
717.763	5821
717.880	5754
717.996	5957
718.113	4962
718.229	5089
718.346	5483
718.462	5186
718.579	6057
718.695	6577
718.812	7815
718.928	6373
719.045	6286
719.161	4875
719.277	5516
719.394	5819
719.510	5861
719.626	6016
719.743	7920
719.859	12782
719.975	24779
720.092	78574
720.208	347309
720.324	226209
720.440	16687
720.557	8956
720.673	7644
720.789	8776
720.905	8209
721.021	9209
721.137	5385
721.253	4397
721.369	5034
721.486	4967
721.602	5132
721.718	5515
721.834	3788
721.950	4368
722.066	4017
722.181	4549
722.297	3916
722.413	5690
722.529	4776
722.645	4883
722.761	3890
722.877	4949
722.993	4600
723.108	5942
723.224	7340
723.340	5306
723.456	5386
723.571	3846
723.687	4146
723.803	4083
723.918	4032
724.034	4071
724.150	4644
724.265	4448
724.381	3924
724.497	6341
724.612	4347
724.728	3830
724.843	4393
724.959	4202
725.074	4832
725.190	5636
725.305	4477
725.421	4126
725.536	3328
725.651	3533
725.767	3012
725.882	3803
725.997	2897
726.113	4487
726.228	3847
726.343	3534
726.459	2995
726.574	3530
726.689	3720
726.804	3673
726.920	3388
727.035	2862
727.150	3914
727.265	2867
727.380	3569
727.495	3518
727.610	3501
727.725	3258
727.841	3730
727.956	3367
728.071	3343
728.186	3485
728.301	2713
728.416	3918
728.531	3297
728.645	2654
728.760	3529
728.875	3820
728.990	3375
729.105	3246
729.220	3283
729.335	2807
729.449	3907
729.564	4105
729.679	2720
729.794	3716
729.908	3632
730.023	2631
730.138	3047
730.253	3202
730.367	3323
730.482	3209
730.596	2952
730.711	3004
730.826	4247
730.940	3334
731.055	4463
731.169	3430
731.284	3916
731.398	4630
731.513	3894
731.627	5198
731.742	5872
731.856	7911
731.970	7376
732.085	9123
732.199	11778
732.313	22256
732.428	49148
732.542	164314
732.656	331250
732.771	65259
732.885	16845
732.999	11389
733.113	10331
733.227	9808
733.342	8981
733.456	8335
733.570	8080
733.684	7876
733.798	7419
733.912	7328
734.026	7029
734.140	6361
734.254	6473
734.368	5972
734.482	8183
734.596	6410
734.710	6466
734.824	7015
734.938	5928
735.052	6657
735.166	6381
735.280	6414
735.393	6284
735.507	6214
735.621	7039
735.735	6240
735.849	6699
735.962	5899
736.076	6797
736.190	6308
736.303	6231
736.417	6375
736.531	6124
736.644	5941
736.758	4936
736.872	6008
736.985	5751
737.099	5840
737.212	4611
737.326	5735
737.439	5963
737.553	5620
737.666	5151
737.780	4619
737.893	5576
738.007	4988
738.120	6020
738.233	5701
738.347	5158
738.460	4133
738.573	5576
738.687	5192
738.800	4547
738.913	5739
739.026	5651
739.140	4491
739.253	4344
739.366	4743
739.479	3995
739.592	4049
739.705	4188
739.818	5059
739.932	4602
740.045	4870
740.158	5251
740.271	4053
740.384	4589
740.497	4218
740.610	4450
740.723	4672
740.836	5027
740.949	4910
741.062	4688
741.174	5319
741.287	4099
741.400	5232
741.513	3870
741.626	5109
741.739	4282
741.851	4673
741.964	4545
742.077	4262
742.189	3370
742.302	4597
742.415	4458
742.527	4433
742.640	4079
742.753	4668
742.865	3910
742.978	3296
743.090	3548
743.203	3806
743.316	3486
743.428	3115
743.541	3523
743.653	3765
743.766	2750
743.878	3889
743.990	3334
744.103	3765
744.215	3369
744.327	2982
744.440	4367
744.552	3775
744.664	4056
744.777	3323
744.889	3885
745.001	4228
745.113	2913
745.226	3863
745.338	3740
745.450	3568
745.562	3683
745.674	2605
745.786	3633
745.898	3048
746.010	3518
746.122	3302
746.234	3632
746.347	4271
746.459	3702
746.570	2792
746.682	2743
746.794	4097
746.906	3425
747.018	2949
747.130	3865
747.242	2601
747.354	2215
747.466	3703
747.577	2597
747.689	3317
747.801	3225
747.913	2702
748.024	2413
748.136	2952
748.248	2454
748.359	2196
748.471	3000
748.583	2684
748.694	3023
748.806	2624
748.918	2843
749.029	2433
749.141	3175
749.252	2962
749.364	2394
749.475	2931
749.587	4085
749.698	2299
749.809	3425
749.921	2301
750.032	2385
750.144	2491
750.255	2253
750.366	2392
750.478	1829
750.589	2728
750.700	2835
750.811	2428
750.923	2549
751.034	2793
751.145	4124
751.256	3215
751.367	1704
751.479	2195
751.590	2344
751.701	2838
751.812	2240
751.923	2685
752.034	2724
752.145	2254
752.256	1901
752.367	2741
752.478	1813
752.589	2841
752.700	2355
752.811	2392
752.922	1781
753.032	1714
753.143	3180
753.254	1934
753.365	3124
753.476	3313
753.586	2565
753.697	1995
753.808	2442
753.919	1332
754.029	1300
754.140	2801
754.251	1762
754.361	2066
754.472	2375
754.582	2383
754.693	2169
754.804	1996
754.914	2882
755.025	2245
755.135	1695
755.246	2290
755.356	1559
755.466	1900
755.577	1369
755.687	2276
755.798	2153
755.908	1820
756.018	1294
756.129	2398
756.239	1768
756.349	2144
756.460	2048
756.570	3150
756.680	1909
756.790	1913
756.900	2335
757.011	2034
757.121	1930
757.231	1482
757.341	2000
757.451	1275
757.561	646
757.671	1761
757.781	1569
757.891	1892
758.001	1664
758.111	2038
758.221	2412
758.331	1842
758.441	2677
758.551	1748
758.661	3151
758.771	2561
758.880	1509
758.990	2213
759.100	2060
759.210	2218
759.320	2450
759.429	2336
759.539	2278
759.649	2280
759.758	3551
759.868	3790
759.978	3425
760.087	4158
760.197	4661
760.307	3827
760.416	3758
760.526	3040
760.635	3357
760.745	3235
760.854	3820
760.964	5327
761.073	4832
761.182	5215
761.292	3318
761.401	3469
761.511	2856
761.620	2202
761.729	2514
761.839	1893
761.948	2191
762.057	1871
762.166	1604
762.276	1261
762.385	2410
762.494	1500
762.603	1990
762.712	1947
762.822	1559
762.931	1730
763.040	1749
763.149	710
763.258	2049
763.367	1563
763.476	1720
763.585	1566
763.694	1320
763.803	1544
763.912	1378
764.021	1813
764.130	936
764.238	914
764.347	1558
764.456	1292
764.565	1322
764.674	1895
764.783	1658
764.891	999
765.000	1568
765.109	866
765.217	910
765.326	1681
765.435	1465
765.543	1612
765.652	1206
765.761	1287
765.869	1227
765.978	1474
766.086	2856
766.195	6451
766.303	12637
766.412	47180
766.520	140341
766.629	39929
766.737	4908
766.846	2869
766.954	2335
767.062	2152
767.171	1587
767.279	2256
767.387	862
767.496	1351
767.604	1160
767.712	954
767.820	660
767.928	1229
768.037	1126
768.145	655
768.253	1598
768.361	975
768.469	910
768.577	981
768.685	1538
768.793	1309
768.901	1417
769.009	691
769.117	1205
769.225	1167
769.333	1187
769.441	2185
769.549	3297
769.657	5550
769.765	14367
769.873	60105
769.981	70755
770.088	6635
770.196	2880
770.304	1894
770.412	2695
770.519	2374
770.627	2150
770.735	1944
770.842	1544
770.950	1818
771.058	1282
771.165	2400
771.273	2813
771.380	2528
771.488	2677
771.595	3975
771.703	4081
771.810	3317
771.918	3171
772.025	3740
772.133	4703
772.240	4473
772.348	4366
772.455	5251
772.562	4428
772.670	4650
772.777	4809
772.884	5211
772.991	4425
773.099	4268
773.206	4035
773.313	4711
773.420	4685
773.528	4153
773.635	3756
773.742	4877
773.849	3834
773.956	4095
774.063	4284
774.170	3601
774.277	4103
774.384	4260
774.491	4145
774.598	4065
774.705	4007
774.812	3789
774.919	4316
775.026	3729
775.133	3173
775.239	3588
775.346	3402
775.453	3438
775.560	4075
775.667	3131
775.773	3866
775.880	3765
775.987	3936
776.093	2937
776.200	3988
776.307	3018
776.413	2692
776.520	2668
776.627	3757
776.733	2707
776.840	2775
776.946	4179
777.053	4002
777.159	4205
777.266	3112
777.372	3871
777.478	3555
777.585	4117
777.691	3072
777.798	3380
777.904	3526
778.010	3568
778.117	4051
778.223	2815
778.329	3014
778.435	3224
778.542	3082
778.648	2849
778.754	1694
778.860	2867
778.966	2394
779.072	3318
779.178	2504
779.284	2729
779.391	2574
779.497	3381
779.603	2974
779.708	1830
779.815	2613
779.920	1770
780.026	3108
780.132	2382
780.238	2426
780.344	1445
780.450	3146
780.556	2224
780.661	1721
780.767	2654
780.873	2624
780.979	2042
781.085	2877
781.190	2284
781.296	2696
781.402	1439
781.507	3048
781.613	1632
781.719	1693
781.824	2488
781.930	2404
782.035	1573
782.141	3007
782.246	2371
782.352	1451
782.457	2424
782.563	2491
782.668	2602
782.773	2491
782.879	1883
782.984	2293
783.090	2615
783.195	1831
783.300	3060
783.405	2722
783.511	1717
783.616	1277
783.721	2341
783.826	2891
783.932	2249
784.037	1927
784.142	1757
784.247	1635
784.352	1945
784.457	1980
784.562	1186
784.667	2113
784.772	1732
784.877	1429
784.982	1672
785.087	1544
785.192	1523
785.297	1702
785.402	1369
785.507	1721
785.611	2042
785.716	1296
785.821	1623
785.926	1458
786.031	1732
786.135	2181
786.240	1753
786.345	855
786.450	625
786.554	1041
786.659	745
786.763	1014
786.868	2096
786.973	2061
787.077	1515
787.182	564
787.286	1544
787.391	2265
787.495	1213
787.600	757
787.704	1582
787.809	1399
787.913	1023
788.017	914
788.122	1465
788.226	513
788.330	863
788.435	709
788.539	1946
788.643	2058
788.747	639
788.852	613
788.956	1373
789.060	1502
789.164	1804
789.268	1489
789.372	1030
789.476	909
789.580	1220
789.684	695
789.788	1724
789.892	1254
789.996	962
790.100	557
790.204	945
790.308	755
790.412	913
790.516	353
790.620	848
790.724	1467
790.828	1138
790.931	1204
791.035	593
791.139	1290
791.242	214
791.346	980
791.450	1610
791.554	1159
791.657	217
791.761	980
791.864	2216
791.968	1160
792.072	1454
792.175	667
792.279	486
792.382	838
792.486	1020
792.589	934
792.693	1263
792.796	1399
792.899	608
793.003	1383
793.106	606
793.209	945
793.313	1025
793.416	-205
793.519	41
793.623	1094
793.726	2499
793.829	1328
793.932	272
794.035	439
794.138	1750
794.242	988
794.345	863
794.448	700
794.551	455
794.654	1013
794.757	1426
794.860	637
794.963	576
795.066	334
795.169	695
795.272	889
795.375	500
795.477	458
795.580	531
795.683	82
795.786	673
795.889	818
795.991	1265
796.094	1130
796.197	71
796.300	911
796.402	761
796.505	549
796.608	325
796.710	1107
796.813	630
796.915	871
797.018	647
797.120	89
797.223	1304
797.326	653
797.428	745
797.530	30
797.633	267
797.735	646
797.838	547
797.940	981
798.042	-86
798.145	1170
798.247	430
798.349	-64
798.452	298
798.554	1089
798.656	420
798.758	1729
798.860	1261
798.962	737
799.065	-326
799.167	-599
799.269	311
799.371	1024
799.473	1594
799.575	1357
799.677	739
799.779	1113
799.881	917
799.983	1448
800.085	942
800.187	231
800.289	169
800.390	298
800.492	596
800.594	415
800.696	163
800.798	1160
800.899	681
801.001	-48
801.103	113
801.205	742
801.306	54
801.408	85
801.509	697
801.611	883
801.713	370
801.814	589
801.916	454
802.017	88
802.119	101
802.220	-584
802.322	-594
802.423	949
802.525	262
802.626	-65
802.727	558
802.829	1007
802.930	-172
803.031	711
803.133	647
803.234	-822
803.335	-202
803.436	-76
803.538	215
803.639	-817
803.740	196
803.841	214
803.942	50
804.043	1301
804.144	-22
804.245	347
804.346	-145
804.447	-123
804.548	-209
804.649	971
804.750	697
804.851	-704
804.952	-106
805.053	508
805.154	62
805.255	572
805.355	141
805.456	185
805.557	-130
805.658	-268
805.758	404
805.859	314
805.960	-375
806.061	274
806.161	80
806.262	102
806.362	-655
806.463	344
806.564	-45
806.664	506
806.765	-199
806.865	-205
806.966	-417
807.066	794
807.166	934
807.267	792
807.367	309
807.468	805
807.568	-506
807.668	942
807.769	169
807.869	-80
807.969	-806
808.069	401
808.170	572
808.270	-181
808.370	251
808.470	316
808.570	-354
808.670	571
808.770	-154
808.870	-312
808.970	-520
809.070	-1065
809.170	-676
809.271	-194
809.370	-576
809.470	826
809.570	-192
809.670	-358
809.770	77
809.870	462
809.970	227
810.070	-163
810.169	277
810.269	-1247
810.369	91
810.469	-360
810.568	-303
810.668	173
810.768	-72
810.867	303
810.967	-343
811.066	-329
811.166	-522
811.265	176
811.365	3
811.464	-689
811.564	-320
811.663	-97
811.763	295
811.862	-303
811.962	18
812.061	449
812.160	96
812.260	345
812.359	-366
812.458	-1099
812.557	-55
812.657	-130
812.756	-251
812.855	267
812.954	-161
813.053	-815
813.153	-143
813.252	-760
813.351	-410
813.450	210
813.549	155
813.648	326
813.747	-423
813.846	-25
813.945	-345
814.044	-154
814.143	16
814.242	-47
814.341	14
814.439	-224
814.538	36
814.637	-392
814.736	541
814.835	-135
814.933	997
815.032	853
815.131	146
815.229	629
815.328	3195
815.427	2428
815.525	2478
815.624	1666
815.722	1892
815.821	1835
815.919	2076
816.018	2425
816.116	1928
816.215	2020
816.313	2192
816.412	2163
816.510	2507
816.609	2941
816.707	2736
816.805	3203
816.904	3864
817.002	3640
817.100	2972
817.198	2671
817.296	3478
817.395	2797
817.493	3735
817.591	2915
817.689	2916
817.787	2946
817.885	4147
817.983	3736
818.081	5367
818.179	8534
818.277	17714
818.375	36545
818.473	16616
818.571	5054
818.669	2856
818.767	3530
818.865	3346
818.963	2887
819.061	3050
819.158	5003
819.256	8888
819.354	17066
819.452	37569
819.549	62928
819.647	22199
819.745	6602
819.842	3508
819.940	3214
820.038	3033
820.135	2869
820.233	2556
820.330	2730
820.428	2033
820.525	2769
820.623	2425
820.720	2087
820.818	1802
820.915	2311
821.012	2525
821.110	2188
821.207	1621
821.304	1066
821.402	1700
821.499	2351
821.596	1617
821.693	2147
821.791	2052
821.888	1962
821.985	3195
822.082	2306
822.179	1646
822.276	1078
822.373	1453
822.470	770
822.567	2537
822.664	1594
822.761	1720
822.858	1715
822.955	2166
823.052	877
823.149	803
823.246	2123
823.343	725
823.440	1040
823.536	1167
823.633	2041
823.730	1548
823.827	1440
823.923	1336
824.020	1622
824.117	1517
824.213	1255
824.310	2299
824.407	938
824.503	1328
824.600	1485
824.696	792
824.793	1524
824.889	1215
824.986	1511
825.082	1123
825.179	260
825.275	1411
825.371	1772
825.468	1603
825.564	310
825.660	1017
825.757	2213
825.853	1767
825.949	592
826.045	1434
826.142	1327
826.238	1672
826.334	1882
826.430	824
826.526	1736
826.622	90
826.718	623
826.814	1355
826.910	1309
827.006	1207
827.102	-134
827.198	1128
827.294	1194
827.390	1333
827.486	1134
827.582	368
827.678	66
827.774	1224
827.869	943
827.965	878
828.061	166
828.157	398
828.252	1095
828.348	1213
828.444	561
828.539	444
828.635	7
828.731	1409
828.826	876
828.922	788
829.017	1320
829.113	979
829.208	664
829.304	984
829.399	1762
829.495	924
829.590	1117
829.685	663
829.781	502
829.876	1111
829.971	664
830.066	-57
830.162	-3
830.257	1158
830.352	1484
830.447	380
830.543	712
830.638	220
830.733	2189
830.828	277
830.923	363
831.018	636
831.113	794
831.208	1414
831.303	-423
831.398	317
831.493	354
831.588	1725
831.683	524
831.778	248
831.873	237
831.967	561
832.062	1570
832.157	708
832.252	567
832.346	395
832.441	1262
832.536	1108
832.631	1205
832.725	1727
832.820	660
832.914	434
833.009	70
833.104	314
833.198	918
833.293	276
833.387	582
833.482	860
833.576	-39
833.670	249
833.765	516
833.859	1261
833.954	1771
834.048	1108
834.142	497
834.237	-26
834.331	-299
834.425	132
834.519	657
834.613	720
834.708	-591
834.802	726
834.896	-337
834.990	374
835.084	322
835.178	201
835.272	593
835.366	61
835.460	423
835.554	441
835.648	-422
835.742	446
835.836	833
835.930	-959
836.024	283
836.117	385
836.211	307
836.305	-66
836.399	102
836.493	-418
836.586	500
836.680	416
836.774	-2
836.867	530
836.961	88
837.055	-668
837.148	-439
837.242	285
837.335	410
837.429	-82
837.522	-401
837.616	-469
837.709	-194
837.803	436
837.896	-393
837.989	500
838.083	650
838.176	63
838.269	-331
838.363	202
838.456	220
838.549	360
838.642	-415
838.735	375
838.829	883
838.922	81
839.015	-395
839.108	-97
839.201	462
839.294	50
839.387	-341
839.480	-1228
839.573	-659
839.666	658
839.759	-59
839.852	2
839.945	663
840.038	-121
840.131	-523
840.223	-631
840.316	622
840.409	249
840.502	-526
840.594	504
840.687	-634
840.780	-88
840.873	-656
840.965	-569
841.058	-1071
841.150	771
841.243	40
841.336	-114
841.428	-683
841.521	-47
841.613	-1084
841.706	520
841.798	-280
841.890	0
841.983	-824
842.075	333
842.167	-1008
842.260	-289
842.352	282
842.444	-227
842.537	194
842.629	787
842.721	-28
842.813	-79
842.905	-391
842.997	-26
843.090	-16
843.182	-322
843.274	-822
843.366	686
843.458	1189
843.550	2406
843.642	943
843.734	418
843.826	-416
843.918	-91
844.009	13
844.101	-140
844.193	-151
844.285	-412
844.377	464
844.469	72
844.560	-688
844.652	-412
844.744	466
844.835	-722
844.927	-637
845.019	-67
845.110	-482
845.202	-344
845.293	-421
845.385	-549
845.476	36
845.568	-435
845.659	-556
845.751	-150
845.842	-707
845.934	-1201
846.025	-892
846.116	-723
846.208	-785
846.299	-530
846.390	-635
846.482	-190
846.573	31
846.664	-1
846.755	-561
846.846	643
846.937	-766
847.029	-414
847.120	-523
847.211	-1028
847.302	269
847.393	-720
847.484	-297
847.575	-975
847.666	-412
847.757	-1141
847.847	-1465
847.938	-146
848.029	49
848.120	-807
848.211	-479
848.302	-937
848.392	-633
848.483	-844
848.574	-428
848.664	-1103
848.755	726
848.846	-689
848.936	-850
849.027	-554
849.118	657
849.208	-11
849.299	410
849.389	2348
849.480	4422
849.570	10149
849.661	20161
849.751	42023
849.841	49809
849.932	9979
850.022	1101
850.112	343
850.203	48
850.293	-473
850.383	119
850.474	-582
850.564	-464
850.654	-131
850.744	-871
850.834	390
850.924	-736
851.014	579
851.104	-377
851.194	-390
851.284	-1179
851.374	-94
851.464	-416
851.554	-382
851.644	-820
851.734	30
851.824	-603
851.914	-399
852.004	425
852.094	-153
852.183	-112
852.273	-815
852.363	-515
852.452	-633
852.542	112
852.632	-107
852.721	200
852.811	-855
852.901	-606
852.990	71
853.080	322
853.169	-13
853.259	859
853.348	-194
853.438	755
853.527	1916
853.617	2367
853.706	6373
853.795	11232
853.885	24366
853.974	53004
854.063	88853
854.152	171452
854.242	180269
854.331	47165
854.420	9448
854.509	4188
854.598	3803
854.687	1200
854.777	1102
854.866	956
854.955	1124
855.044	72
855.133	56
855.222	227
855.311	-311
855.400	-217
855.488	-640
855.577	-940
855.666	-151
855.755	253
855.844	-348
855.933	-608
856.021	306
856.110	-761
856.199	-564
856.288	-757
856.376	-571
856.465	92
856.554	-873
856.642	-461
856.731	-25
856.819	292
856.908	-349
856.996	-173
857.085	-817
857.173	-770
857.262	-502
857.350	-902
857.438	-760
857.527	-320
857.615	-405
857.703	-348
857.792	-545
857.880	-1148
857.968	-966
858.056	-622
858.145	-1011
858.233	-764
858.321	-181
858.409	-397
858.497	-833
858.585	-319
858.673	-226
858.761	-822
858.849	-193
858.937	-905
859.025	-150
859.113	-216
859.201	-560
859.289	-472
859.377	-499
859.465	-351
859.552	-444
859.640	-429
859.728	-268
859.816	-1016
859.903	-379
859.991	-1220
860.079	-520
860.166	-875
860.254	-1306
860.342	-503
860.429	-864
860.517	-313
860.604	-218
860.692	-722
860.779	-217
860.867	-592
860.954	-545
861.042	-90
861.129	-204
861.216	-183
861.304	-978
861.391	-592
861.478	-497
861.565	-363
861.653	-274
861.740	-1093
861.827	-851
861.914	-275
862.001	13
862.089	-1149
862.176	39
862.263	-736
862.350	-1642
862.437	-656
862.524	-996
862.611	-1249
862.698	-329
862.785	-159
862.871	378
862.958	102
863.045	329
863.132	-241
863.219	-401
863.306	-1025
863.392	-475
863.479	-382
863.566	-999
863.652	-169
863.739	-461
863.826	-902
863.912	-259
863.999	-995
864.086	-361
864.172	-748
864.259	-588
864.345	-816
864.432	-687
864.518	58
864.604	-526
864.691	-864
864.777	-578
864.863	954
864.950	1437
865.036	1030
865.122	1898
865.209	3603
865.295	4283
865.381	3136
865.467	3753
865.553	4233
865.639	5006
865.726	8242
865.812	14733
865.898	28667
865.984	49814
866.070	70326
866.156	132424
866.242	96970
866.328	21980
866.414	6413
866.499	4269
866.585	4162
866.671	2605
866.757	3143
866.843	2640
866.928	1891
867.014	3083
867.100	3105
867.186	1878
867.271	2123
867.357	2195
867.442	2085
867.528	1713
867.614	1624
867.699	2725
867.785	1868
867.870	1161
867.956	1696
868.041	2244
868.127	1737
868.212	2331
868.297	1658
868.383	1284
868.468	2391
868.553	2353
868.639	2749
868.724	1703
868.809	3679
868.894	2393
868.979	1740
869.065	2038
869.150	1033
869.235	1551
869.320	2216
869.405	1183
869.490	998
869.575	1511
869.660	1378
869.745	928
869.830	1246
869.915	1421
870.000	1127
870.085	1000
870.169	1111
870.254	1966
870.339	1487
870.424	204
870.509	1408
870.593	1641
870.678	2041
870.763	1453
870.847	1192
870.932	622
871.016	1537
871.101	598
871.186	329
871.270	1789
871.355	1992
871.439	720
871.523	1150
871.608	1287
871.692	594
871.777	576
871.861	1272
871.945	967
872.030	759
872.114	804
872.198	848
872.282	574
872.367	1007
872.451	1463
872.535	1090
872.619	930
872.703	1180
872.787	1288
872.871	1057
872.955	945
873.039	94
873.123	341
873.207	1593
873.291	592
873.375	396
873.459	830
873.543	311
873.627	1185
873.711	388
873.794	26
873.878	514
873.962	1131
874.045	508
874.129	526
874.137	479
874.213	13
874.245	1
874.296	-19
874.352	158
874.380	239
874.460	820
874.464	844
874.547	388
874.568	284
874.631	-34
874.676	124
874.714	255
874.784	877
874.798	1000
874.881	1360
874.892	1179
874.965	-82
874.999	-235
875.048	-435
875.107	418
875.131	766
875.215	1439
875.215	1438
875.298	350
875.323	279
875.381	151
875.430	738
875.465	1132
875.538	1008
875.548	988
875.631	640
875.646	574
875.714	249
875.753	253
875.798	329
875.861	1131
875.881	1350
875.964	1310
875.968	1275
876.047	725
876.076	521
876.130	118
876.183	430
876.213	649
876.291	1750
876.296	1815
876.379	1209
876.398	996
876.462	307
876.506	294
876.545	251
876.613	322
876.628	371
876.711	560
876.721	599
876.794	906
876.828	1010
876.877	1035
876.935	829
876.960	779
877.043	983
877.043	981
877.125	778
877.150	949
877.208	1251
877.258	1280
877.291	1262
877.365	1058
877.374	1046
877.456	713
877.472	762
877.539	985
877.579	1104
877.622	1259
877.687	1512
877.704	1547
877.787	1595
877.794	1559
877.869	1354
877.901	1379
877.952	1276
878.008	1277
878.034	1347
878.115	592
878.117	578
878.199	868
878.222	880
878.282	873
878.329	692
878.364	742
878.437	1438
878.447	1475
878.529	1180
878.544	1098
878.611	624
878.651	605
878.694	874
878.758	1097
878.776	1142
878.858	1014
878.865	1110
878.941	2027
878.972	1357
879.023	292
879.078	570
879.105	881
879.185	1490
879.187	1497
879.269	1152
879.292	1103
879.351	957
879.399	1188
879.433	1300
879.506	946
879.516	934
879.598	1042
879.613	1013
879.680	876
879.720	1014
879.762	1151
879.827	1042
879.844	1002
879.926	835
879.933	840
880.007	1072
880.040	1131
880.089	1118
880.147	1275
880.171	1414
880.253	1360
880.254	1356
880.335	1180
880.360	1358
880.417	2005
880.467	2593
880.499	3269
880.574	5779
880.580	5849
880.662	4388
880.680	3947
880.744	2221
880.787	1497
880.825	1094
880.893	868
880.907	983
880.989	1135
881.000	1239
881.070	1432
881.106	1225
881.152	1223
881.213	1466
881.233	1368
881.315	933
881.319	906
881.396	1187
881.426	1277
881.478	1270
881.532	1543
881.559	1813
881.639	1937
881.641	1928
881.722	1290
881.745	1097
881.803	1146
881.852	1548
881.885	1595
881.958	1254
881.966	1274
882.047	1237
882.064	1324
882.129	1498
882.171	1539
882.210	1373
882.277	934
882.291	972
882.372	1383
882.383	1405
882.454	1793
882.489	2003
882.535	1899
882.596	1678
882.616	1674
882.697	1952
882.702	1958
882.778	1985
882.808	1832
882.859	1520
882.914	1335
882.940	1257
883.020	911
883.021	919
883.102	1443
883.127	1610
883.183	2377
883.233	3009
883.264	2735
883.339	1766
883.345	1719
883.426	1083
883.445	972
883.507	1051
883.551	956
883.587	1006
883.657	1464
883.668	1565
883.749	1993
883.763	2091
883.830	2015
883.869	1720
883.910	1307
883.975	1011
883.991	1144
884.072	1418
884.081	1462
884.152	1778
884.187	2051
884.233	2757
884.292	3475
884.314	3285
884.394	2107
884.398	2047
884.475	981
884.504	627
884.555	659
884.610	669
884.636	812
884.716	1246
884.716	1258
884.797	2228
884.821	2437
884.877	2718
884.927	2855
884.958	2622
885.033	1859
885.038	1829
885.118	1401
885.139	1299
885.199	1436
885.244	1410
885.279	1402
885.350	1855
885.359	1958
885.439	2305
885.456	2402
885.520	2770
885.561	2877
885.600	2237
885.667	1133
885.680	1169
885.760	1585
885.773	1605
885.840	1600
885.878	1632
885.920	1362
885.984	984
886.000	1189
886.080	1880
886.089	1971
886.160	2353
886.195	2560
886.240	2403
886.300	2052
886.320	2094
886.400	2240
886.406	2234
886.480	2012
886.511	1985
886.560	2267
886.616	2418
886.640	2361
886.720	2314
886.722	2298
886.800	2375
886.827	2492
886.879	2268
886.932	1781
886.959	1924
887.038	2487
887.039	2503
887.119	2688
887.143	2819
887.198	2735
887.248	2446
887.278	2362
887.354	2093
887.358	2089
887.437	1864
887.459	1805
887.517	2084
887.564	2288
887.596	2186
887.669	1832
887.676	1823
887.755	1606
887.774	1567
887.835	1312
887.880	1146
887.914	1559
887.985	2125
887.994	2098
888.073	2015
888.090	1971
888.153	3195
888.195	3998
888.232	3709
888.300	3064
888.311	2993
888.391	2429
888.405	2327
888.470	2472
888.510	2524
888.549	2493
888.615	2436
888.628	2423
888.708	2217
888.720	2188
888.787	3388
888.825	4021
888.866	3067
888.930	1538
888.945	1573
889.024	1771
889.035	1789
889.103	2346
889.140	2622
889.182	2730
889.245	2881
889.261	2807
889.340	2397
889.349	2339
889.419	2954
889.454	3251
889.498	2496
889.559	1419
889.577	1625
889.656	2510
889.664	2588
889.735	2786
889.768	2867
889.814	2961
889.873	3062
889.978	2948
890.083	1505
890.187	2039
890.292	3931
890.397	2327
890.501	2510
890.606	1359
890.710	3137
890.815	2582
890.919	3245
891.024	2467
891.128	2975
891.233	1531
891.337	3013
891.442	3137
891.546	2056
891.650	1883
891.755	1820
891.859	3432
891.963	3414
892.068	2662
892.172	1827
892.276	2094
892.380	1723
892.484	3233
892.589	3231
892.693	2488
892.797	1791
892.901	1032
893.005	1450
893.109	2624
893.213	3756
893.317	2392
893.421	1989
893.525	1270
893.629	1644
893.733	2028
893.837	2833
893.941	2286
894.045	1713
894.148	1306
894.252	1649
894.356	2436
894.460	3241
894.564	2528
894.667	2889
894.771	1470
894.875	1273
894.978	1993
895.082	2656
895.186	1839
895.289	2604
895.393	2167
895.496	2546
895.600	2378
895.703	1479
895.807	1580
895.910	1808
896.014	2713
896.117	1747
896.221	1654
896.324	3233
896.427	1475
896.531	2011
896.634	1287
896.737	2587
896.840	2137
896.944	3185
897.047	2633
897.150	2977
897.253	1712
897.356	2098
897.460	912
897.563	1507
897.666	2205
897.769	2581
897.872	1444
897.975	1498
898.078	1924
898.181	2376
898.284	978
898.387	2575
898.490	2606
898.593	1256
898.695	1976
898.798	1971
898.901	1630
899.004	1882
899.107	1756
899.209	1762
899.312	3086
899.415	2204
899.518	1903
899.620	2179
899.723	879
899.826	2077
899.928	3133
900.031	2131
900.133	2395
900.236	2379
900.338	1291
900.441	2004
900.543	1868
900.646	1609
900.748	1178
900.851	2234
900.953	1955
901.055	1233
901.158	2112
901.260	2006
901.362	1277
901.465	1580
901.567	1826
901.669	2860
901.771	915
901.873	1767
901.976	1467
902.078	2156
902.180	976
902.282	1272
902.384	1074
902.486	2640
902.588	2148
902.690	1649
902.792	1065
902.894	1778
902.996	1560
903.098	2352
903.200	1280
903.302	1699
903.404	1680
903.505	1381
903.607	1732
903.709	1940
903.811	2544
903.913	2047
904.014	1015
904.116	1751
904.218	1123
904.319	1739
904.421	2031
904.523	2721
904.624	1466
904.726	1284
904.827	1274
904.929	829
905.030	1473
905.132	2722
905.233	1973
905.335	1307
905.436	924
905.537	1427
905.639	1614
905.740	1533
905.841	2459
905.943	2570
906.044	1573
906.145	1583
906.247	401
906.348	1725
906.449	1328
906.550	2564
906.651	1674
906.752	2172
906.854	1873
906.955	1593
907.056	1161
907.157	2719
907.258	3013
907.359	680
907.460	1330
907.561	484
907.662	1816
907.762	1328
907.863	1385
907.964	2771
908.065	1148
908.166	1254
908.267	1030
908.367	1654
908.468	1835
908.569	2016
908.670	1879
908.770	2267
908.871	1821
908.971	2552
909.072	1621
909.173	1715
909.273	997
909.374	2538
909.474	1816
909.575	1223
909.675	2077
909.776	2153
909.876	1892
909.977	2686
910.077	1881
910.177	2069
910.278	2116
910.378	1981
910.478	133
910.579	1876
910.679	2581
910.779	1282
910.879	1459
910.980	2182
911.080	2509
911.180	1941
911.280	1250
911.380	1346
911.480	559
911.580	969
911.680	1983
911.780	1428
911.880	1911
911.980	1801
912.080	1819
912.180	1249
912.280	1310
912.380	1433
912.480	292
912.580	1154
912.679	1018
912.779	2136
912.879	2306
912.979	1951
913.078	545
913.178	851
913.278	1341
913.377	456
913.477	1368
913.577	1027
913.676	1294
913.776	1935
913.875	2069
913.975	2179
914.074	1392
914.174	1370
914.273	959
914.373	1304
914.472	1425
914.572	990
914.671	1619
914.770	1108
914.870	1387
914.969	1748
915.068	1540
915.167	1729
915.267	883
915.366	2317
915.465	1698
915.564	1799
915.663	1153
915.763	2230
915.862	2026
915.961	1941
916.060	1756
916.159	1525
916.258	1037
916.357	2011
916.456	1934
916.555	1932
916.654	1703
916.752	2129
916.851	1989
916.950	1929
917.049	585
917.148	1471
917.247	1084
917.345	1456
917.444	937
917.543	1511
917.642	1481
917.740	1838
917.839	2064
917.937	2954
918.036	1667
918.135	1840
918.233	2030
918.332	1151
918.430	1706
918.529	1513
918.627	1719
918.726	2427
918.824	1898
918.923	1237
919.021	1141
919.119	2208
919.218	546
919.316	808
919.414	1823
919.512	1683
919.611	2380
919.709	1477
919.807	1991
919.905	3455
920.003	2113
920.102	2679
920.200	1533
920.298	3020
920.396	2244
920.494	2862
920.592	1256
920.690	2433
920.788	2570
920.886	2263
920.984	3011
921.082	3572
921.180	3460
921.277	2498
921.375	3387
921.473	4787
921.571	4463
921.669	3811
921.766	4066
921.864	4524
921.962	4336
922.060	3669
922.157	4968
922.255	4448
922.352	4560
922.450	4927
922.548	4459
922.645	4649
922.743	6338
922.840	8863
922.938	11468
923.035	10715
923.133	9782
923.230	10902
923.327	13289
923.425	12857
923.522	12213
923.619	11877
923.717	10471
923.814	10460
923.911	9581
924.008	10767
924.106	9997
924.203	9077
924.300	10344
924.397	10976
924.494	10275
924.591	10431
924.688	10119
924.786	10225
924.883	9991
924.979	9728
925.077	9931
925.173	8993
925.270	9473
925.367	9852
925.464	10264
925.561	10663
925.658	10743
925.755	9838
925.852	9914
925.948	10663
926.045	9832
926.142	9506
926.239	9925
926.335	8286
926.432	9151
926.529	10013
926.625	10702
926.722	9673
926.818	7373
926.915	9788
927.011	9600
927.108	8753
927.204	7958
927.301	8340
927.397	8587
927.494	10757
927.590	8233
927.687	7014
927.783	9595
927.879	9628
927.976	9329
928.072	7754
928.168	8754
928.264	9378
928.361	7110
928.457	10012
928.553	8909
928.649	8136
928.745	8928
928.841	7916
928.937	8258
929.033	8608
929.129	7593
929.225	8870
929.321	8336
929.417	6048
929.513	8678
929.609	7963
929.705	6891
929.801	9105
929.897	8300
929.993	7051
930.089	7157
930.184	7727
930.280	7072
930.376	9309
930.471	8010
930.567	6992
930.663	7233
930.758	7914
930.854	6488
930.950	7165
931.045	6476
931.141	6582
931.236	8351
931.332	8436
931.427	5442
931.523	8323
931.618	8764
931.714	5949
931.809	5625
931.905	8675
932.000	6045
932.095	5426
932.191	6648
932.286	10011
932.381	7631
932.476	5040
932.572	6189
932.667	6020
932.762	6000
932.857	6254
932.952	8014
933.047	7754
933.142	5628
933.237	5756
933.332	7640
933.427	7542
933.522	6676
933.617	6074
933.712	6044
933.807	7063
933.902	8410
933.997	8191
934.092	7020
934.187	5009
934.282	6889
934.376	5628
934.471	6773
934.566	6510
934.661	5206
934.755	6699
934.850	6658
934.945	6571
935.039	5176
935.134	5244
935.228	4636
935.323	8196
935.417	6118
935.512	4126
935.606	3638
935.701	5688
935.795	6562
935.890	6965
935.984	4600
936.079	4783
936.173	4807
936.267	5765
936.362	5416
936.456	4968
936.550	6964
936.644	7307
936.738	4644
936.833	5128
936.927	3956
937.021	4487
937.115	5605
937.209	5986
937.303	5347
937.397	4626
937.491	4188
937.585	5522
937.679	5680
937.773	4028
937.867	3820
937.961	3329
938.055	5166
938.149	6677
938.243	3692
938.337	3835
938.430	3853
938.524	5977
938.618	5443
938.712	3931
938.805	4440
938.899	4842
938.993	6637
939.086	5837
939.180	3089
939.274	3770
939.367	4706
939.461	6145
939.554	4896
939.648	3711
939.741	4040
939.835	4738
939.928	6876
940.022	6757
940.115	5138
940.208	4849
940.302	5313
940.395	7087
940.488	4678
940.582	3907
940.675	3404
940.768	3176
940.861	4697
940.954	6235
941.048	4312
941.141	3853
941.234	3437
941.327	4243
941.420	4959
941.513	4802
941.606	4552
941.699	3641
941.792	4131
941.885	5284
941.978	4967
942.071	4755
942.164	4122
942.257	2439
942.349	2406
942.442	4749
942.535	3307
942.628	2430
942.721	3875
942.813	3936
942.906	4298
942.999	3969
943.091	3340
943.184	3458
943.277	2786
943.369	3443
943.462	1902
943.554	2579
943.647	3227
943.739	4464
943.832	5153
943.924	3718
944.017	2250
944.109	1816
944.201	2768
944.294	3100
944.386	2349
944.478	3619
944.571	3258
944.663	2772
944.755	3434
944.847	3939
944.940	3904
945.032	2608
945.124	2824
945.216	3528
945.308	3673
945.400	3417
945.492	3206
945.584	4195
945.676	4614
945.768	3822
945.860	3610
945.952	4319
946.044	4056
946.136	3103
946.228	3218
946.320	3480
946.412	3387
946.503	4139
946.595	4880
946.687	3141
946.779	1921
946.870	2067
946.962	2904
947.054	2588
947.145	3135
947.237	2638
947.329	2213
947.420	2629
947.512	3050
947.603	2742
947.695	2421
947.786	2400
947.878	2229
947.969	3685
948.061	2236
948.152	3749
948.243	2373
948.335	2076
948.426	1986
948.517	2091
948.609	3314
948.700	3126
948.791	2706
948.882	2415
948.973	1597
949.065	3829
949.156	2678
949.247	2142
949.338	2089
949.429	1664
949.520	1594
949.611	1959
949.702	3416
949.793	3130
949.884	2099
949.975	2580
950.066	1140
950.157	970
950.247	2034
950.338	2314
950.429	1431
950.520	2086
950.611	2306
950.701	2220
950.792	3081
950.883	2821
950.973	2571
951.064	1437
951.155	3027
951.245	2811
951.336	2776
951.427	3350
951.517	3602
951.608	3136
951.698	1948
951.788	1900
951.879	1378
951.969	1966
952.060	2608
952.150	2457
952.240	2612
952.331	3300
952.421	2565
952.511	1828
952.602	1474
952.692	1099
952.782	1169
952.872	1547
952.962	1759
953.052	2772
953.143	1588
953.233	1446
953.323	1609
953.413	1505
953.503	2313
953.593	3056
953.683	2628
953.773	1652
953.863	652
953.953	1762
954.042	1968
954.132	2793
954.222	2886
954.312	2090
954.402	1768
954.492	2588
954.581	1406
954.671	2654
954.761	2177
954.850	2365
954.940	1146
955.030	611
955.119	791
955.209	1245
955.298	1811
955.388	2773
955.477	2297
955.567	1559
955.656	729
955.746	1875
955.835	1174
955.925	462
956.014	1022
956.103	1881
956.193	2780
956.282	3060
956.371	1067
956.461	1898
956.550	1772
956.639	1760
956.728	1143
956.817	1893
956.906	894
956.995	2640
957.085	2356
957.174	1881
957.263	1472
957.352	1422
957.441	1480
957.530	1630
957.619	1988
957.708	1984
957.796	1825
957.885	1849
957.974	1533
958.063	1625
958.152	986
958.241	776
958.329	50
958.418	1650
958.507	1962
958.596	2523
958.684	1147
958.773	1217
958.861	1020
958.950	1217
959.039	563
959.127	1489
959.216	1778
959.304	1442
959.393	1053
959.481	1810
959.570	1642
959.658	1240
959.746	453
959.835	237
959.923	1233
960.011	1142
960.100	579
960.188	1645
960.276	1647
960.365	996
960.453	630
960.541	1221
960.629	999
960.717	639
960.805	1035
960.893	1578
960.981	1040
961.069	2093
961.158	2633
961.245	2497
961.333	1306
961.421	2624
961.509	1304
961.597	1737
961.685	1483
961.773	1825
961.861	1953
961.949	1249
962.036	1172
962.124	1178
962.212	1157
962.299	831
962.387	1823
962.475	1898
962.562	1569
962.650	1737
962.738	1484
962.825	1101
962.913	1193
963.000	1336
963.088	1681
963.175	1461
963.263	677
963.350	723
963.438	1105
963.525	1173
963.612	607
963.700	1439
963.787	2288
963.874	3052
963.962	1779
964.049	1031
964.136	1272
964.223	455
964.310	615
964.398	1347
964.485	840
964.572	1082
964.659	1478
964.746	562
964.833	248
964.920	1420
965.007	26
965.094	1044
965.181	1051
965.268	1474
965.355	376
965.441	1020
965.528	634
965.615	2074
965.702	1125
965.789	1373
965.875	904
965.962	1551
966.049	958
966.136	1868
966.222	2202
966.309	2117
966.395	2285
966.482	2409
966.569	1181
966.655	1584
966.742	1548
966.828	1572
966.915	674
967.001	1918
967.087	1091
967.174	860
967.260	948
967.347	1735
967.433	1162
967.519	2604
967.605	2505
967.692	1891
967.778	974
967.864	1372
967.950	655
968.036	1002
968.123	947
968.209	1811
968.295	921
968.381	1779
968.467	1308
968.553	1275
968.639	1147
968.725	673
968.811	2188
968.897	2578
968.983	2037
969.069	1450
969.154	294
969.240	1132
969.326	1080
969.412	992
969.497	902
969.583	881
969.669	1474
969.755	1915
969.840	1744
969.926	2590
970.012	3595
970.097	4816
970.183	3939
970.268	3308
970.354	1993
970.439	1706
970.525	1602
970.610	2211
970.696	1931
970.781	1257
970.866	1290
970.952	816
971.037	996
971.122	769
971.208	1816
971.293	1048
971.378	1676
971.463	983
971.549	1696
971.634	1579
971.719	1577
971.804	872
971.889	1406
971.974	1160
972.059	927
972.144	1871
972.229	1661
972.314	1263
972.399	1062
972.484	1224
972.569	1329
972.654	937
972.739	2369
972.824	1747
972.908	1451
972.993	1447
973.078	798
973.163	676
973.247	1619
973.332	1519
973.417	2002
973.501	1019
973.586	742
973.671	312
973.755	675
973.840	1731
973.924	1311
974.009	2369
974.093	2577
974.178	1944
974.262	1411
974.346	1687
974.431	1692
974.515	2043
974.600	1101
974.684	1614
974.768	1554
974.852	1526
974.937	989
975.021	1441
975.105	998
975.189	755
975.273	1318
975.358	452
975.442	1729
975.526	1274
975.610	730
975.694	1611
975.778	649
975.862	632
975.946	736
976.030	2105
976.114	1234
976.198	1714
976.281	794
976.365	906
976.449	882
976.533	990
976.617	1623
976.700	1185
976.784	1315
976.868	641
976.951	1446
977.035	974
977.119	1495
977.202	1646
977.286	2056
977.369	2358
977.453	2204
977.536	2948
977.620	2237
977.703	2962
977.787	1277
977.870	1280
977.953	1740
978.037	1292
978.120	1451
978.203	2016
978.287	2034
978.370	2318
978.453	1481
978.536	1229
978.620	317
978.703	1642
978.786	1217
978.869	503
978.952	1086
979.035	1674
979.118	1802
979.201	1251
979.284	1182
979.367	1176
979.450	1413
979.533	1778
979.616	617
979.699	1177
979.782	728
979.865	1215
979.948	2163
980.030	1030
980.113	1100
980.196	853
980.279	1423
980.361	1067
980.444	1141
980.526	1639
980.609	2322
980.692	2852
980.774	2374
980.857	2079
980.939	1615
981.022	1843
981.104	1376
981.187	1950
981.269	1562
981.352	408
981.434	1053
981.516	1462
981.599	2274
981.681	946
981.763	1326
981.846	1416
981.928	1265
982.010	1120
982.092	833
982.174	1835
982.256	1666
982.339	1514
982.421	583
982.503	1705
982.585	1323
982.667	1611
982.749	1067
982.831	1205
982.913	1145
982.995	1869
983.077	903
983.158	1970
983.240	831
983.322	1720
983.404	3056
983.486	3175
983.568	2274
983.649	1786
983.731	2869
983.813	1878
983.894	2109
983.976	1788
984.058	2206
984.139	1873
984.221	1508
984.302	2039
984.384	2033
984.465	1452
984.547	1856
984.628	1518
984.710	1328
984.791	1712
984.872	2058
984.954	1569
985.035	838
985.116	1325
985.198	1550
985.279	1570
985.360	1446
985.441	2344
985.522	2080
985.604	2374
985.685	1353
985.766	2175
985.847	1826
985.928	1412
986.009	1916
986.090	2079
986.171	1912
986.252	1342
986.333	2211
986.414	1513
986.495	2468
986.576	1918
986.656	2020
986.737	2071
986.818	1684
986.899	2841
986.980	2825
987.060	2758
987.141	2025
987.222	2604
987.302	2744
987.383	3004
987.464	3115
987.544	2655
987.625	2790
987.705	2819
987.786	1817
987.866	2795
987.947	3106
988.027	2746
988.108	2528
988.188	2615
988.268	1456
988.349	1641
988.429	2077
988.509	1673
988.589	1696
988.670	1231
988.750	2748
988.830	1630
988.910	2056
988.990	2255
989.070	2426
989.151	2003
989.231	1163
989.311	1993
989.391	1802
989.471	1072
989.551	1984
989.631	961
989.711	1477
989.791	2031
989.870	1697
989.950	2179
990.030	1418
990.110	1671
990.190	2432
990.269	1067
990.349	1667
990.429	1802
990.509	3089
990.588	1258
990.668	1481
990.747	1189
990.827	636
990.907	643
990.986	1992
991.066	2315
991.145	1383
991.225	1957
991.304	1881
991.383	1605
991.463	1073
991.542	1393
991.622	1558
991.701	1210
991.780	2033
991.859	1270
991.939	1095
992.018	1221
992.097	1106
992.176	1570
992.256	516
992.335	1061
992.414	2263
992.493	1674
992.572	-10
992.651	1446
992.730	909
992.809	549
992.888	420
992.967	1505
993.046	858
993.125	-34
993.203	984
993.282	1746
993.361	839
993.440	1687
993.519	726
993.597	1522
993.676	1499
993.755	2196
993.834	950
993.912	-275
993.991	1301
994.069	155
994.148	263
994.226	1362
994.305	179
994.384	533
994.462	1953
994.540	1231
994.619	-726
994.697	534
994.776	289
994.854	2012
994.932	-69
995.011	398
995.089	947
995.167	623
995.245	482
995.324	-69
995.402	818
995.480	1096
995.558	666
995.636	-132
995.714	-11
995.792	437
995.870	178
995.948	361
996.026	366
996.104	144
996.182	381
996.260	908
996.338	697
996.416	5
996.494	328
996.572	614
996.649	399
996.727	333
996.805	107
996.883	1162
996.960	-162
997.038	886
997.116	523
997.193	-298
997.271	661
997.348	-102
997.426	853
997.504	481
997.581	530
997.658	652
997.736	-399
997.813	-40
997.891	258
997.968	358
998.046	323
998.123	160
998.200	384
998.277	37
998.355	1024
998.432	-443
998.509	-179
998.586	-265
998.663	35
998.741	-35
998.818	25
998.895	-112
998.972	1011
999.049	677
999.126	-849
999.203	210
999.280	190
999.357	-715
999.434	-390
999.511	60
999.587	36
999.664	-605
999.741	-327
999.818	748
999.895	-282
999.971	-16
1000.048	-226
1000.125	-151
1000.202	-78
1000.278	53
1000.355	92
1000.431	232
1000.508	-446
1000.584	-365
1000.661	-700
1000.738	-752
1000.814	-289
1000.890	-663
1000.967	-115
1001.043	-444
1001.120	-250
1001.196	-294
1001.272	-1187
1001.349	709
1001.425	-51
1001.501	268
1001.577	111
1001.654	575
1001.730	-172
1001.806	-97
1001.882	-908
1001.958	439
1002.034	65
1002.110	-798
1002.186	-547
1002.262	-475
1002.338	-792
1002.414	314
1002.490	-798
1002.566	-633
1002.642	-909
1002.718	121
1002.794	423
1002.870	-365
1002.945	-159
1003.021	-777
1003.097	-467
1003.173	-225
1003.248	-834
1003.324	434
1003.400	-66
1003.475	-468
1003.551	-229
1003.626	1033
1003.702	-492
1003.777	-242
1003.853	-1182
1003.928	-452
1004.004	-14
1004.079	-495
1004.155	-73
1004.230	-1699
1004.305	257
1004.381	-385
1004.456	-742
1004.531	-934
1004.607	-1036
1004.682	-578
1004.757	-830
1004.832	-170
1004.907	-869
1004.982	-979
1005.057	-273
1005.133	-528
1005.208	-511
1005.283	-485
1005.358	-636
1005.433	-883
1005.508	-363
1005.583	-364
1005.657	-616
1005.732	-109
1005.807	-209
1005.882	-367
1005.957	-1294
1006.032	-1166
1006.106	-1153
1006.181	-283
1006.256	-655
1006.331	-784
1006.405	-1196
1006.480	-424
1006.554	-1099
1006.629	-459
1006.704	-1111
1006.778	-941
1006.853	-1506
1006.927	-802
1007.002	-1302
1007.076	-746
1007.150	-768
1007.225	-1176
1007.299	-519
1007.373	-1448
1007.448	-527
1007.522	-437
1007.596	-873
1007.671	-1211
1007.745	-1614
1007.819	-1559
1007.893	-1619
1007.967	-687
1008.041	-677
1008.115	-309
1008.190	-1189
1008.264	-811
1008.338	-1497
1008.412	-568
1008.486	-1037
1008.560	-531
1008.633	-667
1008.707	-1050
1008.781	-488
1008.855	-210
1008.929	-971
1009.003	-230
1009.076	-1063
1009.150	-1338
1009.224	-965
1009.298	-608
1009.371	-467
1009.445	-796
1009.519	-1166
1009.592	-1503
1009.666	-1196
1009.739	-982
1009.813	-1368
1009.886	-414
1009.960	-1486
1010.033	-233
1010.107	-1174
1010.180	-296
1010.253	-1281
1010.327	-1573
1010.400	-1137
1010.473	-733
1010.547	-439
1010.620	-842
1010.693	-1673
1010.766	-1901
1010.840	-567
1010.913	-1531
1010.986	-737
1011.059	-1507
1011.132	-820
1011.205	-924
1011.278	-1354
1011.351	-1276
1011.424	-919
1011.497	-1414
1011.570	-1416
1011.643	-923
1011.716	-1448
1011.789	-760
1011.862	-1354
1011.934	-1111
1012.007	-1879
1012.080	-630
1012.153	-1158
1012.225	-797
1012.298	-1006
1012.371	-1238
1012.443	-911
1012.516	-1680
1012.588	-1370
1012.661	-1194
1012.733	-1995
1012.806	-255
1012.879	-1763
1012.951	-810
1013.023	-2067
1013.096	-1100
1013.168	-1540
1013.241	-708
1013.313	-1966
1013.385	-1404
1013.458	-1893
1013.530	-1043
1013.602	-2071
1013.674	-1018
1013.746	-1601
1013.819	-1594
1013.891	-1490
1013.963	-1366
1014.035	-744
1014.107	-1344
1014.179	-1370
1014.251	-1329
1014.323	-1341
1014.395	-1647
1014.467	-1467
1014.539	-895
1014.611	-1180
1014.683	-1631
1014.754	-1330
1014.826	-665
1014.898	-1228
1014.970	-1630
1015.042	-767
1015.113	-1537
1015.185	-557
1015.257	-1409
1015.328	-1082
1015.400	-669
1015.471	-1550
1015.543	-1127
1015.615	-1094
1015.686	-1670
1015.757	-1882
1015.829	-1511
1015.901	-2113
1015.972	-1255
1016.043	-1924
1016.115	-1014
1016.186	-751
1016.257	-1518
1016.328	-1525
1016.400	-1107
1016.471	-1773
1016.542	-1900
1016.613	-1488
1016.685	-1079
1016.756	-145
1016.827	-1576
1016.898	-1427
1016.969	-872
1017.040	-1625
1017.111	-765
1017.182	-1037
1017.253	-1998
1017.324	-1225
1017.395	-933
1017.466	-1401
1017.537	-1311
1017.608	-1147
1017.678	-1367
1017.749	-766
1017.820	-1128
1017.891	-1495
1017.961	-1518
1018.032	-1493
1018.103	-1013
1018.173	-1333
1018.244	-1904
1018.315	-1083
1018.385	-1212
1018.456	-1138
1018.526	-2175
1018.597	-2067
1018.667	-1978
1018.738	-1421
1018.808	-1707
1018.878	-1970
1018.949	-1466
1019.019	-1051
1019.089	-1170
1019.160	-984
1019.230	-1332
1019.300	-1167
1019.371	-2389
1019.441	-1212
1019.511	-1604
1019.581	-1775
1019.651	-734
1019.721	-1935
1019.791	-1213
1019.861	-1900
1019.931	-1301
1020.001	-1912
1020.071	-1384
1020.141	-1979
1020.211	-1002
1020.281	-1412
1020.351	-1790
1020.421	-1748
1020.491	-1693
1020.560	-2634
1020.630	-1608
1020.700	-1046
1020.770	-2117
1020.839	-1227
1020.909	-1969
1020.979	-1358
1021.048	-1103
1021.118	-2028
1021.187	-1810
1021.257	-1207
1021.326	-1530
1021.396	-1512
1021.465	-940
1021.535	-2087
1021.604	-1898
1021.674	-1886
1021.743	-912
1021.812	-2250
1021.882	-1683
1021.951	-1112
1022.020	-843
1022.089	-1814
1022.159	-1894
1022.228	-1507
1022.297	-1465
1022.366	-1181
1022.435	-1491
1022.504	-1839
1022.573	-1604
1022.642	-1887
1022.711	-1742
1022.781	-1616
1022.849	-1160
1022.918	-1714
1022.987	-1291
1023.056	-1329
1023.125	-982
1023.194	-2708
1023.263	-1515
1023.331	-1272
1023.400	-1805
1023.469	-1594
1023.538	-953
1023.606	-2617
1023.675	-1334
1023.744	-1820
1023.812	-1755
1023.881	-2407
1023.949	-1380
1024.018	-1668
1024.086	-563
1024.155	-1900
1024.223	-1433
1024.292	-2030
1024.360	-1719
1024.429	-1354
1024.497	-1607
1024.565	-1199
1024.634	-1546
1024.702	-1531
1024.770	-1910
1024.838	-2278
1024.907	-1077
1024.975	-2817
1025.043	-1211
1025.111	-2128
1025.179	-840
1025.247	-921
1025.315	-1056
1025.383	-1497
1025.451	-1704
1025.519	-917
1025.587	-2036
1025.655	-2078
1025.723	-1269
1025.791	-1723
1025.859	-1709
1025.927	-1373
1025.995	-1323
1026.062	-778
1026.130	-1454
1026.198	-1830
1026.266	-1491
1026.333	-1830
1026.401	-1254
1026.469	-1777
1026.536	-1347
1026.604	-1255
1026.671	-1725
1026.739	-2364
1026.806	-2202
1026.874	-1901
1026.941	-1345
1027.009	-1827
1027.076	-1419
1027.144	-1414
1027.211	-2000
1027.278	-1943
1027.345	-1595
1027.413	-1098
1027.480	-1338
1027.547	-2179
1027.614	-1145
1027.682	-1573
1027.749	-975
1027.816	-570
1027.883	-1390
1027.950	-1222
1028.017	-1469
1028.084	-1897
1028.151	-1772
1028.218	-1347
1028.285	-1421
1028.352	-1746
1028.419	-1217
1028.486	-1265
1028.553	-980
1028.619	-1187
1028.686	-1149
1028.753	-1674
1028.820	-1837
1028.886	-1406
1028.953	-1567
1029.020	-1638
1029.086	-1911
1029.153	-2315
1029.220	-1370
1029.286	-1821
1029.353	-1767
1029.419	-2351
1029.486	-1411
1029.552	-1523
1029.619	-2028
1029.685	-2062
1029.751	-1886
1029.818	-1422
1029.884	-1476
1029.951	-1092
1030.017	-1292
1030.083	-1896
1030.149	-1222
1030.216	-1702
1030.282	-930
1030.348	-1173
1030.414	-2385
1030.480	-1909
1030.546	-1709
1030.612	-2384
1030.678	-1272
1030.744	-1608
1030.810	-1876
1030.876	-1343
1030.942	-1498
1031.008	-1032
1031.074	-1033
1031.140	-913
1031.206	-311
1031.272	-2114
1031.337	-1404
1031.403	-1294
1031.469	-1368
1031.534	-938
1031.600	-1134
1031.666	-1698
1031.731	-1034
1031.797	-1441
1031.863	-1833
1031.928	-1179
1031.994	-982
1032.059	-1729
1032.125	-1221
1032.190	-2211
1032.256	-1436
1032.321	-1071
1032.386	-1650
1032.452	-1102
1032.517	-1854
1032.582	-1943
1032.647	-1171
1032.713	-1783
1032.778	-675
1032.843	-1657
1032.908	-1534
1032.974	-1444
1033.039	-1928
1033.104	-1920
1033.169	-738
1033.234	-1993
1033.299	-1531
1033.364	-1815
1033.429	-991
1033.494	-926
1033.559	-1232
1033.624	-1491
1033.688	-789
1033.753	-1646
1033.818	-1103
1033.883	-1372
1033.948	-629
1034.013	-1315
1034.077	-1179
1034.142	225
1034.207	216
1034.271	776
1034.336	2705
1034.400	3037
1034.465	85
1034.530	-298
1034.594	-876
1034.658	-1235
1034.723	-1225
1034.787	-2021
1034.852	-2086
1034.916	-2815
1034.981	-1553
1035.045	-1126
1035.109	-1773
1035.173	-1954
1035.238	-2040
1035.302	-949
1035.366	-967
1035.430	-2092
1035.495	-1955
1035.559	-2018
1035.623	-1893
1035.687	-1677
1035.751	-1184
1035.815	-1349
1035.879	-1441
1035.943	-1361
1036.007	-745
1036.071	-1720
1036.135	-1109
1036.198	-1329
1036.262	-799
1036.326	-870
1036.390	-1778
1036.454	-1814
1036.517	-1434
1036.581	-1113
1036.645	-1372
1036.709	-522
1036.772	-149
1036.836	-1234
1036.900	-1562
1036.963	-1781
1037.026	-1439
1037.090	-2158
1037.154	-1392
1037.217	-1250
1037.280	-1432
1037.344	-1087
1037.407	-1728
1037.471	-1115
1037.534	-1188
1037.597	-1882
1037.661	-1519
1037.724	-661
1037.787	-1175
1037.850	-1265
1037.913	-2032
1037.977	-1547
1038.040	-1416
1038.103	-1490
1038.166	-1714
1038.229	-972
1038.292	-1492
1038.355	-1502
1038.418	-1423
1038.481	-1640
1038.544	-2003
1038.607	-1335
1038.670	-1122
1038.732	-1737
1038.795	-1330
1038.858	-1117
1038.921	-1565
1038.984	-1910
1039.046	-1340
1039.109	-1831
1039.172	-1307
1039.234	-1546
1039.297	-1267
1039.360	-1542
1039.422	-1879
1039.485	-1438
1039.547	-881
1039.610	-1142
1039.672	-1204
1039.734	-1032
1039.797	-1673
1039.859	-1576
1039.922	-2037
1039.984	-1330
1040.046	-1324
1040.109	-2342
1040.171	-1447
1040.233	-1847
1040.295	-2000
1040.358	-1514
1040.420	-1339
1040.482	-1932
1040.544	-1611
1040.606	-1894
1040.668	-1450
1040.730	-1559
1040.792	-1569
1040.854	-2247
1040.916	-1509
1040.978	-1327
1041.040	-1754
1041.102	-1817
1041.164	-1077
1041.225	-2356
1041.287	-1595
1041.349	-2111
1041.411	-1032
1041.472	-1741
1041.534	-1823
1041.596	-1721
1041.657	-1164
1041.719	-1151
1041.781	-2068
1041.842	-1548
1041.904	-1639
1041.965	-2313
1042.027	-1862
1042.088	-1628
1042.150	-1959
1042.211	-1867
1042.272	-1980
1042.334	-1774
1042.395	-1675
1042.456	-1506
1042.518	-1156
1042.579	-1822
1042.640	-1714
1042.701	-1866
1042.763	-1034
1042.824	-1680
1042.885	-1884
1042.946	-1435
1043.007	-2063
1043.068	-1478
1043.129	-1769
1043.190	-2250
1043.251	-1722
1043.312	-2023
1043.373	-1714
1043.434	-1659
1043.495	-766
1043.556	-1903
1043.616	-1330
1043.677	-2047
1043.738	-1912
1043.799	-1624
1043.859	-1326
1043.920	-1681
1043.981	-1218
1044.041	-1644
1044.102	-1890
1044.162	-1664
1044.223	-1434
1044.284	-1997
1044.344	-1505
1044.405	-2342
1044.465	-1798
1044.525	-1805
1044.586	-1370
1044.646	-2148
1044.707	-1616
1044.767	-711
1044.827	-1455
1044.887	-927
1044.948	-823
1045.008	-1693
1045.068	-883
1045.128	-2324
1045.188	-1679
1045.249	-13
1045.309	-1896
1045.369	-1946
1045.429	-1121
1045.489	-1412
1045.549	-1454
1045.609	-1873
1045.669	-1277
1045.729	-2182
1045.789	-1259
1045.848	-1686
1045.908	-2340
1045.968	-1686
1046.028	-1763
1046.088	-1431
1046.147	-65
1046.207	-1533
1046.267	-1130
1046.326	-1412
1046.386	-2018
1046.446	-629
1046.505	-528
1046.565	-1292
1046.624	-370
1046.684	-1187
1046.743	-660
1046.803	-1696
1046.862	-268
1046.922	0
