'Start Wavelength	183.907
'End Wavelength	1046.922
'Gate Delay	5.000
'Gate Width (ms)	1.050
'Laser Output Level	0.000
'X Position	0.000
'Y Position	0.000
'Z Position	0.000
'Grid Point Number	1.000
'Shot Number	100.000
183.907	420.000
183.977	-85.000
184.047	739
184.116	287
184.186	857
184.256	1043
184.325	284
184.395	566
184.465	811
184.534	273
184.604	-337
184.674	689
184.743	-258
184.813	433
184.883	501
184.952	374
185.022	360
185.092	437
185.161	-175
185.231	88
185.301	444
185.370	700
185.440	445
185.509	-167
185.579	110
185.649	300
185.718	279
185.788	359
185.857	30
185.927	-374
185.996	739
186.066	128
186.136	614
186.205	11
186.275	86
186.344	641
186.414	683
186.483	209
186.553	688
186.622	255
186.692	-200
186.761	-369
186.831	60
186.900	128
186.970	-200
187.039	888
187.109	639
187.178	622
187.248	1103
187.317	146
187.387	727
187.456	1036
187.526	-309
187.595	561
187.664	-143
187.734	697
187.803	349
187.873	404
187.942	749
188.012	298
188.081	408
188.150	467
188.220	962
188.289	580
188.358	150
188.428	617
188.497	272
188.567	147
188.636	252
188.705	487
188.775	-222
188.844	1492
188.913	914
188.983	32
189.052	520
189.121	625
189.191	436
189.260	953
189.329	959
189.399	204
189.468	695
189.537	284
189.606	137
189.676	469
189.745	679
189.814	1419
189.883	-154
189.953	388
190.022	679
190.091	1570
190.161	1818
190.230	832
190.299	-22
190.368	-129
190.437	776
190.507	-21
190.576	297
190.645	590
190.714	609
190.783	72
190.853	377
190.922	481
190.991	621
191.060	888
191.129	186
191.198	495
191.268	594
191.337	651
191.406	300
191.475	838
191.544	903
191.613	991
191.682	549
191.752	786
191.821	495
191.890	534
191.959	309
192.028	524
192.097	277
192.166	99
192.235	-161
192.304	178
192.373	-540
192.442	357
192.511	500
192.580	-78
192.650	44
192.719	819
192.788	823
192.857	452
192.926	200
192.995	709
193.064	857
193.133	1008
193.202	1190
193.271	706
193.340	595
193.409	1270
193.478	814
193.547	1562
193.615	1822
193.684	1477
193.753	1256
193.822	982
193.891	638
193.960	783
194.029	1049
194.098	1309
194.167	364
194.236	106
194.305	708
194.374	225
194.443	494
194.512	-17
194.580	902
194.649	1385
194.718	708
194.787	192
194.856	530
194.925	1001
194.994	1405
195.062	176
195.131	521
195.200	792
195.269	1803
195.338	363
195.407	1148
195.475	32
195.544	1280
195.613	1002
195.682	420
195.751	892
195.819	570
195.888	716
195.957	1083
196.026	646
196.094	1070
196.163	876
196.232	640
196.301	901
196.369	908
196.438	910
196.507	694
196.576	485
196.644	343
196.713	350
196.782	514
196.850	-119
196.919	477
196.988	78
197.056	988
197.125	331
197.194	983
197.262	675
197.331	351
197.400	77
197.468	78
197.537	-557
197.606	911
197.674	1882
197.743	2295
197.812	364
197.880	1641
197.949	701
198.017	1318
198.086	570
198.155	1142
198.223	957
198.292	1898
198.360	825
198.429	614
198.497	575
198.566	1682
198.635	2003
198.703	1120
198.772	1466
198.840	2599
198.909	1763
198.977	494
199.046	967
199.114	507
199.183	1317
199.251	357
199.320	710
199.388	150
199.457	-347
199.525	553
199.594	626
199.662	1088
199.731	318
199.799	471
199.867	968
199.936	192
200.004	802
200.073	536
200.141	548
200.210	652
200.278	485
200.346	889
200.415	948
200.483	533
200.552	671
200.620	669
200.688	924
200.757	1301
200.825	662
200.893	36
200.962	891
201.030	1000
201.098	535
201.167	600
201.235	694
201.303	960
201.372	1041
201.440	1571
201.508	1326
201.577	1181
201.645	1285
201.713	377
201.781	864
201.850	1094
201.918	1063
201.986	1273
202.055	1105
202.123	894
202.191	254
202.259	1003
202.327	424
202.396	1009
202.464	571
202.532	977
202.600	3424
202.669	1476
202.737	693
202.805	540
202.873	740
202.941	1014
203.009	827
203.078	1243
203.146	1409
203.214	590
203.282	1054
203.350	868
203.418	877
203.487	1026
203.555	822
203.623	956
203.691	320
203.759	-39
203.827	807
203.895	1172
203.963	947
204.031	1192
204.099	592
204.168	1056
204.236	881
204.304	1739
204.372	693
204.440	766
204.508	874
204.576	606
204.644	450
204.712	-12
204.780	1346
204.848	800
204.916	474
204.984	889
205.052	1633
205.120	894
205.188	951
205.256	752
205.324	1828
205.392	873
205.460	665
205.528	892
205.596	659
205.664	1020
205.732	904
205.799	3174
205.867	2520
205.935	782
206.003	1136
206.071	1494
206.139	551
206.207	87
206.275	1043
206.343	991
206.411	1433
206.478	952
206.546	1102
206.614	1365
206.682	795
206.750	1492
206.818	1405
206.885	1893
206.953	880
207.021	833
207.089	999
207.157	1228
207.225	809
207.292	472
207.360	1205
207.428	1545
207.496	1197
207.563	807
207.631	868
207.699	458
207.767	844
207.834	1297
207.902	1437
207.970	1244
208.038	696
208.105	1037
208.173	548
208.241	1337
208.309	1615
208.376	1749
208.444	2481
208.512	1165
208.579	739
208.647	1273
208.715	915
208.782	1522
208.850	938
208.918	1941
208.985	1386
209.053	1323
209.120	1376
209.188	1152
209.256	948
209.323	1226
209.391	1090
209.459	2099
209.526	1140
209.594	503
209.661	1485
209.729	1222
209.796	1777
209.864	1796
209.932	467
209.999	2143
210.067	1921
210.134	1445
210.202	1507
210.269	1656
210.337	2350
210.404	2003
210.472	775
210.539	1386
210.607	848
210.674	2089
210.742	1770
210.809	1417
210.877	1641
210.944	2210
211.012	1441
211.079	2090
211.146	1299
211.214	1513
211.281	2191
211.349	1930
211.416	1708
211.484	2511
211.551	1490
211.618	1453
211.686	895
211.753	1778
211.821	1740
211.888	2153
211.955	1236
212.023	1557
212.090	1246
212.157	2047
212.225	1649
212.292	2546
212.359	5005
212.427	8349
212.494	2967
212.561	2340
212.629	1412
212.696	1639
212.763	1892
212.831	1450
212.898	1298
212.965	2401
213.032	1535
213.100	1642
213.167	1653
213.234	2225
213.301	2110
213.369	1461
213.436	1521
213.503	1490
213.570	2402
213.638	1824
213.705	1309
213.772	951
213.839	2199
213.906	1803
213.973	2292
214.041	1534
214.108	2362
214.175	2103
214.242	1521
214.309	1481
214.376	1538
214.444	1854
214.511	2126
214.578	1553
214.645	2411
214.712	2565
214.779	2355
214.846	2179
214.913	2069
214.980	2407
215.048	2492
215.115	3110
215.182	1662
215.249	2382
215.316	2008
215.383	1885
215.450	2170
215.517	1860
215.584	1276
215.651	1144
215.718	1370
215.785	2064
215.852	1922
215.919	1692
215.986	1868
216.053	1758
216.120	1918
216.187	2288
216.254	1767
216.321	1647
216.388	1483
216.455	2107
216.522	2838
216.589	2606
216.656	3440
216.722	3299
216.789	3139
216.856	2810
216.923	2953
216.990	2477
217.057	2532
217.124	2497
217.191	2855
217.258	3457
217.324	4503
217.391	4235
217.458	3059
217.525	2711
217.592	1841
217.659	2319
217.725	2302
217.792	3034
217.859	2552
217.926	1863
217.993	1846
218.059	2162
218.126	1674
218.193	1360
218.260	1206
218.327	1011
218.393	1793
218.460	1373
218.527	1429
218.594	1383
218.660	2679
218.727	3392
218.794	1135
218.860	1727
218.927	945
218.994	1663
219.061	1807
219.127	1955
219.194	2276
219.261	1264
219.327	742
219.394	1654
219.461	1149
219.527	659
219.594	1970
219.661	945
219.727	261
219.794	1750
219.860	860
219.927	1526
219.994	2419
220.060	5229
220.127	2587
220.193	2508
220.260	2381
220.326	3621
220.393	5230
220.460	6753
220.526	4167
220.593	2763
220.659	3666
220.726	2374
220.792	6322
220.859	5357
220.925	8340
220.992	10710
221.058	9087
221.125	7823
221.191	5475
221.258	2207
221.324	1840
221.391	1960
221.457	1568
221.524	1726
221.590	2204
221.657	7492
221.723	4331
221.789	4535
221.856	4617
221.922	2033
221.989	2053
222.055	2220
222.121	1906
222.188	3202
222.254	2190
222.321	1550
222.387	711
222.453	1765
222.520	1785
222.586	1042
222.652	1458
222.719	1771
222.785	1296
222.851	766
222.918	1022
222.984	2205
223.050	1579
223.116	1171
223.183	1504
223.249	936
223.315	684
223.382	1511
223.448	1213
223.514	1002
223.580	1370
223.647	1016
223.713	995
223.779	1205
223.845	1516
223.911	1606
223.978	1292
224.044	2030
224.110	936
224.176	1271
224.242	1149
224.309	299
224.375	1266
224.441	1248
224.507	644
224.573	1888
224.639	778
224.705	1100
224.772	1060
224.838	1530
224.904	802
224.970	891
225.036	646
225.102	886
225.168	1458
225.234	1334
225.300	1155
225.366	1588
225.432	1078
225.499	807
225.565	1481
225.631	1470
225.697	1982
225.763	2184
225.829	1406
225.895	2078
225.961	3432
226.027	2969
226.093	3437
226.159	3657
226.225	4999
226.291	11489
226.357	14489
226.423	7306
226.489	4039
226.554	3337
226.620	2812
226.686	4889
226.752	6228
226.818	9349
226.884	19979
226.950	14951
227.016	6798
227.082	4101
227.148	3702
227.214	3098
227.279	3169
227.345	2233
227.411	3053
227.477	2994
227.543	6626
227.609	5834
227.674	3241
227.740	1663
227.806	2379
227.872	1472
227.938	2099
228.003	3243
228.069	1801
228.135	1577
228.201	924
228.267	1328
228.332	1973
228.398	2574
228.464	1096
228.530	1281
228.595	1232
228.661	1473
228.727	3343
228.792	2688
228.858	1010
228.924	1422
228.990	2642
229.055	1354
229.121	2636
229.187	2002
229.252	1616
229.318	1244
229.384	1741
229.449	2237
229.515	1042
229.581	-27
229.646	1670
229.712	1632
229.777	4107
229.843	3529
229.909	3495
229.974	2899
230.040	2955
230.105	2666
230.171	2681
230.236	3577
230.302	4212
230.368	3284
230.433	2337
230.499	2289
230.564	3397
230.630	2597
230.695	1809
230.761	3087
230.826	1414
230.892	3036
230.957	1277
231.023	1545
231.088	2218
231.154	1551
231.219	2209
231.284	2600
231.350	3004
231.415	1815
231.481	879
231.546	1274
231.612	1049
231.677	1203
231.742	1347
231.808	2002
231.873	1227
231.939	626
232.004	3940
232.069	2503
232.135	1779
232.200	753
232.265	1686
232.331	1752
232.396	1023
232.461	1586
232.527	1257
232.592	1255
232.657	2227
232.723	2745
232.788	1306
232.853	1635
232.918	1994
232.984	1701
233.049	1309
233.114	2549
233.179	2450
233.245	3244
233.310	3175
233.375	1220
233.440	1951
233.506	1371
233.571	1556
233.636	2034
233.701	738
233.766	3516
233.832	3085
233.897	1933
233.962	1720
234.027	2293
234.092	1818
234.157	1307
234.222	1848
234.288	2575
234.353	6586
234.418	5702
234.483	3425
234.548	3300
234.613	2372
234.678	2010
234.743	3129
234.808	6801
234.873	3810
234.938	2655
235.004	2999
235.069	1544
235.134	2126
235.199	2357
235.264	2048
235.329	1322
235.394	1817
235.459	3043
235.524	2352
235.589	1900
235.654	1896
235.719	1418
235.784	1946
235.849	2433
235.913	3573
235.978	4115
236.043	3995
236.108	2448
236.173	2352
236.238	2456
236.303	2025
236.368	1461
236.433	2965
236.498	4635
236.563	3664
236.627	8099
236.692	25617
236.757	16327
236.822	8105
236.887	5828
236.952	4507
237.017	3580
237.081	4644
237.146	5983
237.211	11225
237.276	26066
237.341	33126
237.405	14822
237.470	7219
237.535	4660
237.600	3464
237.664	3452
237.729	2284
237.794	5040
237.859	7338
237.923	4613
237.988	3286
238.053	4031
238.118	4089
238.182	10288
238.247	6661
238.312	4378
238.376	4015
238.441	2768
238.506	3005
238.570	1507
238.635	2472
238.700	1179
238.764	2458
238.829	4544
238.893	3956
238.958	3365
239.023	3403
239.087	2240
239.152	1811
239.216	1599
239.281	2839
239.346	1342
239.410	2157
239.475	2684
239.539	10845
239.604	5291
239.668	2673
239.733	1350
239.797	4610
239.862	9342
239.926	8352
239.991	3275
240.055	1831
240.120	2207
240.184	1900
240.249	2063
240.313	1798
240.378	2092
240.442	6180
240.507	7467
240.571	3147
240.635	4597
240.700	4554
240.764	1800
240.829	1721
240.893	1770
240.957	1526
241.022	5883
241.086	7982
241.151	3504
241.215	1670
241.279	3286
241.344	4395
241.408	2184
241.472	2578
241.537	2854
241.601	2756
241.665	2365
241.730	1486
241.794	2319
241.858	1812
241.922	2126
241.987	2612
242.051	2008
242.115	2608
242.179	2082
242.244	1201
242.308	1855
242.372	2005
242.436	2215
242.501	2659
242.565	1819
242.629	2034
242.693	2565
242.757	1516
242.822	2249
242.886	2793
242.950	2488
243.014	1497
243.078	3098
243.142	2825
243.206	2530
243.271	2508
243.335	2305
243.399	3804
243.463	16747
243.527	27619
243.591	7823
243.655	4356
243.719	2570
243.783	3718
243.847	5339
243.911	5441
243.975	8017
244.040	3838
244.104	3687
244.168	2046
244.232	4812
244.296	4909
244.360	5893
244.424	2637
244.488	2794
244.552	1942
244.615	1322
244.679	2167
244.743	4389
244.807	2415
244.871	1470
244.935	1841
244.999	1526
245.063	1962
245.127	3296
245.191	4754
245.255	3930
245.319	4176
245.383	2320
245.446	3142
245.510	1651
245.574	2268
245.638	2819
245.702	2445
245.766	6548
245.829	3636
245.893	2886
245.957	1620
246.021	3792
246.085	3050
246.149	4024
246.212	9654
246.276	10990
246.340	5517
246.404	3802
246.467	4783
246.531	5204
246.595	4757
246.659	3559
246.722	3111
246.786	4833
246.850	5379
246.913	5286
246.977	2245
247.041	2656
247.104	3261
247.168	3879
247.232	9862
247.295	15578
247.359	7069
247.423	4373
247.486	7699
247.550	3895
247.614	3537
247.677	4651
247.741	2706
247.804	2671
247.868	3596
247.932	8936
247.995	13288
248.059	5039
248.122	2516
248.186	4371
248.249	8175
248.313	27800
248.376	22329
248.440	15146
248.503	5580
248.567	6015
248.630	9033
248.694	11152
248.757	15239
248.821	26616
248.884	14612
248.948	15753
249.011	20547
249.075	31773
249.138	22732
249.202	9451
249.265	7148
249.328	7141
249.392	5594
249.455	5298
249.519	4363
249.582	5366
249.645	9173
249.709	6153
249.772	5033
249.835	4708
249.899	4137
249.962	4077
250.025	3962
250.089	12553
250.152	13201
250.215	6328
250.279	4711
250.342	6379
250.405	4754
250.468	4100
250.532	6296
250.595	9719
250.658	37374
250.721	40668
250.785	15956
250.848	9157
250.911	5659
250.974	5715
251.038	9716
251.101	14863
251.164	7434
251.227	9258
251.290	7391
251.354	12775
251.417	47349
251.480	33043
251.543	31513
251.606	77807
251.669	43727
251.732	20159
251.795	21313
251.859	23992
251.922	48202
251.985	21648
252.048	10761
252.111	7735
252.174	7830
252.237	17744
252.300	30074
252.363	37466
252.426	56872
252.489	22935
252.552	12576
252.615	9213
252.678	11065
252.741	24272
252.804	35262
252.867	60403
252.930	33867
252.993	18747
253.056	12259
253.119	7281
253.182	7119
253.245	11916
253.308	7180
253.371	8358
253.434	7452
253.497	8782
253.559	15155
253.622	9320
253.685	13978
253.748	12433
253.811	6241
253.874	8494
253.937	6483
254.000	5896
254.062	12615
254.125	14671
254.188	16836
254.251	10797
254.314	5330
254.376	12706
254.439	13151
254.502	9789
254.565	12607
254.628	17604
254.690	10270
254.753	6440
254.816	5039
254.878	4337
254.941	12902
255.004	9441
255.067	5981
255.129	5449
255.192	3768
255.255	3117
255.317	3815
255.380	2432
255.443	2044
255.505	2567
255.568	2201
255.631	2605
255.693	3012
255.756	2005
255.819	3409
255.881	2452
255.944	2790
256.006	2356
256.069	2182
256.132	2636
256.194	3862
256.257	7208
256.319	5095
256.382	4587
256.444	3507
256.507	3164
256.569	2468
256.632	2107
256.694	3955
256.757	18045
256.819	34914
256.882	11153
256.944	6198
257.007	5168
257.069	4620
257.132	3765
257.194	3671
257.257	3579
257.319	3096
257.381	3186
257.444	11669
257.506	49061
257.569	39603
257.631	20509
257.693	11248
257.756	5234
257.818	4884
257.880	2812
257.943	3434
258.005	3079
258.067	2652
258.130	3300
258.192	3812
258.254	6933
258.317	3274
258.379	3733
258.441	10964
258.503	7384
258.566	11208
258.628	10952
258.690	3666
258.753	4368
258.815	7643
258.877	3292
258.939	3086
259.001	2859
259.064	2134
259.126	3786
259.188	4014
259.250	2879
259.312	5093
259.375	11948
259.437	5425
259.499	3257
259.561	3702
259.623	3326
259.685	3027
259.747	3558
259.809	11020
259.872	14035
259.934	29700
259.996	20119
260.058	7151
260.120	2811
260.182	2222
260.244	2369
260.306	2447
260.368	2391
260.430	2289
260.492	7855
260.554	10942
260.616	5796
260.678	18156
260.740	15427
260.802	4943
260.864	4353
260.926	2217
260.988	3726
261.050	2773
261.112	9927
261.174	22045
261.236	10991
261.298	5375
261.359	9950
261.421	9069
261.483	2654
261.545	2890
261.607	1461
261.669	2259
261.731	6710
261.793	11821
261.854	5323
261.916	4146
261.978	3214
262.040	3794
262.102	3014
262.164	4390
262.225	3510
262.287	2797
262.349	9574
262.411	5365
262.472	3075
262.534	6026
262.596	8425
262.658	3439
262.719	1152
262.781	5003
262.843	9234
262.904	3945
262.966	3659
263.028	3946
263.090	27841
263.151	43857
263.213	15641
263.275	8915
263.336	4612
263.398	2864
263.459	2487
263.521	2263
263.583	7971
263.644	4966
263.706	1439
263.767	1542
263.829	2221
263.891	1553
263.952	727
264.014	1981
264.075	5011
264.137	9461
264.198	4636
264.260	1780
264.321	1749
264.383	8635
264.444	15425
264.506	4111
264.567	2832
264.629	8443
264.690	11866
264.752	4974
264.813	2893
264.875	1708
264.936	3300
264.998	1418
265.059	1743
265.120	2052
265.182	4294
265.243	24145
265.305	14154
265.366	4091
265.427	2209
265.489	2283
265.550	784
265.611	2960
265.673	2079
265.734	1854
265.795	1586
265.857	1437
265.918	1604
265.979	6307
266.040	37308
266.102	19431
266.163	7491
266.224	5983
266.286	3157
266.347	1176
266.408	2106
266.469	2281
266.530	1291
266.592	1633
266.653	6421
266.714	7132
266.775	2295
266.836	1802
266.898	1670
266.959	4906
267.020	2693
267.081	2305
267.142	1663
267.203	1757
267.264	1633
267.326	2124
267.387	1916
267.448	658
267.509	2383
267.570	2110
267.631	1769
267.692	710
267.753	3116
267.814	1561
267.875	6492
267.936	9460
267.997	6123
268.058	4670
268.119	2111
268.180	1790
268.241	823
268.302	1438
268.363	1064
268.424	2034
268.485	1846
268.546	911
268.607	1693
268.668	1380
268.729	1294
268.790	1780
268.851	1952
268.912	8597
268.972	6874
269.033	4496
269.094	1793
269.155	1389
269.216	1139
269.277	1607
269.338	1287
269.398	1683
269.459	1448
269.520	3380
269.581	5670
269.642	5364
269.702	2409
269.763	2750
269.824	2095
269.885	3724
269.945	4310
270.006	2085
270.067	1206
270.128	642
270.188	1319
270.249	1162
270.310	225
270.370	1381
270.431	1343
270.492	1082
270.553	2650
270.613	6331
270.674	10947
270.734	3411
270.795	2080
270.856	4678
270.916	1732
270.977	2143
271.038	2816
271.098	2999
271.159	6332
271.219	3918
271.280	2261
271.340	1505
271.401	2633
271.462	5201
271.522	2697
271.583	2253
271.643	2046
271.704	2389
271.764	3376
271.825	8446
271.885	30058
271.946	26925
272.006	9690
272.066	18034
272.127	20984
272.187	6924
272.248	4278
272.308	5664
272.369	17201
272.429	6826
272.489	8476
272.550	6395
272.610	8683
272.671	4590
272.731	5688
272.791	7787
272.852	4701
272.912	4169
272.972	2854
273.033	2877
273.093	3966
273.153	5257
273.214	2868
273.274	3354
273.334	18505
273.394	23761
273.455	9134
273.515	12567
273.575	21379
273.635	7993
273.696	15150
273.756	21699
273.816	8379
273.876	6053
273.936	13454
273.997	14627
274.057	4624
274.117	4383
274.177	7634
274.237	35274
274.297	19606
274.358	14671
274.418	20692
274.478	12070
274.538	4572
274.598	4139
274.658	15205
274.718	15258
274.778	5895
274.838	3615
274.898	10951
274.958	22628
275.018	24598
275.078	11565
275.138	6075
275.198	3274
275.258	3102
275.318	3943
275.378	8098
275.438	8392
275.498	5374
275.558	14101
275.618	24934
275.678	13454
275.738	11901
275.798	7683
275.858	3870
275.918	2406
275.978	4536
276.038	2919
276.098	2379
276.157	8833
276.217	18482
276.277	7382
276.337	5374
276.397	3317
276.457	4704
276.517	2151
276.576	2564
276.636	2515
276.696	5069
276.756	12667
276.815	6136
276.875	3614
276.935	4179
276.995	3113
277.055	2385
277.114	3100
277.174	5753
277.234	14694
277.293	4166
277.353	3654
277.413	2494
277.472	3600
277.532	2504
277.592	3792
277.651	21170
277.711	23420
277.771	9377
277.830	38100
277.890	19354
277.950	22986
278.009	47895
278.069	15002
278.128	25552
278.188	24528
278.248	12773
278.307	35394
278.367	13472
278.426	5138
278.486	3779
278.545	3226
278.605	2891
278.664	1782
278.724	2953
278.783	13063
278.843	22607
278.902	6299
278.962	5165
279.021	4231
279.081	6366
279.140	5437
279.199	4495
279.259	4950
279.318	4688
279.378	6631
279.437	13629
279.496	50150
279.556	137220
279.615	74551
279.675	22959
279.734	14044
279.793	24458
279.853	28403
279.912	10562
279.971	6452
280.031	5736
280.090	16135
280.149	18658
280.208	20565
280.268	103401
280.327	64317
280.386	18294
280.445	17437
280.505	11619
280.564	5953
280.623	5688
280.682	10773
280.742	10382
280.801	4259
280.860	3436
280.919	3283
280.978	2658
281.037	2953
281.097	1920
281.156	2825
281.215	2735
281.274	3815
281.333	19932
281.392	9270
281.451	3035
281.510	2700
281.569	2781
281.628	2246
281.688	2200
281.747	3885
281.806	1847
281.865	2058
281.924	2580
281.983	2433
282.042	1566
282.101	1360
282.160	2106
282.219	1164
282.278	3178
282.337	10150
282.396	4774
282.454	2630
282.513	4111
282.572	16140
282.631	5940
282.690	2158
282.749	2073
282.808	3415
282.867	2556
282.926	3220
282.985	2929
283.043	1717
283.102	2310
283.161	2199
283.220	10072
283.279	14199
283.338	3977
283.396	2825
283.455	3216
283.514	4685
283.573	5979
283.631	3709
283.690	2805
283.749	3503
283.808	8736
283.866	6193
283.925	3193
283.984	3776
284.043	5302
284.101	3784
284.160	3833
284.219	4724
284.277	3907
284.336	7896
284.395	23363
284.453	13169
284.512	6850
284.570	9876
284.629	7483
284.688	9022
284.746	9672
284.805	10897
284.863	15301
284.922	18258
284.981	21475
285.039	30921
285.098	56536
285.156	119433
285.215	138601
285.273	144987
285.332	99662
285.390	59050
285.449	37098
285.507	24919
285.566	17966
285.624	12264
285.683	10758
285.741	8919
285.799	7201
285.858	6648
285.916	6279
285.975	5123
286.033	4259
286.091	4163
286.150	3674
286.208	3299
286.267	4683
286.325	4735
286.383	6759
286.442	4567
286.500	3481
286.558	2508
286.616	3074
286.675	4666
286.733	4002
286.791	2824
286.850	4027
286.908	5833
286.966	7102
287.024	3538
287.083	2370
287.141	2571
287.199	3047
287.257	4565
287.315	2158
287.374	3533
287.432	8998
287.490	4567
287.548	2917
287.606	2462
287.664	2141
287.723	4523
287.781	3911
287.839	3204
287.897	3948
287.955	3930
288.013	5049
288.071	12313
288.129	79072
288.187	148184
288.245	48419
288.303	18146
288.361	11432
288.419	7924
288.477	5004
288.535	3578
288.593	2710
288.651	2591
288.709	1626
288.767	2108
288.825	1899
288.883	1771
288.941	2151
288.999	1967
289.057	1396
289.115	1544
289.173	1778
289.231	2522
289.289	1798
289.346	2034
289.404	2499
289.462	4894
289.520	4389
289.578	2319
289.636	1775
289.694	1002
289.751	1261
289.809	731
289.867	1455
289.925	3124
289.983	1903
290.040	1493
290.098	1715
290.156	1988
290.214	2288
290.271	1329
290.329	776
290.387	938
290.444	162
290.502	597
290.560	1561
290.617	1981
290.675	972
290.733	1433
290.790	2248
290.848	773
290.906	1920
290.963	1580
291.021	1151
291.078	1265
291.136	1482
291.194	11494
291.251	15021
291.309	3293
291.366	1492
291.424	1526
291.481	2094
291.539	1313
291.596	1831
291.654	881
291.711	674
291.769	2486
291.826	4338
291.884	2166
291.941	1640
291.999	973
292.056	2440
292.114	1240
292.171	1566
292.228	1915
292.286	2155
292.343	4728
292.401	5639
292.458	3218
292.515	2329
292.573	2852
292.630	3487
292.687	2094
292.745	1208
292.802	3920
292.859	11160
292.917	17562
292.974	6544
293.031	2512
293.089	1884
293.146	1151
293.203	1791
293.260	1366
293.318	3003
293.375	4109
293.432	2330
293.489	1056
293.546	1766
293.604	2267
293.661	13281
293.718	25332
293.775	10518
293.832	6388
293.889	4734
293.947	5026
294.004	2193
294.061	3184
294.118	9147
294.175	18093
294.232	19547
294.289	6633
294.346	3169
294.403	3384
294.460	2980
294.517	1579
294.574	1409
294.631	1321
294.688	2157
294.745	9882
294.802	35694
294.859	27476
294.916	9980
294.973	6439
295.030	5806
295.087	3168
295.144	2549
295.201	1991
295.258	1460
295.315	3105
295.372	14508
295.429	18847
295.486	7080
295.542	3961
295.599	18823
295.656	20762
295.713	17678
295.770	17599
295.827	5786
295.883	4030
295.940	3517
295.997	6612
296.054	4978
296.111	2334
296.167	2271
296.224	1704
296.281	2231
296.338	1077
296.394	1245
296.451	2812
296.508	12217
296.564	16407
296.621	10326
296.678	30042
296.734	29200
296.791	9994
296.848	6449
296.904	7517
296.961	16892
297.018	24435
297.074	13245
297.131	6153
297.187	4385
297.244	6935
297.301	32263
297.357	35756
297.414	10648
297.470	4765
297.527	3424
297.583	3945
297.640	3626
297.696	2054
297.753	1633
297.809	1839
297.866	1085
297.922	1780
297.979	1346
298.035	1337
298.092	5062
298.148	16108
298.204	10577
298.261	4497
298.317	15181
298.374	29568
298.430	12853
298.486	6871
298.543	5525
298.599	5654
298.656	6894
298.712	11729
298.768	24111
298.824	12690
298.881	5002
298.937	2827
298.993	3501
299.050	3948
299.106	2932
299.162	2808
299.218	2596
299.275	2357
299.331	2809
299.387	8887
299.443	30603
299.500	23620
299.556	8586
299.612	5612
299.668	5397
299.724	8123
299.780	6464
299.837	3838
299.893	7680
299.949	27797
300.005	21658
300.061	26007
300.117	35668
300.173	14217
300.229	7044
300.285	10749
300.341	10506
300.397	5010
300.453	2799
300.510	2804
300.566	2738
300.622	4756
300.678	17657
300.734	24642
300.790	22322
300.845	23000
300.901	18006
300.957	26418
301.013	14399
301.069	6740
301.125	4866
301.181	4666
301.237	3699
301.293	2424
301.349	2706
301.405	2822
301.461	4148
301.516	6010
301.572	5404
301.628	7285
301.684	6655
301.740	14133
301.796	15647
301.851	11592
301.907	18158
301.963	13521
302.019	33481
302.074	79018
302.130	63703
302.186	28461
302.242	13080
302.297	8485
302.353	9051
302.409	17730
302.464	11180
302.520	11873
302.576	31471
302.631	27886
302.687	14961
302.743	7399
302.798	4487
302.854	2866
302.910	4194
302.965	5434
303.021	9223
303.076	8364
303.132	11972
303.187	11809
303.243	5084
303.299	3153
303.354	3099
303.410	3283
303.465	2213
303.521	1863
303.576	2735
303.632	3019
303.687	10004
303.743	25921
303.798	16488
303.853	6801
303.909	3847
303.964	3947
304.020	8178
304.075	8840
304.130	9564
304.186	17082
304.241	16736
304.297	11279
304.352	6803
304.358	6518
304.407	4199
304.449	4853
304.463	5076
304.518	4712
304.539	4229
304.573	3437
304.629	3073
304.630	3163
304.684	7472
304.720	17678
304.739	22885
304.794	24478
304.811	21194
304.850	12343
304.902	5581
304.905	5201
304.960	4758
304.992	4290
305.015	3955
305.071	4268
305.083	4111
305.126	3459
305.173	2271
305.181	2084
305.236	2576
305.264	2630
305.292	2873
305.347	5362
305.354	5390
305.402	5349
305.445	6252
305.457	6514
305.512	6302
305.535	6400
305.567	6446
305.622	6280
305.626	6567
305.678	14151
305.716	28412
305.733	33563
305.788	30733
305.807	27922
305.843	22370
305.897	30769
305.898	30874
305.953	25134
305.988	17973
306.008	13967
306.063	9565
306.078	8586
306.118	6657
306.168	4194
306.173	4037
306.228	3590
306.259	3415
306.283	3361
306.338	3521
306.349	3523
306.393	3791
306.440	4578
306.448	4683
306.503	4494
306.530	5044
306.558	7642
306.613	18156
306.620	19360
306.668	27901
306.711	36117
306.723	36156
306.778	26376
306.801	20957
306.833	14449
306.888	6791
306.892	6415
306.943	5490
306.982	4969
306.997	4925
307.052	4665
307.072	4762
307.107	5186
307.162	6313
307.163	6339
307.217	11356
307.253	13588
307.272	14096
307.327	14699
307.343	14290
307.381	11951
307.434	9753
307.436	10139
307.491	22973
307.524	32705
307.546	35763
307.600	34476
307.614	32883
307.655	20984
307.704	9632
307.710	9570
307.765	10214
307.795	13779
307.819	18821
307.874	28905
307.885	29571
307.929	22320
307.975	15323
307.984	15744
308.038	20651
308.065	25049
308.093	42877
308.148	91708
308.156	101880
308.202	175766
308.246	214988
308.257	202581
308.312	111849
308.336	77129
308.366	63292
308.421	42491
308.426	40347
308.475	25847
308.517	16434
308.530	15664
308.585	13834
308.607	13205
308.639	13260
308.694	13964
308.697	14146
308.748	27064
308.787	38164
308.803	38311
308.857	31713
308.877	28892
308.912	25474
308.967	23013
308.967	22932
309.021	32818
309.058	40871
309.076	51254
309.130	86193
309.148	99254
309.185	156086
309.238	255112
309.239	256842
309.293	300926
309.328	305523
309.348	262868
309.402	138520
309.418	105309
309.457	77968
309.508	46903
309.511	46753
309.566	45984
309.598	47606
309.620	60530
309.674	97165
309.688	105689
309.729	103483
309.778	93893
309.783	91387
309.837	59203
309.868	41857
309.892	45146
309.946	56468
309.959	59883
310.001	84266
310.049	107441
310.055	103343
310.109	60107
310.139	36793
310.163	30034
310.218	17066
310.229	14678
310.272	12484
310.319	9994
310.326	9801
310.381	8719
310.409	8125
310.435	7995
310.489	7991
310.499	7923
310.543	8152
310.589	8718
310.598	8894
310.652	9473
310.679	9790
310.706	8993
310.760	7118
310.769	6861
310.814	6448
310.859	5829
310.868	5838
310.923	5884
310.948	5895
310.977	6736
311.031	8401
311.038	8616
311.085	9162
311.128	9411
311.139	9218
311.193	8252
311.218	7692
311.247	7367
311.301	6837
311.308	6759
311.356	7562
311.398	8137
311.410	7972
311.464	7090
311.488	6690
311.518	6735
311.572	6763
311.578	6754
311.626	10869
311.668	14433
311.680	14058
311.734	12037
311.758	11109
311.788	11828
311.842	13073
311.847	13161
311.896	15070
311.937	16679
311.950	17140
312.004	18872
312.027	19550
312.058	16250
312.112	10246
312.117	9613
312.165	8802
312.207	8054
312.297	12884
312.386	11859
312.476	10219
312.566	22773
312.656	12924
312.745	6795
312.835	7590
312.925	9752
313.015	8507
313.104	9006
313.194	7491
313.284	8909
313.374	11351
313.463	12176
313.553	7286
313.643	6850
313.732	7222
313.822	7323
313.912	7740
314.001	10341
314.091	11398
314.180	16863
314.270	13261
314.360	14142
314.449	13431
314.539	8444
314.628	6977
314.718	9607
314.808	12675
314.897	8227
314.987	8374
315.076	10471
315.166	14799
315.255	13169
315.345	13481
315.434	11116
315.524	11177
315.613	12272
315.703	16982
315.792	21878
315.881	48330
315.971	25922
316.060	22121
316.150	30038
316.239	31930
316.328	14605
316.418	8638
316.507	9346
316.597	12685
316.686	12871
316.775	13995
316.865	32175
316.954	10621
317.043	6195
317.133	8948
317.222	8008
317.311	6990
317.400	8254
317.490	10288
317.579	15330
317.668	9140
317.757	13860
317.847	29832
317.936	89845
318.025	52731
318.114	25551
318.203	19948
318.293	24967
318.382	56414
318.471	44415
318.560	56606
318.649	89194
318.738	26231
318.828	12715
318.917	15256
319.006	14181
319.095	39947
319.184	106302
319.273	75329
319.362	41265
319.451	11880
319.540	10853
319.629	25432
319.718	51147
319.807	17692
319.896	34762
319.985	131705
320.074	67094
320.163	14047
320.252	21435
320.341	20191
320.430	21474
320.519	25059
320.608	17615
320.697	11542
320.786	13654
320.875	16328
320.964	21387
321.053	31694
321.142	45505
321.230	53398
321.319	34227
321.408	87960
321.497	43329
321.586	32797
321.675	34150
321.764	37905
321.852	23029
321.941	46634
322.030	36723
322.119	30545
322.207	86763
322.296	58855
322.385	29218
322.474	31432
322.562	100221
322.651	67006
322.740	34292
322.829	53995
322.917	46678
323.006	32436
323.095	28226
323.183	18321
323.272	25930
323.361	41553
323.449	118818
323.538	48882
323.626	81165
323.715	66064
323.804	19565
323.892	73674
323.981	58857
324.069	13940
324.158	35750
324.246	48026
324.335	18178
324.424	33591
324.512	14179
324.601	16204
324.689	33053
324.778	79270
324.866	40529
324.954	12042
325.043	10668
325.131	18899
325.220	32379
325.308	39649
325.397	28544
325.485	23244
325.574	7925
325.662	8866
325.750	10404
325.839	9101
325.927	6916
326.015	10469
326.104	12967
326.192	20747
326.280	8967
326.369	8317
326.457	13214
326.545	27008
326.634	14905
326.722	5517
326.810	7188
326.898	7393
326.987	8647
327.075	22552
327.163	23956
327.251	11357
327.340	22662
327.428	48821
327.516	10675
327.604	8924
327.692	8677
327.781	8782
327.869	14423
327.957	10391
328.045	11739
328.133	6173
328.221	8227
328.309	8842
328.397	7226
328.485	10873
328.574	13675
328.662	51621
328.750	34083
328.838	11014
328.926	8071
329.014	6088
329.102	11364
329.190	30518
329.278	27235
329.366	6851
329.454	5319
329.542	7404
329.630	6237
329.718	7435
329.806	11064
329.893	10286
329.981	11092
330.069	12656
330.157	49625
330.245	183547
330.333	121426
330.421	20780
330.509	14744
330.597	61051
330.684	52937
330.772	15173
330.860	20211
330.948	28957
331.036	15823
331.123	7223
331.211	6264
331.299	9929
331.387	18768
331.475	48209
331.562	14641
331.650	6386
331.738	8097
331.825	12297
331.913	7130
332.001	5366
332.089	8446
332.176	18191
332.264	36655
332.352	39913
332.439	14194
332.527	10453
332.614	7322
332.702	10383
332.790	7195
332.877	17496
332.965	46395
333.052	19630
333.140	14974
333.228	47692
333.315	16778
333.403	8909
333.490	21933
333.578	28632
333.665	58189
333.753	34826
333.840	9703
333.928	9641
334.015	23084
334.103	34357
334.190	126064
334.278	49393
334.365	17252
334.452	16262
334.540	10902
334.627	11133
334.715	16145
334.802	23298
334.889	117305
334.977	166943
335.064	30391
335.151	14063
335.239	11923
335.326	16155
335.413	52084
335.501	108246
335.588	17979
335.675	11627
335.762	13556
335.850	28802
335.937	18731
336.024	36020
336.111	155972
336.199	100759
336.286	23766
336.373	11982
336.460	8752
336.547	8779
336.635	10524
336.722	11112
336.809	9259
336.896	11474
336.983	37138
337.070	101226
337.157	141613
337.245	89526
337.332	82218
337.419	11435
337.506	7767
337.593	10075
337.680	25737
337.767	113473
337.854	35699
337.941	36416
338.028	37899
338.115	17534
338.202	14775
338.289	23878
338.376	90550
338.463	40319
338.550	50407
338.637	80336
338.724	18231
338.811	33804
338.898	10107
338.984	6979
339.071	9950
339.158	11150
339.245	31599
339.332	24654
339.419	18680
339.506	25103
339.593	6239
339.679	6700
339.766	7211
339.853	9687
339.940	25121
340.027	10527
340.113	8788
340.200	13727
340.287	9329
340.374	10812
340.460	23624
340.547	12512
340.634	12829
340.720	54657
340.807	47424
340.894	7384
340.980	7695
341.067	8043
341.154	9265
341.240	12586
341.327	34829
341.414	12702
341.500	14452
341.587	9562
341.674	7473
341.760	19188
341.847	29154
341.933	10862
342.020	4338
342.106	4476
342.193	6501
342.279	17838
342.366	12718
342.452	23865
342.539	12766
342.625	22337
342.712	68947
342.798	33927
342.885	14773
342.971	5355
343.058	5374
343.144	5679
343.230	6183
343.317	7555
343.403	7499
343.490	4409
343.576	5110
343.662	6076
343.749	8685
343.835	9571
343.921	12985
344.008	67116
344.094	216822
344.180	66266
344.267	19405
344.353	51392
344.439	78423
344.525	36531
344.612	14735
344.698	11697
344.784	10209
344.870	5824
344.957	6742
345.043	13472
345.129	9349
345.215	21629
345.301	14383
345.387	10400
345.474	5266
345.560	5443
345.646	6893
345.732	7595
345.818	9240
345.904	9003
345.990	9708
346.076	8651
346.162	17524
346.249	9684
346.335	5868
346.421	6264
346.507	16496
346.593	85630
346.679	31599
346.765	8263
346.851	7826
346.937	9749
347.023	7088
347.108	8881
347.194	8184
347.280	7283
347.366	8258
347.452	19814
347.538	94342
347.624	80935
347.710	76900
347.796	15268
347.882	7440
347.967	5635
348.053	10458
348.139	8286
348.225	6180
348.311	6884
348.397	6049
348.482	6916
348.568	12138
348.654	6493
348.740	9299
348.825	12588
348.911	12228
348.997	33003
349.083	99718
349.168	22857
349.254	7590
349.340	10346
349.425	4986
349.511	8769
349.597	12151
349.682	17986
349.768	63100
349.854	44367
349.939	8711
350.025	5444
350.110	5446
350.196	5052
350.282	6002
350.367	4246
350.453	9319
350.538	12010
350.624	10004
350.709	12390
350.795	6086
350.880	7354
350.966	7059
351.051	10631
351.137	8984
351.222	6970
351.308	16744
351.393	68105
351.479	25110
351.564	8204
351.649	7694
351.735	6448
351.820	4326
351.906	6308
351.991	8166
352.076	30307
352.162	71617
352.247	16532
352.332	8206
352.418	17966
352.503	22789
352.588	76589
352.673	98751
352.759	20378
352.844	11160
352.929	8981
353.014	15715
353.100	9897
353.185	16716
353.270	25301
353.355	29219
353.441	9158
353.526	7848
353.611	18684
353.696	30651
353.781	15390
353.866	8939
353.952	7083
354.037	17450
354.122	49496
354.207	48232
354.292	22221
354.377	8696
354.462	7849
354.547	10234
354.632	10263
354.717	12802
354.802	23628
354.887	10982
354.972	6421
355.057	5660
355.142	5536
355.227	7889
355.312	12268
355.397	28298
355.482	74663
355.567	49902
355.652	24292
355.737	29716
355.822	63308
355.907	81821
355.991	13973
356.076	8196
356.161	6781
356.246	6635
356.331	6433
356.416	13142
356.501	81465
356.585	141114
356.670	26258
356.755	13818
356.840	15755
356.924	59891
357.009	262138
357.094	152245
357.179	30148
357.263	21827
357.348	16800
357.433	21423
357.517	18004
357.602	15856
357.687	12764
357.771	21758
357.856	94631
357.941	74319
358.025	44710
358.110	228031
358.195	169293
358.279	28738
358.364	16362
358.448	44562
358.533	144010
358.617	129698
358.702	108831
358.787	54924
358.871	25276
358.956	27035
359.040	10157
359.125	7576
359.209	9141
359.294	37502
359.378	103447
359.462	34121
359.547	15057
359.631	9009
359.716	7467
359.800	7800
359.885	13380
359.969	10573
360.053	8388
360.138	8371
360.222	11513
360.306	23800
360.391	22692
360.475	38799
360.559	122893
360.644	70211
360.728	55204
360.812	43735
360.896	162173
360.981	92053
361.065	59010
361.149	15358
361.233	14047
361.318	12209
361.402	13653
361.486	11175
361.570	9170
361.654	11758
361.739	23273
361.823	85253
361.907	181480
361.991	48278
362.075	19478
362.159	47099
362.243	41485
362.327	36077
362.411	48143
362.495	28032
362.580	15165
362.664	10905
362.748	10420
362.832	13932
362.916	21547
363.000	59040
363.084	155774
363.168	226014
363.252	75471
363.336	23529
363.420	24657
363.503	73188
363.587	130042
363.671	30002
363.755	17642
363.839	26976
363.923	15571
364.007	25422
364.091	34435
364.175	31408
364.258	132244
364.342	140092
364.426	155546
364.510	108773
364.594	41190
364.677	33924
364.761	117406
364.845	132479
364.929	42726
365.013	41110
365.096	26777
365.180	38342
365.264	28727
365.347	128588
365.431	87891
365.515	24110
365.598	12708
365.682	9967
365.766	15721
365.849	28421
365.933	12735
366.017	15554
366.100	16630
366.184	7582
366.267	7530
366.351	7480
366.435	7676
366.518	7091
366.602	5443
366.685	7230
366.769	8706
366.852	15123
366.936	32046
367.019	21421
367.103	13165
367.186	28682
367.270	12285
367.353	6532
367.436	7400
367.520	7615
367.603	9325
367.687	15160
367.770	29328
367.853	18188
367.937	33335
368.020	83190
368.104	27882
368.187	17841
368.270	31690
368.353	31024
368.437	29083
368.520	57343
368.603	51621
368.687	45135
368.770	114984
368.853	39892
368.936	25348
369.020	33671
369.103	14486
369.186	8442
369.269	10242
369.352	15885
369.436	30187
369.519	20711
369.602	11929
369.685	9270
369.768	12301
369.851	9793
369.934	7870
370.018	9391
370.101	23352
370.184	22133
370.267	15032
370.350	23626
370.433	36591
370.516	65459
370.599	108655
370.682	40016
370.765	57337
370.848	73490
370.931	120164
371.014	69945
371.097	16173
371.180	12154
371.263	7583
371.346	6630
371.429	8076
371.511	8916
371.594	16194
371.677	26001
371.760	32118
371.843	23391
371.926	67975
372.009	215496
372.091	102213
372.174	43547
372.257	102014
372.340	61920
372.423	36369
372.505	52508
372.588	26184
372.671	30752
372.754	112310
372.836	85097
372.919	37737
373.002	100431
373.085	43468
373.167	23910
373.250	48590
373.332	105184
373.415	122768
373.498	278068
373.580	150732
373.663	108982
373.746	207988
373.828	66847
373.911	25838
373.993	22275
374.076	71140
374.159	102438
374.241	35758
374.324	95783
374.406	94702
374.489	60444
374.571	212618
374.654	134440
374.736	42789
374.819	119778
374.901	184481
374.983	234764
375.066	62079
375.148	18781
375.231	48192
375.313	139239
375.395	72630
375.478	19139
375.560	10982
375.643	13864
375.725	32064
375.807	146658
375.890	164687
375.972	71959
376.054	37373
376.136	51044
376.219	31094
376.301	35259
376.383	142271
376.465	84505
376.548	42285
376.630	45049
376.712	117413
376.794	90910
376.877	14161
376.959	7585
377.041	9446
377.123	16533
377.205	30259
377.287	9342
377.369	6453
377.452	7387
377.534	7995
377.616	6251
377.698	7733
377.780	6054
377.862	7893
377.944	8870
378.026	6013
378.108	6227
378.190	6639
378.272	6510
378.354	5402
378.436	5439
378.518	10582
378.600	41108
378.682	42624
378.764	64101
378.846	79214
378.928	21337
379.010	28800
379.091	20743
379.173	9058
379.255	8169
379.337	10397
379.419	27911
379.501	98796
379.583	63434
379.664	13032
379.746	25496
379.828	67375
379.910	103771
379.991	104435
380.073	25906
380.155	12257
380.237	11235
380.318	7180
380.400	9131
380.482	16029
380.564	31552
380.645	29028
380.727	31676
380.809	18911
380.890	12970
380.972	11199
381.053	9600
381.135	11170
381.217	22350
381.298	77723
381.380	57572
381.461	29361
381.543	99775
381.624	188149
381.706	51858
381.787	21435
381.869	24066
381.951	42606
382.032	182861
382.113	180172
382.195	51089
382.276	28258
382.358	43401
382.439	112733
382.521	128600
382.602	202825
382.684	123155
382.765	163659
382.846	252334
382.928	410784
383.009	318532
383.090	154553
383.172	425785
383.253	823575
383.334	365725
383.416	214481
383.497	155844
383.578	78248
383.659	128656
383.741	357418
383.822	940479
383.903	714436
383.984	215822
384.066	245015
384.147	208032
384.228	58496
384.309	35663
384.390	31486
384.471	23093
384.553	22711
384.634	25818
384.715	31887
384.796	19190
384.877	19167
384.958	56548
385.039	103183
385.120	46855
385.201	18862
385.282	22276
385.363	23577
385.444	22940
385.525	28462
385.606	80860
385.687	100422
385.768	29987
385.849	27700
385.930	77995
386.011	179228
386.092	77747
386.173	18460
386.254	13438
386.335	13964
386.416	14981
386.496	37810
386.577	85706
386.658	42211
386.739	22166
386.820	19091
386.901	17317
386.981	15242
387.062	11564
387.143	16782
387.224	61755
387.304	88130
387.385	33284
387.466	21140
387.547	25644
387.627	20188
387.708	23912
387.789	98945
387.869	167196
387.950	62027
388.031	12363
388.111	10189
388.192	24576
388.273	41106
388.353	30435
388.434	16088
388.514	21459
388.595	80463
388.676	152065
388.756	94094
388.837	71028
388.917	65299
388.998	15204
389.078	11682
389.159	10191
389.239	9327
389.320	16183
389.400	16632
389.480	21993
389.561	72085
389.641	54001
389.722	14777
389.802	26221
389.883	30059
389.963	73962
390.043	70823
390.124	25981
390.204	23892
390.284	79754
390.365	76872
390.445	52402
390.525	133295
390.605	147588
390.686	63736
390.766	22713
390.846	11856
390.927	9167
391.007	9827
391.087	11112
391.167	13797
391.247	11443
391.328	13122
391.408	22486
391.488	23014
391.568	9095
391.648	12716
391.728	20604
391.808	17736
391.888	21615
391.969	35518
392.049	76442
392.129	42521
392.209	30023
392.289	77797
392.369	64175
392.449	44158
392.529	38245
392.609	24958
392.689	26408
392.769	69478
392.849	89707
392.929	50400
393.009	111841
393.089	120376
393.169	85258
393.248	200085
393.328	675424
393.408	971712
393.488	400341
393.568	114185
393.648	55790
393.728	34354
393.807	26145
393.887	22768
393.967	19812
394.047	21135
394.127	26417
394.206	34501
394.286	77071
394.366	326225
394.446	519669
394.525	180283
394.605	44738
394.685	28632
394.764	53442
394.844	98215
394.924	94407
395.003	31490
395.083	18981
395.163	16822
395.242	13907
395.322	15743
395.402	12563
395.481	15519
395.561	30343
395.640	106248
395.720	107795
395.799	108908
395.879	115384
395.958	52967
396.038	113005
396.117	435702
396.197	669789
396.276	283252
396.356	96712
396.435	65349
396.515	47992
396.594	45977
396.673	75702
396.753	197396
396.832	652437
396.912	715287
396.991	240788
397.070	64078
397.150	34710
397.229	24316
397.308	26803
397.388	53063
397.467	35957
397.546	13517
397.625	11161
397.705	15656
397.784	17050
397.863	11820
397.942	8285
398.022	9087
398.101	22185
398.180	90772
398.259	72857
398.338	20283
398.417	13470
398.497	10052
398.576	10041
398.655	7447
398.734	6737
398.813	6639
398.892	18900
398.971	91316
399.050	76350
399.129	12745
399.208	6314
399.287	5336
399.366	4579
399.445	5053
399.524	6108
399.603	5655
399.682	11596
399.761	28209
399.840	87506
399.919	108237
399.998	21571
400.077	5176
400.156	4381
400.235	7807
400.313	6707
400.392	7511
400.471	29350
400.550	74078
400.629	31334
400.708	9531
400.786	8960
400.865	21091
400.944	33495
401.023	18148
401.102	4515
401.180	3747
401.259	4547
401.338	6176
401.416	9832
401.495	10093
401.574	7818
401.652	6269
401.731	8981
401.810	9630
401.888	6657
401.967	3760
402.046	5340
402.124	7652
402.203	12178
402.281	8847
402.360	9068
402.438	29661
402.517	31589
402.596	9965
402.674	9349
402.753	6106
402.831	5085
402.910	6006
402.988	18776
403.066	83647
403.145	78344
403.223	25072
403.302	71705
403.380	72047
403.459	62631
403.537	37250
403.615	12633
403.694	4395
403.772	3289
403.850	3021
403.929	3121
404.007	4097
404.085	10331
404.164	17043
404.242	7867
404.320	4567
404.398	9013
404.477	21805
404.555	120605
404.633	176129
404.711	37133
404.789	8062
404.868	6891
404.946	6338
405.024	3605
405.102	3705
405.180	3402
405.258	2979
405.336	4409
405.415	3810
405.493	11028
405.571	14274
405.649	5997
405.727	4256
405.805	7913
405.883	8302
405.961	8447
406.039	11480
406.117	7141
406.195	8500
406.273	25381
406.351	121208
406.429	120847
406.507	23823
406.585	9209
406.663	6521
406.740	9856
406.818	9342
406.896	6439
406.974	5980
407.052	9151
407.130	59474
407.208	138406
407.285	43775
407.363	6858
407.441	5580
407.519	4904
407.596	5437
407.674	10476
407.752	21209
407.830	35100
407.907	24849
407.985	9676
408.063	5447
408.141	2904
408.218	6992
408.296	10938
408.373	7034
408.451	7448
408.529	7997
408.606	4569
408.684	3212
408.762	2328
408.839	1657
408.917	2427
408.994	3112
409.072	3451
409.149	4162
409.227	6330
409.304	11277
409.382	9333
409.459	9073
409.537	12170
409.614	14055
409.692	10092
409.769	8729
409.846	12784
409.924	18196
410.001	18344
410.079	12498
410.156	7947
410.233	6573
410.311	6090
410.388	4754
410.465	5304
410.543	8360
410.620	6066
410.697	5132
410.775	8457
410.852	4257
410.929	5531
411.006	11182
411.083	6786
411.161	14199
411.238	20194
411.315	11736
411.392	5418
411.469	6575
411.547	10716
411.624	6284
411.701	5526
411.778	4812
411.855	11970
411.932	10833
412.009	4735
412.086	4123
412.163	4924
412.240	6292
412.317	7969
412.394	9256
412.471	4602
412.548	2325
412.625	3460
412.702	5081
412.779	12456
412.856	10788
412.933	4155
413.010	3264
413.087	5486
413.164	27643
413.241	66185
413.318	24346
413.395	8344
413.471	14494
413.548	9489
413.625	3881
413.702	5426
413.779	6533
413.855	2390
413.932	1433
414.009	2195
414.086	2858
414.162	2683
414.239	5340
414.316	24115
414.393	82469
414.469	49940
414.546	6612
414.623	2651
414.699	2622
414.776	4463
414.853	4312
414.929	2758
415.006	3738
415.082	4772
415.159	3985
415.236	3612
415.312	3849
415.389	6965
415.465	13782
415.542	8528
415.618	3545
415.695	8705
415.771	6770
415.848	5091
415.924	4499
416.000	4280
416.077	2428
416.153	1371
416.230	695
416.306	659
416.383	2302
416.459	2388
416.535	1477
416.612	1511
416.688	2313
416.764	2027
416.841	3019
416.917	3049
416.993	3089
417.069	3695
417.146	5818
417.222	8442
417.298	7218
417.374	3588
417.451	4552
417.527	5885
417.603	7838
417.679	5403
417.755	4341
417.831	2511
417.908	1867
417.984	1896
418.060	1303
418.136	7750
418.212	17226
418.288	7506
418.364	3469
418.440	2955
418.516	6300
418.592	8441
418.668	16438
418.744	28553
418.820	26069
418.896	7858
418.972	2983
419.048	3255
419.124	8994
419.200	12692
419.276	3882
419.352	1328
419.428	1938
419.504	2666
419.579	6014
419.655	4608
419.731	3536
419.807	12676
419.883	30824
419.959	29122
420.034	8619
420.110	9296
420.186	41752
420.262	55777
420.337	11963
420.413	7118
420.489	4348
420.565	3797
420.640	2544
420.716	3857
420.792	3138
420.867	3778
420.943	2891
421.019	7679
421.094	9126
421.170	4715
421.245	2804
421.321	4585
421.397	4842
421.472	5499
421.548	11810
421.623	16699
421.699	10223
421.774	8821
421.850	7604
421.925	12725
422.001	13899
422.076	11817
422.152	13207
422.227	21659
422.302	27314
422.378	34204
422.453	60401
422.529	124401
422.604	310058
422.679	496138
422.755	454386
422.830	243239
422.905	94509
422.981	50234
423.056	31769
423.131	22612
423.207	17501
423.282	15112
423.357	22392
423.432	20824
423.508	14681
423.583	27801
423.658	31140
423.733	11312
423.808	10558
423.883	11263
423.959	11135
424.034	9016
424.109	8222
424.184	4998
424.259	4418
424.334	3134
424.409	3269
424.484	2996
424.559	5161
424.634	4417
424.709	5724
424.784	8896
424.859	5799
424.934	6354
425.009	28374
425.084	64984
425.159	37611
425.234	6710
425.309	4342
425.384	20278
425.459	63157
425.534	28496
425.609	4973
425.683	4667
425.758	3637
425.833	3760
425.908	5106
425.983	13511
426.058	59745
426.132	45503
426.207	7427
426.282	8293
426.357	10682
426.431	4096
426.506	3252
426.581	3831
426.655	4396
426.730	2708
426.805	3869
426.879	3961
426.954	4054
427.029	7482
427.103	35769
427.178	120721
427.253	88811
427.327	13247
427.402	11991
427.476	51082
427.551	47133
427.625	8563
427.700	5707
427.774	2614
427.849	5096
427.923	3373
427.998	3427
428.072	4222
428.147	9515
428.221	31810
428.296	118624
428.370	106517
428.444	17156
428.519	11236
428.593	21514
428.667	25782
428.742	22962
428.816	26294
428.890	62591
428.965	170767
429.039	91876
429.113	34560
429.188	18932
429.262	5381
429.336	6867
429.410	26780
429.485	28281
429.559	18637
429.633	24015
429.707	7857
429.781	11818
429.855	69098
429.930	162576
430.004	92299
430.078	98086
430.152	110657
430.226	126905
430.300	200315
430.374	53004
430.448	12487
430.522	22299
430.596	86868
430.670	80844
430.744	95728
430.818	225431
430.892	78920
430.966	10779
431.040	5179
431.114	3370
431.188	2623
431.262	2679
431.336	2583
431.410	7521
431.484	26750
431.557	30293
431.631	4692
431.705	4030
431.779	13824
431.853	87654
431.927	113956
432.000	19473
432.074	3571
432.148	5050
432.222	5949
432.295	2481
432.369	2156
432.443	5901
432.516	27875
432.590	115219
432.664	77579
432.737	9470
432.811	1805
432.885	294
432.958	2104
433.032	848
433.106	572
433.179	108
433.253	462
433.326	1200
433.400	682
433.473	708
433.547	701
433.620	1511
433.694	4968
433.767	9638
433.841	2915
433.914	2296
433.988	3145
434.061	1860
434.134	2331
434.208	771
434.281	79
434.355	603
434.428	2635
434.501	4419
434.575	801
434.648	2067
434.721	1147
434.795	442
434.868	191
434.941	-532
435.014	345
435.088	1450
435.161	5790
435.234	9443
435.307	11115
435.381	6561
435.454	3325
435.527	5248
435.600	6722
435.673	5995
435.746	3538
435.819	2864
435.892	2924
435.966	3278
436.039	1567
436.112	2830
436.185	979
436.258	626
436.331	-175
436.404	277
436.477	529
436.550	555
436.623	1168
436.696	297
436.769	1877
436.842	1596
436.915	1378
436.987	3045
437.060	3121
437.133	841
437.206	360
437.279	1112
437.352	487
437.425	1098
437.498	1958
437.570	5678
437.643	10126
437.716	2808
437.789	652
437.861	4609
437.934	19782
438.007	15348
438.080	3000
438.152	2254
438.225	4964
438.298	32406
438.370	145663
438.443	107056
438.516	27738
438.588	7524
438.661	1600
438.734	1717
438.806	2700
438.879	3821
438.951	4503
439.024	11526
439.096	6147
439.169	1923
439.241	743
439.314	1490
439.386	3701
439.459	5719
439.531	10827
439.604	7790
439.676	1660
439.749	904
439.821	559
439.893	390
439.966	1564
440.038	2914
440.110	4725
440.183	2279
440.255	1133
440.327	3497
440.400	13977
440.472	85209
440.544	103057
440.617	16894
440.689	7939
440.761	8850
440.833	18210
440.905	15617
440.978	3109
441.050	584
441.122	1042
441.194	361
441.266	1340
441.338	953
441.411	3310
441.483	23892
441.555	66169
441.627	22011
441.699	6972
441.771	7527
441.843	3856
441.915	988
441.987	1715
442.059	1898
442.131	2661
442.203	5907
442.275	7239
442.347	8071
442.419	8455
442.491	35760
442.563	138362
442.635	97678
442.706	31992
442.778	33256
442.850	8907
442.922	3305
442.994	3672
443.066	7188
443.137	7367
443.209	5909
443.281	5755
443.353	14618
443.425	46806
443.496	202434
443.568	291585
443.640	137366
443.711	27860
443.783	8904
443.855	6582
443.926	4002
443.998	3643
444.070	5687
444.141	4764
444.213	7283
444.285	10731
444.356	7980
444.428	7130
444.499	3355
444.571	1141
444.642	2045
444.714	2509
444.785	6521
444.857	8142
444.928	17807
445.000	16804
445.071	11629
445.143	18888
445.214	12820
445.285	14757
445.357	42825
445.428	112155
445.500	336512
445.571	294022
445.642	163107
445.714	59497
445.785	45524
445.856	18797
445.928	11038
445.999	10606
446.070	8584
446.141	6648
446.213	10349
446.284	6131
446.355	4910
446.426	4500
446.497	2964
446.569	4986
446.640	12499
446.711	9966
446.782	3418
446.853	2749
446.924	4393
446.995	4336
447.066	3627
447.138	6866
447.209	5928
447.280	1004
447.351	1060
447.422	897
447.493	2825
447.564	4123
447.635	7295
447.706	4425
447.777	659
447.847	394
447.918	152
447.989	2698
448.060	4491
448.131	10807
448.202	14957
448.273	9311
448.344	5444
448.414	1501
448.485	1915
448.556	1105
448.627	508
448.698	628
448.768	554
448.839	1020
448.910	4862
448.981	8064
449.051	3535
449.122	1070
449.193	462
449.263	649
449.334	1438
449.405	1868
449.475	9021
449.546	8492
449.616	7231
449.687	9136
449.758	3463
449.828	2525
449.899	1345
449.969	1017
450.040	1676
450.110	1686
450.181	3159
450.251	1914
450.322	1023
450.392	1537
450.463	1706
450.533	967
450.604	1589
450.674	1095
450.744	1328
450.815	1001
450.885	1358
450.955	919
451.026	694
451.096	1103
451.166	2195
451.237	5670
451.307	21025
451.377	13265
451.447	2121
451.518	835
451.588	893
451.658	1994
451.728	2668
451.799	15235
451.869	31471
451.939	8515
452.009	2044
452.079	1349
452.149	1874
452.219	3286
452.289	20761
452.360	27351
452.430	5587
452.500	3154
452.570	4893
452.640	5914
452.710	16394
452.780	36413
452.850	22564
452.920	22627
452.990	8653
453.060	3773
453.129	5552
453.199	6452
453.269	15509
453.339	65448
453.409	115443
453.479	74068
453.549	131307
453.619	150635
453.688	87085
453.758	12307
453.828	3690
453.898	2362
453.968	2467
454.037	2242
454.087	1927
454.107	1794
454.168	1355
454.177	1284
454.247	1573
454.249	1543
454.316	581
454.330	890
454.386	2023
454.411	3832
454.456	6747
454.492	14362
454.525	21178
454.574	12583
454.595	8869
454.655	2955
454.665	2003
454.734	1512
454.736	1617
454.804	4802
454.817	6935
454.873	15586
454.898	20988
454.943	30939
454.979	20776
455.013	11552
455.060	5939
455.082	3466
455.141	2993
455.152	2842
455.221	8240
455.222	8504
455.291	28366
455.303	25764
455.360	14501
455.384	11128
455.430	4958
455.465	5577
455.499	5998
455.546	12849
455.569	15831
455.627	16969
455.638	17346
455.707	3836
455.708	3826
455.777	1501
455.789	1549
455.846	1699
455.869	1543
455.916	1238
455.950	1389
455.985	1466
456.031	1506
456.054	1582
456.112	1738
456.124	1761
456.193	1174
456.193	1163
456.262	1740
456.274	1938
456.332	2682
456.355	2680
456.401	2490
456.436	2120
456.470	1868
456.516	1743
456.540	1677
456.597	1679
456.609	1665
456.678	889
456.678	880
456.747	919
456.759	799
456.817	522
456.840	647
456.886	770
456.920	946
456.955	1170
457.001	1268
457.024	1257
457.082	1298
457.093	1326
457.162	2591
457.163	2602
457.232	4371
457.243	4255
457.301	3170
457.324	2406
457.370	1392
457.405	1484
457.439	1428
457.485	1141
457.508	1083
457.566	1536
457.577	1634
457.646	2850
457.647	2865
457.715	4415
457.727	4805
457.784	7188
457.808	9148
457.853	11949
457.889	17499
457.922	21231
457.969	15884
457.991	15103
458.050	12931
458.060	12456
458.129	20041
458.130	20385
458.198	30291
458.211	28213
458.267	20052
458.292	14626
458.336	7158
458.372	5970
458.405	6398
458.453	8679
458.474	10196
458.533	17335
458.543	18012
458.611	36844
458.614	37357
458.680	39819
458.694	33537
458.749	15149
458.775	10841
458.818	4861
458.855	3566
458.887	2512
458.936	2132
458.955	2073
459.016	1864
459.024	1854
459.093	2435
459.097	2439
459.162	2269
459.177	2364
459.230	2756
459.257	3070
459.299	3554
459.338	3508
459.368	3449
459.418	3753
459.437	3650
459.499	3448
459.505	3491
459.574	2024
459.579	2064
459.643	2136
459.659	2083
459.711	2228
459.740	2115
459.780	2223
459.820	2689
459.849	2950
459.900	3463
459.917	3418
459.981	3049
459.986	3076
460.054	3188
460.061	3273
460.123	3813
460.141	3802
460.191	4376
460.222	4916
460.260	5133
460.302	6076
460.328	6251
460.382	5631
460.397	5533
460.462	3828
460.465	3830
460.534	4854
460.543	4942
460.602	7575
460.623	9014
460.671	13494
460.703	17995
460.739	17300
460.783	17882
460.808	18278
460.864	7598
460.876	6146
460.944	2454
460.945	2418
461.013	2616
461.024	2706
461.081	2362
461.104	2406
461.150	2818
461.184	2843
461.218	2711
461.264	2205
461.286	2103
461.345	2321
461.355	2321
461.423	2496
461.425	2484
461.491	2775
461.505	3010
461.559	5517
461.585	6604
461.628	9493
461.665	12482
461.696	13656
461.745	19766
461.764	19170
461.825	10383
461.832	10310
461.901	3797
461.905	3764
461.969	3046
461.985	2969
462.037	2949
462.065	2944
462.105	3131
462.145	3309
462.173	4400
462.225	6856
462.241	7614
462.305	11547
462.310	11294
462.378	9661
462.385	8696
462.446	4936
462.465	4208
462.514	3412
462.545	3666
462.582	3437
462.625	3229
462.650	3308
462.705	3487
462.718	3429
462.785	2729
462.786	2750
462.854	4023
462.865	4322
462.922	5371
462.945	6147
462.990	5329
463.025	3760
463.058	3634
463.104	3157
463.126	2906
463.184	2841
463.194	2866
463.262	2696
463.264	2717
463.330	3330
463.344	3335
463.398	3263
463.424	3328
463.466	3260
463.504	3286
463.533	3418
463.583	3380
463.601	3447
463.663	3673
463.669	3755
463.737	4946
463.743	5064
463.805	7401
463.823	8094
463.873	12849
463.903	15818
463.940	15937
463.982	17852
464.008	16048
464.062	9170
464.076	8733
464.142	3761
464.144	3669
464.211	2996
464.221	2977
464.279	2852
464.301	2897
464.347	3139
464.381	3277
464.414	3902
464.461	4874
464.482	5293
464.540	6393
464.550	6292
464.617	5641
464.620	5611
464.685	5824
464.699	5709
464.753	5767
464.779	6063
464.820	6426
464.859	6816
464.888	6828
464.938	6608
464.956	6625
465.018	6712
465.023	6593
465.091	5006
465.098	4812
465.158	4948
465.177	5094
465.226	5663
465.257	6067
465.293	6030
465.336	5642
465.361	5992
465.416	6885
465.428	7369
465.495	10347
465.496	10391
465.563	15199
465.575	16037
465.631	19658
465.654	21843
465.698	15232
465.734	8261
465.765	7466
465.813	5766
465.833	5246
465.893	4917
465.900	4923
465.968	5076
465.972	5078
466.035	5181
466.052	5203
466.102	5165
466.131	5129
466.170	5114
466.210	5138
466.237	5363
466.290	5732
466.304	5754
466.369	5799
466.372	5833
466.439	6739
466.449	6859
466.506	7513
466.528	7724
466.573	10247
466.607	12178
466.641	17391
466.687	24600
466.708	26810
466.766	33160
466.775	30873
466.842	13769
466.845	12915
466.909	9309
466.925	8592
466.977	8030
467.004	7858
467.044	7960
467.083	8064
467.111	8511
467.163	9356
467.178	9306
467.242	9042
467.245	9036
467.312	8783
467.321	8743
467.379	8864
467.400	8892
467.446	9232
467.480	9462
467.559	8770
467.638	6707
467.717	7460
467.796	7822
467.875	8494
467.955	8661
468.034	12988
468.113	27808
468.192	38945
468.271	11092
468.350	8325
468.429	9275
468.508	10200
468.588	7534
468.667	7282
468.746	8206
468.825	6753
468.904	6415
468.983	7417
469.062	10744
469.141	12771
469.220	6281
469.299	6598
469.378	6548
469.456	7513
469.535	7045
469.614	6496
469.693	7680
469.772	10473
469.851	12979
469.930	9129
470.009	6891
470.088	7254
470.166	8629
470.245	14587
470.324	16084
470.403	10642
470.482	7375
470.560	7272
470.639	6528
470.718	7766
470.797	6786
470.875	8093
470.954	10237
471.033	11321
471.111	4694
471.190	4603
471.269	4486
471.347	5499
471.426	5884
471.505	6773
471.583	6770
471.662	7134
471.740	6151
471.819	6088
471.898	6185
471.976	6411
472.055	5515
472.133	7100
472.212	8097
472.290	8355
472.369	5917
472.447	5898
472.526	5409
472.604	6046
472.683	6612
472.761	6380
472.839	6036
472.918	5933
472.996	5440
473.075	7178
473.153	6676
473.231	5822
473.310	6444
473.388	6715
473.466	5491
473.545	6701
473.623	8572
473.701	9037
473.780	6084
473.858	5314
473.936	7025
474.014	6089
474.093	7124
474.171	8890
474.249	12889
474.327	8250
474.405	5253
474.484	5480
474.562	5383
474.640	5950
474.718	5519
474.796	5675
474.874	5718
474.952	5043
475.030	4975
475.108	5410
475.187	6916
475.265	7674
475.343	10506
475.421	10421
475.499	6320
475.577	6255
475.655	8317
475.733	14348
475.811	25291
475.889	22494
475.966	15235
476.044	5783
476.122	7616
476.200	9972
476.278	6706
476.356	5568
476.434	5716
476.512	6807
476.590	8719
476.667	7767
476.745	4871
476.823	5595
476.901	5306
476.979	5648
477.056	5413
477.134	6386
477.212	5441
477.290	4910
477.367	3365
477.445	5059
477.523	5069
477.601	5268
477.678	4830
477.756	5999
477.834	6653
477.911	4554
477.989	4970
478.066	5627
478.144	5415
478.222	7386
478.299	10974
478.377	10068
478.454	5211
478.532	4837
478.609	5186
478.687	5694
478.764	4645
478.842	5347
478.919	5704
478.997	4990
479.074	4600
479.152	5427
479.229	6592
479.307	5096
479.384	3164
479.461	4759
479.539	4304
479.616	5835
479.694	4322
479.771	5109
479.848	5686
479.926	6827
480.003	8300
480.080	4370
480.157	3888
480.235	4610
480.312	4243
480.389	5378
480.467	7631
480.544	11714
480.621	5573
480.698	5142
480.775	6438
480.853	5956
480.930	4149
481.007	4661
481.084	5618
481.161	6264
481.238	5617
481.315	4284
481.392	3754
481.470	4686
481.547	5126
481.624	4828
481.701	4922
481.778	4667
481.855	6014
481.932	9005
482.009	13582
482.086	9921
482.163	5670
482.240	8262
482.317	14252
482.393	11206
482.470	5009
482.547	5332
482.624	4574
482.701	5268
482.778	5003
482.855	3558
482.932	4461
483.009	4823
483.085	4721
483.162	6176
483.239	5949
483.316	4333
483.393	4397
483.469	5530
483.546	5997
483.623	5564
483.699	4578
483.776	4034
483.853	5048
483.930	8877
484.006	21744
484.083	37111
484.160	18258
484.236	25501
484.313	19245
484.389	14420
484.466	12002
484.543	13325
484.619	13598
484.696	14297
484.772	14484
484.849	14708
484.925	11765
485.002	12915
485.078	12420
485.155	13194
485.231	10765
485.308	10924
485.384	11413
485.461	14472
485.537	22599
485.614	26856
485.690	11547
485.766	10922
485.843	12890
485.919	15716
485.995	17243
486.072	10575
486.148	9894
486.224	9507
486.301	9731
486.377	12744
486.453	13124
486.530	11961
486.606	15035
486.682	16880
486.758	19471
486.835	23728
486.911	19277
486.987	29783
487.063	33532
487.139	38744
487.215	26890
487.292	13700
487.368	10970
487.444	13898
487.520	16291
487.596	17346
487.672	27242
487.748	65556
487.824	101035
487.900	34725
487.976	13459
488.052	13969
488.128	17264
488.204	13167
488.280	11230
488.356	14279
488.432	26533
488.508	41368
488.584	15086
488.660	10323
488.736	10261
488.812	10542
488.888	14266
488.964	19111
489.039	37777
489.115	57231
489.191	33596
489.267	11209
489.343	10741
489.418	8864
489.494	8462
489.570	7414
489.646	8616
489.722	8599
489.797	9324
489.873	14273
489.949	29286
490.024	27050
490.100	9093
490.176	9303
490.251	11002
490.327	13643
490.403	8824
490.478	8315
490.554	6834
490.629	7581
490.705	6474
490.781	8424
490.856	7616
490.932	8665
491.007	9327
491.083	8371
491.158	7792
491.234	11522
491.309	22035
491.385	24980
491.460	8295
491.536	8158
491.611	7860
491.686	8507
491.762	11563
491.837	24220
491.913	42795
491.988	56231
492.063	70548
492.139	20256
492.214	12874
492.289	6932
492.365	6236
492.440	7969
492.515	7398
492.590	7336
492.666	6102
492.741	8556
492.816	12340
492.891	8182
492.967	6715
493.042	5021
493.117	5590
493.192	6202
493.267	6653
493.342	8739
493.418	8904
493.493	6327
493.568	4859
493.643	5721
493.718	7629
493.793	11420
493.868	12882
493.943	7837
494.018	6101
494.093	5246
494.168	6151
494.243	5397
494.318	4852
494.393	5311
494.468	5403
494.543	4687
494.618	5782
494.693	5886
494.768	5419
494.842	5940
494.917	5481
494.992	5488
495.067	4293
495.142	4621
495.217	5151
495.292	5290
495.366	6235
495.441	7836
495.516	10498
495.591	17365
495.665	53046
495.740	119151
495.815	50819
495.890	9127
495.964	6777
496.039	8299
496.114	6673
496.188	7518
496.263	8714
496.338	7468
496.412	7561
496.487	10141
496.561	10458
496.636	10520
496.710	8546
496.785	9537
496.860	11510
496.934	9012
497.009	8123
497.083	8212
497.158	9343
497.232	10751
497.307	12681
497.381	12204
497.455	12387
497.530	16256
497.604	11775
497.679	12483
497.753	19463
497.827	25970
497.902	24000
497.976	29004
498.050	64586
498.125	203032
498.199	227447
498.273	41306
498.348	29786
498.422	24534
498.496	20947
498.570	19313
498.645	13391
498.719	13461
498.793	13840
498.867	21655
498.941	33392
499.016	85284
499.090	219219
499.164	90562
499.238	9636
499.312	9499
499.386	10442
499.460	10648
499.534	9424
499.609	11710
499.683	16435
499.757	18903
499.831	40414
499.905	140065
499.979	150193
500.053	21910
500.127	20430
500.201	13684
500.275	8842
500.349	8203
500.422	10280
500.496	16955
500.570	34928
500.644	81915
500.718	152085
500.792	38673
500.866	8469
500.940	11379
501.013	9401
501.087	8777
501.161	16052
501.235	23881
501.309	48416
501.382	128620
501.456	125607
501.530	25897
501.603	41275
501.677	17607
501.751	6248
501.825	9000
501.898	18185
501.972	51224
502.046	36125
502.119	9576
502.193	22806
502.266	55476
502.340	31319
502.413	24564
502.487	48933
502.561	28745
502.634	9311
502.708	7417
502.781	6728
502.855	5893
502.928	4434
503.002	4259
503.075	4533
503.149	4632
503.222	5316
503.295	5195
503.369	7156
503.442	12008
503.516	37943
503.589	96145
503.662	67336
503.736	20548
503.809	42583
503.882	41464
503.956	52728
504.029	56365
504.102	41322
504.175	57199
504.249	20830
504.322	10543
504.395	8496
504.468	5015
504.542	5350
504.615	4292
504.688	4379
504.761	3319
504.834	6212
504.907	8725
504.980	12475
505.053	6397
505.127	7325
505.200	9770
505.273	8351
505.346	5564
505.419	3841
505.492	4711
505.565	3601
505.638	3165
505.711	3563
505.784	3568
505.857	2736
505.930	4366
506.003	2698
506.076	4842
506.149	5394
506.221	6941
506.294	8159
506.367	21412
506.440	68019
506.513	44001
506.586	8251
506.659	4660
506.731	4673
506.804	5166
506.877	8735
506.950	5640
507.022	3940
507.095	5409
507.168	7048
507.241	4831
507.313	3633
507.386	3814
507.459	6622
507.531	3940
507.604	3599
507.677	3153
507.749	2847
507.822	5422
507.894	10124
507.967	12763
508.040	6409
508.112	6329
508.185	6170
508.257	5378
508.330	8305
508.402	5556
508.475	5218
508.547	5640
508.620	6103
508.692	8825
508.765	5835
508.837	4350
508.909	4177
508.982	4389
509.054	5178
509.127	4612
509.199	3350
509.271	3302
509.344	2748
509.416	4188
509.488	3568
509.560	4345
509.633	4868
509.705	4694
509.777	4978
509.849	6884
509.922	4691
509.994	4421
510.066	4493
510.138	5524
510.210	9686
510.283	9236
510.355	7294
510.427	6796
510.499	5743
510.571	5697
510.643	6457
510.715	9608
510.787	8440
510.859	7019
510.931	7297
511.003	9315
511.076	9703
511.148	5366
511.219	4939
511.291	9017
511.363	11500
511.435	5229
511.507	4322
511.579	4684
511.651	4920
511.723	4612
511.795	4512
511.867	5400
511.939	6177
512.010	12539
512.082	10774
512.154	5240
512.226	5580
512.298	8052
512.369	11996
512.441	9601
512.513	9584
512.585	7302
512.656	6551
512.728	7784
512.800	5939
512.871	5267
512.943	6007
513.015	5007
513.086	6230
513.158	6571
513.230	5866
513.301	9431
513.373	11133
513.444	6261
513.516	4366
513.588	5508
513.659	5889
513.731	7730
513.802	8302
513.874	14995
513.945	24883
514.016	9250
514.088	5703
514.159	6829
514.231	8027
514.302	11103
514.374	8794
514.445	7747
514.516	15366
514.588	12351
514.659	8166
514.730	14627
514.802	12344
514.873	9680
514.944	10749
515.016	8606
515.087	9442
515.158	10326
515.229	16189
515.301	9827
515.372	13975
515.443	8855
515.514	6506
515.585	6019
515.656	6437
515.728	5219
515.799	6464
515.870	6453
515.941	6836
516.012	6833
516.083	7780
516.154	8356
516.225	12492
516.296	10834
516.367	9526
516.438	11607
516.509	16667
516.580	29159
516.651	90025
516.722	283656
516.793	138298
516.864	19222
516.935	18142
517.006	21709
517.077	38610
517.148	98347
517.219	326119
517.289	527190
517.360	129654
517.431	40155
517.502	11112
517.573	10400
517.643	9954
517.714	11575
517.785	11078
517.856	11361
517.926	13179
517.997	16094
518.068	21780
518.138	33688
518.209	69439
518.280	234226
518.350	737424
518.421	327132
518.492	30603
518.562	15760
518.633	16215
518.703	16162
518.774	28755
518.845	63899
518.915	67018
518.986	22133
519.056	15201
519.127	24835
519.197	39592
519.268	79600
519.338	59285
519.408	13706
519.479	15635
519.549	11461
519.620	8802
519.690	6454
519.760	6360
519.831	7479
519.901	6929
519.971	6118
520.042	6936
520.112	7563
520.182	9224
520.253	10602
520.323	8852
520.393	15819
520.463	29103
520.534	18563
520.604	42381
520.674	17258
520.744	15738
520.814	43636
520.885	42671
520.955	28529
521.025	90190
521.095	43825
521.165	7783
521.235	6392
521.305	5532
521.375	6058
521.445	7330
521.515	8779
521.585	10274
521.655	8595
521.725	7841
521.795	7423
521.865	4474
521.935	9238
522.005	8318
522.075	5040
522.145	5499
522.215	5852
522.285	9788
522.355	13542
522.424	23576
522.494	22422
522.564	12305
522.634	21385
522.704	58677
522.774	27103
522.843	7186
522.913	6190
522.983	7821
523.053	6144
523.122	7181
523.192	11296
523.262	31009
523.331	31334
523.401	7178
523.471	4688
523.540	4966
523.610	3581
523.680	4614
523.749	5227
523.819	6111
523.888	7086
523.958	4301
524.027	5463
524.097	5130
524.166	4076
524.236	5100
524.305	7031
524.375	4852
524.444	4426
524.514	5579
524.583	4475
524.653	6040
524.722	7570
524.791	5448
524.861	4460
524.930	4671
524.999	4642
525.069	7485
525.138	6654
525.207	7969
525.277	5940
525.346	5193
525.415	6523
525.484	5331
525.554	6587
525.623	6205
525.692	5148
525.761	5696
525.830	6948
525.900	7735
525.969	13407
526.038	23833
526.107	44668
526.176	128213
526.245	116676
526.314	37642
526.383	66533
526.452	102796
526.522	144911
526.591	167334
526.660	41256
526.729	19682
526.797	24994
526.867	56668
526.935	199015
527.004	345960
527.073	216735
527.142	17951
527.211	8244
527.280	7398
527.349	8272
527.418	5006
527.487	5532
527.555	4798
527.624	5314
527.693	3829
527.762	3912
527.831	3337
527.899	4491
527.968	4041
528.037	4454
528.106	5928
528.174	10213
528.243	8476
528.312	10905
528.380	15361
528.449	5022
528.518	4725
528.586	2120
528.655	3697
528.723	4233
528.792	3772
528.861	4324
528.929	2319
528.998	4295
529.066	3391
529.135	3623
529.203	2872
529.272	2517
529.340	4122
529.409	3905
529.477	3838
529.545	4394
529.614	6704
529.682	6429
529.751	7771
529.819	8930
529.887	5867
529.956	4067
530.024	4023
530.092	3396
530.161	4628
530.229	7693
530.297	4995
530.365	4892
530.434	3609
530.502	2828
530.570	3130
530.638	2893
530.707	3808
530.775	5195
530.843	2950
530.911	3646
530.979	3248
531.047	3231
531.115	3928
531.183	3598
531.252	3320
531.320	3217
531.388	3417
531.456	3385
531.524	3072
531.592	4470
531.660	5550
531.728	3103
531.796	3820
531.864	3385
531.932	3347
532.000	2826
532.067	3881
532.135	4203
532.203	4909
532.271	5534
532.339	9654
532.407	24123
532.475	15388
532.542	7266
532.610	8039
532.678	14623
532.746	46734
532.814	119604
532.881	34530
532.949	6236
533.017	5442
533.084	4054
533.152	4206
533.220	3932
533.287	5491
533.355	4194
533.423	3641
533.490	3459
533.558	4237
533.625	3611
533.693	4828
533.761	4716
533.828	4912
533.896	3789
533.963	9331
534.031	12363
534.098	15117
534.166	7898
534.233	4839
534.300	4700
534.368	5182
534.435	4153
534.503	5683
534.570	7651
534.637	5659
534.705	6523
534.772	9064
534.840	17023
534.907	57916
534.974	84645
535.041	13030
535.109	6303
535.176	5016
535.243	4538
535.310	5316
535.378	4132
535.445	3294
535.512	4558
535.579	4801
535.646	3490
535.714	4477
535.781	5580
535.848	5457
535.915	4667
535.982	4018
536.049	4336
536.116	5599
536.183	3813
536.250	4236
536.317	4657
536.384	6366
536.451	8314
536.518	8822
536.585	6004
536.652	8358
536.719	10771
536.786	8628
536.853	7075
536.920	10613
536.987	18001
537.053	19316
537.120	56899
537.187	58848
537.254	6826
537.321	5390
537.388	5643
537.454	4973
537.521	4954
537.588	4117
537.654	5902
537.721	5849
537.788	6659
537.855	4388
537.921	5203
537.988	5236
538.055	5043
538.121	4941
538.188	5412
538.254	7583
538.321	16548
538.388	11117
538.454	5116
538.521	5108
538.587	4751
538.654	3832
538.720	4555
538.787	4948
538.853	5700
538.920	6262
538.986	6819
539.053	5403
539.119	6050
539.185	4894
539.252	6609
539.318	10443
539.385	7931
539.451	6736
539.517	8164
539.583	9377
539.650	18595
539.716	46251
539.782	15622
539.849	5494
539.915	5946
539.981	5891
540.047	6993
540.114	5517
540.180	6720
540.246	5398
540.312	8005
540.378	16270
540.444	20004
540.510	19646
540.576	49705
540.643	20348
540.709	5093
540.775	5802
540.841	6194
540.907	8772
540.973	15318
541.039	11687
541.105	10382
541.171	6528
541.237	5218
541.303	6238
541.369	7360
541.435	9008
541.500	13830
541.566	9040
541.632	5714
541.698	4642
541.764	5355
541.830	4867
541.896	4859
541.961	5234
542.027	5868
542.093	5879
542.159	5270
542.224	6656
542.290	9511
542.356	13414
542.421	17851
542.487	7522
542.553	5855
542.618	7003
542.684	5786
542.750	6735
542.815	7999
542.881	15249
542.947	43367
543.012	37359
543.078	6265
543.143	5037
543.209	7464
543.274	6636
543.340	8650
543.405	16128
543.471	28666
543.536	8507
543.602	5185
543.667	4217
543.732	6487
543.798	4819
543.863	5650
543.928	5040
543.994	4594
544.059	4425
544.124	4879
544.190	4505
544.255	5175
544.320	6142
544.386	5741
544.451	7707
544.516	11481
544.581	11283
544.646	27204
544.712	46602
544.777	12292
544.842	7173
544.907	7371
544.972	5994
545.037	6452
545.102	7732
545.168	7547
545.233	7771
545.298	8384
545.363	10274
545.428	11266
545.493	18226
545.558	36440
545.623	19390
545.688	7783
545.753	7358
545.818	7143
545.883	8015
545.947	8378
546.012	8959
546.077	9078
546.142	9044
546.207	7888
546.272	11552
546.337	11288
546.401	10849
546.466	8846
546.531	8056
546.596	10256
546.661	10188
546.725	9695
546.790	9304
546.855	9264
546.919	10413
546.984	11899
547.049	12023
547.113	14164
547.178	14311
547.243	15458
547.307	18525
547.372	20741
547.436	22947
547.501	19558
547.565	21767
547.630	21934
547.695	21457
547.759	22145
547.823	21122
547.888	19091
547.952	19139
548.017	20414
548.081	22475
548.146	24658
548.210	24703
548.274	22061
548.339	21241
548.403	20228
548.468	18850
548.532	18622
548.596	19575
548.660	19144
548.725	21206
548.789	24359
548.853	25604
548.917	21442
548.982	24097
549.046	23818
549.110	17594
549.174	18059
549.238	19595
549.303	20809
549.367	21757
549.431	20583
549.495	20695
549.559	20560
549.623	23706
549.687	25585
549.751	29608
549.815	30142
549.879	29824
549.943	25848
550.007	29194
550.071	30347
550.135	29343
550.199	26431
550.263	25767
550.327	24577
550.391	27495
550.455	27257
550.519	27633
550.582	30613
550.646	35162
550.710	38156
550.774	33377
550.838	33489
550.901	33495
550.965	37166
551.029	37338
551.093	42553
551.156	48777
551.220	64615
551.284	79850
551.347	55263
551.411	55561
551.475	61846
551.538	37180
551.602	33356
551.666	30345
551.729	29419
551.793	28269
551.856	28979
551.920	25993
551.983	27039
552.047	27958
552.110	27940
552.174	28099
552.237	28548
552.301	26520
552.364	25250
552.428	24788
552.491	25641
552.554	28062
552.618	28736
552.681	29166
552.745	29679
552.808	40147
552.871	49877
552.934	35366
552.998	27300
553.061	27006
553.124	25938
553.187	24602
553.251	24827
553.314	26847
553.377	25131
553.440	28326
553.503	29182
553.567	31293
553.630	28427
553.693	26173
553.756	27926
553.819	26353
553.882	25416
553.945	25679
554.008	26223
554.071	25626
554.134	26588
554.197	24564
554.260	24410
554.323	25502
554.386	26092
554.449	25766
554.512	26289
554.575	24069
554.638	26094
554.701	24712
554.764	25132
554.827	24208
554.889	22686
554.952	20915
555.015	19908
555.078	21114
555.141	22550
555.203	21289
555.266	20990
555.329	21970
555.391	20867
555.454	20857
555.517	21272
555.580	18948
555.642	18401
555.705	18643
555.768	18243
555.830	18319
555.893	17206
555.955	17544
556.018	16823
556.080	16866
556.143	17214
556.206	17183
556.268	17135
556.330	16996
556.393	17401
556.455	17543
556.518	18834
556.580	21212
556.643	15849
556.705	14325
556.767	14005
556.830	16172
556.892	16835
556.955	19808
557.017	17051
557.079	14834
557.142	14218
557.204	16525
557.266	23058
557.328	21580
557.391	13331
557.453	12695
557.515	12699
557.577	14473
557.639	15828
557.701	13429
557.764	11903
557.826	12079
557.888	14217
557.950	14942
558.012	17431
558.074	24800
558.136	43378
558.198	108118
558.260	48949
558.322	14112
558.384	14204
558.446	17210
558.508	19725
558.570	26141
558.632	41063
558.694	68167
558.756	90455
558.818	192280
558.880	500810
558.942	194681
559.003	110102
559.065	65681
559.127	21617
559.189	23944
559.251	33103
559.312	53426
559.374	99239
559.436	308304
559.498	192159
559.559	26702
559.621	24516
559.683	34779
559.744	57791
559.806	138654
559.868	247302
559.929	56560
559.991	30492
560.052	40983
560.114	105997
560.176	86030
560.237	58208
560.299	108061
560.360	30357
560.422	11236
560.483	11091
560.545	10709
560.606	9155
560.667	8800
560.729	10350
560.790	8194
560.852	9156
560.913	9690
560.974	9001
561.036	9107
561.097	8428
561.158	8655
561.220	8984
561.281	9044
561.342	9567
561.403	12582
561.465	14850
561.526	26361
561.587	36762
561.648	12729
561.709	9498
561.771	8505
561.832	8349
561.893	7957
561.954	8560
562.015	8472
562.076	8496
562.137	8350
562.198	7737
562.259	8541
562.320	9474
562.381	9654
562.442	13473
562.503	11569
562.564	8228
562.625	7815
562.686	8521
562.747	9277
562.808	9761
562.869	7421
562.930	11161
562.991	9986
563.051	10070
563.112	8576
563.173	7531
563.234	8504
563.294	8954
563.355	8386
563.416	9562
563.477	9247
563.537	8468
563.598	8802
563.659	8705
563.720	8422
563.780	8331
563.841	10030
563.901	8999
563.962	8307
564.023	8535
564.083	8254
564.144	9083
564.204	9163
564.265	9047
564.325	11640
564.386	16762
564.446	17616
564.507	8544
564.567	8557
564.628	8701
564.688	8986
564.749	8695
564.809	10780
564.869	10207
564.930	9255
564.990	9437
565.050	8201
565.111	8904
565.171	8060
565.231	8374
565.292	9165
565.352	8158
565.412	9184
565.472	9319
565.532	8789
565.593	9096
565.653	8518
565.713	9256
565.773	10422
565.833	11153
565.893	13854
565.953	10462
566.013	10225
566.074	11287
566.134	12850
566.194	17980
566.254	19765
566.314	14358
566.374	10471
566.434	11182
566.494	10932
566.554	11908
566.614	11388
566.673	11561
566.733	11547
566.793	12485
566.853	13184
566.913	13031
566.973	13910
567.033	14832
567.092	14779
567.152	14654
567.212	13793
567.272	13517
567.331	15675
567.391	15940
567.451	16763
567.511	19346
567.570	19707
567.630	15197
567.690	14394
567.749	14780
567.809	14887
567.868	16968
567.928	19899
567.988	23610
568.047	28298
568.107	34324
568.166	46376
568.226	68687
568.285	96108
568.345	82459
568.404	63597
568.464	54165
568.523	49300
568.582	53497
568.642	62180
568.701	79854
568.761	107815
568.820	164264
568.879	164186
568.939	117541
568.998	85673
569.057	65232
569.116	51841
569.176	42093
569.235	35140
569.294	29630
569.353	26277
569.413	23962
569.472	21393
569.531	19288
569.590	17579
569.649	16694
569.708	15739
569.767	16428
569.827	17884
569.886	16695
569.945	13272
570.004	13699
570.063	13221
570.122	13321
570.181	13683
570.240	13173
570.299	14460
570.358	14465
570.417	11857
570.475	10607
570.534	11661
570.593	11982
570.652	11753
570.711	12301
570.770	11318
570.829	12802
570.887	11252
570.946	12858
571.005	10992
571.064	10930
571.122	11421
571.181	12181
571.240	10595
571.299	10120
571.357	10189
571.416	10672
571.475	10883
571.533	13041
571.592	10314
571.650	10661
571.709	8911
571.768	9630
571.826	9543
571.885	9460
571.943	8677
572.002	8647
572.060	8713
572.119	8382
572.177	8378
572.236	8529
572.294	9049
572.352	8977
572.411	9822
572.469	7790
572.528	9014
572.586	8704
572.644	10145
572.703	14186
572.761	9934
572.819	8573
572.877	8175
572.936	7919
572.994	7963
573.052	8411
573.110	8701
573.169	8976
573.227	7984
573.285	8129
573.343	8640
573.401	8182
573.459	8684
573.517	8709
573.576	8566
573.634	8396
573.692	9188
573.750	8834
573.808	8428
573.866	9349
573.924	10704
573.982	10269
574.040	8695
574.098	8403
574.155	8064
574.213	8116
574.271	7525
574.329	8581
574.387	8579
574.445	8000
574.503	7770
574.560	7395
574.618	6905
574.676	7455
574.734	7996
574.792	8054
574.849	7875
574.907	7215
574.965	8236
575.022	7297
575.080	7011
575.138	8032
575.195	8269
575.253	8096
575.311	8267
575.368	7836
575.426	7556
575.483	7402
575.541	7709
575.598	7600
575.656	7896
575.713	7710
575.771	7160
575.828	8531
575.886	7932
575.943	8640
576.001	7474
576.058	8608
576.115	8575
576.173	9176
576.230	10645
576.287	12523
576.345	10899
576.402	9341
576.459	8409
576.517	8528
576.574	9958
576.631	9156
576.688	8653
576.746	8156
576.803	8490
576.860	8093
576.917	8617
576.974	9284
577.031	8695
577.089	8252
577.146	7907
577.203	8541
577.260	8474
577.317	10477
577.374	9354
577.431	10185
577.488	8672
577.545	7891
577.602	7776
577.659	7905
577.716	8169
577.773	7584
577.830	8132
577.886	7884
577.943	8384
578.000	7727
578.057	8695
578.114	8363
578.171	8274
578.227	8443
578.284	8395
578.341	9146
578.398	8604
578.454	9881
578.511	10569
578.568	11793
578.625	9808
578.681	9370
578.738	8028
578.794	9254
578.851	8718
578.908	8374
578.964	9123
579.021	9557
579.077	8596
579.134	9858
579.190	8547
579.247	8722
579.303	9218
579.360	8208
579.416	8528
579.473	8333
579.529	8237
579.586	8809
579.642	9116
579.698	8865
579.755	8866
579.811	8758
579.867	8868
579.924	8414
579.980	7750
580.036	8955
580.093	8939
580.149	9009
580.205	8272
580.261	9708
580.317	9561
580.374	10358
580.430	10947
580.486	12341
580.542	10071
580.598	9346
580.619	9351
580.654	9355
580.692	9519
580.710	9591
580.765	9831
580.767	9833
580.823	10481
580.838	10346
580.879	9968
580.911	10076
580.935	10142
580.984	9845
580.991	9800
581.047	10261
581.057	10204
581.103	9901
581.130	9682
581.159	9437
581.203	10654
581.215	10977
581.270	10841
581.276	10781
581.326	10080
581.349	10158
581.382	10317
581.422	11120
581.438	11415
581.494	11315
581.494	11325
581.550	11481
581.567	11635
581.606	11917
581.640	11944
581.661	11955
581.713	12624
581.717	12665
581.773	12462
581.786	12128
581.829	11127
581.859	11123
581.885	11010
581.932	12196
581.940	12442
581.996	12244
582.004	12380
582.052	12795
582.077	12250
582.107	11787
582.150	12308
582.163	12392
582.219	12873
582.223	12918
582.274	13524
582.296	13375
582.330	13147
582.368	13702
582.386	13876
582.441	13157
582.441	13148
582.497	13243
582.514	13284
582.552	13506
582.587	13558
582.608	13536
582.659	13584
582.663	13588
582.719	14482
582.732	14383
582.774	13910
582.805	14229
582.830	14641
582.877	15399
582.885	15452
582.941	14374
582.950	14495
582.996	15459
583.023	16003
583.052	16457
583.095	15568
583.107	15379
583.162	16566
583.168	16614
583.218	16829
583.240	16779
583.273	16603
583.313	16458
583.328	16449
583.384	16807
583.385	16785
583.439	16414
583.458	16900
583.494	17543
583.531	17682
583.549	17872
583.603	17597
583.605	17577
583.660	17990
583.676	18043
583.715	18607
583.748	18606
583.770	18618
583.820	19432
583.825	19513
583.881	20000
583.893	20052
583.936	19778
583.965	19538
583.991	19559
584.038	19858
584.046	19942
584.101	20546
584.110	20674
584.156	21388
584.183	21219
584.211	20941
584.255	20999
584.266	21087
584.321	20924
584.328	21084
584.376	22275
584.400	22220
584.431	22448
584.472	23093
584.486	23226
584.541	23605
584.545	23620
584.596	24609
584.617	24797
584.651	25117
584.689	25937
584.706	26323
584.761	26948
584.762	26916
584.816	26297
584.834	26593
584.871	27254
584.906	27714
584.926	28173
584.978	28694
584.980	28747
585.035	30502
585.051	30801
585.090	31858
585.123	32691
585.145	33585
585.195	35384
585.200	35639
585.254	38171
585.267	38938
585.309	41822
585.340	44530
585.364	46869
585.412	51038
585.419	51873
585.473	61537
585.484	63635
585.528	75792
585.556	84650
585.583	104010
585.628	140676
585.637	162099
585.692	315292
585.700	344714
585.747	531714
585.772	563921
585.801	413819
585.845	195204
585.856	167305
585.910	79495
585.917	69473
585.965	60030
585.989	55097
586.019	53040
586.061	51701
586.074	51889
586.128	51533
586.133	51459
586.183	53129
586.205	53408
586.237	53698
586.277	54239
586.292	54405
586.346	54558
586.349	54497
586.401	56297
586.421	56638
586.455	57974
586.493	59377
586.509	62072
586.564	71903
586.565	72070
586.618	96879
586.637	103393
586.672	98446
586.709	88188
586.727	82879
586.781	73018
586.781	73178
586.835	71516
586.853	71075
586.889	70682
586.925	69627
586.944	70166
586.996	72369
586.998	72635
587.052	75811
587.068	76750
587.106	79154
587.140	80364
587.161	81460
587.212	84253
587.215	84666
587.269	88910
587.284	89957
587.323	93290
587.356	94967
587.377	96562
587.427	101129
587.431	101807
587.485	107683
587.499	108695
587.539	112822
587.571	116297
587.593	119745
587.643	126557
587.648	127634
587.702	135786
587.715	137662
587.755	145628
587.786	150927
587.810	156234
587.858	166127
587.864	167942
587.917	182199
587.930	185062
587.971	200572
588.001	211348
588.025	222032
588.073	242058
588.079	245322
588.133	269862
588.145	274562
588.187	302372
588.217	322365
588.241	343805
588.288	382655
588.295	390087
588.348	447174
588.360	458747
588.402	518689
588.431	559741
588.456	606611
588.503	695732
588.510	714769
588.564	862723
588.575	892865
588.617	1068446
588.646	1187582
588.671	1347174
588.718	1650778
588.725	1724814
588.778	2284544
588.789	2394586
588.832	2927135
588.861	3276883
588.886	3306571
588.932	3262616
588.939	3184687
588.993	2426146
589.004	2294988
589.047	2970107
589.075	3383828
589.100	3360158
589.147	3209758
589.154	3130772
589.207	2445032
589.218	2301045
589.261	2048257
589.290	1876273
589.314	1892143
589.361	1921642
589.368	1972788
589.421	2367983
589.433	2449217
589.475	2926824
589.504	3239485
589.528	3182024
589.576	2952854
589.582	2964816
589.635	3039382
589.647	3038062
589.689	2935076
589.718	2817221
589.742	2435360
589.790	1660908
589.795	1618661
589.849	1183756
589.861	1081331
589.902	925362
589.932	805348
589.955	741309
590.004	600762
590.009	594303
590.062	504313
590.075	480902
590.115	438372
590.146	403092
590.168	386945
590.218	346623
590.222	345505
590.275	316393
590.289	307645
590.328	291314
590.360	276331
590.381	268704
590.431	247677
590.435	247674
590.488	232823
590.503	227989
590.541	220137
590.574	211568
590.594	208119
590.645	196985
590.647	197314
590.700	186760
590.716	183038
590.753	177954
590.787	171978
590.806	170161
590.859	162686
590.859	163196
590.912	157545
590.930	155065
590.965	153292
591.001	150410
591.018	149530
591.071	145373
591.072	144782
591.124	141067
591.143	139003
591.177	137684
591.214	135275
591.230	135593
591.283	135027
591.285	134483
591.336	135264
591.356	134866
591.389	134026
591.427	131746
591.442	130443
591.495	123789
591.498	122819
591.547	119611
591.569	117423
591.600	117163
591.640	115977
591.653	116069
591.706	114246
591.711	113625
591.759	115682
591.782	116016
591.811	119232
591.853	122865
591.864	122205
591.917	116193
591.924	114853
591.969	110877
591.995	107943
592.022	108658
592.066	108665
592.075	109654
592.127	113087
592.137	113280
592.180	123137
592.208	128730
592.233	124150
592.279	113878
592.285	113504
592.338	106490
592.350	104457
592.390	103951
592.421	102843
592.443	103613
592.491	103942
592.495	104195
592.548	101789
592.562	100705
592.600	102177
592.633	102677
592.653	102120
592.704	98994
592.705	99591
592.775	100776
592.846	101200
592.916	102077
592.987	107582
593.058	104743
593.128	98268
593.199	95639
593.270	92792
593.341	94024
593.411	94218
593.482	96966
593.553	94938
593.623	92840
593.694	94443
593.764	99122
593.835	94339
593.906	91974
593.976	91189
594.047	95345
594.117	102618
594.188	110634
594.258	93777
594.329	92199
594.399	91384
594.470	93325
594.540	91849
594.611	93781
594.681	92230
594.751	93683
594.822	96586
594.892	99726
594.963	100932
595.033	101872
595.103	101149
595.174	103926
595.244	121834
595.314	157988
595.384	117332
595.455	100949
595.525	104862
595.595	107772
595.665	108687
595.736	106109
595.806	104781
595.876	106651
595.946	105015
596.016	107502
596.087	110005
596.157	110849
596.227	109284
596.297	112364
596.367	116202
596.437	124874
596.507	139382
596.577	164940
596.647	136142
596.717	125538
596.787	125529
596.857	127209
596.927	126795
596.997	128105
597.067	126277
597.137	129972
597.207	131087
597.277	132057
597.347	129162
597.417	126302
597.487	125787
597.557	130057
597.626	131429
597.696	136176
597.766	142649
597.836	161965
597.906	139538
597.975	118984
598.045	116959
598.115	121116
598.185	125817
598.254	137130
598.324	146670
598.394	152837
598.464	152704
598.533	145570
598.603	138429
598.672	135669
598.742	135599
598.812	135154
598.881	136927
598.951	135577
599.020	134247
599.090	137685
599.159	139866
599.229	137685
599.299	133563
599.368	137204
599.437	136235
599.507	129679
599.576	127779
599.646	123316
599.715	123492
599.785	124949
599.854	122135
599.924	128316
599.993	125291
600.062	121570
600.132	122433
600.201	127527
600.270	140904
600.340	152101
600.409	143143
600.478	144734
600.547	144892
600.617	144930
600.686	122324
600.755	113886
600.824	111733
600.894	109568
600.963	104083
601.032	102650
601.101	101634
601.170	98777
601.239	99292
601.308	102096
601.378	103992
601.447	97414
601.516	98495
601.585	100531
601.654	107744
601.723	106904
601.792	101537
601.861	104854
601.930	107693
601.999	116408
602.068	110770
602.137	116531
602.206	122831
602.275	114598
602.343	121506
602.412	128220
602.481	114754
602.550	112909
602.619	112069
602.688	116788
602.756	116467
602.825	114052
602.894	115036
602.963	117862
603.032	119126
603.100	118989
603.169	117725
603.238	117881
603.307	118649
603.375	120638
603.444	121226
603.513	123263
603.581	124619
603.650	127438
603.719	123358
603.787	123146
603.856	126082
603.924	130429
603.993	134993
604.061	133027
604.130	140256
604.198	144104
604.267	144751
604.335	146347
604.404	146553
604.472	149787
604.541	149417
604.609	151135
604.678	152808
604.746	152493
604.815	155333
604.883	160753
604.951	158180
605.020	160372
605.088	163366
605.156	162948
605.225	166784
605.293	167549
605.361	166265
605.429	168329
605.498	170600
605.566	177273
605.634	180732
605.702	186791
605.771	189457
605.839	194279
605.907	188134
605.975	183544
606.043	177909
606.111	177852
606.180	177474
606.248	177820
606.316	176355
606.384	177227
606.452	187558
606.520	198655
606.588	195394
606.656	179362
606.724	179737
606.792	170083
606.860	157482
606.928	142517
606.996	135718
607.064	132006
607.132	134248
607.200	140261
607.267	147129
607.335	148661
607.403	153418
607.471	153007
607.539	144343
607.607	147094
607.674	135703
607.742	132409
607.810	136166
607.878	135061
607.946	132425
608.013	138424
608.081	142766
608.149	147434
608.216	143739
608.284	149373
608.352	149133
608.419	151646
608.487	159986
608.555	157344
608.622	145272
608.690	150791
608.757	165236
608.825	175005
608.893	172760
608.960	173060
609.028	181635
609.095	177896
609.163	166711
609.230	147226
609.298	132931
609.365	133346
609.432	142613
609.500	153050
609.567	171080
609.635	195107
609.702	212256
609.769	210367
609.837	187718
609.904	158275
609.971	160998
610.039	187127
610.106	251731
610.173	473361
610.241	1169453
610.308	1529097
610.375	812462
610.442	307418
610.509	186555
610.577	164196
610.644	156808
610.711	155321
610.778	158098
610.845	159077
610.912	166784
610.980	175171
611.047	173459
611.114	174892
611.181	169653
611.248	161579
611.315	167600
611.382	175465
611.449	177988
611.516	183595
611.583	182691
611.650	184719
611.717	185137
611.784	192576
611.851	202510
611.918	226211
611.984	268149
612.051	375060
612.118	738285
612.185	1917152
612.252	2375925
612.319	548279
612.386	283486
612.452	242167
612.519	224991
612.586	228390
612.653	223815
612.719	213174
612.786	209865
612.853	194984
612.919	182802
612.986	187615
613.053	179795
613.120	170397
613.186	161785
613.253	162615
613.319	159278
613.386	163502
613.453	166478
613.519	175228
613.586	183457
613.652	223459
613.719	204046
613.785	203208
613.852	170663
613.918	166054
613.985	163449
614.051	170662
614.118	173865
614.184	171733
614.250	163420
614.317	169677
614.383	164275
614.449	168682
614.516	166516
614.582	170339
614.648	166827
614.715	163124
614.781	164386
614.847	160849
614.914	165712
614.980	162454
615.046	159714
615.112	161643
615.179	165301
615.245	173725
615.311	188079
615.377	229686
615.443	296962
615.509	234371
615.575	197798
615.642	189140
615.708	189867
615.774	204900
615.840	222133
615.906	258336
615.972	345938
616.038	589954
616.104	1129120
616.170	2288256
616.236	3392478
616.302	962642
616.368	429191
616.434	316970
616.500	249600
616.565	253323
616.631	322726
616.697	309759
616.763	267475
616.829	362971
616.895	679566
616.961	906710
617.026	475273
617.092	235514
617.158	191091
617.224	182042
617.289	168534
617.355	158921
617.421	154341
617.487	155803
617.552	146013
617.618	142542
617.684	142177
617.749	143646
617.815	137064
617.880	134292
617.946	133799
618.012	134614
618.077	138631
618.143	133259
618.208	130449
618.274	139221
618.339	146250
618.405	129733
618.470	119647
618.536	124118
618.601	126182
618.667	122333
618.732	110159
618.798	110274
618.863	107726
618.928	106921
618.994	110183
619.059	117603
619.124	139437
619.190	137053
619.255	109897
619.320	107443
619.386	106160
619.451	107024
619.516	102604
619.581	103094
619.647	105972
619.712	106782
619.777	102596
619.842	102984
619.907	109377
619.972	108198
620.038	111008
620.103	104752
620.168	102678
620.233	102386
620.298	101660
620.363	103314
620.428	104544
620.493	107489
620.558	109261
620.623	109568
620.688	109233
620.753	108908
620.818	110254
620.883	112053
620.948	110856
621.013	109220
621.078	111507
621.143	110918
621.207	116449
621.272	114186
621.337	116552
621.402	116216
621.467	122829
621.532	135339
621.596	124105
621.661	115640
621.726	106763
621.791	109130
621.855	111255
621.920	117987
621.985	115476
622.049	123772
622.114	123709
622.179	119453
622.243	119123
622.308	122008
622.373	122971
622.437	125802
622.502	117201
622.566	115086
622.631	114784
622.695	117087
622.760	115645
622.824	116179
622.889	117472
622.953	123927
623.018	148948
623.082	185383
623.147	129947
623.211	122465
623.276	122748
623.340	118920
623.404	108913
623.469	110509
623.533	110263
623.597	109639
623.662	107100
623.726	105485
623.790	98255
623.854	96351
623.919	97172
623.983	97861
624.047	102119
624.111	100674
624.176	102852
624.240	109173
624.304	121648
624.368	105902
624.432	101668
624.496	104239
624.560	111185
624.625	127079
624.689	113578
624.753	109635
624.817	107629
624.881	104389
624.945	98092
625.009	93070
625.073	96046
625.137	103888
625.201	119839
625.265	132867
625.329	104196
625.393	103380
625.456	105647
625.520	105288
625.584	110080
625.648	124296
625.712	146753
625.776	237034
625.839	322822
625.903	208851
625.967	102462
626.031	118013
626.095	195252
626.158	140638
626.222	87813
626.286	79171
626.349	75054
626.413	72949
626.477	75664
626.540	76316
626.604	71372
626.668	71931
626.731	69697
626.795	72179
626.858	73319
626.922	70526
626.986	70647
627.049	68625
627.113	70550
627.176	69470
627.240	67725
627.303	68220
627.366	69801
627.430	70011
627.493	68916
627.557	70396
627.620	68653
627.684	70299
627.747	71251
627.810	69630
627.874	64098
627.937	61328
628.000	63066
628.064	65723
628.127	59756
628.190	57749
628.253	57095
628.317	56829
628.380	54503
628.443	54742
628.506	56527
628.569	54589
628.632	49643
628.696	49238
628.759	49358
628.822	48722
628.885	47439
628.948	47741
629.011	48889
629.074	49349
629.137	46652
629.200	47287
629.263	50488
629.326	47135
629.389	44617
629.452	44793
629.515	47917
629.578	47479
629.641	48135
629.704	48497
629.767	50199
629.830	45147
629.892	43775
629.955	43824
630.018	46940
630.081	49657
630.144	62492
630.207	54771
630.269	51858
630.332	48671
630.395	48734
630.458	42972
630.520	42624
630.583	43480
630.646	40326
630.708	40561
630.771	41915
630.834	42523
630.896	41277
630.959	41478
631.021	41679
631.084	43194
631.146	44579
631.209	50838
631.272	44917
631.334	42657
631.397	42628
631.459	43446
631.522	46423
631.584	47283
631.646	48744
631.709	53371
631.771	61198
631.834	60800
631.896	47828
631.958	43208
632.021	42177
632.083	42065
632.145	42080
632.208	41893
632.270	43577
632.332	40557
632.395	38837
632.457	41525
632.519	40168
632.581	38559
632.643	39070
632.706	39998
632.768	38059
632.830	38125
632.892	38119
632.954	38779
633.016	39861
633.078	39220
633.141	38196
633.203	38180
633.265	39262
633.327	38024
633.389	38882
633.451	41681
633.513	51255
633.575	50246
633.637	49777
633.698	51555
633.760	43649
633.822	41780
633.884	43128
633.946	43048
634.008	43606
634.070	44490
634.132	46089
634.193	49793
634.255	53360
634.317	56320
634.379	56175
634.441	52933
634.502	48516
634.564	44913
634.626	40631
634.687	39024
634.749	38409
634.811	38103
634.873	36260
634.934	37782
634.996	36167
635.057	37546
635.119	36384
635.181	38533
635.242	38230
635.304	37201
635.365	38731
635.427	38452
635.488	40192
635.550	37153
635.611	37643
635.673	38239
635.734	41613
635.796	42981
635.857	47505
635.918	47858
635.980	52051
636.041	55756
636.102	58035
636.164	60638
636.225	57341
636.286	54457
636.348	48427
636.409	44232
636.470	40971
636.531	38832
636.593	40485
636.654	40105
636.715	33967
636.776	32394
636.838	31762
636.899	32324
636.960	32204
637.021	32535
637.082	30925
637.143	30752
637.204	29505
637.265	29721
637.326	30183
637.387	30471
637.448	29770
637.509	29505
637.570	30856
637.631	29118
637.692	28730
637.753	28067
637.814	27373
637.875	28061
637.936	28930
637.997	27740
638.058	28998
638.119	29947
638.179	29578
638.240	27507
638.301	27797
638.362	27205
638.423	27642
638.483	27800
638.544	25781
638.605	26170
638.666	25376
638.726	26826
638.787	25846
638.848	25966
638.908	25580
638.969	25746
639.030	25744
639.090	25177
639.151	26858
639.211	28503
639.272	33740
639.332	52575
639.393	48946
639.453	28599
639.514	30013
639.574	27433
639.635	24847
639.695	25481
639.756	25022
639.816	27271
639.877	30919
639.937	42056
639.997	71049
640.058	41645
640.118	26293
640.178	24094
640.239	23397
640.299	23716
640.359	24067
640.420	24737
640.480	26481
640.540	30125
640.600	31286
640.661	30319
640.721	28662
640.781	35547
640.841	31219
640.901	25445
640.961	24687
641.021	27572
641.082	31226
641.142	41662
641.202	39107
641.262	24214
641.322	23771
641.382	23096
641.442	23176
641.502	22635
641.562	22651
641.622	22857
641.682	23704
641.742	27320
641.802	27726
641.861	25506
641.921	25752
641.981	28204
642.041	28184
642.101	32571
642.161	32177
642.221	22583
642.280	19817
642.340	20971
642.400	21016
642.460	23351
642.519	21696
642.579	22288
642.639	22230
642.698	22213
642.758	23893
642.818	21898
642.877	22990
642.937	23659
642.997	26650
643.056	37641
643.116	34840
643.175	24246
643.235	22957
643.294	24270
643.354	25433
643.414	27457
643.473	32260
643.532	39113
643.592	51821
643.651	79364
643.711	135822
643.770	252912
643.830	537190
643.889	1574386
643.948	965404
644.008	119581
644.067	54120
644.126	41346
644.186	33478
644.245	29958
644.304	24337
644.363	26179
644.423	23536
644.482	24134
644.541	24225
644.600	24112
644.659	29876
644.719	36096
644.778	51213
644.837	83064
644.896	150497
644.955	401842
645.014	328638
645.073	51577
645.132	32255
645.191	29236
645.250	25461
645.309	26925
645.368	26837
645.427	31384
645.486	43240
645.545	95170
645.604	58048
645.663	24413
645.722	22673
645.781	26243
645.840	28293
645.898	34922
645.957	48337
646.016	71607
646.075	127016
646.134	240480
646.192	534074
646.251	1396503
646.310	497903
646.369	74700
646.427	44996
646.486	36856
646.545	28279
646.603	24922
646.662	21766
646.721	21891
646.779	21866
646.838	22013
646.896	27657
646.955	35847
647.014	51680
647.072	85859
647.131	224339
647.189	270087
647.248	41127
647.306	23502
647.365	19903
647.423	18055
647.481	18332
647.540	17051
647.598	17458
647.657	16964
647.715	16558
647.773	17031
647.832	16982
647.890	15424
647.948	15731
648.007	17166
648.065	14285
648.123	15325
648.181	17515
648.240	16013
648.298	15320
648.356	15748
648.414	16345
648.472	16559
648.531	15321
648.589	15599
648.647	15215
648.705	16408
648.763	15607
648.821	17038
648.879	17024
648.937	19048
648.995	21880
649.053	26981
649.111	39157
649.169	62002
649.227	109559
649.285	201584
649.343	583026
649.401	713228
649.459	122228
649.516	82574
649.574	32120
649.632	27891
649.690	27375
649.748	31885
649.806	40062
649.863	63556
649.921	143985
649.979	231017
650.037	44967
650.094	19415
650.152	16917
650.210	15429
650.268	16319
650.325	14963
650.383	14414
650.440	14100
650.498	13685
650.556	14177
650.613	12401
650.671	14443
650.728	13107
650.786	15608
650.843	16267
650.901	16353
650.958	12780
651.016	12709
651.073	12042
651.131	12701
651.188	12129
651.246	13711
651.303	11612
651.360	13168
651.418	11857
651.475	12584
651.532	11077
651.590	11806
651.647	11798
651.704	11965
651.762	11295
651.819	13125
651.876	12056
651.933	11310
651.990	11225
652.048	11501
652.105	11379
652.162	11342
652.219	10861
652.276	11840
652.333	11216
652.390	10645
652.448	11627
652.505	11785
652.562	11512
652.619	11211
652.676	11273
652.733	11980
652.790	11348
652.847	10213
652.904	11507
652.961	11176
653.017	9586
653.074	11727
653.131	11600
653.188	10375
653.245	10547
653.302	10765
653.359	10508
653.415	11311
653.472	10829
653.529	10815
653.586	11251
653.642	10406
653.699	10748
653.756	10083
653.813	9890
653.869	10060
653.926	8941
653.983	9744
654.039	9602
654.096	10576
654.152	11770
654.209	10770
654.266	11558
654.322	11272
654.379	13063
654.435	12995
654.492	13565
654.548	16301
654.605	27820
654.661	22220
654.717	11125
654.774	12295
654.830	12134
654.887	12015
654.943	11180
655.000	11726
655.056	10943
655.112	12608
655.168	10499
655.225	11772
655.281	12785
655.337	14093
655.394	22429
655.450	22788
655.506	16369
655.562	20486
655.618	26286
655.675	11505
655.731	11670
655.787	10498
655.843	10814
655.899	10291
655.955	10289
656.011	11257
656.067	9376
656.123	11480
656.179	10566
656.235	11105
656.291	9257
656.347	11688
656.403	10678
656.459	11203
656.515	11642
656.571	13474
656.627	11306
656.683	10651
656.739	10793
656.795	11401
656.850	10675
656.906	13410
656.962	12689
657.018	10608
657.074	10136
657.129	13197
657.185	15198
657.241	22935
657.297	27116
657.352	12547
657.408	10994
657.464	11907
657.519	12210
657.575	9086
657.630	10506
657.686	10122
657.742	9031
657.797	11018
657.853	9288
657.908	11301
657.964	9504
658.019	9485
658.075	9885
658.130	10399
658.186	9693
658.241	9153
658.297	9211
658.352	9726
658.407	9535
658.463	9601
658.518	9914
658.573	9309
658.629	8760
658.684	9293
658.739	9514
658.795	8532
658.850	8400
658.905	9190
658.960	9864
659.016	8502
659.071	9187
659.126	10394
659.181	11755
659.236	16163
659.291	22895
659.346	14803
659.401	12643
659.457	11326
659.512	8475
659.567	10025
659.622	9235
659.677	10304
659.732	9775
659.787	10098
659.842	9566
659.897	14201
659.952	11656
660.007	9340
660.061	8946
660.116	9406
660.171	8807
660.226	10384
660.281	10016
660.336	8822
660.391	9548
660.445	9000
660.500	9364
660.555	9274
660.610	8501
660.664	9845
660.719	8733
660.774	9284
660.828	9274
660.883	9595
660.938	9399
660.992	9019
661.047	9083
661.101	9120
661.156	8489
661.211	8700
661.265	8368
661.320	8562
661.374	9110
661.429	8152
661.483	8247
661.538	9279
661.592	7633
661.647	9476
661.701	8197
661.755	8720
661.810	9216
661.864	8279
661.919	8854
661.973	9333
662.027	9252
662.081	8176
662.136	8538
662.190	9203
662.244	10147
662.299	9547
662.353	8651
662.407	8613
662.461	8209
662.515	9437
662.569	9045
662.624	9702
662.678	8966
662.732	10167
662.786	9002
662.840	9577
662.894	9797
662.948	8855
663.002	8033
663.056	9176
663.110	7765
663.164	9517
663.218	8992
663.272	9546
663.326	9704
663.380	10531
663.434	10708
663.488	9913
663.542	9913
663.595	10258
663.649	8681
663.703	10122
663.757	8651
663.811	8429
663.864	8212
663.918	9674
663.972	8623
664.026	9141
664.079	7789
664.133	9747
664.187	9289
664.240	8515
664.294	8265
664.348	8796
664.401	8621
664.455	7951
664.508	7982
664.562	8655
664.615	9441
664.669	9525
664.722	8195
664.776	7922
664.829	8223
664.883	9191
664.936	8220
664.990	9432
665.043	9233
665.097	9909
665.150	10435
665.203	10843
665.257	9374
665.310	9982
665.363	9391
665.417	10478
665.470	9603
665.523	10781
665.576	9785
665.630	10112
665.683	8857
665.736	9986
665.789	9859
665.842	9859
665.895	9643
665.949	10681
666.002	8427
666.055	9562
666.108	10599
666.161	10035
666.214	10187
666.267	11343
666.320	11378
666.373	12496
666.426	9906
666.479	9877
666.532	11099
666.585	11436
666.638	13126
666.691	11844
666.744	12074
666.796	12807
666.849	12211
666.902	10789
666.955	9548
667.008	9650
667.060	8700
667.113	8160
667.166	8529
667.219	9725
667.271	9735
667.324	9872
667.377	9330
667.430	9162
667.482	8926
667.535	9437
667.587	9834
667.640	11737
667.693	12680
667.745	18456
667.798	26510
667.850	14663
667.903	9465
667.955	9749
668.008	9396
668.060	10873
668.113	10654
668.165	10615
668.218	11730
668.270	10596
668.322	10162
668.375	10061
668.427	9920
668.479	9239
668.532	9690
668.584	10525
668.636	10187
668.689	9649
668.741	10611
668.793	10243
668.845	10068
668.898	10472
668.950	9818
669.002	10713
669.054	9870
669.106	10075
669.158	11074
669.211	11240
669.263	10730
669.315	12077
669.367	10944
669.419	9998
669.471	13032
669.523	13119
669.575	14341
669.627	16397
669.679	12114
669.731	11931
669.783	12413
669.835	14023
669.886	13797
669.938	13938
669.990	12882
670.042	13017
670.094	13138
670.146	14595
670.197	16571
670.249	20523
670.301	22534
670.353	29178
670.404	40500
670.456	55191
670.508	83581
670.560	134126
670.611	218936
670.663	369145
670.715	706022
670.766	1270641
670.818	978364
670.869	257926
670.921	90703
670.972	56637
671.024	39783
671.075	30049
671.127	24716
671.178	21538
671.230	20393
671.281	19299
671.333	16731
671.384	17275
671.436	18658
671.487	21237
671.538	22556
671.590	28443
671.641	39850
671.692	56916
671.744	103980
671.795	127468
671.846	58127
671.897	27743
671.949	20502
672.000	17668
672.051	14623
672.102	13665
672.153	12034
672.204	12476
672.256	11742
672.307	12401
672.358	11351
672.409	11953
672.460	11022
672.511	10766
672.562	9546
672.613	10692
672.664	9046
672.715	10009
672.766	9952
672.817	9982
672.868	9066
672.919	9982
672.970	8650
673.021	9379
673.071	9103
673.122	10207
673.173	9253
673.224	9461
673.275	9153
673.326	9091
673.376	8680
673.427	9089
673.478	9338
673.528	9149
673.579	8218
673.630	9547
673.680	8750
673.731	9058
673.782	8001
673.832	8893
673.883	9195
673.934	9288
673.984	8756
674.035	7898
674.085	9017
674.136	10341
674.186	9738
674.237	11809
674.287	14375
674.338	13942
674.388	9499
674.438	9096
674.489	8408
674.539	10236
674.589	9804
674.640	10119
674.690	8460
674.740	9493
674.791	10432
674.841	10208
674.891	9789
674.942	9097
674.992	9250
675.042	8731
675.092	8070
675.142	8069
675.193	7890
675.243	8171
675.293	7891
675.343	9056
675.393	8537
675.443	9094
675.493	8669
675.543	7667
675.593	8125
675.643	8887
675.693	7689
675.743	8551
675.793	8759
675.843	6607
675.893	8640
675.943	8480
675.993	7053
676.043	7227
676.093	7695
676.142	7474
676.192	7960
676.242	7329
676.292	6792
676.341	8535
676.391	8667
676.441	7466
676.491	6979
676.540	7001
676.590	7392
676.640	7722
676.689	7218
676.739	6826
676.789	6449
676.838	6392
676.888	7103
676.937	7352
676.987	6480
677.037	6691
677.086	6579
677.136	6751
677.185	6222
677.235	7013
677.284	5986
677.333	6610
677.383	6283
677.432	6653
677.482	6251
677.531	6938
677.580	6753
677.630	6938
677.679	6331
677.728	6553
677.778	6420
677.827	6384
677.876	5790
677.925	6146
677.975	6206
678.024	6781
678.073	5907
678.122	8340
678.171	8352
678.220	6777
678.269	8096
678.319	8438
678.368	8274
678.417	8338
678.466	7899
678.515	7379
678.564	7394
678.613	8201
678.662	7127
678.711	6375
678.760	6814
678.809	7198
678.857	6427
678.906	7023
678.955	6622
679.004	7188
679.053	6431
679.102	7963
679.151	6512
679.199	7176
679.248	5474
679.297	6306
679.346	7073
679.394	6506
679.443	5868
679.492	6680
679.540	6622
679.589	6671
679.638	6429
679.686	6984
679.735	5801
679.784	5595
679.832	6884
679.881	6925
679.929	6091
679.978	6265
680.026	5805
680.075	6291
680.123	5759
680.172	6135
680.220	5377
680.268	6409
680.317	6114
680.365	6362
680.414	5964
680.462	5628
680.510	5505
680.559	6327
680.607	5199
680.655	6515
680.703	5836
680.752	5730
680.800	5199
680.848	5500
680.896	4875
680.945	5790
680.993	5769
681.041	6873
681.089	4985
681.137	5680
681.185	4541
681.233	5460
681.258	5633
681.281	5747
681.329	6104
681.377	5886
681.380	5910
681.425	5390
681.473	6658
681.502	6705
681.521	6647
681.569	6166
681.617	6914
681.624	6929
681.665	6658
681.713	6324
681.745	6808
681.761	6953
681.809	6558
681.857	7302
681.867	7243
681.904	6852
681.952	7732
681.989	6844
682.000	6517
682.048	7394
682.096	8091
682.111	7782
682.143	6942
682.191	7414
682.233	7573
682.239	7546
682.286	8391
682.334	7472
682.354	7600
682.382	7686
682.430	8046
682.476	8629
682.477	8596
682.525	8219
682.572	8361
682.598	7672
682.620	6976
682.667	8402
682.715	7750
682.720	7919
682.763	9136
682.810	9234
682.841	9358
682.857	9347
682.905	8749
682.952	8707
682.963	8816
683.000	8952
683.047	8456
683.085	9564
683.095	9831
683.142	9888
683.190	9089
683.206	9311
683.237	9551
683.284	8931
683.328	10184
683.332	10254
683.379	9551
683.426	9869
683.449	9662
683.473	9414
683.521	9778
683.568	9695
683.571	9765
683.615	10163
683.662	10440
683.693	10438
683.709	10379
683.757	10129
683.804	11077
683.814	11065
683.851	10836
683.898	10923
683.936	10654
683.945	10576
683.992	11309
684.039	11352
684.057	11607
684.086	11941
684.133	11722
684.179	12311
684.180	12291
684.227	12113
684.274	12929
684.300	12371
684.321	11862
684.368	11950
684.415	11661
684.422	11730
684.462	11990
684.509	11492
684.543	11943
684.556	12073
684.603	12114
684.649	11857
684.665	12053
684.696	12381
684.743	12426
684.786	11990
684.790	11936
684.837	12576
684.883	13186
684.908	13342
684.930	13522
684.977	14523
685.023	14964
685.029	14920
685.070	13985
685.117	14355
685.150	13965
685.164	13806
685.210	13992
685.257	14693
685.272	14705
685.303	14864
685.350	14695
685.393	15139
685.396	15151
685.443	14432
685.490	17068
685.514	16699
685.536	16273
685.583	16125
685.629	16273
685.636	16207
685.675	15463
685.722	15334
685.757	15357
685.768	15430
685.815	15847
685.861	15941
685.878	16112
685.908	16221
685.954	15535
686.000	15660
686.000	15658
686.047	16839
686.093	17517
686.121	18746
686.139	19484
686.185	17910
686.232	18555
686.242	18560
686.278	17639
686.324	17591
686.363	15756
686.370	15509
686.416	15785
686.463	15788
686.484	15943
686.509	16275
686.555	15287
686.601	16012
686.606	16041
686.647	16007
686.693	16075
686.727	15844
686.739	15790
686.785	16277
686.831	15794
686.848	15975
686.877	16331
686.923	16301
686.969	16647
686.969	16645
687.015	16155
687.061	17314
687.090	16965
687.107	16776
687.153	17026
687.199	17054
687.211	16913
687.245	16415
687.291	16716
687.332	16994
687.336	17068
687.382	17680
687.428	18323
687.453	18193
687.474	17715
687.520	17731
687.565	16960
687.574	16882
687.611	16947
687.657	17268
687.695	17285
687.702	17343
687.748	17650
687.794	18510
687.816	18667
687.839	18585
687.885	18534
687.931	17982
687.937	17899
687.976	17595
688.022	18139
688.058	18554
688.067	18702
688.113	18129
688.158	18490
688.179	18633
688.204	18693
688.249	18494
688.295	18507
688.300	18598
688.340	19634
688.386	19586
688.421	19671
688.431	19582
688.477	18975
688.522	19362
688.542	19330
688.567	19587
688.613	19934
688.658	19325
688.663	19362
688.703	19618
688.749	19757
688.784	19861
688.794	19873
688.839	19704
688.884	19797
688.905	19710
688.930	19653
688.975	19382
689.020	19721
689.026	19701
689.065	19939
689.110	19571
689.146	19660
689.155	19631
689.201	19558
689.246	19615
689.267	19322
689.291	19138
689.336	19469
689.381	19284
689.388	19332
689.426	19880
689.471	19829
689.509	20008
689.516	20003
689.561	19858
689.606	19748
689.630	19556
689.651	19530
689.696	19902
689.741	19467
689.750	19588
689.785	20123
689.830	19653
689.871	20309
689.875	20366
689.920	19450
689.965	19387
689.992	18994
690.010	19008
690.054	19649
690.099	19735
690.112	19919
690.144	20344
690.189	20142
690.233	20324
690.233	20348
690.278	19963
690.323	20311
690.354	19911
690.367	19852
690.412	20547
690.457	20116
690.474	20175
690.501	20303
690.546	20110
690.590	20282
690.595	20235
690.635	20002
690.680	20182
690.716	20059
690.724	20151
690.769	20342
690.813	21255
690.836	21434
690.857	21473
690.902	20888
690.946	21366
690.957	21205
690.991	21084
691.035	21885
691.077	22196
691.080	22250
691.124	22572
691.168	23228
691.198	23589
691.213	23748
691.257	23709
691.301	24206
691.318	24045
691.346	23412
691.390	23545
691.434	22241
691.439	22190
691.478	22411
691.522	21855
691.559	21952
691.567	22164
691.611	22785
691.655	23680
691.680	23937
691.699	23807
691.743	24021
691.787	23583
691.800	23582
691.831	23952
691.875	23769
691.919	24101
691.921	24068
691.964	24267
692.008	24299
692.041	24446
692.052	24612
692.096	25184
692.139	25467
692.162	25542
692.183	25251
692.227	24812
692.271	24722
692.282	24449
692.315	24321
692.359	24720
692.402	24815
692.403	24856
692.447	24651
692.490	24211
692.523	24269
692.534	24511
692.578	24717
692.622	25172
692.643	25133
692.666	24787
692.709	24712
692.753	23784
692.763	23744
692.797	24090
692.840	23745
692.884	23999
692.884	24046
692.928	23846
692.971	24125
693.004	24103
693.015	24149
693.059	24247
693.102	24175
693.124	24090
693.146	24013
693.189	24068
693.233	24198
693.245	24107
693.276	24680
693.320	25833
693.363	26028
693.365	26011
693.407	25875
693.450	25591
693.485	25134
693.493	25176
693.537	25477
693.580	25553
693.605	25379
693.624	25259
693.667	25376
693.710	25175
693.725	25129
693.753	25524
693.797	25902
693.840	26309
693.845	26336
693.883	27338
693.926	28232
693.966	28797
693.970	28734
694.013	27684
694.056	26367
694.086	25710
694.099	25866
694.142	26067
694.185	26241
694.206	26141
694.229	26159
694.272	26464
694.315	26579
694.326	26586
694.358	26875
694.401	26806
694.444	27204
694.446	27152
694.487	27922
694.530	28802
694.566	29399
694.573	29219
694.616	27630
694.659	26079
694.686	25306
694.702	25328
694.745	24729
694.787	24400
694.806	24120
694.830	24201
694.873	24559
694.916	24656
694.926	24612
694.959	24795
695.002	25066
695.044	25532
695.046	25479
695.087	25460
695.130	25839
695.166	25877
695.172	25948
695.215	25929
695.258	26323
695.286	26233
695.301	26218
695.343	26161
695.386	26282
695.406	26128
695.428	26063
695.471	25978
695.514	25888
695.526	25819
695.556	25999
695.599	26217
695.641	26253
695.646	26207
695.684	26301
695.726	26373
695.766	26190
695.769	26248
695.811	26458
695.854	26533
695.886	26612
695.896	26671
695.938	26559
695.981	26502
696.005	26232
696.023	26091
696.065	26039
696.108	25728
696.125	25615
696.150	26179
696.192	26825
696.235	27684
696.245	27776
696.277	27548
696.319	27386
696.361	27034
696.365	26953
696.404	27187
696.446	27169
696.485	27252
696.488	27302
696.530	26912
696.572	26722
696.604	26486
696.614	26656
696.656	27205
696.698	27421
696.724	27652
696.740	27504
696.783	26799
696.825	26351
696.844	25986
696.867	26277
696.909	26746
696.951	27114
696.964	27232
696.992	27279
697.034	27027
697.076	26888
697.083	26783
697.118	26882
697.160	27159
697.202	27148
697.203	27083
697.244	27163
697.286	27174
697.323	27154
697.327	27233
697.369	27253
697.411	27335
697.442	27317
697.453	27445
697.494	27750
697.536	27931
697.562	28051
697.578	28322
697.620	28748
697.661	29213
697.682	29388
697.703	29592
697.744	29836
697.786	30032
697.801	30078
697.828	31068
697.869	32336
697.911	33667
697.921	33902
697.952	32922
697.994	31562
698.035	30150
698.040	29913
698.077	29730
698.118	29335
698.160	28999
698.160	28923
698.201	28346
698.243	27759
698.279	27136
698.284	27301
698.325	28202
698.367	29120
698.399	29729
698.408	29758
698.449	29542
698.491	29409
698.518	29163
698.532	29177
698.573	29070
698.614	28920
698.638	28775
698.656	28970
698.697	29231
698.738	29508
698.757	29549
698.779	29680
698.820	29799
698.862	29921
698.877	29891
698.903	30109
698.944	30328
698.985	30552
698.996	30536
699.026	30680
699.067	30770
699.116	30799
699.235	28971
699.354	29604
699.474	28598
699.593	30749
699.713	31604
699.832	28042
699.951	30562
700.070	30203
700.190	28118
700.309	28309
700.428	28423
700.547	30125
700.667	28039
700.786	28298
700.905	29137
701.024	26787
701.143	30234
701.262	25796
701.381	25878
701.500	27286
701.619	29708
701.738	29638
701.857	25933
701.976	25366
702.095	25013
702.214	26715
702.333	28814
702.452	26859
702.571	26187
702.690	25930
702.809	25282
702.928	25164
703.047	24904
703.165	25308
703.284	24668
703.403	24716
703.522	25764
703.640	27183
703.759	26526
703.878	34264
703.997	30361
704.115	24995
704.234	23844
704.353	24613
704.471	23367
704.590	22931
704.708	23299
704.827	22129
704.946	22332
705.064	24913
705.183	24344
705.301	25035
705.420	32045
705.538	33880
705.656	29916
705.775	27047
705.893	27140
706.012	30265
706.130	29804
706.249	29386
706.367	29046
706.485	30241
706.604	30526
706.722	29250
706.840	32128
706.958	34777
707.077	30882
707.195	27630
707.313	27614
707.431	26075
707.549	26275
707.668	25505
707.786	26917
707.904	26004
708.022	26058
708.140	26415
708.258	25145
708.376	25473
708.494	25074
708.612	26204
708.730	32439
708.848	37951
708.966	32531
709.084	34194
709.202	30122
709.320	30993
709.438	30809
709.556	31930
709.674	30980
709.791	31555
709.909	28747
710.027	29486
710.145	29583
710.263	29400
710.380	29184
710.498	30474
710.616	29381
710.733	28309
710.851	30021
710.969	29870
711.086	28805
711.204	28468
711.322	28050
711.439	29112
711.557	29861
711.674	27670
711.792	27841
711.909	27543
712.027	26227
712.144	27219
712.262	26297
712.379	27533
712.497	34201
712.614	42703
712.732	35836
712.849	32452
712.966	33322
713.084	39594
713.201	37969
713.318	35230
713.436	33101
713.553	32870
713.670	33118
713.787	35864
713.905	39024
714.022	33716
714.139	32675
714.256	36559
714.373	40669
714.490	54617
714.608	91101
714.725	300711
714.842	919586
714.959	178061
715.076	43434
715.193	35349
715.310	34169
715.427	30008
715.544	30281
715.661	28951
715.778	29219
715.895	30969
716.011	30927
716.128	30764
716.245	28604
716.362	30288
716.479	34384
716.596	29503
716.713	28057
716.829	26896
716.946	27573
717.063	26649
717.180	26290
717.296	26299
717.413	25905
717.530	25709
717.646	26739
717.763	24724
717.880	25150
717.996	24903
718.113	25954
718.229	24505
718.346	24699
718.462	23185
718.579	26510
718.695	36810
718.812	44577
718.928	31390
719.045	30844
719.161	23416
719.277	23039
719.394	22525
719.510	23262
719.626	24137
719.743	28214
719.859	32013
719.975	42114
720.092	95050
720.208	363718
720.324	200040
720.440	32085
720.557	27185
720.673	32134
720.789	45282
720.905	64354
721.021	69124
721.137	23831
721.253	22696
721.369	22904
721.486	24415
721.602	29794
721.718	27604
721.834	19697
721.950	21490
722.066	21522
722.181	20731
722.297	19747
722.413	22064
722.529	19695
722.645	20075
722.761	18983
722.877	19647
722.993	18623
723.108	20406
723.224	20828
723.340	19806
723.456	19355
723.571	18181
723.687	18203
723.803	19187
723.918	18660
724.034	18345
724.150	19270
724.265	19177
724.381	25248
724.497	49939
724.612	24370
724.728	18665
724.843	17137
724.959	18679
725.074	24576
725.190	46215
725.305	22413
725.421	19939
725.536	16410
725.651	16894
725.767	17191
725.882	16994
725.997	16493
726.113	16754
726.228	16197
726.343	16757
726.459	14761
726.574	15969
726.689	16949
726.804	15276
726.920	16147
727.035	14898
727.150	15943
727.265	14788
727.380	15854
727.495	14878
727.610	14711
727.725	15571
727.841	14766
727.956	14534
728.071	16631
728.186	17336
728.301	13948
728.416	14907
728.531	15729
728.645	14268
728.760	13623
728.875	15913
728.990	15417
729.105	15871
729.220	15332
729.335	15448
729.449	15070
729.564	14090
729.679	13305
729.794	13470
729.908	14706
730.023	15568
730.138	14209
730.253	13180
730.367	13724
730.482	12224
730.596	12932
730.711	13579
730.826	15420
730.940	14215
731.055	14159
731.169	15655
731.284	13404
731.398	14057
731.513	14885
731.627	15963
731.742	16363
731.856	18362
731.970	17017
732.085	17183
732.199	20433
732.313	28239
732.428	48734
732.542	137614
732.656	219285
732.771	50225
732.885	22540
732.999	18266
733.113	17330
733.227	17306
733.342	15854
733.456	14918
733.570	15152
733.684	14378
733.798	14313
733.912	14407
734.026	13614
734.140	13712
734.254	14270
734.368	16438
734.482	29218
734.596	17177
734.710	12505
734.824	13183
734.938	12523
735.052	12626
735.166	13420
735.280	14712
735.393	13026
735.507	12470
735.621	14683
735.735	20845
735.849	22378
735.962	12901
736.076	13262
736.190	14367
736.303	13527
736.417	22330
736.531	14662
736.644	13206
736.758	12209
736.872	11605
736.985	11468
737.099	12402
737.212	10707
737.326	11824
737.439	11758
737.553	12366
737.666	12279
737.780	11526
737.893	11060
738.007	11081
738.120	11131
738.233	11486
738.347	11138
738.460	11217
738.573	11597
738.687	12614
738.800	12028
738.913	13353
739.026	14211
739.140	11486
739.253	11635
739.366	10868
739.479	10748
739.592	10624
739.705	10218
739.818	10883
739.932	10744
740.045	11280
740.158	11461
740.271	10815
740.384	10888
740.497	10755
740.610	10865
740.723	10885
740.836	10843
740.949	10869
741.062	12191
741.174	14977
741.287	11309
741.400	9979
741.513	9977
741.626	11013
741.739	11112
741.851	10950
741.964	10262
742.077	9964
742.189	10078
742.302	10172
742.415	10580
742.527	10167
742.640	9860
742.753	11012
742.865	8622
742.978	9455
743.090	10158
743.203	10550
743.316	9894
743.428	8739
743.541	9222
743.653	8831
743.766	8976
743.878	9521
743.990	10504
744.103	12791
744.215	9613
744.327	9830
744.440	10725
744.552	14005
744.664	14144
744.777	9667
744.889	8990
745.001	8888
745.113	8834
745.226	8473
745.338	8729
745.450	9452
745.562	8826
745.674	8071
745.786	8197
745.898	9160
746.010	7942
746.122	8404
746.234	9225
746.347	8950
746.459	9625
746.570	8480
746.682	7972
746.794	8897
746.906	8228
747.018	8643
747.130	9168
747.242	8529
747.354	7417
747.466	9139
747.577	9129
747.689	8862
747.801	8815
747.913	8037
748.024	7429
748.136	8191
748.248	7897
748.359	8015
748.471	8109
748.583	8040
748.694	6985
748.806	8737
748.918	9557
749.029	10054
749.141	8390
749.252	9915
749.364	8850
749.475	13422
749.587	17695
749.698	9566
749.809	8400
749.921	8168
750.032	7612
750.144	7200
750.255	7510
750.366	6971
750.478	6919
750.589	8257
750.700	7528
750.811	8475
750.923	8716
751.034	13962
751.145	25188
751.256	11245
751.367	8103
751.479	7198
751.590	7285
751.701	8427
751.812	7346
751.923	8115
752.034	7786
752.145	7565
752.256	7502
752.367	7818
752.478	6100
752.589	6661
752.700	7804
752.811	6908
752.922	7357
753.032	7790
753.143	8789
753.254	8103
753.365	6937
753.476	7537
753.586	7181
753.697	6394
753.808	7027
753.919	6639
754.029	5796
754.140	6701
754.251	6214
754.361	7471
754.472	6019
754.582	7326
754.693	7095
754.804	7295
754.914	7045
755.025	6724
755.135	6526
755.246	6447
755.356	6098
755.466	7477
755.577	5793
755.687	6961
755.798	6583
755.908	7337
756.018	6160
756.129	5836
756.239	6520
756.349	7001
756.460	6306
756.570	6391
756.680	6083
756.790	6724
756.900	7512
757.011	7313
757.121	6568
757.231	6293
757.341	6081
757.451	6500
757.561	6073
757.671	5989
757.781	5940
757.891	6964
758.001	6392
758.111	7200
758.221	6584
758.331	6995
758.441	8593
758.551	8226
758.661	11175
758.771	8022
758.880	7380
758.990	6898
759.100	6940
759.210	6377
759.320	7095
759.429	6691
759.539	6456
759.649	6696
759.758	6950
759.868	7741
759.978	7812
760.087	8557
760.197	8194
760.307	7856
760.416	7715
760.526	7477
760.635	7266
760.745	8310
760.854	7317
760.964	8515
761.073	8256
761.182	8182
761.292	7924
761.401	7708
761.511	7886
761.620	7196
761.729	6831
761.839	7098
761.948	7245
762.057	7000
762.166	7145
762.276	5968
762.385	6366
762.494	7442
762.603	6865
762.712	6363
762.822	7012
762.931	6968
763.040	6190
763.149	6754
763.258	6244
763.367	6818
763.476	6662
763.585	5730
763.694	6577
763.803	6237
763.912	7246
764.021	6683
764.130	6573
764.238	6305
764.347	6363
764.456	6894
764.565	7381
764.674	7074
764.783	6608
764.891	6380
765.000	6489
765.109	6870
765.217	7448
765.326	7792
765.435	8955
765.543	9883
765.652	9542
765.761	8799
765.869	10654
765.978	13911
766.086	20929
766.195	38448
766.303	81660
766.412	272953
766.520	620548
766.629	210228
766.737	40744
766.846	21830
766.954	15526
767.062	13070
767.171	11256
767.279	11188
767.387	9031
767.496	8461
767.604	8252
767.712	7738
767.820	7317
767.928	7614
768.037	6724
768.145	7811
768.253	6699
768.361	7394
768.469	7378
768.577	6901
768.685	7995
768.793	7467
768.901	7816
769.009	8301
769.117	7093
769.225	8557
769.333	10010
769.441	12301
769.549	17958
769.657	32925
769.765	88753
769.873	332188
769.981	330756
770.088	46460
770.196	16164
770.304	13091
770.412	10344
770.519	10691
770.627	9513
770.735	8467
770.842	7797
770.950	7829
771.058	8079
771.165	8562
771.273	8301
771.380	8371
771.488	7814
771.595	7876
771.703	7317
771.810	7601
771.918	7691
772.025	7542
772.133	8136
772.240	8293
772.348	8463
772.455	9096
772.562	8332
772.670	8304
772.777	7894
772.884	8228
772.991	7394
773.099	7260
773.206	7576
773.313	8277
773.420	7938
773.528	7090
773.635	7444
773.742	7291
773.849	7730
773.956	7014
774.063	7774
774.170	7168
774.277	7549
774.384	7360
774.491	7569
774.598	6965
774.705	7429
774.812	8815
774.919	9559
775.026	8426
775.133	7932
775.239	7851
775.346	8148
775.453	7139
775.560	7168
775.667	8018
775.773	7790
775.880	7949
775.987	7009
776.093	7248
776.200	7312
776.307	7101
776.413	7705
776.520	7135
776.627	6969
776.733	7137
776.840	6239
776.946	8107
777.053	7199
777.159	6373
777.266	5496
777.372	7222
777.478	7065
777.585	8043
777.691	7100
777.798	7372
777.904	8529
778.010	8095
778.117	9939
778.223	7242
778.329	7253
778.435	6515
778.542	5889
778.648	7059
778.754	6657
778.860	6774
778.966	6510
779.072	6043
779.178	6152
779.284	7399
779.391	6084
779.497	6323
779.603	7001
779.708	6726
779.815	7008
779.920	7844
780.026	10526
780.132	9230
780.238	6606
780.344	6292
780.450	6591
780.556	6602
780.661	5132
780.767	6069
780.873	6765
780.979	5659
781.085	6170
781.190	6428
781.296	5445
781.402	5275
781.507	6382
781.613	5544
781.719	5413
781.824	5706
781.930	6112
782.035	6145
782.141	5577
782.246	5610
782.352	5784
782.457	5409
782.563	5478
782.668	6111
782.773	5575
782.879	5693
782.984	6158
783.090	6501
783.195	7485
783.300	10412
783.405	7259
783.511	6514
783.616	6154
783.721	6706
783.826	5712
783.932	5228
784.037	5996
784.142	5447
784.247	5720
784.352	5261
784.457	5325
784.562	5259
784.667	5331
784.772	5517
784.877	5450
784.982	5466
785.087	4944
785.192	6098
785.297	5189
785.402	5439
785.507	5468
785.611	5513
785.716	5398
785.821	5380
785.926	4754
786.031	5580
786.135	4742
786.240	5893
786.345	4306
786.450	5174
786.554	4678
786.659	3896
786.763	4452
786.868	5804
786.973	5914
787.077	4815
787.182	4607
787.286	4378
787.391	4857
787.495	4837
787.600	4475
787.704	4904
787.809	5276
787.913	4303
788.017	4107
788.122	4781
788.226	3713
788.330	3949
788.435	5258
788.539	5154
788.643	4096
788.747	4391
788.852	4637
788.956	3995
789.060	4204
789.164	5115
789.268	4992
789.372	4934
789.476	5029
789.580	4907
789.684	4086
789.788	5309
789.892	4507
789.996	4170
790.100	5075
790.204	4409
790.308	4477
790.412	4790
790.516	4436
790.620	4965
790.724	4733
790.828	4544
790.931	4851
791.035	5066
791.139	4673
791.242	4168
791.346	4885
791.450	4285
791.554	4587
791.657	3889
791.761	4650
791.864	4696
791.968	4360
792.072	4173
792.175	4054
792.279	3821
792.382	4322
792.486	4611
792.589	4231
792.693	4850
792.796	4235
792.899	4469
793.003	4145
793.106	4847
793.209	4418
793.313	4408
793.416	4195
793.519	4596
793.623	5611
793.726	8583
793.829	7907
793.932	4593
794.035	3729
794.138	5466
794.242	4773
794.345	4592
794.448	5502
794.551	7184
794.654	9899
794.757	8214
794.860	5840
794.963	6199
795.066	3886
795.169	4633
795.272	4037
795.375	3785
795.477	4243
795.580	3890
795.683	3020
795.786	4089
795.889	3297
795.991	4089
796.094	4641
796.197	4487
796.300	4172
796.402	3636
796.505	4148
796.608	3372
796.710	2914
796.813	4244
796.915	3587
797.018	4389
797.120	3710
797.223	2811
797.326	3676
797.428	3436
797.530	2892
797.633	3772
797.735	4786
797.838	4876
797.940	7547
798.042	4397
798.145	2927
798.247	3676
798.349	3068
798.452	3531
798.554	4241
798.656	3006
798.758	3961
798.860	3945
798.962	4244
799.065	2885
799.167	3465
799.269	4550
799.371	3992
799.473	4687
799.575	4715
799.677	5531
799.779	5897
799.881	5193
799.983	8300
800.085	3933
800.187	3415
800.289	3240
800.390	3913
800.492	3212
800.594	3333
800.696	3103
800.798	2809
800.899	3619
801.001	2670
801.103	3059
801.205	2288
801.306	3997
801.408	3084
801.509	4053
801.611	3969
801.713	2999
801.814	2915
801.916	3768
802.017	3036
802.119	2733
802.220	2667
802.322	2561
802.423	4208
802.525	4613
802.626	4034
802.727	2986
802.829	3387
802.930	3095
803.031	4019
803.133	3181
803.234	2151
803.335	3093
803.436	2945
803.538	2662
803.639	2439
803.740	3166
803.841	2404
803.942	3278
804.043	3438
804.144	2920
804.245	2143
804.346	2601
804.447	2973
804.548	3898
804.649	6703
804.750	3865
804.851	3533
804.952	3077
805.053	3230
805.154	3006
805.255	2867
805.355	2639
805.456	2640
805.557	2441
805.658	2390
805.758	2668
805.859	3142
805.960	2356
806.061	2264
806.161	3118
806.262	2954
806.362	2347
806.463	3147
806.564	2998
806.664	3035
806.765	2960
806.865	4340
806.966	3547
807.066	2751
807.166	3583
807.267	2783
807.367	2970
807.468	2678
807.568	2094
807.668	2540
807.769	3221
807.869	2735
807.969	3601
808.069	3133
808.170	2427
808.270	2206
808.370	3061
808.470	3072
808.570	4452
808.670	3021
808.770	3267
808.870	2330
808.970	2852
809.070	2392
809.170	2383
809.271	3323
809.370	2778
809.470	2850
809.570	2662
809.670	2281
809.770	2974
809.870	2272
809.970	2620
810.070	3233
810.169	2196
810.269	1672
810.369	3297
810.469	2229
810.568	2833
810.668	2577
810.768	3069
810.867	2598
810.967	2694
811.066	1430
811.166	3018
811.265	2725
811.365	3122
811.464	2173
811.564	2297
811.663	3561
811.763	2662
811.862	3071
811.962	2541
812.061	2928
812.160	3052
812.260	3805
812.359	4367
812.458	6326
812.557	14387
812.657	31411
812.756	26132
812.855	7054
812.954	4137
813.053	3769
813.153	4514
813.252	2779
813.351	3963
813.450	2403
813.549	3671
813.648	3309
813.747	2933
813.846	3681
813.945	2818
814.044	3754
814.143	3219
814.242	3560
814.341	2756
814.439	3556
814.538	4446
814.637	3992
814.736	3525
814.835	3980
814.933	4167
815.032	4699
815.131	4639
815.229	4541
815.328	6191
815.427	6042
815.525	5109
815.624	5751
815.722	5511
815.821	5582
815.919	6073
816.018	6406
816.116	6426
816.215	6407
816.313	6939
816.412	7086
816.510	8277
816.609	8299
816.707	8727
816.805	9008
816.904	8914
817.002	9478
817.100	11348
817.198	12802
817.296	13398
817.395	15330
817.493	18103
817.591	19693
817.689	25287
817.787	32752
817.885	47912
817.983	73573
818.081	131339
818.179	259597
818.277	539649
818.375	807284
818.473	528048
818.571	225180
818.669	119151
818.767	86126
818.865	75680
818.963	79273
819.061	98730
819.158	142713
819.256	239999
819.354	437710
819.452	809515
819.549	922606
819.647	611816
819.745	301605
819.842	159858
819.940	101997
820.038	72292
820.135	53852
820.233	41836
820.330	33563
820.428	27649
820.525	24151
820.623	20672
820.720	17447
820.818	16704
820.915	14636
821.012	13619
821.110	11654
821.207	11569
821.304	9547
821.402	9405
821.499	9624
821.596	8241
821.693	8573
821.791	8819
821.888	9074
821.985	10817
822.082	13841
822.179	8836
822.276	6384
822.373	5406
822.470	5703
822.567	6002
822.664	4717
822.761	4812
822.858	4516
822.955	5078
823.052	4518
823.149	5235
823.246	4990
823.343	5158
823.440	4884
823.536	3746
823.633	4409
823.730	3729
823.827	4154
823.923	4400
824.020	4999
824.117	3847
824.213	3748
824.310	4273
824.407	3481
824.503	3094
824.600	3501
824.696	3823
824.793	3355
824.889	3012
824.986	3760
825.082	3550
825.179	2786
825.275	3562
825.371	3120
825.468	3471
825.564	2125
825.660	3195
825.757	3271
825.853	3942
825.949	2778
826.045	3106
826.142	3178
826.238	3094
826.334	3318
826.430	2551
826.526	3096
826.622	2903
826.718	2832
826.814	2697
826.910	3277
827.006	2902
827.102	2169
827.198	3152
827.294	2852
827.390	3127
827.486	3032
827.582	1650
827.678	2693
827.774	2588
827.869	2344
827.965	3038
828.061	2255
828.157	2474
828.252	2824
828.348	2379
828.444	2518
828.539	1384
828.635	2426
828.731	2964
828.826	1593
828.922	2358
829.017	2640
829.113	3133
829.208	2794
829.304	2100
829.399	3410
829.495	2601
829.590	2926
829.685	2049
829.781	2390
829.876	2541
829.971	2780
830.066	1684
830.162	1437
830.257	2165
830.352	2392
830.447	2743
830.543	1972
830.638	1715
830.733	3157
830.828	3201
830.923	2093
831.018	2767
831.113	2386
831.208	2529
831.303	2346
831.398	2577
831.493	1997
831.588	2828
831.683	1272
831.778	2248
831.873	1425
831.967	2532
832.062	1585
832.157	1977
832.252	2784
832.346	2222
832.441	3184
832.536	3897
832.631	5991
832.725	11732
832.820	5066
832.914	2260
833.009	1638
833.104	2643
833.198	3321
833.293	2961
833.387	2251
833.482	2658
833.576	1568
833.670	2761
833.765	2331
833.859	2318
833.954	2995
834.048	2311
834.142	1783
834.237	1117
834.331	1558
834.425	2228
834.519	2011
834.613	2148
834.708	1427
834.802	1413
834.896	1409
834.990	1834
835.084	2094
835.178	1302
835.272	2171
835.366	2330
835.460	2044
835.554	2396
835.648	1909
835.742	1871
835.836	1525
835.930	1305
836.024	2302
836.117	2569
836.211	2237
836.305	3389
836.399	4627
836.493	2924
836.586	2562
836.680	2315
836.774	1751
836.867	1665
836.961	1219
837.055	926
837.148	1257
837.242	1344
837.335	1745
837.429	1941
837.522	2254
837.616	1728
837.709	2319
837.803	5498
837.896	2971
837.989	2403
838.083	2633
838.176	3497
838.269	7354
838.363	4194
838.456	2378
838.549	2668
838.642	4301
838.735	7599
838.829	9969
838.922	2934
839.015	2108
839.108	1296
839.201	2212
839.294	798
839.387	1581
839.480	1255
839.573	2216
839.666	3316
839.759	1914
839.852	2003
839.945	1487
840.038	1511
840.131	1489
840.223	1457
840.316	1271
840.409	1328
840.502	1279
840.594	2515
840.687	855
840.780	1920
840.873	685
840.965	1276
841.058	1659
841.150	3514
841.243	5318
841.336	2879
841.428	1859
841.521	1460
841.613	860
841.706	2612
841.798	1589
841.890	1376
841.983	963
842.075	1726
842.167	1052
842.260	1853
842.352	2518
842.444	2906
842.537	4704
842.629	8705
842.721	5757
842.813	1414
842.905	346
842.997	2178
843.090	1219
843.182	2628
843.274	4062
843.366	9137
843.458	17051
843.550	25047
843.642	10349
843.734	2656
843.826	1909
843.918	3437
844.009	2053
844.101	914
844.193	942
844.285	823
844.377	1772
844.469	1651
844.560	603
844.652	1558
844.744	1379
844.835	1947
844.927	1121
845.019	2206
845.110	2115
845.202	887
845.293	1526
845.385	1597
845.476	903
845.568	2210
845.659	1406
845.751	1764
845.842	614
845.934	691
846.025	271
846.116	922
846.208	1201
846.299	1035
846.390	1246
846.482	2032
846.573	1374
846.664	2587
846.755	3084
846.846	5967
846.937	2571
847.029	1760
847.120	512
847.211	657
847.302	1582
847.393	1373
847.484	1540
847.575	1177
847.666	1459
847.757	1612
847.847	1528
847.938	1816
848.029	1497
848.120	783
848.211	822
848.302	971
848.392	1426
848.483	1498
848.574	477
848.664	810
848.755	1518
848.846	1148
848.936	1600
849.027	1213
849.118	1737
849.208	1295
849.299	1360
849.389	2514
849.480	4183
849.570	8172
849.661	13938
849.751	26843
849.841	28157
849.932	6458
850.022	1365
850.112	1772
850.203	998
850.293	1659
850.383	1049
850.474	1553
850.564	1228
850.654	1481
850.744	-16
850.834	1206
850.924	1156
851.014	940
851.104	829
851.194	1106
851.284	1427
851.374	3290
851.464	2558
851.554	1705
851.644	1628
851.734	2527
851.824	2943
851.914	1599
852.004	1690
852.094	60
852.183	1060
852.273	1565
852.363	663
852.452	238
852.542	545
852.632	1529
852.721	1303
852.811	379
852.901	513
852.990	1287
853.080	701
853.169	1635
853.259	1453
853.348	1456
853.438	1852
853.527	3231
853.617	4170
853.706	6168
853.795	11084
853.885	20904
853.974	46319
854.063	76744
854.152	149355
854.242	149276
854.331	35391
854.420	9369
854.509	4606
854.598	4461
854.687	3903
854.777	3799
854.866	3040
854.955	2639
855.044	998
855.133	1935
855.222	848
855.311	1398
855.400	1303
855.488	697
855.577	202
855.666	807
855.755	1445
855.844	733
855.933	1487
856.021	1677
856.110	1727
856.199	992
856.288	1231
856.376	1375
856.465	882
856.554	1405
856.642	1030
856.731	822
856.819	1195
856.908	1357
856.996	1319
857.085	1282
857.173	569
857.262	535
857.350	668
857.438	564
857.527	1042
857.615	311
857.703	1430
857.792	1110
857.880	220
857.968	819
858.056	1106
858.145	1262
858.233	1368
858.321	591
858.409	1206
858.497	275
858.585	1149
858.673	1517
858.761	230
858.849	1256
858.937	867
859.025	900
859.113	1236
859.201	825
859.289	1122
859.377	1400
859.465	859
859.552	630
859.640	418
859.728	535
859.816	1087
859.903	894
859.991	604
860.079	1549
860.166	253
860.254	988
860.342	1030
860.429	1420
860.517	332
860.604	1764
860.692	963
860.779	682
860.867	508
860.954	1283
861.042	906
861.129	2021
861.216	906
861.304	1139
861.391	1412
861.478	763
861.565	1252
861.653	1433
861.740	279
861.827	1499
861.914	1241
862.001	443
862.089	441
862.176	709
862.263	-81
862.350	844
862.437	1476
862.524	471
862.611	1349
862.698	593
862.785	1126
862.871	1119
862.958	762
863.045	1164
863.132	213
863.219	1020
863.306	59
863.392	960
863.479	519
863.566	1132
863.652	1722
863.739	364
863.826	448
863.912	813
863.999	442
864.086	813
864.172	394
864.259	1064
864.345	773
864.432	621
864.518	629
864.604	530
864.691	609
864.777	1477
864.863	1479
864.950	657
865.036	1048
865.122	2649
865.209	3487
865.295	2868
865.381	2769
865.467	2984
865.553	2718
865.639	4434
865.726	6368
865.812	10896
865.898	23016
865.984	39306
866.070	55025
866.156	104709
866.242	69026
866.328	14698
866.414	4013
866.499	3700
866.585	2838
866.671	3087
866.757	2285
866.843	2477
866.928	2621
867.014	1609
867.100	2888
867.186	2147
867.271	2414
867.357	3032
867.442	3544
867.528	3398
867.614	2354
867.699	1223
867.785	1866
867.870	1493
867.956	2159
868.041	2364
868.127	1404
868.212	2706
868.297	2372
868.383	2769
868.468	2876
868.553	4255
868.639	6191
868.724	7692
868.809	16216
868.894	8311
868.979	2177
869.065	2393
869.150	1577
869.235	1083
869.320	1343
869.405	1315
869.490	1018
869.575	1678
869.660	824
869.745	1120
869.830	952
869.915	1329
870.000	863
870.085	1234
870.169	1222
870.254	1960
870.339	1058
870.424	1000
870.509	740
870.593	1717
870.678	1275
870.763	841
870.847	953
870.932	446
871.016	1990
871.101	1167
871.186	1100
871.270	1605
871.355	879
871.439	582
871.523	705
871.608	435
871.692	598
871.777	1446
871.861	1773
871.945	637
872.030	625
872.114	1076
872.198	1716
872.282	377
872.367	768
872.451	1032
872.535	909
872.619	1330
872.703	650
872.787	818
872.871	1383
872.955	615
873.039	704
873.123	144
873.207	718
873.291	581
873.375	532
873.459	871
873.543	1222
873.627	1394
873.711	568
873.794	1358
873.878	609
873.962	240
874.045	377
874.129	1275
874.137	1211
874.213	570
874.245	837
874.296	1275
874.352	645
874.380	334
874.460	733
874.464	749
874.547	127
874.568	395
874.631	1162
874.676	876
874.714	661
874.784	1394
874.798	1531
874.881	1525
874.892	1332
874.965	52
874.999	278
875.048	557
875.107	379
875.131	317
875.215	1148
875.215	1148
875.298	859
875.323	825
875.381	827
875.430	939
875.465	1011
875.538	896
875.548	867
875.631	1089
875.646	962
875.714	417
875.753	564
875.798	734
875.861	890
875.881	938
875.964	923
875.968	905
876.047	539
876.076	781
876.130	1234
876.183	797
876.213	616
876.291	1004
876.296	1012
876.379	1050
876.398	978
876.462	940
876.506	689
876.545	408
876.613	890
876.628	1002
876.711	1100
876.721	1050
876.794	548
876.828	689
876.877	1050
876.935	1355
876.960	1399
877.043	1065
877.043	1066
877.125	1347
877.150	1043
877.208	355
877.258	980
877.291	1373
877.365	809
877.374	740
877.456	1273
877.472	1155
877.539	733
877.579	681
877.622	589
877.687	558
877.704	549
877.787	1355
877.794	1284
877.869	472
877.901	539
877.952	690
878.008	762
878.034	769
878.115	99
878.117	92
878.199	323
878.222	573
878.282	981
878.329	825
878.364	829
878.437	1067
878.447	1000
878.529	173
878.544	7
878.611	136
878.651	332
878.694	269
878.758	561
878.776	643
878.858	623
878.865	632
878.941	891
878.972	814
879.023	632
879.078	896
879.105	1000
879.185	941
879.187	941
879.269	1489
879.292	1321
879.351	877
879.399	796
879.433	652
879.506	554
879.516	572
879.598	138
879.613	209
879.680	453
879.720	468
879.762	396
879.827	296
879.844	328
879.926	362
879.933	363
880.007	1
880.040	287
880.089	1021
880.147	1372
880.171	1443
880.253	2540
880.254	2555
880.335	4671
880.360	5069
880.417	6155
880.467	6954
880.499	7744
880.574	16325
880.580	16906
880.662	11924
880.680	10000
880.744	3242
880.787	2035
880.825	1163
880.893	692
880.907	637
880.989	152
881.000	232
881.070	703
881.106	505
881.152	322
881.213	370
881.233	366
881.315	211
881.319	219
881.396	466
881.426	467
881.478	428
881.532	707
881.559	838
881.639	846
881.641	840
881.722	-10
881.745	-97
881.803	-20
881.852	260
881.885	514
881.958	850
881.966	835
882.047	1075
882.064	1010
882.129	1024
882.171	1111
882.210	1144
882.277	1756
882.291	1879
882.372	2130
882.383	1922
882.454	454
882.489	524
882.535	758
882.596	696
882.616	605
882.697	431
882.702	435
882.778	401
882.808	139
882.859	22
882.914	425
882.940	466
883.020	-108
883.021	-108
883.102	137
883.127	311
883.183	285
883.233	97
883.264	242
883.339	709
883.345	658
883.426	-220
883.445	-367
883.507	231
883.551	515
883.587	240
883.657	-166
883.668	-121
883.749	184
883.763	238
883.830	392
883.869	438
883.910	386
883.975	299
883.991	272
884.072	141
884.081	144
884.152	291
884.187	223
884.233	-131
884.292	-232
884.314	-103
884.394	242
884.398	253
884.475	-260
884.504	-521
884.555	-3
884.610	692
884.636	540
884.716	232
884.716	233
884.797	153
884.821	184
884.877	78
884.927	-53
884.958	-46
885.033	17
885.038	-9
885.118	-663
885.139	-736
885.199	-43
885.244	341
885.279	217
885.350	187
885.359	245
885.439	698
885.456	721
885.520	422
885.561	395
885.600	600
885.667	886
885.680	791
885.760	94
885.773	17
885.840	397
885.878	584
885.920	369
885.984	-103
886.000	-136
886.080	36
886.089	9
886.160	-329
886.195	-364
886.240	-63
886.300	170
886.320	-17
886.400	-231
886.406	-277
886.480	373
886.511	731
886.560	650
886.616	496
886.640	520
886.720	584
886.722	585
886.800	280
886.827	261
886.879	552
886.932	544
886.959	441
887.038	391
887.039	386
887.119	-86
887.143	-253
887.198	-75
887.248	102
887.278	194
887.354	507
887.358	502
887.437	257
887.459	245
887.517	273
887.564	138
887.596	78
887.669	83
887.676	114
887.755	394
887.774	487
887.835	148
887.880	-84
887.914	237
887.985	807
887.994	715
888.073	-118
888.090	-286
888.153	334
888.195	752
888.232	577
888.300	249
888.311	250
888.391	226
888.405	237
888.470	-228
888.510	-562
888.549	-79
888.615	824
888.628	759
888.708	228
888.720	157
888.787	404
888.825	553
888.866	235
888.930	-268
888.945	-189
889.024	192
889.035	255
889.103	87
889.140	-44
889.182	16
889.245	172
889.261	43
889.340	-593
889.349	-662
889.419	262
889.454	735
889.498	545
889.559	290
889.577	398
889.656	875
889.664	923
889.735	219
889.768	-116
889.814	-1
889.873	160
889.978	172
890.083	684
890.187	-789
890.292	681
890.397	-652
890.501	590
890.606	528
890.710	386
890.815	-191
890.919	898
891.024	12
891.128	573
891.233	-420
891.337	310
891.442	-48
891.546	1106
891.650	-256
891.755	1035
891.859	880
891.963	264
892.068	303
892.172	108
892.276	-817
892.380	414
892.484	-314
892.589	218
892.693	209
892.797	482
892.901	-236
893.005	753
893.109	-70
893.213	157
893.317	-691
893.421	785
893.525	311
893.629	287
893.733	-706
893.837	169
893.941	-461
894.045	940
894.148	-461
894.252	567
894.356	-609
894.460	519
894.564	-624
894.667	-326
894.771	-315
894.875	-98
894.978	328
895.082	411
895.186	-727
895.289	189
895.393	-627
895.496	166
895.600	-133
895.703	-396
895.807	-491
895.910	-285
896.014	-376
896.117	509
896.221	-339
896.324	-887
896.427	-637
896.531	173
896.634	-710
896.737	693
896.840	-96
896.944	-164
897.047	-153
897.150	555
897.253	119
897.356	-373
897.460	84
897.563	-82
897.666	-465
897.769	88
897.872	-573
897.975	-474
898.078	-388
898.181	-281
898.284	-659
898.387	169
898.490	-157
898.593	154
898.695	-837
898.798	291
898.901	-420
899.004	-109
899.107	-532
899.209	373
899.312	-475
899.415	-288
899.518	-360
899.620	281
899.723	-642
899.826	306
899.928	-85
900.031	-5
900.133	402
900.236	542
900.338	-7
900.441	-109
900.543	-74
900.646	-34
900.748	-653
900.851	12
900.953	-551
901.055	683
901.158	-691
901.260	519
901.362	-1114
901.465	-590
901.567	-243
901.669	-281
901.771	-546
901.873	-489
901.976	-1069
902.078	343
902.180	-851
902.282	-422
902.384	-137
902.486	494
902.588	13
902.690	-228
902.792	7
902.894	-1270
902.996	-877
903.098	61
903.200	-214
903.302	165
903.404	-100
903.505	241
903.607	-356
903.709	646
903.811	-831
903.913	-494
904.014	-181
904.116	-465
904.218	-781
904.319	404
904.421	-563
904.523	-356
904.624	-311
904.726	54
904.827	-550
904.929	-524
905.030	-1412
905.132	90
905.233	-1026
905.335	-151
905.436	-31
905.537	193
905.639	-386
905.740	176
905.841	-1046
905.943	-87
906.044	-813
906.145	129
906.247	-748
906.348	105
906.449	-434
906.550	394
906.651	-157
906.752	-188
906.854	-832
906.955	560
907.056	-1451
907.157	-572
907.258	-811
907.359	65
907.460	-771
907.561	-198
907.662	314
907.762	442
907.863	-1504
907.964	54
908.065	186
908.166	312
908.267	-980
908.367	-28
908.468	-824
908.569	63
908.670	-204
908.770	1011
908.871	-591
908.971	-119
909.072	-261
909.173	36
909.273	-782
909.374	-689
909.474	-332
909.575	-87
909.675	-360
909.776	536
909.876	-306
909.977	280
910.077	-123
910.177	115
910.278	-333
910.378	-637
910.478	-71
910.579	-603
910.679	-1093
910.779	414
910.879	-881
910.980	4
911.080	-959
911.180	66
911.280	119
911.380	-726
911.480	-454
911.580	133
911.680	-1085
911.780	384
911.880	-774
911.980	-331
912.080	20
912.180	269
912.280	-274
912.380	-280
912.480	-292
912.580	237
912.679	-397
912.779	269
912.879	-757
912.979	-8
913.078	-1021
913.178	386
913.278	-1158
913.377	214
913.477	-276
913.577	-514
913.676	-97
913.776	-61
913.875	-224
913.975	507
914.074	-1328
914.174	395
914.273	-619
914.373	264
914.472	550
914.572	125
914.671	-916
914.770	-62
914.870	280
914.969	86
915.068	-295
915.167	-136
915.267	-699
915.366	1214
915.465	-619
915.564	294
915.663	-511
915.763	367
915.862	-780
915.961	-762
916.060	-263
916.159	-63
916.258	-4
916.357	-190
916.456	-149
916.555	373
916.654	-572
916.752	595
916.851	-327
916.950	-149
917.049	-454
917.148	451
917.247	-292
917.345	-41
917.444	-420
917.543	-160
917.642	2
917.740	-476
917.839	110
917.937	137
918.036	-147
918.135	294
918.233	129
918.332	70
918.430	-305
918.529	-238
918.627	-23
918.726	588
918.824	425
918.923	171
919.021	-765
919.119	32
919.218	-314
919.316	-191
919.414	-356
919.512	714
919.611	38
919.709	-99
919.807	-56
919.905	-315
920.003	-371
920.102	34
920.200	358
920.298	735
920.396	-421
920.494	150
920.592	-498
920.690	684
920.788	264
920.886	584
920.984	-142
921.082	237
921.180	350
921.277	108
921.375	350
921.473	-323
921.571	-439
921.669	581
921.766	-840
921.864	700
921.962	-93
922.060	398
922.157	-357
922.255	837
922.352	-666
922.450	481
922.548	-10
922.645	285
922.743	-500
922.840	876
922.938	901
923.035	875
923.133	575
923.230	62
923.327	273
923.425	501
923.522	30
923.619	494
923.717	-264
923.814	530
923.911	148
924.008	630
924.106	25
924.203	667
924.300	46
924.397	573
924.494	31
924.591	951
924.688	838
924.786	652
924.883	452
924.979	395
925.077	517
925.173	808
925.270	136
925.367	908
925.464	745
925.561	733
925.658	693
925.755	412
925.852	-234
925.948	1033
926.045	211
926.142	961
926.239	-600
926.335	604
926.432	-81
926.529	1197
926.625	-137
926.722	812
926.818	306
926.915	540
927.011	66
927.108	258
927.204	306
927.301	869
927.397	110
927.494	836
927.590	154
927.687	736
927.783	356
927.879	270
927.976	840
928.072	-217
928.168	-216
928.264	348
928.361	70
928.457	748
928.553	-167
928.649	838
928.745	502
928.841	396
928.937	244
929.033	-84
929.129	-631
929.225	543
929.321	57
929.417	-180
929.513	-91
929.609	915
929.705	-416
929.801	481
929.897	-951
929.993	725
930.089	-53
930.184	574
930.280	-343
930.376	1011
930.471	-382
930.567	815
930.663	8
930.758	597
930.854	-597
930.950	1150
931.045	171
931.141	343
931.236	340
931.332	132
931.427	-902
931.523	462
931.618	251
931.714	425
931.809	-205
931.905	43
932.000	-509
932.095	926
932.191	71
932.286	-106
932.381	-663
932.476	323
932.572	-91
932.667	757
932.762	186
932.857	394
932.952	-315
933.047	151
933.142	-1273
933.237	-59
933.332	-1
933.427	1342
933.522	128
933.617	329
933.712	48
933.807	504
933.902	462
933.997	1099
934.092	-383
934.187	102
934.282	17
934.376	422
934.471	276
934.566	-167
934.661	376
934.755	831
934.850	-432
934.945	1338
935.039	51
935.134	242
935.228	-542
935.323	993
935.417	33
935.512	328
935.606	366
935.701	1041
935.795	-327
935.890	415
935.984	-448
936.079	170
936.173	-360
936.267	241
936.362	-515
936.456	-70
936.550	353
936.644	709
936.738	-215
936.833	36
936.927	-350
937.021	-151
937.115	437
937.209	803
937.303	-61
937.397	-247
937.491	-716
937.585	897
937.679	-250
937.773	-327
937.867	-380
937.961	292
938.055	-764
938.149	696
938.243	-272
938.337	144
938.430	-424
938.524	471
938.618	-129
938.712	859
938.805	-618
938.899	486
938.993	-548
939.086	473
939.180	-718
939.274	354
939.367	-767
939.461	-211
939.554	-184
939.648	491
939.741	-154
939.835	138
939.928	404
940.022	1003
940.115	-314
940.208	-411
940.302	-105
940.395	473
940.488	-599
940.582	-344
940.675	-462
940.768	412
940.861	34
940.954	632
941.048	-1052
941.141	610
941.234	-5
941.327	105
941.420	241
941.513	0
941.606	-839
941.699	531
941.792	-784
941.885	225
941.978	-584
942.071	190
942.164	-989
942.257	636
942.349	-905
942.442	1112
942.535	-899
942.628	592
942.721	-228
942.813	-26
942.906	93
942.999	93
943.091	-525
943.184	-253
943.277	-340
943.369	-516
943.462	-736
943.554	410
943.647	-1185
943.739	-189
943.832	-381
943.924	337
944.017	-542
944.109	-51
944.201	-323
944.294	-125
944.386	-568
944.478	406
944.571	82
944.663	-86
944.755	-685
944.847	544
944.940	-548
945.032	-194
945.124	-352
945.216	493
945.308	-1674
945.400	82
945.492	-44
945.584	523
945.676	-584
945.768	-150
945.860	-214
945.952	-117
946.044	-458
946.136	-201
946.228	-1075
946.320	76
946.412	-288
946.503	-18
946.595	-334
946.687	-377
946.779	-790
946.870	209
946.962	-855
947.054	426
947.145	-557
947.237	-6
947.329	-287
947.420	13
947.512	-1054
947.603	-240
947.695	-445
947.786	-723
947.878	-476
947.969	-324
948.061	-331
948.152	-94
948.243	-1329
948.335	53
948.426	-1138
948.517	46
948.609	-175
948.700	-338
948.791	-241
948.882	-16
948.973	-637
949.065	-585
949.156	-1375
949.247	-1016
949.338	-364
949.429	-41
949.520	-1089
949.611	-1030
949.702	-19
949.793	-142
949.884	53
949.975	-620
950.066	-885
950.157	-347
950.247	-864
950.338	-965
950.429	-861
950.520	128
950.611	-429
950.701	81
950.792	-320
950.883	114
950.973	-436
951.064	-467
951.155	-252
951.245	-72
951.336	-274
951.427	-1425
951.517	-538
951.608	-513
951.698	-1103
951.788	30
951.879	-342
951.969	-220
952.060	-1134
952.150	167
952.240	-869
952.331	-569
952.421	-155
952.511	-137
952.602	-489
952.692	-841
952.782	-449
952.872	-350
952.962	-904
953.052	-576
953.143	-1045
953.233	-1053
953.323	-902
953.413	-442
953.503	-1297
953.593	-704
953.683	-991
953.773	-793
953.863	68
953.953	-158
954.042	-757
954.132	-196
954.222	-1354
954.312	612
954.402	-227
954.492	-315
954.581	-617
954.671	-859
954.761	-1019
954.850	84
954.940	-612
955.030	422
955.119	-1188
955.209	-232
955.298	-1117
955.388	-26
955.477	-249
955.567	-285
955.656	-664
955.746	-285
955.835	-515
955.925	-352
956.014	-1083
956.103	-231
956.193	-415
956.282	-542
956.371	-666
956.461	-824
956.550	-1192
956.639	-275
956.728	-521
956.817	-764
956.906	-1446
956.995	-254
957.085	-537
957.174	-509
957.263	-796
957.352	-321
957.441	-702
957.530	-491
957.619	-1319
957.708	-455
957.796	-727
957.885	-93
957.974	-975
958.063	-689
958.152	-414
958.241	-1036
958.329	-1096
958.418	-366
958.507	-1319
958.596	118
958.684	-956
958.773	-7
958.861	-1440
958.950	-852
959.039	-66
959.127	592
959.216	-631
959.304	-385
959.393	-634
959.481	270
959.570	-881
959.658	-822
959.746	-749
959.835	-211
959.923	-1487
960.011	177
960.100	-934
960.188	-286
960.276	-896
960.365	-1463
960.453	-482
960.541	-713
960.629	-1659
960.717	-725
960.805	-1405
960.893	-1331
960.981	-1558
961.069	-169
961.158	-744
961.245	172
961.333	-997
961.421	-416
961.509	-1229
961.597	-95
961.685	-1166
961.773	-867
961.861	-1424
961.949	-479
962.036	-1032
962.124	-746
962.212	-1658
962.299	-404
962.387	-1745
962.475	-878
962.562	-773
962.650	-576
962.738	-765
962.825	-723
962.913	-1614
963.000	-1085
963.088	-1308
963.175	-237
963.263	-1613
963.350	-885
963.438	-1070
963.525	-755
963.612	-349
963.700	119
963.787	602
963.874	2016
963.962	-334
964.049	-31
964.136	-908
964.223	-697
964.310	-1356
964.398	-523
964.485	-710
964.572	-578
964.659	-170
964.746	515
964.833	489
964.920	-3
965.007	-1302
965.094	-28
965.181	-1511
965.268	-174
965.355	-592
965.441	131
965.528	-953
965.615	-120
965.702	-1890
965.789	-696
965.875	-1460
965.962	-642
966.049	-1015
966.136	-456
966.222	-1166
966.309	58
966.395	-1218
966.482	-675
966.569	-730
966.655	-664
966.742	-970
966.828	-724
966.915	-342
967.001	-674
967.087	-1395
967.174	-503
967.260	-681
967.347	-505
967.433	-1206
967.519	389
967.605	74
967.692	-1016
967.778	-2033
967.864	-215
967.950	-900
968.036	-357
968.123	-1481
968.209	-578
968.295	-2045
968.381	18
968.467	-1015
968.553	-1117
968.639	-1212
968.725	-457
968.811	-643
968.897	13
968.983	-1234
969.069	-566
969.154	-1320
969.240	303
969.326	-742
969.412	-561
969.497	-1756
969.583	-867
969.669	-235
969.755	-930
969.840	-1461
969.926	95
970.012	-747
970.097	-803
970.183	-1403
970.268	-258
970.354	-384
970.439	-713
970.525	169
970.610	225
970.696	-509
970.781	-570
970.866	-1106
970.952	-142
971.037	-998
971.122	-1156
971.208	-755
971.293	114
971.378	-2354
971.463	-920
971.549	-785
971.634	-481
971.719	-929
971.804	257
971.889	-1230
971.974	251
972.059	-1159
972.144	-412
972.229	-1968
972.314	-1087
972.399	-1286
972.484	-782
972.569	-647
972.654	-776
972.739	-558
972.824	296
972.908	-573
972.993	-1391
973.078	-1322
973.163	-1347
973.247	-1481
973.332	-1140
973.417	-438
973.501	-1096
973.586	-962
973.671	-539
973.755	-1088
973.840	-145
973.924	-563
974.009	-899
974.093	-1516
974.178	-79
974.262	-1239
974.346	-647
974.431	-861
974.515	-1373
974.600	-677
974.684	-56
974.768	-1450
974.852	-134
974.937	-1527
975.021	-127
975.105	-579
975.189	-165
975.273	-678
975.358	-2072
975.442	-1691
975.526	-1108
975.610	-1777
975.694	-1098
975.778	-1273
975.862	-686
975.946	-1884
976.030	-305
976.114	-1571
976.198	-818
976.281	-1195
976.365	-209
976.449	-1383
976.533	228
976.617	-1238
976.700	-1068
976.784	-908
976.868	-1324
976.951	-1124
977.035	-417
977.119	-1356
977.202	-1152
977.286	-1121
977.369	-775
977.453	-990
977.536	-794
977.620	-1140
977.703	-464
977.787	-1769
977.870	-369
977.953	-634
978.037	-1619
978.120	-75
978.203	-503
978.287	-1108
978.370	-144
978.453	-966
978.536	-1814
978.620	-1095
978.703	-879
978.786	-1873
978.869	-1236
978.952	-1723
979.035	347
979.118	-957
979.201	-1058
979.284	-1157
979.367	-486
979.450	-1152
979.533	-1625
979.616	-1052
979.699	-1672
979.782	-901
979.865	-1147
979.948	-1439
980.030	-1564
980.113	-1658
980.196	-954
980.279	-904
980.361	-875
980.444	-1630
980.526	-320
980.609	-1512
980.692	-720
980.774	-703
980.857	-1941
980.939	-590
981.022	-996
981.104	-1127
981.187	-1252
981.269	-1629
981.352	-343
981.434	-1171
981.516	-519
981.599	-951
981.681	-904
981.763	-1870
981.846	-116
981.928	-1230
982.010	-1720
982.092	-1237
982.174	-1468
982.256	-1469
982.339	-349
982.421	-1128
982.503	293
982.585	-2434
982.667	-652
982.749	-1681
982.831	-400
982.913	-1477
982.995	-551
983.077	-2444
983.158	-659
983.240	-1538
983.322	-903
983.404	-1807
983.486	-934
983.568	-1010
983.649	-836
983.731	-175
983.813	-1573
983.894	-2096
983.976	-1319
984.058	-1330
984.139	-1075
984.221	-1201
984.302	-963
984.384	-1064
984.465	-1897
984.547	-149
984.628	-1453
984.710	-982
984.791	-523
984.872	-1657
984.954	-923
985.035	-1710
985.116	-1642
985.198	-2053
985.279	-441
985.360	-1978
985.441	-258
985.522	-814
985.604	-850
985.685	-1681
985.766	37
985.847	-906
985.928	-1128
986.009	-419
986.090	-1050
986.171	-1098
986.252	-791
986.333	-959
986.414	-782
986.495	-798
986.576	-1299
986.656	-1879
986.737	-562
986.818	-1046
986.899	-1396
986.980	-925
987.060	-276
987.141	-1083
987.222	-980
987.302	-1150
987.383	-935
987.464	-1944
987.544	-1182
987.625	-1309
987.705	-576
987.786	-1435
987.866	-913
987.947	-705
988.027	-925
988.108	-1760
988.188	-709
988.268	-1258
988.349	-439
988.429	-1826
988.509	-1219
988.589	-826
988.670	-1506
988.750	-318
988.830	-713
988.910	-1758
988.990	-356
989.070	-1199
989.151	-641
989.231	-1893
989.311	-967
989.391	-1253
989.471	-817
989.551	-988
989.631	-683
989.711	-1118
989.791	-889
989.870	-2284
989.950	-429
990.030	-1078
990.110	-886
990.190	-1528
990.269	-1468
990.349	-1558
990.429	-693
990.509	-890
990.588	-1758
990.668	-1365
990.747	-835
990.827	-1737
990.907	-552
990.986	-1712
991.066	-857
991.145	-2279
991.225	-367
991.304	-1488
991.383	-1085
991.463	-1272
991.542	-1574
991.622	-1444
991.701	-564
991.780	-2218
991.859	-843
991.939	-954
992.018	-1273
992.097	-1081
992.176	-628
992.256	-1607
992.335	-991
992.414	-1271
992.493	-1480
992.572	-1616
992.651	-478
992.730	-1108
992.809	-723
992.888	-1786
992.967	-760
993.046	-1334
993.125	-809
993.203	-1436
993.282	-871
993.361	-1508
993.440	-675
993.519	-1629
993.597	-1210
993.676	-1913
993.755	-602
993.834	-1597
993.912	-1757
993.991	-1203
994.069	-1431
994.148	-1602
994.226	-1046
994.305	-1428
994.384	-1568
994.462	-1863
994.540	-1112
994.619	-1379
994.697	-447
994.776	-1430
994.854	-1198
994.932	-1339
995.011	-670
995.089	-1616
995.167	-694
995.245	-979
995.324	-1915
995.402	-857
995.480	-886
995.558	-1410
995.636	-1675
995.714	-2100
995.792	-895
995.870	-1086
995.948	-736
996.026	-1044
996.104	-1373
996.182	-1528
996.260	-1213
996.338	-1204
996.416	-1401
996.494	-1599
996.572	-500
996.649	-1821
996.727	-1935
996.805	-1217
996.883	-1032
996.960	-1582
997.038	-1224
997.116	-962
997.193	-1886
997.271	-2088
997.348	-841
997.426	-1273
997.504	-806
997.581	-1432
997.658	-1241
997.736	-2508
997.813	-888
997.891	-1253
997.968	-774
998.046	-1740
998.123	-1638
998.200	-1585
998.277	-1577
998.355	-599
998.432	-2035
998.509	-1644
998.586	-580
998.663	-1346
998.741	-1084
998.818	-1749
998.895	-1157
998.972	-943
999.049	-1084
999.126	-1438
999.203	-1221
999.280	-1496
999.357	-1511
999.434	-1617
999.511	-575
999.587	-989
999.664	-1665
999.741	-887
999.818	-104
999.895	-1636
999.971	-2006
1000.048	-1366
1000.125	-893
1000.202	-1828
1000.278	-1448
1000.355	-1452
1000.431	-1145
1000.508	-1766
1000.584	-726
1000.661	-1916
1000.738	-1788
1000.814	-1528
1000.890	-1289
1000.967	-1741
1001.043	-604
1001.120	-1861
1001.196	-1078
1001.272	-1227
1001.349	-843
1001.425	-1121
1001.501	-1306
1001.577	-1770
1001.654	-582
1001.730	-1477
1001.806	-1390
1001.882	-1745
1001.958	-1329
1002.034	-1078
1002.110	-1272
1002.186	-1781
1002.262	-859
1002.338	-2502
1002.414	-801
1002.490	-1365
1002.566	-1356
1002.642	-1576
1002.718	-75
1002.794	-1269
1002.870	-1688
1002.945	-1744
1003.021	-815
1003.097	-2082
1003.173	-1238
1003.248	-1774
1003.324	-704
1003.400	-1470
1003.475	-1813
1003.551	-1424
1003.626	-1671
1003.702	-2381
1003.777	-1290
1003.853	-1629
1003.928	-1548
1004.004	-1919
1004.079	-1195
1004.155	-1705
1004.230	-1613
1004.305	-1510
1004.381	-1363
1004.456	-1596
1004.531	-1399
1004.607	-1356
1004.682	-1481
1004.757	-1619
1004.832	-467
1004.907	-2278
1004.982	-1415
1005.057	-1049
1005.133	-1604
1005.208	-2577
1005.283	-1430
1005.358	-1931
1005.433	-815
1005.508	-1977
1005.583	-1204
1005.657	-1888
1005.732	-875
1005.807	-2090
1005.882	-1507
1005.957	-2174
1006.032	-439
1006.106	-2316
1006.181	-1800
1006.256	-1878
1006.331	-1202
1006.405	-2439
1006.480	-1788
1006.554	-1968
1006.629	-913
1006.704	-1551
1006.778	-1339
1006.853	-2141
1006.927	-2006
1007.002	-2710
1007.076	-999
1007.150	-1938
1007.225	-1372
1007.299	-1730
1007.373	-1817
1007.448	-1925
1007.522	-1190
1007.596	-2118
1007.671	-2070
1007.745	-1318
1007.819	-1341
1007.893	-2646
1007.967	-1357
1008.041	-2374
1008.115	-1401
1008.190	-2307
1008.264	-461
1008.338	-2130
1008.412	-1300
1008.486	-1579
1008.560	-888
1008.633	-2302
1008.707	-1677
1008.781	-2527
1008.855	-1139
1008.929	-1744
1009.003	-1780
1009.076	-1814
1009.150	-1113
1009.224	-1932
1009.298	-950
1009.371	-1965
1009.445	-1422
1009.519	-2139
1009.592	-1368
1009.666	-1880
1009.739	-1420
1009.813	-2401
1009.886	-1164
1009.960	-2038
1010.033	-958
1010.107	-2131
1010.180	-2187
1010.253	-2005
1010.327	-1645
1010.400	-2040
1010.473	-984
1010.547	-1908
1010.620	-2362
1010.693	-1758
1010.766	-2228
1010.840	-2229
1010.913	-2135
1010.986	-2725
1011.059	-1767
1011.132	-2568
1011.205	-1944
1011.278	-1307
1011.351	-1546
1011.424	-2260
1011.497	-1987
1011.570	-2443
1011.643	-1788
1011.716	-1946
1011.789	-1216
1011.862	-1180
1011.934	-1537
1012.007	-2508
1012.080	-946
1012.153	-2426
1012.225	-1747
1012.298	-3125
1012.371	-1513
1012.443	-2116
1012.516	-1802
1012.588	-1950
1012.661	-1311
1012.733	-2764
1012.806	-538
1012.879	-2969
1012.951	-1537
1013.023	-2573
1013.096	-1055
1013.168	-2276
1013.241	-1637
1013.313	-1550
1013.385	-2156
1013.458	-1953
1013.530	-806
1013.602	-2123
1013.674	-1071
1013.746	-2232
1013.819	-1782
1013.891	-2032
1013.963	-2350
1014.035	-2170
1014.107	-918
1014.179	-1960
1014.251	-1778
1014.323	-1631
1014.395	-1763
1014.467	-2223
1014.539	-1456
1014.611	-2410
1014.683	-1887
1014.754	-2046
1014.826	-1741
1014.898	-1948
1014.970	-2549
1015.042	-2229
1015.113	-1645
1015.185	-2548
1015.257	-2427
1015.328	-2333
1015.400	-2124
1015.471	-1948
1015.543	-2201
1015.615	-2551
1015.686	-2381
1015.757	-1713
1015.829	-1635
1015.901	-2826
1015.972	-1512
1016.043	-2104
1016.115	-2086
1016.186	-2058
1016.257	-1843
1016.328	-2287
1016.400	-1258
1016.471	-1648
1016.542	-1650
1016.613	-2279
1016.685	-1298
1016.756	-2468
1016.827	-1981
1016.898	-3013
1016.969	-1477
1017.040	-1764
1017.111	-1295
1017.182	-2196
1017.253	-1066
1017.324	-2633
1017.395	-2219
1017.466	-2056
1017.537	-2362
1017.608	-2026
1017.678	-1565
1017.749	-2127
1017.820	-2024
1017.891	-2794
1017.961	-1969
1018.032	-2352
1018.103	-1386
1018.173	-1804
1018.244	-1225
1018.315	-3327
1018.385	-817
1018.456	-1944
1018.526	-1838
1018.597	-2034
1018.667	-1349
1018.738	-3038
1018.808	-2123
1018.878	-2277
1018.949	-2466
1019.019	-2627
1019.089	-2200
1019.160	-2488
1019.230	-2482
1019.300	-1552
1019.371	-2643
1019.441	-2478
1019.511	-2335
1019.581	-2577
1019.651	-1323
1019.721	-1822
1019.791	-2078
1019.861	-2114
1019.931	-1958
1020.001	-2654
1020.071	-1942
1020.141	-1586
1020.211	-2338
1020.281	-2515
1020.351	-1690
1020.421	-2539
1020.491	-1381
1020.560	-3153
1020.630	-1988
1020.700	-2389
1020.770	-1690
1020.839	-2661
1020.909	-2078
1020.979	-2035
1021.048	-1788
1021.118	-2245
1021.187	-1738
1021.257	-2580
1021.326	-1294
1021.396	-2424
1021.465	-1579
1021.535	-2001
1021.604	-1579
1021.674	-1999
1021.743	-1817
1021.812	-2158
1021.882	-2349
1021.951	-2110
1022.020	-1393
1022.089	-2178
1022.159	-2240
1022.228	-2597
1022.297	-1828
1022.366	-2458
1022.435	-976
1022.504	-2480
1022.573	-2180
1022.642	-2588
1022.711	-1866
1022.781	-2617
1022.849	-1426
1022.918	-3177
1022.987	-2014
1023.056	-2742
1023.125	-1668
1023.194	-2595
1023.263	-1555
1023.331	-2734
1023.400	-2293
1023.469	-1890
1023.538	-1780
1023.606	-2622
1023.675	-1989
1023.744	-3157
1023.812	-1947
1023.881	-2479
1023.949	-2116
1024.018	-3185
1024.086	-1201
1024.155	-2461
1024.223	-2681
1024.292	-2182
1024.360	-1373
1024.429	-2928
1024.497	-2272
1024.565	-2301
1024.634	-1958
1024.702	-2600
1024.770	-2220
1024.838	-2191
1024.907	-2021
1024.975	-2662
1025.043	-1521
1025.111	-2560
1025.179	-1864
1025.247	-1904
1025.315	-1874
1025.383	-2951
1025.451	-1786
1025.519	-2883
1025.587	-2741
1025.655	-2464
1025.723	-2419
1025.791	-2142
1025.859	-2309
1025.927	-2126
1025.995	-2583
1026.062	-2827
1026.130	-1661
1026.198	-3017
1026.266	-1976
1026.333	-2750
1026.401	-1334
1026.469	-2567
1026.536	-2519
1026.604	-2410
1026.671	-2783
1026.739	-2464
1026.806	-1865
1026.874	-2470
1026.941	-1793
1027.009	-2580
1027.076	-1789
1027.144	-1859
1027.211	-2761
1027.278	-3362
1027.345	-1592
1027.413	-2692
1027.480	-1708
1027.547	-2613
1027.614	-1792
1027.682	-2403
1027.749	-1816
1027.816	-3182
1027.883	-2134
1027.950	-2592
1028.017	-2070
1028.084	-2579
1028.151	-2167
1028.218	-2978
1028.285	-2074
1028.352	-2524
1028.419	-2942
1028.486	-2498
1028.553	-1214
1028.619	-2577
1028.686	-1720
1028.753	-2392
1028.820	-2870
1028.886	-3066
1028.953	-2233
1029.020	-2872
1029.086	-2265
1029.153	-2694
1029.220	-2122
1029.286	-2671
1029.353	-1918
1029.419	-2067
1029.486	-1975
1029.552	-2200
1029.619	-1892
1029.685	-2703
1029.751	-2118
1029.818	-2208
1029.884	-2221
1029.951	-2465
1030.017	-1395
1030.083	-2436
1030.149	-1899
1030.216	-1863
1030.282	-1416
1030.348	-3195
1030.414	-2350
1030.480	-3741
1030.546	-2392
1030.612	-2262
1030.678	-1965
1030.744	-2653
1030.810	-2953
1030.876	-1936
1030.942	-1549
1031.008	-2349
1031.074	-2384
1031.140	-2719
1031.206	-2061
1031.272	-2715
1031.337	-1763
1031.403	-2422
1031.469	-2080
1031.534	-2492
1031.600	-2271
1031.666	-3169
1031.731	-2063
1031.797	-2733
1031.863	-2338
1031.928	-3056
1031.994	-2990
1032.059	-3025
1032.125	-2073
1032.190	-2150
1032.256	-2566
1032.321	-2916
1032.386	-2113
1032.452	-2025
1032.517	-2645
1032.582	-3117
1032.647	-1763
1032.713	-2834
1032.778	-1971
1032.843	-2476
1032.908	-2432
1032.974	-2492
1033.039	-2514
1033.104	-1746
1033.169	-1842
1033.234	-2403
1033.299	-2218
1033.364	-2192
1033.429	-1642
1033.494	-2118
1033.559	-1882
1033.624	-2135
1033.688	-1208
1033.753	-2526
1033.818	-2392
1033.883	-2624
1033.948	-2040
1034.013	-2915
1034.077	-2053
1034.142	-2338
1034.207	-2227
1034.271	-1952
1034.336	-1473
1034.400	-2460
1034.465	-1645
1034.530	-1953
1034.594	-1931
1034.658	-2958
1034.723	-2701
1034.787	-2113
1034.852	-1932
1034.916	-2509
1034.981	-1719
1035.045	-2032
1035.109	-1401
1035.173	-1463
1035.238	-2376
1035.302	-2415
1035.366	-1437
1035.430	-2446
1035.495	-2606
1035.559	-2845
1035.623	-1979
1035.687	-2768
1035.751	-1900
1035.815	-2440
1035.879	-1978
1035.943	-2491
1036.007	-1932
1036.071	-2686
1036.135	-1545
1036.198	-2919
1036.262	-2815
1036.326	-1353
1036.390	-1819
1036.454	-2369
1036.517	-2207
1036.581	-2277
1036.645	-1719
1036.709	-2185
1036.772	-1793
1036.836	-2309
1036.900	-2310
1036.963	-2307
1037.026	-2194
1037.090	-2707
1037.154	-2500
1037.217	-2258
1037.280	-2647
1037.344	-2056
1037.407	-1951
1037.471	-2703
1037.534	-2393
1037.597	-3238
1037.661	-2480
1037.724	-2929
1037.787	-3009
1037.850	-2989
1037.913	-1979
1037.977	-2421
1038.040	-2171
1038.103	-2509
1038.166	-2049
1038.229	-1803
1038.292	-1916
1038.355	-2301
1038.418	-1420
1038.481	-2050
1038.544	-1816
1038.607	-1849
1038.670	-2153
1038.732	-2867
1038.795	-2188
1038.858	-2815
1038.921	-2060
1038.984	-2014
1039.046	-2024
1039.109	-2231
1039.172	-2542
1039.234	-2538
1039.297	-1687
1039.360	-2625
1039.422	-1687
1039.485	-2743
1039.547	-2209
1039.610	-2617
1039.672	-2512
1039.734	-2597
1039.797	-2258
1039.859	-2039
1039.922	-1836
1039.984	-2042
1040.046	-2024
1040.109	-2692
1040.171	-2214
1040.233	-2559
1040.295	-1734
1040.358	-2423
1040.420	-1536
1040.482	-2874
1040.544	-2087
1040.606	-2253
1040.668	-2037
1040.730	-2570
1040.792	-2942
1040.854	-2565
1040.916	-2299
1040.978	-2783
1041.040	-2228
1041.102	-2289
1041.164	-1408
1041.225	-2420
1041.287	-2420
1041.349	-2989
1041.411	-2112
1041.472	-2179
1041.534	-1817
1041.596	-2512
1041.657	-1943
1041.719	-2886
1041.781	-1644
1041.842	-3357
1041.904	-2481
1041.965	-2400
1042.027	-2050
1042.088	-2572
1042.150	-2070
1042.211	-2139
1042.272	-2350
1042.334	-1948
1042.395	-2436
1042.456	-3069
1042.518	-2354
1042.579	-2569
1042.640	-3108
1042.701	-2730
1042.763	-2121
1042.824	-2556
1042.885	-2769
1042.946	-2369
1043.007	-2067
1043.068	-2676
1043.129	-1983
1043.190	-2529
1043.251	-2012
1043.312	-2187
1043.373	-1750
1043.434	-2680
1043.495	-2079
1043.556	-2182
1043.616	-2341
1043.677	-2649
1043.738	-1768
1043.799	-2742
1043.859	-1533
1043.920	-2934
1043.981	-1788
1044.041	-1889
1044.102	-1473
1044.162	-3201
1044.223	-2358
1044.284	-1915
1044.344	-2566
1044.405	-2626
1044.465	-2297
1044.525	-2605
1044.586	-2507
1044.646	-2277
1044.707	-1754
1044.767	-2617
1044.827	-2493
1044.887	-2673
1044.948	-1172
1045.008	-2493
1045.068	-1699
1045.128	-2136
1045.188	-2353
1045.249	-2781
1045.309	-1507
1045.369	-1913
1045.429	-2064
1045.489	-2500
1045.549	-1196
1045.609	-2655
1045.669	-1948
1045.729	-2237
1045.789	-1313
1045.848	-2732
1045.908	-1846
1045.968	-2153
1046.028	-1496
1046.088	-2123
1046.147	-1977
1046.207	-2010
1046.267	-2522
1046.326	-1655
1046.386	-1481
1046.446	-1187
1046.505	-2057
1046.565	-1775
1046.624	-1384
1046.684	-1743
1046.743	-520
1046.803	-178
1046.862	-442
1046.922	0
