'Start Wavelength	183.907
'End Wavelength	1046.922
'Gate Delay	5.000
'Gate Width (ms)	1.050
'Laser Output Level	0.000
'X Position	0.000
'Y Position	0.000
'Z Position	0.000
'Grid Point Number	1.000
'Shot Number	100.000
183.907	413.000
183.977	770.000
184.047	639
184.116	518
184.186	74
184.256	58
184.325	382
184.395	269
184.465	52
184.534	329
184.604	592
184.674	-264
184.743	482
184.813	159
184.883	-220
184.952	260
185.022	-186
185.092	111
185.161	-263
185.231	369
185.301	103
185.370	1141
185.440	566
185.509	242
185.579	441
185.649	330
185.718	128
185.788	580
185.857	-694
185.927	190
185.996	432
186.066	500
186.136	165
186.205	921
186.275	445
186.344	404
186.414	930
186.483	409
186.553	417
186.622	2294
186.692	975
186.761	772
186.831	498
186.900	339
186.970	773
187.039	718
187.109	688
187.178	285
187.248	506
187.317	642
187.387	160
187.456	1369
187.526	626
187.595	197
187.664	103
187.734	1030
187.803	389
187.873	978
187.942	971
188.012	783
188.081	1361
188.150	1391
188.220	1938
188.289	944
188.358	1330
188.428	589
188.497	775
188.567	1001
188.636	427
188.705	531
188.775	762
188.844	965
188.913	279
188.983	144
189.052	418
189.121	-84
189.191	396
189.260	1133
189.329	1630
189.399	824
189.468	197
189.537	835
189.606	-17
189.676	995
189.745	763
189.814	1640
189.883	843
189.953	1294
190.022	1693
190.091	5266
190.161	3326
190.230	1415
190.299	1077
190.368	1045
190.437	760
190.507	1247
190.576	889
190.645	694
190.714	250
190.783	776
190.853	784
190.922	1335
190.991	596
191.060	-92
191.129	201
191.198	2037
191.268	192
191.337	748
191.406	1254
191.475	1234
191.544	703
191.613	538
191.682	706
191.752	1005
191.821	1281
191.890	636
191.959	227
192.028	541
192.097	438
192.166	1137
192.235	185
192.304	700
192.373	684
192.442	582
192.511	564
192.580	971
192.650	784
192.719	884
192.788	1440
192.857	1172
192.926	1719
192.995	1935
193.064	2135
193.133	2245
193.202	2560
193.271	2621
193.340	1889
193.409	3091
193.478	2650
193.547	4299
193.615	5178
193.684	4393
193.753	1756
193.822	1449
193.891	1637
193.960	1354
194.029	804
194.098	1370
194.167	698
194.236	1009
194.305	919
194.374	1507
194.443	1505
194.512	1292
194.580	1809
194.649	2381
194.718	1523
194.787	1163
194.856	964
194.925	1736
194.994	1405
195.062	2279
195.131	1901
195.200	2036
195.269	1987
195.338	686
195.407	1008
195.475	1039
195.544	1789
195.613	1372
195.682	1638
195.751	1952
195.819	2025
195.888	2072
195.957	2710
196.026	1722
196.094	2436
196.163	3499
196.232	1651
196.301	2501
196.369	1837
196.438	1508
196.507	2086
196.576	1444
196.644	1859
196.713	1210
196.782	1014
196.850	1218
196.919	710
196.988	1501
197.056	1651
197.125	1629
197.194	1757
197.262	1296
197.331	647
197.400	1445
197.468	400
197.537	1136
197.606	1806
197.674	3598
197.743	3957
197.812	2994
197.880	5222
197.949	2810
198.017	4571
198.086	1986
198.155	1525
198.223	3417
198.292	5038
198.360	2424
198.429	1096
198.497	2528
198.566	5363
198.635	3024
198.703	2400
198.772	3454
198.840	8826
198.909	3769
198.977	1544
199.046	1798
199.114	2277
199.183	1717
199.251	1651
199.320	1347
199.388	972
199.457	1816
199.525	1881
199.594	1247
199.662	1493
199.731	1511
199.799	1472
199.867	2078
199.936	1915
200.004	687
200.073	1681
200.141	1551
200.210	1140
200.278	1858
200.346	2262
200.415	2588
200.483	2834
200.552	1143
200.620	1756
200.688	1156
200.757	1873
200.825	1561
200.893	2095
200.962	1632
201.030	1612
201.098	1494
201.167	2045
201.235	1691
201.303	1869
201.372	2368
201.440	1696
201.508	3070
201.577	2555
201.645	2257
201.713	1663
201.781	2816
201.850	2871
201.918	2563
201.986	1648
202.055	1468
202.123	1106
202.191	1627
202.259	1390
202.327	1074
202.396	1457
202.464	2012
202.532	4325
202.600	10702
202.669	3721
202.737	2366
202.805	1695
202.873	2396
202.941	1471
203.009	1396
203.078	1835
203.146	2096
203.214	1889
203.282	1440
203.350	2220
203.418	1889
203.487	1784
203.555	1108
203.623	2259
203.691	2448
203.759	1356
203.827	805
203.895	2650
203.963	2625
204.031	2337
204.099	2182
204.168	1519
204.236	2324
204.304	2621
204.372	1792
204.440	2439
204.508	2336
204.576	1945
204.644	1872
204.712	1897
204.780	2288
204.848	2318
204.916	2043
204.984	1818
205.052	2277
205.120	2010
205.188	1961
205.256	1148
205.324	1819
205.392	970
205.460	2452
205.528	2910
205.596	1737
205.664	2318
205.732	3166
205.799	11473
205.867	6780
205.935	3125
206.003	3130
206.071	2099
206.139	2228
206.207	1945
206.275	2244
206.343	2160
206.411	2087
206.478	1258
206.546	2512
206.614	1907
206.682	2304
206.750	2151
206.818	4426
206.885	3391
206.953	2137
207.021	2249
207.089	2322
207.157	1730
207.225	2637
207.292	2018
207.360	2853
207.428	1681
207.496	2484
207.563	1503
207.631	1906
207.699	1629
207.767	2176
207.834	2308
207.902	3125
207.970	2324
208.038	2435
208.105	2822
208.173	3675
208.241	3193
208.309	4298
208.376	4113
208.444	5463
208.512	3097
208.579	2652
208.647	4339
208.715	3301
208.782	2940
208.850	2446
208.918	2418
208.985	2171
209.053	2584
209.120	3198
209.188	2575
209.256	3248
209.323	3702
209.391	3735
209.459	2442
209.526	2686
209.594	2181
209.661	2782
209.729	2538
209.796	3303
209.864	2986
209.932	3201
209.999	2789
210.067	3122
210.134	3260
210.202	3725
210.269	4190
210.337	4064
210.404	2395
210.472	2878
210.539	2906
210.607	4547
210.674	3934
210.742	2643
210.809	3620
210.877	4281
210.944	4302
211.012	4259
211.079	3668
211.146	3089
211.214	4042
211.281	5085
211.349	3368
211.416	3350
211.484	3496
211.551	2849
211.618	2451
211.686	2839
211.753	3334
211.821	3237
211.888	2880
211.955	3425
212.023	3350
212.090	3043
212.157	3842
212.225	4200
212.292	7727
212.359	19660
212.427	26253
212.494	8818
212.561	4777
212.629	4476
212.696	4093
212.763	4082
212.831	3597
212.898	3201
212.965	3165
213.032	3238
213.100	3529
213.167	4628
213.234	4291
213.301	3365
213.369	3189
213.436	3436
213.503	3467
213.570	3654
213.638	3459
213.705	3517
213.772	2944
213.839	5363
213.906	3795
213.973	4222
214.041	3017
214.108	3226
214.175	3673
214.242	3606
214.309	3295
214.376	4233
214.444	3993
214.511	5326
214.578	4242
214.645	4762
214.712	4539
214.779	3739
214.846	4329
214.913	5196
214.980	5628
215.048	6006
215.115	6165
215.182	5085
215.249	4468
215.316	3989
215.383	3178
215.450	4481
215.517	3460
215.584	3338
215.651	3015
215.718	3876
215.785	3751
215.852	4641
215.919	3649
215.986	3328
216.053	2217
216.120	3344
216.187	3917
216.254	3026
216.321	3891
216.388	4032
216.455	4733
216.522	4052
216.589	6095
216.656	10220
216.722	7094
216.789	6335
216.856	5809
216.923	6146
216.990	5121
217.057	5625
217.124	7016
217.191	7203
217.258	7961
217.324	9271
217.391	8481
217.458	6160
217.525	5220
217.592	4928
217.659	5457
217.725	5514
217.792	8035
217.859	5092
217.926	3699
217.993	3142
218.059	3043
218.126	2942
218.193	3358
218.260	2939
218.327	1875
218.393	3687
218.460	2272
218.527	3031
218.594	4494
218.660	8391
218.727	6152
218.794	2982
218.860	3168
218.927	2816
218.994	2507
219.061	3758
219.127	5063
219.194	5185
219.261	2881
219.327	2452
219.394	2229
219.461	2624
219.527	2755
219.594	5482
219.661	3182
219.727	2527
219.794	2771
219.860	3228
219.927	3317
219.994	7995
220.060	10197
220.127	5748
220.193	4867
220.260	5165
220.326	8219
220.393	13945
220.460	14077
220.526	8387
220.593	6523
220.659	5783
220.726	8991
220.792	16426
220.859	14992
220.925	23006
220.992	24541
221.058	24546
221.125	19116
221.191	13783
221.258	5873
221.324	4513
221.391	3836
221.457	2955
221.524	3977
221.590	8904
221.657	20726
221.723	9617
221.789	13537
221.856	9145
221.922	5446
221.989	4731
222.055	3714
222.121	3303
222.188	4234
222.254	4118
222.321	2657
222.387	3066
222.453	2215
222.520	2081
222.586	2604
222.652	2071
222.719	2149
222.785	2996
222.851	2273
222.918	2487
222.984	2270
223.050	2587
223.116	2039
223.183	2541
223.249	2019
223.315	2618
223.382	2311
223.448	2151
223.514	1953
223.580	1636
223.647	1737
223.713	2011
223.779	2086
223.845	1903
223.911	2673
223.978	1955
224.044	2502
224.110	1893
224.176	2154
224.242	1799
224.309	1990
224.375	2255
224.441	1320
224.507	1849
224.573	2218
224.639	2006
224.705	1464
224.772	1174
224.838	2412
224.904	2901
224.970	1751
225.036	2658
225.102	3120
225.168	2573
225.234	1918
225.300	3017
225.366	2128
225.432	1378
225.499	3035
225.565	2953
225.631	3429
225.697	3712
225.763	4229
225.829	4586
225.895	5919
225.961	7992
226.027	5943
226.093	5491
226.159	7187
226.225	13389
226.291	34396
226.357	34420
226.423	15435
226.489	9363
226.554	6003
226.620	7265
226.686	9682
226.752	14576
226.818	31119
226.884	57799
226.950	31470
227.016	14096
227.082	8877
227.148	7488
227.214	7272
227.279	5300
227.345	3637
227.411	4702
227.477	8165
227.543	15953
227.609	10769
227.674	6081
227.740	5199
227.806	4132
227.872	3720
227.938	4780
228.003	5359
228.069	3919
228.135	2285
228.201	2922
228.267	3228
228.332	5436
228.398	6304
228.464	3268
228.530	2196
228.595	2843
228.661	4180
228.727	7830
228.792	3697
228.858	3539
228.924	4339
228.990	4347
229.055	4751
229.121	3987
229.187	3060
229.252	4328
229.318	3025
229.384	3906
229.449	4723
229.515	2754
229.581	1323
229.646	3082
229.712	4851
229.777	12302
229.843	7690
229.909	7225
229.974	7388
230.040	5542
230.105	4958
230.171	5917
230.236	7506
230.302	10844
230.368	6519
230.433	5289
230.499	3472
230.564	3839
230.630	3885
230.695	3292
230.761	3294
230.826	4587
230.892	6425
230.957	3396
231.023	3221
231.088	3356
231.154	2671
231.219	3732
231.284	6984
231.350	5387
231.415	3158
231.481	2827
231.546	2431
231.612	2568
231.677	2360
231.742	2363
231.808	2836
231.873	2216
231.939	3166
232.004	8119
232.069	4770
232.135	3915
232.200	2645
232.265	2749
232.331	2117
232.396	2631
232.461	2102
232.527	2678
232.592	2549
232.657	4002
232.723	6724
232.788	3795
232.853	2606
232.918	2692
232.984	2614
233.049	2929
233.114	5767
233.179	4431
233.245	10484
233.310	5537
233.375	3313
233.440	3038
233.506	2644
233.571	2028
233.636	2796
233.701	2962
233.766	9094
233.832	6281
233.897	3869
233.962	4180
234.027	4390
234.092	4229
234.157	3902
234.222	4725
234.288	10320
234.353	19699
234.418	14701
234.483	7828
234.548	6821
234.613	5544
234.678	5475
234.743	9573
234.808	21074
234.873	8787
234.938	4899
235.004	4438
235.069	4342
235.134	3151
235.199	3660
235.264	3712
235.329	2545
235.394	3725
235.459	5193
235.524	4613
235.589	3344
235.654	3502
235.719	3433
235.784	2956
235.849	6752
235.913	9663
235.978	14386
236.043	9514
236.108	5327
236.173	6665
236.238	4684
236.303	4415
236.368	4574
236.433	11711
236.498	11223
236.563	8803
236.627	31078
236.692	73167
236.757	33736
236.822	17428
236.887	12835
236.952	9753
237.017	9165
237.081	10050
237.146	15312
237.211	31829
237.276	88904
237.341	87437
237.405	31674
237.470	16955
237.535	11232
237.600	7144
237.664	6148
237.729	5875
237.794	13059
237.859	15400
237.923	9780
237.988	6988
238.053	11051
238.118	13199
238.182	31115
238.247	15607
238.312	11122
238.376	7510
238.441	6695
238.506	5168
238.570	3475
238.635	3397
238.700	3486
238.764	4532
238.829	17103
238.893	9384
238.958	8393
239.023	5407
239.087	4733
239.152	4600
239.216	3385
239.281	3617
239.346	4671
239.410	4294
239.475	9295
239.539	29842
239.604	12037
239.668	5411
239.733	4735
239.797	12458
239.862	25148
239.926	20345
239.991	6927
240.055	4223
240.120	4128
240.184	4110
240.249	3800
240.313	3473
240.378	6005
240.442	22465
240.507	15841
240.571	6544
240.635	16072
240.700	9919
240.764	4391
240.829	3726
240.893	3720
240.957	5252
241.022	20771
241.086	21145
241.151	8409
241.215	5226
241.279	10119
241.344	11445
241.408	5271
241.472	5380
241.537	5153
241.601	4230
241.665	4349
241.730	4586
241.794	4615
241.858	4344
241.922	5028
241.987	4068
242.051	4237
242.115	4121
242.179	4115
242.244	3893
242.308	4635
242.372	5106
242.436	5213
242.501	4334
242.565	3649
242.629	3720
242.693	3886
242.757	3749
242.822	3369
242.886	4706
242.950	5286
243.014	5186
243.078	6925
243.142	5570
243.206	5055
243.271	5022
243.335	5820
243.399	11440
243.463	67935
243.527	70500
243.591	19741
243.655	10471
243.719	6588
243.783	8692
243.847	15712
243.911	17090
243.975	20781
244.040	9988
244.104	5802
244.168	6467
244.232	13717
244.296	14339
244.360	12393
244.424	7646
244.488	5623
244.552	5677
244.615	3659
244.679	4126
244.743	9134
244.807	5312
244.871	4373
244.935	4471
244.999	4875
245.063	5289
245.127	7504
245.191	13290
245.255	8177
245.319	10287
245.383	5897
245.446	5719
245.510	4868
245.574	5275
245.638	5167
245.702	10282
245.766	15222
245.829	7878
245.893	5920
245.957	6075
246.021	6283
246.085	7128
246.149	10269
246.212	27904
246.276	24573
246.340	12596
246.404	7707
246.467	13951
246.531	13475
246.595	7806
246.659	8498
246.722	10176
246.786	9501
246.850	15839
246.913	11449
246.977	6361
247.041	7124
247.104	6861
247.168	10129
247.232	29910
247.295	37394
247.359	13170
247.423	12135
247.486	17483
247.550	9692
247.614	9262
247.677	10413
247.741	6266
247.804	6257
247.868	9051
247.932	29759
247.995	29236
248.059	10623
248.122	7220
248.186	10121
248.249	28210
248.313	76613
248.376	54161
248.440	30409
248.503	13569
248.567	13894
248.630	22343
248.694	26133
248.757	45576
248.821	60487
248.884	30640
248.948	44302
249.011	56814
249.075	83530
249.138	47121
249.202	21015
249.265	16607
249.328	16571
249.392	13674
249.455	9816
249.519	9872
249.582	15623
249.645	22454
249.709	12695
249.772	10707
249.835	10077
249.899	10517
249.962	9423
250.025	11313
250.089	34700
250.152	25427
250.215	14372
250.279	11764
250.342	12392
250.405	10718
250.468	10954
250.532	15898
250.595	30711
250.658	132758
250.721	92914
250.785	37560
250.848	20239
250.911	14304
250.974	11749
251.038	30837
251.101	32657
251.164	19409
251.227	21927
251.290	19035
251.354	46532
251.417	146193
251.480	75797
251.543	115609
251.606	223603
251.669	100381
251.732	53081
251.795	59235
251.859	79852
251.922	131007
251.985	46747
252.048	23681
252.111	19524
252.174	21026
252.237	55961
252.300	73059
252.363	129655
252.426	140689
252.489	51965
252.552	28993
252.615	21218
252.678	31673
252.741	61689
252.804	123131
252.867	153326
252.930	79604
252.993	42506
253.056	28795
253.119	19444
253.182	21985
253.245	31095
253.308	21111
253.371	22994
253.434	18564
253.497	24153
253.559	36422
253.622	22768
253.685	39562
253.748	24743
253.811	16189
253.874	21594
253.937	15693
254.000	15031
254.062	37301
254.125	30650
254.188	39288
254.251	20539
254.314	17394
254.376	35747
254.439	28636
254.502	22810
254.565	39526
254.628	40560
254.690	23822
254.753	14373
254.816	14302
254.878	15980
254.941	35433
255.004	18442
255.067	14654
255.129	11207
255.192	7294
255.255	9502
255.317	9085
255.380	6514
255.443	5924
255.505	6593
255.568	6002
255.631	6624
255.693	7323
255.756	5709
255.819	5824
255.881	5088
255.944	4740
256.006	5588
256.069	5893
256.132	4917
256.194	12873
256.257	20606
256.319	17047
256.382	11290
256.444	8513
256.507	7618
256.569	6131
256.632	7746
256.694	13983
256.757	63626
256.819	78505
256.882	24382
256.944	13173
257.007	12964
257.069	12581
257.132	7995
257.194	7501
257.257	8519
257.319	7164
257.381	10334
257.444	42416
257.506	144167
257.569	94572
257.631	53005
257.693	24237
257.756	14887
257.818	10920
257.880	8265
257.943	7412
258.005	6715
258.067	6428
258.130	6293
258.192	12526
258.254	17709
258.317	8612
258.379	11301
258.441	31334
258.503	15582
258.566	41850
258.628	20998
258.690	8824
258.753	11687
258.815	16392
258.877	8635
258.939	6625
259.001	5859
259.064	6431
259.126	11393
259.188	10158
259.250	9506
259.312	18552
259.375	35687
259.437	12568
259.499	7589
259.561	7940
259.623	7167
259.685	6066
259.747	9241
259.809	41708
259.872	40846
259.934	83958
259.996	34028
260.058	11893
260.120	8665
260.182	6533
260.244	5791
260.306	5957
260.368	6271
260.430	6303
260.492	14876
260.554	31654
260.616	20891
260.678	57236
260.740	30453
260.802	11671
260.864	10231
260.926	7846
260.988	7181
261.050	8852
261.112	21813
261.174	54978
261.236	20886
261.298	11462
261.359	32628
261.421	19714
261.483	7903
261.545	7392
261.607	5276
261.669	6683
261.731	24678
261.793	29569
261.854	12745
261.916	8224
261.978	7066
262.040	6823
262.102	6851
262.164	14787
262.225	6829
262.287	10384
262.349	24716
262.411	10454
262.472	7667
262.534	28160
262.596	21962
262.658	8022
262.719	7008
262.781	18451
262.843	26467
262.904	10043
262.966	9234
263.028	15235
263.090	114044
263.151	102158
263.213	34022
263.275	18131
263.336	9877
263.398	8067
263.459	5865
263.521	9526
263.583	21100
263.644	9010
263.706	4975
263.767	3790
263.829	3897
263.891	3563
263.952	3264
264.014	3646
264.075	10140
264.137	12770
264.198	6441
264.260	3378
264.321	4767
264.383	22525
264.444	17167
264.506	5875
264.567	5449
264.629	14716
264.690	13321
264.752	8210
264.813	5402
264.875	4802
264.936	4725
264.998	3934
265.059	4279
265.120	5325
265.182	16395
265.243	64857
265.305	24986
265.366	9504
265.427	6707
265.489	5241
265.550	5353
265.611	7043
265.673	5333
265.734	5203
265.795	4007
265.857	5019
265.918	5372
265.979	28150
266.040	99004
266.102	33634
266.163	15446
266.224	12038
266.286	6827
266.347	6307
266.408	6377
266.469	6675
266.530	4289
266.592	5951
266.653	18291
266.714	15466
266.775	5528
266.836	4976
266.898	5435
266.959	8541
267.020	5908
267.081	4841
267.142	4718
267.203	5393
267.264	5607
267.326	6570
267.387	5683
267.448	4841
267.509	5262
267.570	4911
267.631	4411
267.692	6136
267.753	5887
267.814	5037
267.875	21072
267.936	19721
267.997	10082
268.058	8008
268.119	5723
268.180	6696
268.241	3865
268.302	3896
268.363	4974
268.424	5291
268.485	5083
268.546	3490
268.607	2888
268.668	3387
268.729	4230
268.790	4477
268.851	6424
268.912	22215
268.972	14640
269.033	7481
269.094	4076
269.155	3975
269.216	4392
269.277	4159
269.338	3737
269.398	4851
269.459	7102
269.520	9269
269.581	13029
269.642	12182
269.702	7572
269.763	6151
269.824	5643
269.885	11533
269.945	8873
270.006	4007
270.067	3858
270.128	4260
270.188	4371
270.249	4258
270.310	2731
270.370	4988
270.431	3583
270.492	3312
270.553	6529
270.613	18398
270.674	20894
270.734	8250
270.795	6579
270.856	10907
270.916	5694
270.977	5381
271.038	6867
271.098	6511
271.159	16377
271.219	7764
271.280	5094
271.340	4237
271.401	10409
271.462	14832
271.522	6540
271.583	6639
271.643	5517
271.704	5964
271.764	8047
271.825	29086
271.885	81757
271.946	49238
272.006	20578
272.066	55542
272.127	40409
272.187	14908
272.248	9882
272.308	20625
272.369	42606
272.429	14696
272.489	21394
272.550	15662
272.610	20989
272.671	11323
272.731	18355
272.791	18711
272.852	12165
272.912	9463
272.972	6597
273.033	8967
273.093	13066
273.153	9650
273.214	9049
273.274	12272
273.334	55572
273.394	48504
273.455	21199
273.515	42873
273.575	46630
273.635	21481
273.696	49784
273.756	47655
273.816	19171
273.876	16037
273.936	49751
273.997	31488
274.057	11707
274.117	11665
274.177	29950
274.237	85741
274.297	46784
274.358	42557
274.418	52295
274.478	25716
274.538	11710
274.598	18033
274.658	52258
274.718	38878
274.778	14209
274.838	10688
274.898	47616
274.958	63491
275.018	61177
275.078	26384
275.138	13006
275.198	9058
275.258	7112
275.318	12042
275.378	20216
275.438	15233
275.498	13532
275.558	54251
275.618	64215
275.678	31230
275.738	27058
275.798	13935
275.858	8133
275.918	6635
275.978	9988
276.038	6627
276.098	7148
276.157	29499
276.217	37912
276.277	17591
276.337	11447
276.397	9739
276.457	10041
276.517	7384
276.576	5934
276.636	9641
276.696	15676
276.756	30138
276.815	13482
276.875	10948
276.935	12272
276.995	9201
277.055	7807
277.114	6675
277.174	22831
277.234	31574
277.293	11935
277.353	8939
277.413	7019
277.472	8766
277.532	7325
277.592	12678
277.651	77676
277.711	50408
277.771	39186
277.830	112014
277.890	41377
277.950	95097
278.009	111142
278.069	38273
278.128	87461
278.188	53471
278.248	48570
278.307	100112
278.367	29153
278.426	15168
278.486	10714
278.545	8624
278.605	8042
278.664	7055
278.724	10307
278.783	48172
278.843	46090
278.902	14812
278.962	14150
279.021	15174
279.081	24126
279.140	16767
279.199	14197
279.259	15336
279.318	16408
279.378	22531
279.437	59792
279.496	208626
279.556	417259
279.615	180384
279.675	67730
279.734	49617
279.793	89906
279.853	72276
279.912	27260
279.971	20890
280.031	19699
280.090	57515
280.149	49693
280.208	99786
280.268	324926
280.327	149001
280.386	52724
280.445	50718
280.505	28379
280.564	17717
280.623	15409
280.682	33813
280.742	23684
280.801	11155
280.860	10034
280.919	9229
280.978	8988
281.037	8555
281.097	7378
281.156	8165
281.215	7591
281.274	18307
281.333	53925
281.392	17956
281.451	8761
281.510	7702
281.569	7393
281.628	6155
281.688	6176
281.747	9127
281.806	7134
281.865	5538
281.924	7491
281.983	5201
282.042	4471
282.101	5861
282.160	4953
282.219	5586
282.278	11285
282.337	27936
282.396	9973
282.454	8116
282.513	18792
282.572	37046
282.631	12700
282.690	8052
282.749	7236
282.808	9222
282.867	10079
282.926	7065
282.985	5454
283.043	6651
283.102	5733
283.161	8163
283.220	33348
283.279	29120
283.338	10741
283.396	8739
283.455	8068
283.514	12542
283.573	17070
283.631	10276
283.690	7831
283.749	8882
283.808	23506
283.866	13066
283.925	8456
283.984	9425
284.043	13562
284.101	11359
284.160	8847
284.219	11160
284.277	11752
284.336	29929
284.395	60992
284.453	28028
284.512	20085
284.570	25798
284.629	21102
284.688	23604
284.746	26788
284.805	32680
284.863	42735
284.922	49559
284.981	62967
285.039	92325
285.098	181614
285.156	364472
285.215	361012
285.273	390898
285.332	245066
285.390	142616
285.449	91836
285.507	63247
285.566	46291
285.624	34635
285.683	26530
285.741	22639
285.799	20178
285.858	18745
285.916	15936
285.975	13404
286.033	11108
286.091	11457
286.150	9927
286.208	11000
286.267	12837
286.325	13491
286.383	17653
286.442	10818
286.500	9159
286.558	9115
286.616	8406
286.675	11951
286.733	10792
286.791	9250
286.850	9987
286.908	18094
286.966	16069
287.024	8415
287.083	7311
287.141	6532
287.199	8741
287.257	10605
287.315	8109
287.374	12812
287.432	21801
287.490	10933
287.548	9410
287.606	7791
287.664	7915
287.723	12504
287.781	9626
287.839	7969
287.897	9520
287.955	11527
288.013	17017
288.071	52559
288.129	299698
288.187	352141
288.245	107369
288.303	47421
288.361	30749
288.419	21080
288.477	13904
288.535	9795
288.593	8145
288.651	7700
288.709	6068
288.767	6783
288.825	5132
288.883	6103
288.941	7436
288.999	5903
289.057	4379
289.115	5135
289.173	5230
289.231	6412
289.289	6122
289.346	6826
289.404	8499
289.462	13237
289.520	9914
289.578	4450
289.636	4376
289.694	5190
289.751	4299
289.809	4729
289.867	4103
289.925	8719
289.983	6405
290.040	3859
290.098	4758
290.156	6774
290.214	5711
290.271	3556
290.329	4090
290.387	3798
290.444	2889
290.502	3288
290.560	4327
290.617	4455
290.675	4225
290.733	5206
290.790	4178
290.848	3944
290.906	5841
290.963	5907
291.021	4525
291.078	4824
291.136	6343
291.194	30545
291.251	24382
291.309	7939
291.366	4897
291.424	5236
291.481	5436
291.539	7243
291.596	4134
291.654	3160
291.711	3505
291.769	8629
291.826	11417
291.884	5625
291.941	5233
291.999	4932
292.056	6811
292.114	5068
292.171	4129
292.228	6066
292.286	8465
292.343	15432
292.401	13852
292.458	8431
292.515	7266
292.573	8927
292.630	7762
292.687	6799
292.745	4669
292.802	9145
292.859	27570
292.917	40623
292.974	14938
293.031	7070
293.089	5757
293.146	4703
293.203	4570
293.260	4846
293.318	8560
293.375	6418
293.432	4481
293.489	4388
293.546	4195
293.604	10238
293.661	49330
293.718	54081
293.775	21466
293.832	15874
293.889	15957
293.947	14890
294.004	8196
294.061	10476
294.118	29439
294.175	39253
294.232	28103
294.289	12213
294.346	9334
294.403	7626
294.460	7376
294.517	6020
294.574	4321
294.631	4035
294.688	7169
294.745	36139
294.802	74883
294.859	41296
294.916	23910
294.973	15233
295.030	13694
295.087	9017
295.144	6962
295.201	5865
295.258	5000
295.315	12128
295.372	49337
295.429	39190
295.486	15533
295.542	12033
295.599	32483
295.656	27106
295.713	44283
295.770	37027
295.827	12763
295.883	9244
295.940	10585
295.997	18563
296.054	11018
296.111	6404
296.167	4281
296.224	4607
296.281	4458
296.338	4340
296.394	4885
296.451	8750
296.508	36525
296.564	30181
296.621	27126
296.678	81371
296.734	52317
296.791	20383
296.848	13057
296.904	22136
296.961	46488
297.018	62473
297.074	26931
297.131	13864
297.187	11684
297.244	23457
297.301	99524
297.357	72294
297.414	23594
297.470	12794
297.527	9964
297.583	10296
297.640	8022
297.696	6483
297.753	4381
297.809	4965
297.866	4106
297.922	5233
297.979	4712
298.035	7730
298.092	19940
298.148	42596
298.204	21717
298.261	13569
298.317	45035
298.374	62621
298.430	25721
298.486	16891
298.543	13528
298.599	20357
298.656	23771
298.712	41707
298.768	61378
298.824	27377
298.881	13604
298.937	8804
298.993	8469
299.050	9986
299.106	7873
299.162	9097
299.218	7661
299.275	5329
299.331	7233
299.387	30953
299.443	80243
299.500	49638
299.556	20835
299.612	15087
299.668	16990
299.724	23911
299.780	14769
299.837	10643
299.893	28852
299.949	75574
300.005	49823
300.061	77469
300.117	75395
300.173	28879
300.229	19696
300.285	27913
300.341	20527
300.397	11055
300.453	9403
300.510	8947
300.566	8434
300.622	17697
300.678	58042
300.734	59904
300.790	64400
300.845	51721
300.901	52272
300.957	64153
301.013	30546
301.069	15588
301.125	15127
301.181	12340
301.237	8944
301.293	7282
301.349	8491
301.405	9783
301.461	18249
301.516	19491
301.572	17800
301.628	18252
301.684	17112
301.740	43311
301.796	37255
301.851	33507
301.907	42403
301.963	34697
302.019	114843
302.074	197288
302.130	133250
302.186	58360
302.242	28845
302.297	20247
302.353	28078
302.409	44357
302.464	26180
302.520	40124
302.576	80495
302.631	60798
302.687	29819
302.743	14291
302.798	10949
302.854	7952
302.910	8993
302.965	15472
303.021	23983
303.076	20458
303.132	32198
303.187	24139
303.243	11844
303.299	8754
303.354	8057
303.410	7738
303.465	6681
303.521	6100
303.576	5382
303.632	8805
303.687	36323
303.743	62373
303.798	32490
303.853	14389
303.909	10015
303.964	10851
304.020	20717
304.075	20616
304.130	26460
304.186	39078
304.241	35161
304.297	23098
304.352	12722
304.358	12422
304.407	9974
304.449	9887
304.463	9871
304.518	9778
304.539	9010
304.573	7757
304.629	8034
304.630	8324
304.684	21610
304.720	47736
304.739	61273
304.794	48810
304.811	41566
304.850	22664
304.902	11819
304.905	11200
304.960	10703
304.992	10194
305.015	9913
305.071	9277
305.083	8928
305.126	7467
305.173	5417
305.181	5097
305.236	5495
305.264	6382
305.292	7393
305.347	10434
305.354	10671
305.402	12114
305.445	12481
305.457	12582
305.512	12602
305.535	11967
305.567	10896
305.622	12326
305.626	13491
305.678	35459
305.716	63877
305.733	75578
305.788	55406
305.807	53937
305.843	47961
305.897	64910
305.898	65179
305.953	45730
305.988	33947
306.008	26100
306.063	16099
306.078	13762
306.118	10030
306.168	7496
306.173	7307
306.228	6293
306.259	6291
306.283	6322
306.338	6027
306.349	6206
306.393	7330
306.440	7897
306.448	7893
306.503	6943
306.530	8497
306.558	11983
306.613	26280
306.620	28706
306.668	46702
306.711	62525
306.723	64638
306.778	42550
306.801	35199
306.833	23736
306.888	11790
306.892	11165
306.943	9127
306.982	7911
306.997	7634
307.052	7396
307.072	7282
307.107	7280
307.162	8861
307.163	8896
307.217	14073
307.253	17256
307.272	18356
307.327	18151
307.343	17773
307.381	15104
307.434	13347
307.436	13698
307.491	31764
307.524	46024
307.546	54355
307.600	51487
307.614	49406
307.655	29442
307.704	13573
307.710	13337
307.765	14626
307.795	18894
307.819	24955
307.874	35077
307.885	35449
307.929	26672
307.975	20130
307.984	20383
308.038	25706
308.065	33245
308.093	54134
308.148	141951
308.156	158479
308.202	292884
308.246	327938
308.257	303759
308.312	160195
308.336	111069
308.366	90891
308.421	56233
308.426	53473
308.475	34512
308.517	21945
308.530	20479
308.585	17163
308.607	16288
308.639	16233
308.694	17986
308.697	18374
308.748	32854
308.787	43243
308.803	44266
308.857	37975
308.877	36592
308.912	31669
308.967	26957
308.967	26903
309.021	38256
309.058	50209
309.076	62617
309.130	108235
309.148	129354
309.185	215371
309.238	380983
309.239	384195
309.293	478671
309.328	489701
309.348	409933
309.402	197925
309.418	143059
309.457	101500
309.508	58770
309.511	58249
309.566	57415
309.598	62893
309.620	79577
309.674	132047
309.688	141550
309.729	141877
309.778	128155
309.783	123919
309.837	76259
309.868	52671
309.892	52841
309.946	65024
309.959	68640
310.001	100717
310.049	125338
310.055	120701
310.109	73027
310.139	48901
310.163	39041
310.218	21407
310.229	18128
310.272	14993
310.319	11901
310.326	11540
310.381	9497
310.409	8606
310.435	8425
310.489	8351
310.499	8343
310.543	8200
310.589	8287
310.598	8347
310.652	8486
310.679	8530
310.706	7675
310.760	6053
310.769	5763
310.814	5405
310.859	5368
310.868	5424
310.923	5704
310.948	5878
310.977	6667
311.031	8466
311.038	8660
311.085	9137
311.128	9428
311.139	9126
311.193	7762
311.218	7076
311.247	6454
311.301	5373
311.308	5228
311.356	5545
311.398	6037
311.410	5983
311.464	5390
311.488	5224
311.518	5497
311.572	6004
311.578	6076
311.626	8404
311.668	10343
311.680	10232
311.734	9575
311.758	9315
311.788	9733
311.842	10466
311.847	10533
311.896	10603
311.937	10697
311.950	11139
312.004	13008
312.027	13781
312.058	12067
312.112	9021
312.117	8704
312.165	7206
312.207	5915
312.297	7655
312.386	8405
312.476	7225
312.566	18171
312.656	12176
312.745	4845
312.835	4996
312.925	7112
313.015	6034
313.104	8411
313.194	5908
313.284	6626
313.374	8670
313.463	10224
313.553	5767
313.643	5465
313.732	4943
313.822	4490
313.912	5921
314.001	8156
314.091	8684
314.180	9611
314.270	10800
314.360	10919
314.449	11730
314.539	6929
314.628	5535
314.718	6709
314.808	8873
314.897	6701
314.987	6649
315.076	9116
315.166	13406
315.255	11211
315.345	11193
315.434	10729
315.524	9859
315.613	12904
315.703	17525
315.792	29656
315.881	96546
315.971	62238
316.060	20900
316.150	27695
316.239	29838
316.328	14730
316.418	7777
316.507	7826
316.597	10082
316.686	11650
316.775	12038
316.865	29935
316.954	11798
317.043	5842
317.133	6745
317.222	6543
317.311	6237
317.400	7576
317.490	8900
317.579	14858
317.668	9986
317.757	18652
317.847	47572
317.936	176668
318.025	103284
318.114	40422
318.203	28740
318.293	18663
318.382	38378
318.471	34329
318.560	39702
318.649	56892
318.738	23258
318.828	10458
318.917	13280
319.006	11089
319.095	32034
319.184	70894
319.273	63637
319.362	38624
319.451	11063
319.540	9528
319.629	20318
319.718	46067
319.807	16500
319.896	24529
319.985	92910
320.074	63497
320.163	12664
320.252	17148
320.341	13452
320.430	12882
320.519	18037
320.608	16047
320.697	8615
320.786	9235
320.875	13404
320.964	18128
321.053	27392
321.142	40527
321.230	52914
321.319	29271
321.408	69945
321.497	42314
321.586	27654
321.675	29887
321.764	35320
321.852	18816
321.941	36529
322.030	36770
322.119	23109
322.207	74493
322.296	55819
322.385	24271
322.474	28679
322.562	84886
322.651	69357
322.740	30231
322.829	53477
322.917	42256
323.006	31879
323.095	25746
323.183	16336
323.272	20396
323.361	36694
323.449	114301
323.538	61667
323.626	67831
323.715	77986
323.804	16801
323.892	64172
323.981	64755
324.069	13483
324.158	27831
324.246	50757
324.335	15197
324.424	29200
324.512	12918
324.601	11318
324.689	17397
324.778	40453
324.866	34756
324.954	13212
325.043	7166
325.131	15818
325.220	29238
325.308	37170
325.397	25734
325.485	23857
325.574	7338
325.662	7523
325.750	7793
325.839	8005
325.927	6078
326.015	8472
326.104	10790
326.192	22074
326.280	8027
326.369	6383
326.457	9488
326.545	21881
326.634	14550
326.722	5123
326.810	6715
326.898	5815
326.987	6910
327.075	17212
327.163	23425
327.251	10254
327.340	10543
327.428	21291
327.516	7935
327.604	7119
327.692	7221
327.781	6519
327.869	12598
327.957	10959
328.045	11460
328.133	5836
328.221	6850
328.309	7185
328.397	5017
328.485	7986
328.574	11626
328.662	41959
328.750	36949
328.838	10723
328.926	6416
329.014	5267
329.102	7653
329.190	18480
329.278	21044
329.366	6118
329.454	4134
329.542	3808
329.630	3465
329.718	4198
329.806	6902
329.893	6066
329.981	5724
330.069	6254
330.157	19190
330.245	83841
330.333	62818
330.421	11530
330.509	9692
330.597	47988
330.684	53328
330.772	12317
330.860	10688
330.948	15328
331.036	9823
331.123	4490
331.211	4326
331.299	5019
331.387	8981
331.475	26578
331.562	11550
331.650	5652
331.738	5451
331.825	10013
331.913	5339
332.001	4210
332.089	5221
332.176	11907
332.264	28785
332.352	40382
332.439	10888
332.527	7922
332.614	5363
332.702	8449
332.790	5879
332.877	13036
332.965	41429
333.052	22550
333.140	13019
333.228	47534
333.315	20544
333.403	6594
333.490	16444
333.578	27637
333.665	55748
333.753	41175
333.840	9200
333.928	8077
334.015	18331
334.103	29400
334.190	99120
334.278	49881
334.365	14336
334.452	14833
334.540	8920
334.627	8573
334.715	13328
334.802	18997
334.889	100945
334.977	202523
335.064	36286
335.151	12335
335.239	9643
335.326	10807
335.413	33089
335.501	86025
335.588	16137
335.675	9437
335.762	9186
335.850	15683
335.937	14589
336.024	26942
336.111	131624
336.199	112982
336.286	22999
336.373	9615
336.460	7202
336.547	6567
336.635	7956
336.722	9553
336.809	7087
336.896	9087
336.983	23930
337.070	61778
337.157	110033
337.245	82427
337.332	95161
337.419	11170
337.506	6129
337.593	5932
337.680	12606
337.767	57622
337.854	25747
337.941	22082
338.028	30878
338.115	17075
338.202	8800
338.289	16561
338.376	81693
338.463	47262
338.550	23744
338.637	49109
338.724	13191
338.811	31035
338.898	9474
338.984	5567
339.071	5823
339.158	7657
339.245	23290
339.332	22761
339.419	14425
339.506	24625
339.593	5001
339.679	5209
339.766	6326
339.853	7320
339.940	19915
340.027	10242
340.113	5945
340.200	10613
340.287	9037
340.374	8086
340.460	20366
340.547	10028
340.634	9396
340.720	45685
340.807	55484
340.894	7048
340.980	6503
341.067	7597
341.154	6786
341.240	8392
341.327	29079
341.414	12763
341.500	11143
341.587	7750
341.674	4992
341.760	13675
341.847	25993
341.933	11516
342.020	4036
342.106	3476
342.193	5828
342.279	16445
342.366	10234
342.452	19979
342.539	12181
342.625	16699
342.712	61805
342.798	37710
342.885	14241
342.971	4459
343.058	4061
343.144	4607
343.230	5975
343.317	5319
343.403	6744
343.490	3545
343.576	4376
343.662	5338
343.749	6926
343.835	8864
343.921	11834
344.008	64639
344.094	276931
344.180	105137
344.267	19743
344.353	49513
344.439	98113
344.525	34357
344.612	15283
344.698	10201
344.784	10047
344.870	4684
344.957	5548
345.043	10868
345.129	7635
345.215	17126
345.301	11776
345.387	8070
345.474	4534
345.560	4246
345.646	5666
345.732	5326
345.818	6759
345.904	7835
345.990	8156
346.076	7699
346.162	13725
346.249	8530
346.335	5421
346.421	5314
346.507	15559
346.593	104140
346.679	49397
346.765	6919
346.851	6924
346.937	8307
347.023	5452
347.108	6490
347.194	7757
347.280	6173
347.366	6677
347.452	19410
347.538	111557
347.624	107308
347.710	87142
347.796	18085
347.882	5863
347.967	4412
348.053	6193
348.139	6344
348.225	5141
348.311	6161
348.397	5236
348.482	5889
348.568	10574
348.654	5514
348.740	8591
348.825	11918
348.911	10318
348.997	35144
349.083	130167
349.168	37199
349.254	5954
349.340	8271
349.425	4429
349.511	6917
349.597	9865
349.682	13860
349.768	59410
349.854	54288
349.939	7089
350.025	4739
350.110	4704
350.196	4140
350.282	4427
350.367	3546
350.453	6424
350.538	10614
350.624	7763
350.709	9314
350.795	4225
350.880	5693
350.966	5556
351.051	9223
351.137	9141
351.222	5292
351.308	12819
351.393	59943
351.479	27653
351.564	7197
351.649	4774
351.735	5169
351.820	4490
351.906	4943
351.991	7027
352.076	23277
352.162	71667
352.247	18350
352.332	7289
352.418	14025
352.503	18320
352.588	58756
352.673	99326
352.759	21420
352.844	10335
352.929	7672
353.014	14619
353.100	9108
353.185	14857
353.270	24314
353.355	28564
353.441	9296
353.526	6140
353.611	13536
353.696	28326
353.781	14333
353.866	9111
353.952	5191
354.037	13273
354.122	43365
354.207	43701
354.292	24592
354.377	7119
354.462	5611
354.547	8442
354.632	9804
354.717	9222
354.802	22620
354.887	13032
354.972	4449
355.057	3886
355.142	4987
355.227	6311
355.312	11195
355.397	23247
355.482	64268
355.567	56267
355.652	19803
355.737	29172
355.822	57535
355.907	104031
355.991	15478
356.076	7593
356.161	5493
356.246	5843
356.331	6682
356.416	12245
356.501	85929
356.585	201124
356.670	34458
356.755	12147
356.840	13933
356.924	52777
357.009	294377
357.094	219819
357.179	29589
357.263	22057
357.348	15761
357.433	18957
357.517	14794
357.602	15063
357.687	11928
357.771	18361
357.856	78650
357.941	72425
358.025	36388
358.110	242130
358.195	230527
358.279	30431
358.364	14282
358.448	35405
358.533	136817
358.617	138677
358.702	109905
358.787	65664
358.871	21356
358.956	24059
359.040	10064
359.125	6563
359.209	8844
359.294	28379
359.378	87953
359.462	33757
359.547	15475
359.631	8558
359.716	6365
359.800	5898
359.885	8803
359.969	9281
360.053	6494
360.138	5998
360.222	9938
360.306	20399
360.391	21494
360.475	29614
360.559	103082
360.644	65418
360.728	60679
360.812	41823
360.896	205406
360.981	118002
361.065	52743
361.149	14444
361.233	11806
361.318	10422
361.402	13898
361.486	11554
361.570	7890
361.654	10038
361.739	20009
361.823	83275
361.907	245858
361.991	70580
362.075	16507
362.159	40752
362.243	40406
362.327	28651
362.411	46659
362.495	28735
362.580	13997
362.664	8838
362.748	8044
362.832	9640
362.916	15332
363.000	44943
363.084	149270
363.168	288990
363.252	106914
363.336	22411
363.420	20444
363.503	47511
363.587	102657
363.671	28324
363.755	14156
363.839	20774
363.923	14272
364.007	17911
364.091	31274
364.175	22835
364.258	91767
364.342	119282
364.426	139188
364.510	114948
364.594	38243
364.677	27422
364.761	127342
364.845	194946
364.929	42382
365.013	38243
365.096	23085
365.180	36776
365.264	20614
365.347	92068
365.431	79792
365.515	16359
365.598	11175
365.682	8270
365.766	7896
365.849	15184
365.933	8864
366.017	10924
366.100	9534
366.184	5177
366.267	6661
366.351	6636
366.435	5955
366.518	5585
366.602	5014
366.685	5348
366.769	8006
366.852	9224
366.936	20095
367.019	18871
367.103	9073
367.186	13322
367.270	7878
367.353	5298
367.436	6613
367.520	6081
367.603	7647
367.687	12864
367.770	26608
367.853	18603
367.937	28196
368.020	98134
368.104	37495
368.187	15991
368.270	27140
368.353	25037
368.437	24646
368.520	50734
368.603	50923
368.687	39499
368.770	124579
368.853	49894
368.936	19811
369.020	22644
369.103	12695
369.186	6686
369.269	8047
369.352	11934
369.436	26829
369.519	17890
369.602	11033
369.685	6853
369.768	10578
369.851	8519
369.934	6446
370.018	6582
370.101	19244
370.184	21381
370.267	11001
370.350	15891
370.433	27936
370.516	63442
370.599	155891
370.682	65944
370.765	46846
370.848	66210
370.931	129801
371.014	87542
371.097	14367
371.180	9740
371.263	6227
371.346	5880
371.429	6019
371.511	6143
371.594	12036
371.677	20301
371.760	18593
371.843	17187
371.926	50421
372.009	229236
372.091	125955
372.174	37972
372.257	117179
372.340	87744
372.423	25434
372.505	32647
372.588	17818
372.671	23770
372.754	115521
372.836	114263
372.919	25853
373.002	59194
373.085	35367
373.167	18834
373.250	41259
373.332	113883
373.415	131018
373.498	320281
373.580	202342
373.663	113718
373.746	286542
373.828	90722
373.911	25518
373.993	18128
374.076	41095
374.159	72192
374.241	30272
374.324	86853
374.406	110344
374.489	56221
374.571	248490
374.654	196890
374.736	45085
374.819	133028
374.901	217412
374.983	308970
375.066	91915
375.148	16929
375.231	28870
375.313	97293
375.395	55949
375.478	17001
375.560	10347
375.643	11847
375.725	28000
375.807	161953
375.890	225621
375.972	81375
376.054	35914
376.136	44947
376.219	35628
376.301	30556
376.383	173153
376.465	131833
376.548	41090
376.630	46685
376.712	130908
376.794	132764
376.877	17457
376.959	7134
377.041	8886
377.123	9603
377.205	15396
377.287	7004
377.369	5116
377.452	6025
377.534	6691
377.616	5767
377.698	7310
377.780	5994
377.862	7027
377.944	7813
378.026	6281
378.108	5003
378.190	5806
378.272	6108
378.354	4392
378.436	4387
378.518	5727
378.600	22951
378.682	29428
378.764	55067
378.846	88338
378.928	20179
379.010	22320
379.091	18805
379.173	7323
379.255	6924
379.337	9323
379.419	20976
379.501	96865
379.583	79686
379.664	13948
379.746	21076
379.828	55533
379.910	97975
379.991	115823
380.073	34616
380.155	11113
380.237	10940
380.318	7523
380.400	8006
380.482	12655
380.564	28763
380.645	27715
380.727	33520
380.809	18527
380.890	12008
380.972	11664
381.053	9741
381.135	10638
381.217	16718
381.298	67869
381.380	62774
381.461	26646
381.543	93966
381.624	251217
381.706	77062
381.787	20153
381.869	20522
381.951	35426
382.032	200442
382.113	246739
382.195	57818
382.276	26031
382.358	39209
382.439	125485
382.521	155870
382.602	254906
382.684	165806
382.765	161796
382.846	269855
382.928	425710
383.009	400549
383.090	148280
383.172	388831
383.253	1042538
383.334	509240
383.416	243663
383.497	207481
383.578	78049
383.659	108600
383.741	305514
383.822	1133528
383.903	1058053
383.984	260617
384.066	265757
384.147	258471
384.228	73133
384.309	33586
384.390	33171
384.471	23250
384.553	21994
384.634	23636
384.715	30834
384.796	19496
384.877	17951
384.958	46888
385.039	106823
385.120	50415
385.201	18672
385.282	18112
385.363	19367
385.444	18998
385.525	23651
385.606	77696
385.687	136671
385.768	36346
385.849	20607
385.930	62041
386.011	205336
386.092	104276
386.173	18492
386.254	11462
386.335	10914
386.416	12782
386.496	26232
386.577	81749
386.658	43069
386.739	17435
386.820	15307
386.901	11577
386.981	12036
387.062	9286
387.143	13666
387.224	51239
387.304	93737
387.385	33412
387.466	18413
387.547	17520
387.627	16635
387.708	18727
387.789	83188
387.869	192840
387.950	88819
388.031	13649
388.111	8218
388.192	12631
388.273	22592
388.353	20890
388.434	13353
388.514	16764
388.595	77912
388.676	184759
388.756	107025
388.837	60048
388.917	67459
388.998	16364
389.078	10409
389.159	9139
389.239	9330
389.320	12224
389.400	16175
389.480	16327
389.561	66102
389.641	65892
389.722	15006
389.802	21150
389.883	24294
389.963	74929
390.043	88329
390.124	23969
390.204	16584
390.284	67045
390.365	83398
390.445	36753
390.525	115781
390.605	208375
390.686	76958
390.766	24204
390.846	13485
390.927	8507
391.007	10194
391.087	9702
391.167	12474
391.247	12330
391.328	11744
391.408	17350
391.488	15385
391.568	9217
391.648	11238
391.728	18290
391.808	17707
391.888	20202
391.969	29005
392.049	76011
392.129	47091
392.209	24752
392.289	77468
392.369	78532
392.449	31205
392.529	28450
392.609	24784
392.689	26888
392.769	68918
392.849	114730
392.929	54649
393.009	102623
393.089	150346
393.169	109345
393.248	231199
393.328	867004
393.408	1556652
393.488	732770
393.568	191124
393.648	84589
393.728	51269
393.807	36475
393.887	29387
393.967	25214
394.047	23129
394.127	26924
394.206	31813
394.286	59827
394.366	303028
394.446	668886
394.525	238344
394.605	44751
394.685	26453
394.764	33082
394.844	56022
394.924	68539
395.003	30548
395.083	18559
395.163	18205
395.242	15036
395.322	16648
395.402	14166
395.481	14849
395.561	20568
395.640	63640
395.720	86528
395.799	72196
395.879	87920
395.958	43845
396.038	80795
396.117	402160
396.197	866146
396.276	348117
396.356	84126
396.435	51577
396.515	44507
396.594	49413
396.673	82297
396.753	213168
396.832	855346
396.912	1165516
396.991	410205
397.070	97169
397.150	47088
397.229	31745
397.308	28161
397.388	52374
397.467	40388
397.546	17122
397.625	13711
397.705	16117
397.784	17284
397.863	14174
397.942	8912
398.022	8944
398.101	12369
398.180	50021
398.259	50723
398.338	16265
398.417	11241
398.497	9071
398.576	8386
398.655	7987
398.734	6952
398.813	6233
398.892	10203
398.971	50158
399.050	59183
399.129	12344
399.208	5364
399.287	4705
399.366	4454
399.445	4409
399.524	4313
399.603	5863
399.682	8198
399.761	20018
399.840	52452
399.919	84087
399.998	20292
400.077	4844
400.156	3725
400.235	5662
400.313	3936
400.392	5226
400.471	18476
400.550	67995
400.629	36451
400.708	8578
400.786	6129
400.865	8957
400.944	16447
401.023	13534
401.102	3865
401.180	3545
401.259	2563
401.338	3847
401.416	6366
401.495	8937
401.574	5738
401.652	3979
401.731	5719
401.810	8262
401.888	6731
401.967	2732
402.046	4969
402.124	5143
402.203	9029
402.281	7149
402.360	5442
402.438	13186
402.517	17329
402.596	6746
402.674	5764
402.753	4385
402.831	3371
402.910	5604
402.988	12820
403.066	80836
403.145	102978
403.223	26582
403.302	67778
403.380	84643
403.459	63571
403.537	45244
403.615	12853
403.694	5657
403.772	3776
403.850	2854
403.929	2656
404.007	3970
404.085	8466
404.164	17695
404.242	10379
404.320	5076
404.398	8637
404.477	18784
404.555	111554
404.633	247776
404.711	66498
404.789	9801
404.868	6709
404.946	7496
405.024	3837
405.102	3591
405.180	2924
405.258	3588
405.336	3627
405.415	3726
405.493	7801
405.571	12831
405.649	6808
405.727	3766
405.805	5961
405.883	7523
405.961	7340
406.039	6872
406.117	5061
406.195	6563
406.273	17967
406.351	118143
406.429	168745
406.507	31233
406.585	7132
406.663	6102
406.740	8089
406.818	9250
406.896	5783
406.974	4135
407.052	6765
407.130	43652
407.208	160576
407.285	69260
407.363	6853
407.441	6189
407.519	3909
407.596	4907
407.674	8765
407.752	27229
407.830	48543
407.907	22287
407.985	9712
408.063	4278
408.141	2365
408.218	4006
408.296	7998
408.373	7301
408.451	6843
408.529	7458
408.606	3532
408.684	2632
408.762	1820
408.839	1849
408.917	2174
408.994	2435
409.072	2710
409.149	3437
409.227	5204
409.304	9906
409.382	9161
409.459	8172
409.537	11987
409.614	14430
409.692	9124
409.769	7285
409.846	11823
409.924	17238
410.001	15825
410.079	10368
410.156	6902
410.233	4816
410.311	5344
410.388	4925
410.465	4311
410.543	6207
410.620	4131
410.697	3445
410.775	7340
410.852	4641
410.929	4806
411.006	8750
411.083	6211
411.161	7066
411.238	13426
411.315	7513
411.392	3655
411.469	5064
411.547	7544
411.624	4816
411.701	3929
411.778	2985
411.855	10045
411.932	11895
412.009	4161
412.086	3069
412.163	3036
412.240	4269
412.317	4013
412.394	6014
412.471	3542
412.548	2108
412.625	2450
412.702	3048
412.779	6399
412.856	8504
412.933	2771
413.010	3018
413.087	2890
413.164	15288
413.241	57312
413.318	28295
413.395	7536
413.471	10743
413.548	9262
413.625	2920
413.702	3855
413.779	5436
413.855	1474
413.932	1366
414.009	1165
414.086	2022
414.162	2174
414.239	3295
414.316	13387
414.393	66856
414.469	62602
414.546	7868
414.623	2182
414.699	2033
414.776	3205
414.853	3131
414.929	2921
415.006	3523
415.082	2155
415.159	2887
415.236	2794
415.312	2598
415.389	5425
415.465	11948
415.542	9557
415.618	2985
415.695	6020
415.771	6766
415.848	4749
415.924	3922
416.000	1922
416.077	1908
416.153	800
416.230	661
416.306	1059
416.383	2213
416.459	2366
416.535	1625
416.612	1739
416.688	1908
416.764	2765
416.841	2454
416.917	3380
416.993	2877
417.069	3355
417.146	4688
417.222	5712
417.298	6650
417.374	3065
417.451	2939
417.527	3623
417.603	7198
417.679	5371
417.755	4529
417.831	1813
417.908	1667
417.984	966
418.060	1417
418.136	5010
418.212	15256
418.288	9369
418.364	2442
418.440	1853
418.516	5191
418.592	4865
418.668	9308
418.744	21182
418.820	25762
418.896	10012
418.972	2325
419.048	2246
419.124	5965
419.200	12270
419.276	4997
419.352	619
419.428	2312
419.504	2044
419.579	5808
419.655	4158
419.731	3646
419.807	7856
419.883	25522
419.959	31803
420.034	10938
420.110	5620
420.186	27674
420.262	59692
420.337	15673
420.413	5504
420.489	4709
420.565	2615
420.640	2763
420.716	2771
420.792	1451
420.867	3266
420.943	2787
421.019	4995
421.094	9140
421.170	4818
421.245	2995
421.321	3083
421.397	4372
421.472	5507
421.548	14418
421.623	24880
421.699	10458
421.774	6983
421.850	6789
421.925	9417
422.001	14793
422.076	9605
422.152	9589
422.227	15001
422.302	21453
422.378	24155
422.453	42460
422.529	84108
422.604	233272
422.679	518475
422.755	526842
422.830	257232
422.905	88330
422.981	43970
423.056	26604
423.131	18797
423.207	14037
423.282	12137
423.357	16263
423.432	19990
423.508	12355
423.583	20510
423.658	32226
423.733	12289
423.808	7558
423.883	9267
423.959	11372
424.034	8741
424.109	8515
424.184	4622
424.259	4045
424.334	3546
424.409	2946
424.484	2657
424.559	4033
424.634	4187
424.709	5780
424.784	8162
424.859	6597
424.934	3804
425.009	17228
425.084	51502
425.159	46446
425.234	8110
425.309	3150
425.384	10597
425.459	49026
425.534	32094
425.609	4639
425.683	2920
425.758	2804
425.833	3235
425.908	3420
425.983	8060
426.058	43674
426.132	55521
426.207	11039
426.282	4082
426.357	5319
426.431	2754
426.506	3074
426.581	3123
426.655	2966
426.730	1898
426.805	3184
426.879	2709
426.954	3154
427.029	5078
427.103	21760
427.178	107653
427.253	133302
427.327	24363
427.402	7516
427.476	30819
427.551	42494
427.625	10207
427.700	4239
427.774	2718
427.849	3807
427.923	3295
427.998	2788
428.072	2940
428.147	6720
428.221	18273
428.296	98116
428.370	144881
428.444	30651
428.519	6014
428.593	9746
428.667	14133
428.742	11383
428.816	15076
428.890	35530
428.965	151036
429.039	115265
429.113	26212
429.188	13327
429.262	4044
429.336	4430
429.410	16323
429.485	27368
429.559	10781
429.633	12622
429.707	6364
429.781	7123
429.855	33996
429.930	138768
430.004	100742
430.078	49026
430.152	65965
430.226	99519
430.300	244271
430.374	98003
430.448	13315
430.522	10223
430.596	39070
430.670	60949
430.744	69253
430.818	253725
430.892	149506
430.966	18236
431.040	5511
431.114	3130
431.188	2462
431.262	3077
431.336	3101
431.410	4086
431.484	10769
431.557	22496
431.631	7210
431.705	3820
431.779	9406
431.853	68311
431.927	145408
432.000	42014
432.074	4921
432.148	3420
432.222	3694
432.295	2196
432.369	2689
432.443	3417
432.516	15412
432.590	105989
432.664	127551
432.737	19672
432.811	3079
432.885	1360
432.958	1218
433.032	1160
433.106	1343
433.179	457
433.253	887
433.326	1377
433.400	535
433.473	655
433.547	-327
433.620	616
433.694	2987
433.767	7978
433.841	4033
433.914	1553
433.988	2266
434.061	1919
434.134	1459
434.208	608
434.281	535
434.355	326
434.428	1679
434.501	3311
434.575	1989
434.648	607
434.721	1276
434.795	803
434.868	854
434.941	200
435.014	421
435.088	1536
435.161	4207
435.234	9633
435.307	12099
435.381	8327
435.454	3778
435.527	5452
435.600	8239
435.673	7194
435.746	3927
435.819	2718
435.892	2207
435.966	2335
436.039	1344
436.112	1682
436.185	562
436.258	458
436.331	-272
436.404	416
436.477	-24
436.550	332
436.623	1053
436.696	144
436.769	1082
436.842	1426
436.915	1256
436.987	3134
437.060	3160
437.133	1513
437.206	373
437.279	836
437.352	496
437.425	487
437.498	1428
437.570	2742
437.643	7455
437.716	4875
437.789	790
437.861	1336
437.934	9921
438.007	17114
438.080	2865
438.152	2498
438.225	3750
438.298	18940
438.370	144427
438.443	193307
438.516	44383
438.588	11012
438.661	2345
438.734	1727
438.806	1382
438.879	3804
438.951	2808
439.024	7414
439.096	6911
439.169	2290
439.241	959
439.314	705
439.386	1245
439.459	3085
439.531	6787
439.604	7706
439.676	1970
439.749	363
439.821	619
439.893	857
439.966	634
440.038	2271
440.110	3456
440.183	3003
440.255	1021
440.327	2854
440.400	6607
440.472	60487
440.544	148934
440.617	45592
440.689	7024
440.761	6376
440.833	11044
440.905	14382
440.978	5258
441.050	690
441.122	751
441.194	883
441.266	1276
441.338	1330
441.411	2436
441.483	11571
441.555	60302
441.627	43830
441.699	6538
441.771	4589
441.843	3283
441.915	2030
441.987	1529
442.059	2316
442.131	2399
442.203	4043
442.275	5438
442.347	7480
442.419	7529
442.491	20334
442.563	116823
442.635	150844
442.706	41224
442.778	24929
442.850	11265
442.922	4387
442.994	3042
443.066	6097
443.137	7705
443.209	5824
443.281	6938
443.353	10773
443.425	28972
443.496	152630
443.568	350509
443.640	234415
443.711	65864
443.783	14292
443.855	6109
443.926	5021
443.998	3563
444.070	3964
444.141	3998
444.213	5441
444.285	8991
444.356	9504
444.428	7438
444.499	4271
444.571	1932
444.642	2388
444.714	2433
444.785	5040
444.857	7866
444.928	8188
445.000	12437
445.071	7654
445.143	12173
445.214	12423
445.285	12423
445.357	24691
445.428	70613
445.500	312403
445.571	416954
445.642	237917
445.714	107932
445.785	39184
445.856	22242
445.928	12476
445.999	11632
446.070	9030
446.141	6963
446.213	9064
446.284	8571
446.355	4908
446.426	3885
446.497	3895
446.569	3354
446.640	5762
446.711	10892
446.782	6594
446.853	3328
446.924	4332
446.995	4685
447.066	4028
447.138	3378
447.209	4190
447.280	1072
447.351	1548
447.422	704
447.493	566
447.564	1951
447.635	4892
447.706	7866
447.777	2100
447.847	228
447.918	441
447.989	1112
448.060	3100
448.131	3455
448.202	8459
448.273	7994
448.344	5828
448.414	2323
448.485	1798
448.556	1376
448.627	522
448.698	797
448.768	171
448.839	321
448.910	870
448.981	4509
449.051	3374
449.122	1914
449.193	936
449.263	325
449.334	1085
449.405	1467
449.475	4203
449.546	9989
449.616	5764
449.687	5191
449.758	4489
449.828	1705
449.899	341
449.969	1011
450.040	1062
450.110	663
450.181	2205
450.251	1832
450.322	845
450.392	732
450.463	1013
450.533	507
450.604	811
450.674	839
450.744	535
450.815	1082
450.885	1283
450.955	506
451.026	982
451.096	589
451.166	1161
451.237	1287
451.307	7544
451.377	10868
451.447	3168
451.518	885
451.588	39
451.658	681
451.728	554
451.799	4047
451.869	14808
451.939	10078
452.009	1767
452.079	717
452.149	961
452.219	843
452.289	5494
452.360	14816
452.430	7702
452.500	2490
452.570	3708
452.640	5945
452.710	11893
452.780	27896
452.850	26197
452.920	25078
452.990	18857
453.060	5240
453.129	3965
453.199	6160
453.269	7091
453.339	43901
453.409	80759
453.479	50015
453.549	65130
453.619	83098
453.688	72399
453.758	21021
453.828	2849
453.898	1922
453.968	1231
454.037	1579
454.087	1632
454.107	1640
454.168	1378
454.177	1322
454.247	1281
454.249	1271
454.316	591
454.330	588
454.386	470
454.411	1187
454.456	2075
454.492	5876
454.525	9201
454.574	9339
454.595	9436
454.655	4407
454.665	3594
454.734	2690
454.736	2738
454.804	2903
454.817	3690
454.873	6019
454.898	9278
454.943	14986
454.979	13574
455.013	12526
455.060	7704
455.082	5699
455.141	3440
455.152	2951
455.221	4642
455.222	4830
455.291	12509
455.303	13236
455.360	16795
455.384	15850
455.430	13061
455.465	15136
455.499	17422
455.546	12936
455.569	10382
455.627	11754
455.638	12142
455.707	6893
455.708	6880
455.777	2323
455.789	2228
455.846	1759
455.869	1732
455.916	1639
455.950	1409
455.985	1147
456.031	1967
456.054	2288
456.112	2229
456.124	2234
456.193	1590
456.193	1566
456.262	1901
456.274	2045
456.332	2562
456.355	2530
456.401	2197
456.436	3037
456.470	3884
456.516	2682
456.540	2122
456.597	1898
456.609	1790
456.678	1875
456.678	1860
456.747	1298
456.759	1314
456.817	1495
456.840	1632
456.886	1842
456.920	1862
456.955	1881
457.001	2063
457.024	2261
457.082	2755
457.093	2747
457.162	4259
457.163	4287
457.232	4917
457.243	4953
457.301	5033
457.324	4078
457.370	2547
457.405	2856
457.439	3185
457.485	3085
457.508	3099
457.566	3709
457.577	3938
457.646	5227
457.647	5278
457.715	11081
457.727	12346
457.784	21379
457.808	25927
457.853	28706
457.889	36055
457.922	37115
457.969	32110
457.991	36544
458.050	38227
458.060	39213
458.129	56484
458.130	57363
458.198	50419
458.211	47506
458.267	43776
458.292	33222
458.336	23107
458.372	18634
458.405	19556
458.453	26814
458.474	34419
458.533	59820
458.543	60856
458.611	81464
458.614	82902
458.680	66091
458.694	54608
458.749	40397
458.775	29529
458.818	15032
458.855	10639
458.887	7245
458.936	6042
458.955	5668
459.016	4923
459.024	4804
459.093	5452
459.097	5428
459.162	5045
459.177	5301
459.230	6221
459.257	6517
459.299	6559
459.338	6847
459.368	7232
459.418	7331
459.437	6726
459.499	5586
459.505	5674
459.574	5107
459.579	5106
459.643	4159
459.659	4038
459.711	4398
459.740	4672
459.780	4906
459.820	5237
459.849	5520
459.900	6096
459.917	6282
459.981	6421
459.986	6441
460.054	7387
460.061	7431
460.123	6629
460.141	6845
460.191	8608
460.222	8816
460.260	9319
460.302	10724
460.328	9713
460.382	8421
460.397	8700
460.462	7321
460.465	7350
460.534	8211
460.543	8521
460.602	17618
460.623	21012
460.671	34629
460.703	44270
460.739	35495
460.783	29749
460.808	27940
460.864	12698
460.876	11984
460.944	6322
460.945	6247
461.013	5247
461.024	5160
461.081	5289
461.104	5567
461.150	5602
461.184	5696
461.218	5975
461.264	5977
461.286	5990
461.345	5949
461.355	5834
461.423	5757
461.425	5737
461.491	6689
461.505	6935
461.559	10241
461.585	11907
461.628	15231
461.665	18582
461.696	19301
461.745	21336
461.764	18793
461.825	11094
461.832	11443
461.901	8575
461.905	8491
461.969	6141
461.985	6095
462.037	5995
462.065	5628
462.105	5992
462.145	6282
462.173	7716
462.225	10669
462.241	11525
462.305	15468
462.310	15038
462.378	9948
462.385	9159
462.446	9334
462.465	8796
462.514	8143
462.545	8532
462.582	8291
462.625	8150
462.650	7409
462.705	5803
462.718	5924
462.785	6125
462.786	6146
462.854	7115
462.865	7331
462.922	8185
462.945	8783
462.990	7675
463.025	6810
463.058	6926
463.104	5899
463.126	5560
463.184	5452
463.194	5475
463.262	5355
463.264	5357
463.330	5616
463.344	5738
463.398	6662
463.424	6984
463.466	6814
463.504	6610
463.533	6553
463.583	6402
463.601	6548
463.663	7255
463.669	7450
463.737	9268
463.743	9474
463.805	12571
463.823	13481
463.873	18603
463.903	21565
463.940	21678
463.982	22287
464.008	18360
464.062	10350
464.076	10297
464.142	7283
464.144	7253
464.211	6371
464.221	6399
464.279	6757
464.301	7005
464.347	7723
464.381	8120
464.414	9090
464.461	10499
464.482	12379
464.540	17426
464.550	17861
464.617	20747
464.620	20835
464.685	13670
464.699	11971
464.753	13309
464.779	13700
464.820	13823
464.859	14200
464.888	13957
464.938	13264
464.956	13255
465.018	13424
465.023	13540
465.091	14978
465.098	15078
465.158	17521
465.177	18231
465.226	15355
465.257	13698
465.293	12893
465.336	11612
465.361	12785
465.416	15369
465.428	15735
465.495	17578
465.496	17648
465.563	24562
465.575	25657
465.631	28858
465.654	30371
465.698	19999
465.734	11386
465.765	11462
465.813	10630
465.833	10485
465.893	10385
465.900	10321
465.968	10019
465.972	9982
466.035	9926
466.052	9874
466.102	9673
466.131	9560
466.170	10152
466.210	10699
466.237	10861
466.290	11219
466.304	11580
466.369	12972
466.372	13008
466.439	13431
466.449	13466
466.506	14518
466.528	14872
466.573	18204
466.607	20673
466.641	28018
466.687	38165
466.708	40680
466.766	47370
466.775	44425
466.842	22044
466.845	20944
466.909	16505
466.925	15335
466.977	14203
467.004	13729
467.044	14164
467.083	14578
467.111	16174
467.163	19116
467.178	19550
467.242	21163
467.245	21093
467.312	18762
467.321	18417
467.379	17262
467.400	16787
467.446	17991
467.480	18805
467.559	15740
467.638	15479
467.717	15237
467.796	17827
467.875	19676
467.955	16926
468.034	22746
468.113	42367
468.192	57925
468.271	21718
468.350	21487
468.429	28109
468.508	31069
468.588	21504
468.667	16256
468.746	15133
468.825	15447
468.904	14034
468.983	16150
469.062	20770
469.141	23128
469.220	13666
469.299	13886
469.378	15118
469.456	17947
469.535	16677
469.614	15362
469.693	16645
469.772	19116
469.851	25335
469.930	18040
470.009	16080
470.088	18039
470.166	26370
470.245	44786
470.324	56885
470.403	30918
470.482	19202
470.560	16692
470.639	17484
470.718	20570
470.797	18409
470.875	16997
470.954	21738
471.033	21371
471.111	12742
471.190	11812
471.269	12427
471.347	12089
471.426	13048
471.505	13978
471.583	16429
471.662	15348
471.740	14702
471.819	16233
471.898	13704
471.976	13167
472.055	12986
472.133	13641
472.212	16902
472.290	16698
472.369	13576
472.447	13053
472.526	12543
472.604	13850
472.683	15420
472.761	15891
472.839	14609
472.918	13883
472.996	14208
473.075	15380
473.153	13946
473.231	12126
473.310	14664
473.388	14095
473.466	13614
473.545	16047
473.623	23130
473.701	21872
473.780	14723
473.858	13924
473.936	13643
474.014	13637
474.093	16059
474.171	17350
474.249	21907
474.327	15911
474.405	12995
474.484	13335
474.562	12919
474.640	13142
474.718	12465
474.796	13294
474.874	12109
474.952	11685
475.030	11828
475.108	12632
475.187	14746
475.265	15970
475.343	26571
475.421	30539
475.499	13866
475.577	15241
475.655	16043
475.733	23465
475.811	36495
475.889	34858
475.966	23678
476.044	13849
476.122	19623
476.200	28071
476.278	18678
476.356	12384
476.434	13302
476.512	16640
476.590	25293
476.667	19609
476.745	10898
476.823	12234
476.901	11357
476.979	10721
477.056	11465
477.134	11744
477.212	12650
477.290	12047
477.367	10374
477.445	10704
477.523	10566
477.601	10538
477.678	10349
477.756	11941
477.834	12349
477.911	10816
477.989	11161
478.066	10030
478.144	13053
478.222	17817
478.299	34903
478.377	27910
478.454	11116
478.532	9454
478.609	11590
478.687	12254
478.764	10601
478.842	12028
478.919	14009
478.997	12177
479.074	10948
479.152	11425
479.229	13903
479.307	10181
479.384	8525
479.461	9766
479.539	10355
479.616	11262
479.694	11788
479.771	10928
479.848	11011
479.926	13167
480.003	14779
480.080	10988
480.157	9421
480.235	9810
480.312	9258
480.389	10147
480.467	13683
480.544	17167
480.621	11363
480.698	11509
480.775	12754
480.853	11803
480.930	10380
481.007	10558
481.084	10776
481.161	11862
481.238	11772
481.315	9702
481.392	9544
481.470	10236
481.547	9807
481.624	9932
481.701	9411
481.778	10182
481.855	11458
481.932	14042
482.009	22046
482.086	16975
482.163	13529
482.240	23804
482.317	46644
482.393	30631
482.470	12103
482.547	11353
482.624	11521
482.701	12565
482.778	10983
482.855	10167
482.932	11580
483.009	10307
483.085	12468
483.162	15947
483.239	15727
483.316	13121
483.393	12895
483.469	10938
483.546	11580
483.623	11706
483.699	9454
483.776	9696
483.853	11265
483.930	15503
484.006	30933
484.083	54065
484.160	34901
484.236	55184
484.313	41756
484.389	31761
484.466	28320
484.543	27787
484.619	31427
484.696	32969
484.772	31435
484.849	29332
484.925	26792
485.002	25804
485.078	27378
485.155	28820
485.231	24597
485.308	23442
485.384	24142
485.461	27203
485.537	38987
485.614	43200
485.690	25021
485.766	21893
485.843	26000
485.919	36558
485.995	38333
486.072	22793
486.148	22030
486.224	21950
486.301	22240
486.377	24680
486.453	29118
486.530	24606
486.606	31539
486.682	35872
486.758	36362
486.835	39775
486.911	34693
486.987	52767
487.063	66870
487.139	94519
487.215	63679
487.292	29451
487.368	26088
487.444	30953
487.520	40568
487.596	45020
487.672	83038
487.748	248414
487.824	384850
487.900	94120
487.976	36033
488.052	32139
488.128	38222
488.204	30361
488.280	23157
488.356	26847
488.432	42262
488.508	60327
488.584	28739
488.660	25264
488.736	23397
488.812	24135
488.888	30156
488.964	40030
489.039	88889
489.115	137311
489.191	74853
489.267	23823
489.343	21249
489.418	19257
489.494	18486
489.570	18597
489.646	18355
489.722	18746
489.797	19252
489.873	24513
489.949	44712
490.024	38590
490.100	18897
490.176	19441
490.251	24452
490.327	33327
490.403	19396
490.478	17151
490.554	15796
490.629	16648
490.705	16238
490.781	17890
490.856	16165
490.932	21385
491.007	20230
491.083	18747
491.158	17413
491.234	20525
491.309	34176
491.385	36033
491.460	17217
491.536	17185
491.611	16822
491.686	18353
491.762	27034
491.837	55058
491.913	94096
491.988	122839
492.063	168217
492.139	37526
492.214	26373
492.289	15801
492.365	14665
492.440	18383
492.515	16689
492.590	16476
492.666	13398
492.741	17989
492.816	22664
492.891	14356
492.967	14427
493.042	12611
493.117	14330
493.192	13152
493.267	19283
493.342	39109
493.418	49995
493.493	16633
493.568	12487
493.643	13196
493.718	15043
493.793	22307
493.868	29746
493.943	19651
494.018	14623
494.093	12739
494.168	12552
494.243	13134
494.318	12059
494.393	11013
494.468	12352
494.543	12621
494.618	15054
494.693	13954
494.768	11962
494.842	13038
494.917	11682
494.992	13542
495.067	11241
495.142	11367
495.217	12796
495.292	12222
495.366	14206
495.441	17097
495.516	21274
495.591	35523
495.665	115758
495.740	299298
495.815	105417
495.890	17774
495.964	14080
496.039	15772
496.114	14204
496.188	15843
496.263	15435
496.338	13195
496.412	15521
496.487	17915
496.561	19616
496.636	21321
496.710	15599
496.785	16432
496.860	17574
496.934	15554
497.009	15675
497.083	15834
497.158	16254
497.232	17904
497.307	22477
497.381	18813
497.455	20408
497.530	24015
497.604	18272
497.679	18316
497.753	26322
497.827	36068
497.902	33565
497.976	40008
498.050	87148
498.125	309839
498.199	327183
498.273	62031
498.348	47938
498.422	37109
498.496	35381
498.570	31712
498.645	20261
498.719	18177
498.793	20116
498.867	30444
498.941	44919
499.016	115862
499.090	340628
499.164	110211
499.238	16811
499.312	15973
499.386	21751
499.460	18725
499.534	16901
499.609	20519
499.683	26028
499.757	23773
499.831	53855
499.905	203130
499.979	193659
500.053	28761
500.127	30926
500.201	30417
500.275	16720
500.349	16013
500.422	18596
500.496	29336
500.570	69544
500.644	122611
500.718	221572
500.792	44581
500.866	13595
500.940	15932
501.013	13982
501.087	15175
501.161	30898
501.235	39167
501.309	61749
501.382	168487
501.456	152776
501.530	35817
501.603	54426
501.677	23313
501.751	11448
501.825	13327
501.898	24133
501.972	66136
502.046	41177
502.119	15405
502.193	32563
502.266	73626
502.340	35934
502.413	30142
502.487	60654
502.561	35915
502.634	14653
502.708	15217
502.781	13506
502.855	10964
502.928	9498
503.002	9718
503.075	9353
503.149	9313
503.222	9285
503.295	9008
503.369	11013
503.442	17184
503.516	46302
503.589	118175
503.662	76916
503.736	25417
503.809	56447
503.882	51922
503.956	76081
504.029	92614
504.102	137340
504.175	202722
504.249	56617
504.322	23538
504.395	17757
504.468	12214
504.542	11923
504.615	9977
504.688	8237
504.761	8396
504.834	11505
504.907	16244
504.980	28470
505.053	12642
505.127	17956
505.200	17839
505.273	12858
505.346	8978
505.419	8376
505.492	7245
505.565	7218
505.638	7528
505.711	7554
505.784	7362
505.857	6665
505.930	7713
506.003	6747
506.076	8038
506.149	10147
506.221	11707
506.294	11729
506.367	28114
506.440	92154
506.513	51480
506.586	12742
506.659	9316
506.731	9478
506.804	11984
506.877	17668
506.950	9657
507.022	8085
507.095	9410
507.168	11426
507.241	9155
507.313	8345
507.386	10009
507.459	15719
507.531	9200
507.604	7725
507.677	6910
507.749	7330
507.822	10705
507.894	23817
507.967	25846
508.040	15185
508.112	12950
508.185	13256
508.257	12009
508.330	20276
508.402	12599
508.475	10320
508.547	11058
508.620	11105
508.692	16593
508.765	11243
508.837	9045
508.909	9123
508.982	9990
509.054	11720
509.127	9414
509.199	8610
509.271	8766
509.344	7814
509.416	8409
509.488	8467
509.560	9675
509.633	10376
509.705	12600
509.777	11644
509.849	16345
509.922	13166
509.994	8650
510.066	9065
510.138	10857
510.210	21132
510.283	18708
510.355	15245
510.427	12857
510.499	12102
510.571	12256
510.643	14125
510.715	21152
510.787	19904
510.859	12125
510.931	14706
511.003	20490
511.076	19325
511.148	11028
511.219	11193
511.291	15088
511.363	16611
511.435	10478
511.507	10118
511.579	10339
511.651	10756
511.723	9758
511.795	10394
511.867	10472
511.939	11482
512.010	19240
512.082	16520
512.154	11780
512.226	12540
512.298	17413
512.369	26720
512.441	19919
512.513	20146
512.585	16175
512.656	14922
512.728	16893
512.800	13129
512.871	12658
512.943	13109
513.015	12196
513.086	12494
513.158	14921
513.230	15556
513.301	21723
513.373	26641
513.444	14213
513.516	12098
513.588	12465
513.659	13116
513.731	18231
513.802	17102
513.874	31672
513.945	61192
514.016	20012
514.088	12319
514.159	15352
514.231	18905
514.302	23102
514.374	17134
514.445	16309
514.516	24084
514.588	18958
514.659	15256
514.730	22979
514.802	20754
514.873	18528
514.944	16064
515.016	15662
515.087	18977
515.158	19175
515.229	23833
515.301	17838
515.372	20429
515.443	14941
515.514	12857
515.585	12053
515.656	13405
515.728	12419
515.799	11711
515.870	12768
515.941	14690
516.012	14439
516.083	18674
516.154	21829
516.225	27733
516.296	23442
516.367	21906
516.438	27207
516.509	42303
516.580	82511
516.651	254477
516.722	895076
516.793	369683
516.864	47368
516.935	41752
517.006	56151
517.077	100687
517.148	273631
517.219	965390
517.289	1594767
517.360	256624
517.431	62052
517.502	27269
517.573	24885
517.643	22808
517.714	23406
517.785	25508
517.856	25197
517.926	28339
517.997	35371
518.068	51801
518.138	89026
518.209	197000
518.280	653734
518.350	2219192
518.421	908226
518.492	84372
518.562	41581
518.633	41789
518.703	46420
518.774	86667
518.845	227343
518.915	230499
518.986	59195
519.056	35962
519.127	52672
519.197	73272
519.268	115308
519.338	72369
519.408	24330
519.479	32857
519.549	26502
519.620	17402
519.690	14230
519.760	13463
519.831	15564
519.901	14710
519.971	11751
520.042	13584
520.112	15506
520.182	20081
520.253	24927
520.323	26536
520.393	64831
520.463	129869
520.534	77093
520.604	192149
520.674	54282
520.744	56745
520.814	202337
520.885	150567
520.955	39053
521.025	112345
521.095	51202
521.165	12502
521.235	11394
521.305	11513
521.375	11441
521.445	13496
521.515	18733
521.585	21102
521.655	21461
521.725	14938
521.795	13950
521.865	9976
521.935	12819
522.005	12364
522.075	9480
522.145	10724
522.215	11712
522.285	14064
522.355	19575
522.424	30015
522.494	31293
522.564	22412
522.634	45002
522.704	131263
522.774	54844
522.843	12745
522.913	11722
522.983	16294
523.053	12847
523.122	13363
523.192	22028
523.262	67835
523.331	71775
523.401	14005
523.471	9236
523.540	11258
523.610	8075
523.680	8065
523.749	8939
523.819	10586
523.888	10898
523.958	8479
524.027	9134
524.097	10897
524.166	9962
524.236	12110
524.305	11059
524.375	8883
524.444	9220
524.514	10590
524.583	9683
524.653	12331
524.722	14449
524.791	12052
524.861	8907
524.930	9601
524.999	9704
525.069	14723
525.138	10887
525.207	11779
525.277	10328
525.346	10553
525.415	10020
525.484	11850
525.554	13059
525.623	12597
525.692	11462
525.761	13924
525.830	14219
525.900	19889
525.969	34717
526.038	73741
526.107	152641
526.176	441445
526.245	373844
526.314	107027
526.383	221759
526.452	345750
526.522	474731
526.591	516188
526.660	96211
526.729	49649
526.797	65394
526.867	153692
526.935	523442
527.004	1045988
527.073	645149
527.142	48515
527.211	20455
527.280	19123
527.349	20029
527.418	12417
527.487	12854
527.555	13050
527.624	9997
527.693	8606
527.762	9734
527.831	9254
527.899	8753
527.968	8680
528.037	8585
528.106	11127
528.174	21544
528.243	16708
528.312	19511
528.380	29775
528.449	10244
528.518	8780
528.586	6274
528.655	6337
528.723	6624
528.792	6034
528.861	8637
528.929	6442
528.998	6340
529.066	5725
529.135	5979
529.203	6246
529.272	5811
529.340	6789
529.409	7416
529.477	6614
529.545	9770
529.614	12526
529.682	17831
529.751	16795
529.819	22905
529.887	12739
529.956	8045
530.024	8477
530.092	8454
530.161	9547
530.229	15375
530.297	9212
530.365	6615
530.434	6326
530.502	6605
530.570	6662
530.638	6094
530.707	7472
530.775	8375
530.843	6788
530.911	6615
530.979	5693
531.047	6518
531.115	7186
531.183	6736
531.252	6691
531.320	7076
531.388	7082
531.456	6421
531.524	5970
531.592	6976
531.660	7482
531.728	7013
531.796	6716
531.864	7009
531.932	6565
532.000	7038
532.067	6799
532.135	8521
532.203	10253
532.271	12178
532.339	19408
532.407	51018
532.475	33088
532.542	13141
532.610	18131
532.678	33448
532.746	97667
532.814	266611
532.881	75782
532.949	13013
533.017	10734
533.084	8231
533.152	8067
533.220	8160
533.287	9758
533.355	7602
533.423	7700
533.490	6937
533.558	7670
533.625	8223
533.693	8855
533.761	8536
533.828	9153
533.896	10928
533.963	19496
534.031	24944
534.098	34257
534.166	18347
534.233	10052
534.300	9359
534.368	12352
534.435	11133
534.503	14233
534.570	25568
534.637	17694
534.705	17223
534.772	27803
534.840	60738
534.907	182210
534.974	271080
535.041	30780
535.109	13006
535.176	9684
535.243	10229
535.310	10900
535.378	11236
535.445	8752
535.512	9738
535.579	9765
535.646	9278
535.714	10378
535.781	11981
535.848	11697
535.915	11024
535.982	11198
536.049	10165
536.116	10049
536.183	11293
536.250	10591
536.317	10989
536.384	12313
536.451	18922
536.518	19788
536.585	14813
536.652	15880
536.719	22998
536.786	21034
536.853	15081
536.920	21851
536.987	37637
537.053	44189
537.120	117383
537.187	122154
537.254	15439
537.321	11133
537.388	11949
537.454	10443
537.521	10243
537.588	11085
537.654	11766
537.721	14276
537.788	13899
537.855	11886
537.921	11720
537.988	11691
538.055	10963
538.121	11634
538.188	12173
538.254	18353
538.321	35934
538.388	25165
538.454	13142
538.521	12630
538.587	11779
538.654	11941
538.720	11727
538.787	12182
538.853	11278
538.920	14452
538.986	12493
539.053	11610
539.119	12516
539.185	13687
539.252	14383
539.318	21840
539.385	15981
539.451	16398
539.517	16836
539.583	20566
539.650	37339
539.716	93868
539.782	32229
539.849	13044
539.915	12414
539.981	12766
540.047	16187
540.114	14745
540.180	12606
540.246	15249
540.312	20796
540.378	35631
540.444	42278
540.510	40180
540.576	104723
540.643	42216
540.709	13532
540.775	12626
540.841	14649
540.907	21119
540.973	43529
541.039	28815
541.105	23450
541.171	15430
541.237	13008
541.303	13977
541.369	16295
541.435	19061
541.500	30958
541.566	24267
541.632	12275
541.698	11148
541.764	10944
541.830	11963
541.896	11340
541.961	11326
542.027	13331
542.093	12514
542.159	14017
542.224	15269
542.290	19616
542.356	29231
542.421	37724
542.487	17642
542.553	12730
542.618	13639
542.684	13336
542.750	14131
542.815	18248
542.881	29609
542.947	82192
543.012	75976
543.078	13245
543.143	12198
543.209	12688
543.274	14876
543.340	18473
543.405	32608
543.471	59439
543.536	17784
543.602	11924
543.667	11936
543.732	11551
543.798	11418
543.863	12388
543.928	11192
543.994	11458
544.059	11485
544.124	11969
544.190	11459
544.255	12750
544.320	12781
544.386	13124
544.451	18400
544.516	22787
544.581	25376
544.646	50951
544.712	93773
544.777	22428
544.842	14182
544.907	14536
544.972	13515
545.037	13437
545.102	14319
545.168	14532
545.233	15462
545.298	16219
545.363	19311
545.428	23867
545.493	34999
545.558	73370
545.623	38057
545.688	15492
545.753	15554
545.818	16344
545.883	16156
545.947	16343
546.012	18046
546.077	17898
546.142	18340
546.207	20633
546.272	23265
546.337	26510
546.401	22683
546.466	19990
546.531	20351
546.596	22544
546.661	23399
546.725	22999
546.790	22657
546.855	24424
546.919	25490
546.984	30364
547.049	32506
547.113	36650
547.178	38272
547.243	44012
547.307	49410
547.372	56178
547.436	58228
547.501	56943
547.565	61353
547.630	59514
547.695	58915
547.759	56911
547.823	55398
547.888	54766
547.952	57805
548.017	59308
548.081	62447
548.146	64765
548.210	64883
548.274	66104
548.339	64527
548.403	57824
548.468	55748
548.532	54255
548.596	56300
548.660	56435
548.725	62844
548.789	68933
548.853	67910
548.917	61260
548.982	61843
549.046	58099
549.110	49988
549.174	49623
549.238	57182
549.303	63666
549.367	64842
549.431	61621
549.495	58119
549.559	58987
549.623	67581
549.687	77540
549.751	81594
549.815	88428
549.879	89020
549.943	83791
550.007	87178
550.071	88446
550.135	84277
550.199	77520
550.263	73707
550.327	69109
550.391	72268
550.455	77032
550.519	82504
550.582	88843
550.646	103481
550.710	107859
550.774	97503
550.838	99014
550.901	101695
550.965	108366
551.029	112622
551.093	122286
551.156	136857
551.220	163332
551.284	202600
551.347	148192
551.411	125362
551.475	126569
551.538	106842
551.602	99051
551.666	93227
551.729	88417
551.793	84968
551.856	84938
551.920	82491
551.983	83094
552.047	81097
552.110	82982
552.174	81576
552.237	84518
552.301	79334
552.364	75532
552.428	73852
552.491	75770
552.554	78655
552.618	77653
552.681	83688
552.745	88142
552.808	109772
552.871	145894
552.934	101930
552.998	80178
553.061	76598
553.124	73956
553.187	71701
553.251	74676
553.314	74072
553.377	75117
553.440	81591
553.503	89382
553.567	100372
553.630	81330
553.693	79012
553.756	78965
553.819	77148
553.882	73527
553.945	74043
554.008	74272
554.071	74982
554.134	75918
554.197	71691
554.260	69619
554.323	72702
554.386	72285
554.449	75242
554.512	76253
554.575	72715
554.638	72925
554.701	71742
554.764	69611
554.827	65935
554.889	64595
554.952	59805
555.015	59332
555.078	61550
555.141	62960
555.203	59238
555.266	61002
555.329	61358
555.391	57961
555.454	58385
555.517	57024
555.580	53073
555.642	49936
555.705	51524
555.768	50655
555.830	50003
555.893	45708
555.955	46168
556.018	44330
556.080	45421
556.143	45677
556.206	46218
556.268	46206
556.330	44548
556.393	45130
556.455	43781
556.518	43354
556.580	46938
556.643	39567
556.705	37804
556.767	37504
556.830	39303
556.892	38777
556.955	45834
557.017	42128
557.079	36304
557.142	35657
557.204	38815
557.266	49881
557.328	48519
557.391	31210
557.453	29867
557.515	31126
557.577	33164
557.639	34252
557.701	29893
557.764	27609
557.826	30051
557.888	32243
557.950	37220
558.012	44735
558.074	63494
558.136	107533
558.198	280820
558.260	129002
558.322	33140
558.384	32210
558.446	36205
558.508	42166
558.570	57027
558.632	89134
558.694	154746
558.756	224524
558.818	450232
558.880	1243444
558.942	522736
559.003	277934
559.065	175343
559.127	49716
559.189	55045
559.251	78687
559.312	135121
559.374	240883
559.436	745991
559.498	518108
559.559	63863
559.621	57481
559.683	82437
559.744	136643
559.806	319225
559.868	631921
559.929	145407
559.991	67744
560.052	100598
560.114	261754
560.176	227810
560.237	135475
560.299	273812
560.360	74339
560.422	22671
560.483	18429
560.545	18567
560.606	17173
560.667	17293
560.729	16713
560.790	17078
560.852	16350
560.913	15786
560.974	14595
561.036	14397
561.097	15469
561.158	14312
561.220	14925
561.281	15106
561.342	16238
561.403	19835
561.465	24526
561.526	40344
561.587	63534
561.648	23240
561.709	14186
561.771	13556
561.832	14310
561.893	13960
561.954	14317
562.015	13548
562.076	12883
562.137	13815
562.198	12596
562.259	13619
562.320	13836
562.381	15769
562.442	20324
562.503	18751
562.564	13947
562.625	12753
562.686	11947
562.747	14078
562.808	14433
562.869	12458
562.930	13172
562.991	13162
563.051	12347
563.112	12032
563.173	11677
563.234	11682
563.294	11636
563.355	12192
563.416	11918
563.477	11814
563.537	11981
563.598	13188
563.659	12746
563.720	12917
563.780	13110
563.841	13321
563.901	11781
563.962	12237
564.023	11867
564.083	12075
564.144	11835
564.204	11565
564.265	12033
564.325	13337
564.386	16862
564.446	19374
564.507	11490
564.567	12087
564.628	11613
564.688	10961
564.749	11451
564.809	12274
564.869	13798
564.930	11728
564.990	10791
565.050	10322
565.111	11429
565.171	10075
565.231	11223
565.292	10713
565.352	10359
565.412	11964
565.472	11599
565.532	12778
565.593	11707
565.653	10456
565.713	11244
565.773	13851
565.833	15154
565.893	19415
565.953	11848
566.013	11017
566.074	13131
566.134	14131
566.194	17060
566.254	21691
566.314	15230
566.374	11456
566.434	11356
566.494	11602
566.554	11756
566.614	12200
566.673	12461
566.733	12931
566.793	12815
566.853	13541
566.913	12338
566.973	13621
567.033	14131
567.092	14366
567.152	14989
567.212	15095
567.272	13032
567.331	14135
567.391	14197
567.451	14665
567.511	16972
567.570	17910
567.630	12642
567.690	12346
567.749	12862
567.809	13412
567.868	14527
567.928	16710
567.988	17770
568.047	20561
568.107	24716
568.166	32872
568.226	49304
568.285	71038
568.345	58963
568.404	40430
568.464	33313
568.523	30098
568.582	33679
568.642	39940
568.701	51125
568.761	71025
568.820	116134
568.879	118451
568.939	75130
568.998	50046
569.057	36157
569.116	27844
569.176	22140
569.235	19794
569.294	17771
569.353	16846
569.413	15865
569.472	15738
569.531	12960
569.590	13128
569.649	13180
569.708	13466
569.767	13304
569.827	15983
569.886	14860
569.945	11833
570.004	12096
570.063	12870
570.122	12397
570.181	14470
570.240	13516
570.299	14726
570.358	14563
570.417	12312
570.475	10499
570.534	12375
570.593	12756
570.652	12940
570.711	13442
570.770	11989
570.829	12649
570.887	13327
570.946	15261
571.005	13266
571.064	12393
571.122	15471
571.181	14911
571.240	12283
571.299	10192
571.357	10540
571.416	10519
571.475	11906
571.533	12579
571.592	11713
571.650	11872
571.709	10932
571.768	12564
571.826	12790
571.885	10591
571.943	10743
572.002	10026
572.060	10923
572.119	9356
572.177	10227
572.236	8969
572.294	9433
572.352	10171
572.411	9476
572.469	9622
572.528	9988
572.586	11314
572.644	10507
572.703	15497
572.761	12572
572.819	10724
572.877	10338
572.936	8753
572.994	10103
573.052	9108
573.110	9740
573.169	10218
573.227	9443
573.285	9165
573.343	9326
573.401	8656
573.459	10231
573.517	8903
573.576	9437
573.634	9755
573.692	10153
573.750	9326
573.808	9539
573.866	9921
573.924	10321
573.982	10236
574.040	9186
574.098	9360
574.155	9409
574.213	8812
574.271	9197
574.329	10517
574.387	9673
574.445	8200
574.503	8097
574.560	8466
574.618	8434
574.676	8804
574.734	8490
574.792	8640
574.849	8741
574.907	7233
574.965	7790
575.022	7820
575.080	7550
575.138	8377
575.195	8935
575.253	8142
575.311	9549
575.368	8274
575.426	7903
575.483	8067
575.541	7865
575.598	7621
575.656	8591
575.713	8246
575.771	8264
575.828	9142
575.886	7330
575.943	8030
576.001	7856
576.058	6979
576.115	8719
576.173	8878
576.230	11008
576.287	11382
576.345	10437
576.402	8376
576.459	8571
576.517	7839
576.574	8944
576.631	9432
576.688	8427
576.746	7741
576.803	7833
576.860	7929
576.917	7668
576.974	7886
577.031	8167
577.089	7498
577.146	7676
577.203	6773
577.260	8392
577.317	7440
577.374	9347
577.431	8747
577.488	8815
577.545	7794
577.602	7717
577.659	7739
577.716	7511
577.773	7297
577.830	6722
577.886	6580
577.943	7176
578.000	6854
578.057	7847
578.114	7679
578.171	7587
578.227	8452
578.284	7404
578.341	7847
578.398	8416
578.454	7973
578.511	8886
578.568	9837
578.625	8704
578.681	8124
578.738	7795
578.794	7832
578.851	8632
578.908	7857
578.964	9325
579.021	9333
579.077	9151
579.134	8952
579.190	8487
579.247	7351
579.303	7799
579.360	6694
579.416	8199
579.473	7464
579.529	6697
579.586	7481
579.642	7262
579.698	6926
579.755	7911
579.811	7898
579.867	7513
579.924	7031
579.980	7238
580.036	7075
580.093	7660
580.149	8007
580.205	8053
580.261	8344
580.317	9322
580.374	8414
580.430	9988
580.486	9589
580.542	8645
580.598	8578
580.619	8518
580.654	8420
580.692	8565
580.710	8651
580.765	8833
580.767	8846
580.823	9092
580.838	8901
580.879	8404
580.911	8487
580.935	8563
580.984	8482
580.991	8478
581.047	8144
581.057	8160
581.103	8267
581.130	8456
581.159	8648
581.203	8123
581.215	8000
581.270	8312
581.276	8284
581.326	8039
581.349	7825
581.382	7530
581.422	7908
581.438	8061
581.494	8563
581.494	8561
581.550	8619
581.567	8688
581.606	8925
581.640	9395
581.661	9650
581.713	8643
581.717	8562
581.773	8552
581.786	8428
581.829	8148
581.859	8479
581.885	8707
581.932	8576
581.940	8567
581.996	8816
582.004	8760
582.052	8439
582.077	8145
582.107	7850
582.150	8180
582.163	8251
582.219	7965
582.223	8044
582.274	9055
582.296	8959
582.330	8919
582.368	8705
582.386	8582
582.441	8859
582.441	8859
582.497	8733
582.514	8678
582.552	8659
582.587	8519
582.608	8438
582.659	8719
582.663	8737
582.719	8679
582.732	8641
582.774	8532
582.805	8569
582.830	8627
582.877	8718
582.885	8727
582.941	8662
582.950	8662
582.996	8670
583.023	9079
583.052	9565
583.095	9054
583.107	8925
583.162	9252
583.168	9299
583.218	9630
583.240	9519
583.273	9310
583.313	9903
583.328	10159
583.384	9062
583.385	9081
583.439	9506
583.458	9395
583.494	9332
583.531	9325
583.549	9237
583.603	9621
583.605	9641
583.660	8973
583.676	9076
583.715	9211
583.748	9235
583.770	9258
583.820	9556
583.825	9595
583.881	9795
583.893	9827
583.936	9740
583.965	9661
583.991	9772
584.038	9823
584.046	9793
584.101	10261
584.110	10207
584.156	9939
584.183	9865
584.211	9855
584.255	10335
584.266	10409
584.321	9640
584.328	9621
584.376	9787
584.400	10367
584.431	10935
584.472	9837
584.486	9566
584.541	10444
584.545	10480
584.596	10619
584.617	10672
584.651	11130
584.689	11148
584.706	11041
584.761	10857
584.762	10857
584.816	11514
584.834	11625
584.871	11702
584.906	11799
584.926	11881
584.978	12227
584.980	12244
585.035	13084
585.051	13314
585.090	14348
585.123	15195
585.145	15522
585.195	16499
585.200	16687
585.254	18973
585.267	19551
585.309	21627
585.340	24457
585.364	26813
585.412	33133
585.419	33963
585.473	42980
585.484	45942
585.528	59598
585.556	70625
585.583	84845
585.628	112401
585.637	124883
585.692	237004
585.700	268897
585.747	509286
585.772	518160
585.801	406103
585.845	222168
585.856	175161
585.910	56144
585.917	43326
585.965	31770
585.989	26815
586.019	24389
586.061	21854
586.074	21456
586.128	20136
586.133	20106
586.183	21167
586.205	21168
586.237	21099
586.277	21108
586.292	20859
586.346	20163
586.349	20131
586.401	19941
586.421	19833
586.455	20209
586.493	20939
586.509	21621
586.564	23427
586.565	23520
586.618	31396
586.637	33593
586.672	36538
586.709	36334
586.727	33469
586.781	28562
586.781	28578
586.835	25732
586.853	24927
586.889	22780
586.925	21631
586.944	21460
586.996	21019
586.998	21047
587.052	21616
587.068	21782
587.106	22337
587.140	22628
587.161	22564
587.212	22881
587.215	22928
587.269	23451
587.284	23579
587.323	24521
587.356	25064
587.377	25339
587.427	26237
587.431	26287
587.485	26871
587.499	27078
587.539	28451
587.571	29198
587.593	29732
587.643	30828
587.648	30969
587.702	32376
587.715	32807
587.755	34219
587.786	35313
587.810	36365
587.858	37862
587.864	38057
587.917	40277
587.930	40714
587.971	43935
588.001	46348
588.025	48143
588.073	51814
588.079	52411
588.133	56791
588.145	57957
588.187	63519
588.217	67449
588.241	71804
588.288	80378
588.295	81883
588.348	94777
588.360	97659
588.402	111128
588.431	120601
588.456	129849
588.503	151055
588.510	154671
588.564	186043
588.575	193919
588.617	230838
588.646	260914
588.671	293393
588.718	365230
588.725	380966
588.778	518633
588.789	550793
588.832	773089
588.861	946414
588.886	1212304
588.932	1749252
588.939	1823672
588.993	2228505
589.004	2304732
589.047	2159679
589.075	1993119
589.100	1663518
589.147	1043672
589.154	987070
589.207	605524
589.218	532133
589.261	455336
589.290	411002
589.314	410124
589.361	420937
589.368	431536
589.421	529820
589.433	555475
589.475	803963
589.504	1004408
589.528	1302550
589.576	1858381
589.582	1880885
589.635	1933511
589.647	1921571
589.689	1335673
589.718	937377
589.742	726378
589.790	345362
589.795	332499
589.849	220960
589.861	196094
589.902	165934
589.932	144125
589.955	133130
590.004	110038
590.009	108429
590.062	90031
590.075	85515
590.115	77392
590.146	71241
590.168	68692
590.218	62800
590.222	62530
590.275	58050
590.289	56822
590.328	54766
590.360	53006
590.381	51724
590.431	48103
590.435	48025
590.488	45930
590.503	45347
590.541	44390
590.574	43385
590.594	42805
590.645	41216
590.647	41237
590.700	40190
590.716	39825
590.753	38663
590.787	37505
590.806	37260
590.859	36516
590.859	36560
590.912	36336
590.930	36173
590.965	35748
591.001	35244
591.018	35107
591.071	34730
591.072	34680
591.124	33523
591.143	33095
591.177	33626
591.214	34216
591.230	34321
591.283	34418
591.285	34371
591.336	34234
591.356	34131
591.389	36198
591.427	38442
591.442	37712
591.495	34679
591.498	34402
591.547	32883
591.569	32146
591.600	31984
591.640	31614
591.653	31661
591.706	31596
591.711	31548
591.759	31664
591.782	31718
591.811	32927
591.853	34471
591.864	34432
591.917	33824
591.924	33695
591.969	31721
591.995	30510
592.022	30557
592.066	30524
592.075	30823
592.127	32377
592.137	32638
592.180	35239
592.208	36843
592.233	36799
592.279	36404
592.285	36057
592.338	32649
592.350	31819
592.390	31979
592.421	32023
592.443	31865
592.491	31383
592.495	31462
592.548	31940
592.562	32033
592.600	31872
592.633	31643
592.653	31602
592.704	31217
592.705	31406
592.775	31926
592.846	32293
592.916	33824
592.987	35811
593.058	37927
593.128	33876
593.199	32838
593.270	31413
593.341	31764
593.411	32568
593.482	34691
593.553	33661
593.623	32834
593.694	33894
593.764	35572
593.835	37214
593.906	33636
593.976	35177
594.047	35197
594.117	38950
594.188	42702
594.258	38661
594.329	35278
594.399	36750
594.470	38046
594.540	37055
594.611	38738
594.681	39524
594.751	39313
594.822	41802
594.892	44322
594.963	45250
595.033	44476
595.103	44205
595.174	44996
595.244	49395
595.314	61277
595.384	58010
595.455	47356
595.525	49137
595.595	50137
595.665	50916
595.736	50317
595.806	50366
595.876	50368
595.946	51272
596.016	50133
596.087	53191
596.157	54368
596.227	53896
596.297	53868
596.367	57840
596.437	61658
596.507	66755
596.577	72924
596.647	73919
596.717	64900
596.787	67891
596.857	67850
596.927	67642
596.997	68037
597.067	67560
597.137	68295
597.207	70598
597.277	69748
597.347	70339
597.417	67360
597.487	67213
597.557	67067
597.626	69125
597.696	69968
597.766	71493
597.836	77245
597.906	76010
597.975	62430
598.045	61587
598.115	62746
598.185	65287
598.254	70821
598.324	80023
598.394	85989
598.464	86696
598.533	82750
598.603	79386
598.672	73865
598.742	73813
598.812	74538
598.881	74692
598.951	74948
599.020	75529
599.090	76304
599.159	78983
599.229	78589
599.299	74332
599.368	74542
599.437	76886
599.507	74649
599.576	69696
599.646	66726
599.715	65463
599.785	66042
599.854	65987
599.924	65342
599.993	64887
600.062	63889
600.132	64223
600.201	65389
600.270	74103
600.340	85496
600.409	83601
600.478	80749
600.547	81119
600.617	82184
600.686	70633
600.755	59026
600.824	58326
600.894	56067
600.963	52181
601.032	51949
601.101	49282
601.170	48952
601.239	46410
601.308	47950
601.378	51297
601.447	46877
601.516	46605
601.585	47070
601.654	51321
601.723	53364
601.792	47964
601.861	49275
601.930	51290
601.999	56018
602.068	56843
602.137	55405
602.206	63264
602.275	56713
602.343	57680
602.412	65754
602.481	60805
602.550	54971
602.619	55789
602.688	57879
602.756	58117
602.825	57170
602.894	57923
602.963	59743
603.032	59407
603.100	60227
603.169	60238
603.238	60153
603.307	62000
603.375	61750
603.444	62134
603.513	63938
603.581	64554
603.650	65465
603.719	65794
603.787	64514
603.856	67925
603.924	69516
603.993	73182
604.061	73583
604.130	77635
604.198	79916
604.267	80464
604.335	81859
604.404	81420
604.472	84516
604.541	83183
604.609	85988
604.678	85641
604.746	85582
604.815	87631
604.883	89560
604.951	91041
605.020	90766
605.088	93132
605.156	95971
605.225	97894
605.293	97692
605.361	99152
605.429	99610
605.498	100400
605.566	104026
605.634	108621
605.702	109734
605.771	113367
605.839	117194
605.907	115046
605.975	112214
606.043	108148
606.111	106230
606.180	106445
606.248	106879
606.316	105467
606.384	105601
606.452	109391
606.520	115081
606.588	123394
606.656	113556
606.724	112782
606.792	108906
606.860	100685
606.928	90356
606.996	84476
607.064	80088
607.132	80343
607.200	83262
607.267	88977
607.335	90233
607.403	95162
607.471	92683
607.539	90054
607.607	89424
607.674	86835
607.742	80167
607.810	80825
607.878	81606
607.946	80998
608.013	82800
608.081	86349
608.149	88251
608.216	88101
608.284	91390
608.352	92505
608.419	92748
608.487	92220
608.555	95325
608.622	89215
608.690	91112
608.757	99895
608.825	108058
608.893	106522
608.960	106098
609.028	105557
609.095	104088
609.163	102422
609.230	93171
609.298	82269
609.365	78473
609.432	84533
609.500	90365
609.567	100887
609.635	115043
609.702	131535
609.769	133129
609.837	123970
609.904	94883
609.971	90098
610.039	98672
610.106	120597
610.173	192284
610.241	457018
610.308	905101
610.375	371448
610.442	160001
610.509	101797
610.577	92140
610.644	89676
610.711	90958
610.778	93117
610.845	97097
610.912	101392
610.980	105580
611.047	110284
611.114	109516
611.181	107334
611.248	102820
611.315	103685
611.382	109254
611.449	112151
611.516	115910
611.583	115668
611.650	116134
611.717	117600
611.784	120784
611.851	126964
611.918	136337
611.984	158372
612.051	204840
612.118	351009
612.185	855621
612.252	1869617
612.319	585865
612.386	187806
612.452	158715
612.519	142315
612.586	136320
612.653	140712
612.719	134446
612.786	137725
612.853	128432
612.919	118213
612.986	119213
613.053	118170
613.120	112393
613.186	104126
613.253	102714
613.319	100646
613.386	102269
613.453	104398
613.519	106816
613.586	112012
613.652	123143
613.719	130037
613.785	123302
613.852	112527
613.918	107480
613.985	105048
614.051	108526
614.118	116583
614.184	127077
614.250	111923
614.317	107406
614.383	107189
614.449	107222
614.516	107768
614.582	107374
614.648	107557
614.715	105180
614.781	104525
614.847	101021
614.914	104134
614.980	101730
615.046	99849
615.112	99081
615.179	103069
615.245	103556
615.311	104818
615.377	109601
615.443	126080
615.509	119391
615.575	112925
615.642	115485
615.708	113831
615.774	119699
615.840	128412
615.906	143199
615.972	172504
616.038	250293
616.104	466723
616.170	1017878
616.236	2415233
616.302	1092716
616.368	281234
616.434	216831
616.500	151200
616.565	147359
616.631	180563
616.697	209285
616.763	162841
616.829	192108
616.895	348238
616.961	593175
617.026	409858
617.092	155699
617.158	118270
617.224	111406
617.289	105789
617.355	98930
617.421	94325
617.487	92335
617.552	90124
617.618	86370
617.684	85516
617.749	85009
617.815	84712
617.880	80284
617.946	80466
618.012	79243
618.077	83090
618.143	83627
618.208	78454
618.274	82219
618.339	88291
618.405	84268
618.470	70768
618.536	72625
618.601	72501
618.667	71096
618.732	64524
618.798	62076
618.863	62151
618.928	59978
618.994	61664
619.059	65171
619.124	71495
619.190	81949
619.255	63872
619.320	60278
619.386	61107
619.451	60191
619.516	59250
619.581	59059
619.647	59181
619.712	61277
619.777	59616
619.842	56944
619.907	59969
619.972	61278
620.038	62051
620.103	60436
620.168	57167
620.233	57367
620.298	59399
620.363	58324
620.428	59986
620.493	62078
620.558	63023
620.623	63551
620.688	64545
620.753	63053
620.818	63388
620.883	65931
620.948	65168
621.013	65078
621.078	63986
621.143	63943
621.207	65643
621.272	64907
621.337	66364
621.402	64172
621.467	65203
621.532	68457
621.596	66435
621.661	64392
621.726	59611
621.791	59069
621.855	60041
621.920	62889
621.985	62603
622.049	65179
622.114	66425
622.179	65656
622.243	63099
622.308	66368
622.373	67041
622.437	69898
622.502	66911
622.566	63961
622.631	62741
622.695	63639
622.760	64645
622.824	63531
622.889	63354
622.953	66657
623.018	72009
623.082	96309
623.147	80290
623.211	68674
623.276	67503
623.340	66804
623.404	61778
623.469	59624
623.533	60238
623.597	60691
623.662	59332
623.726	58289
623.790	53025
623.854	52241
623.919	51445
623.983	51596
624.047	53891
624.111	54024
624.176	54722
624.240	55288
624.304	61855
624.368	60244
624.432	55156
624.496	55481
624.560	59845
624.625	67645
624.689	65966
624.753	60188
624.817	62134
624.881	58481
624.945	56756
625.009	50725
625.073	51630
625.137	53139
625.201	59296
625.265	69645
625.329	61898
625.393	54465
625.456	58028
625.520	55291
625.584	57674
625.648	62809
625.712	67097
625.776	85208
625.839	125014
625.903	114920
625.967	56719
626.031	51325
626.095	69977
626.158	83545
626.222	51565
626.286	41289
626.349	39574
626.413	36665
626.477	36501
626.540	37087
626.604	36691
626.668	35377
626.731	33267
626.795	33941
626.858	34897
626.922	35169
626.986	33687
627.049	33167
627.113	34704
627.176	35438
627.240	32875
627.303	32857
627.366	33905
627.430	32693
627.493	35249
627.557	32990
627.620	33900
627.684	33174
627.747	35681
627.810	34444
627.874	32040
627.937	29933
628.000	29644
628.064	30818
628.127	29816
628.190	26512
628.253	26350
628.317	26162
628.380	25414
628.443	24884
628.506	24475
628.569	24383
628.632	21804
628.696	21577
628.759	21579
628.822	21274
628.885	21090
628.948	20193
629.011	20983
629.074	20161
629.137	20765
629.200	20080
629.263	20364
629.326	19746
629.389	18020
629.452	18042
629.515	18919
629.578	19198
629.641	18770
629.704	19256
629.767	20544
629.830	19322
629.892	17707
629.955	17451
630.018	18142
630.081	20026
630.144	25324
630.207	26228
630.269	22191
630.332	20188
630.395	20479
630.458	17621
630.520	17334
630.583	16977
630.646	16283
630.708	16983
630.771	17076
630.834	17168
630.896	16499
630.959	17860
631.021	17150
631.084	17561
631.146	18020
631.209	19258
631.272	19367
631.334	17583
631.397	17734
631.459	18569
631.522	19879
631.584	22272
631.646	21691
631.709	22746
631.771	26817
631.834	30272
631.896	23744
631.958	20622
632.021	18902
632.083	17781
632.145	18029
632.208	17789
632.270	18190
632.332	16674
632.395	16124
632.457	16056
632.519	16782
632.581	16070
632.643	15512
632.706	16005
632.768	15586
632.830	15168
632.892	15440
632.954	16334
633.016	16730
633.078	16999
633.141	16275
633.203	16813
633.265	15604
633.327	16023
633.389	15940
633.451	16947
633.513	19455
633.575	22263
633.637	21413
633.698	22591
633.760	19705
633.822	17782
633.884	18460
633.946	19898
634.008	20294
634.070	20457
634.132	21570
634.193	24542
634.255	27341
634.317	29132
634.379	30916
634.441	28749
634.502	25201
634.564	22247
634.626	19535
634.687	19014
634.749	18503
634.811	15833
634.873	16756
634.934	15455
634.996	16112
635.057	16534
635.119	15678
635.181	16801
635.242	16351
635.304	16315
635.365	16958
635.427	16771
635.488	17352
635.550	16772
635.611	16444
635.673	16984
635.734	18284
635.796	19472
635.857	22069
635.918	23763
635.980	25986
636.041	27777
636.102	30990
636.164	33704
636.225	32990
636.286	30736
636.348	26441
636.409	22598
636.470	20171
636.531	17217
636.593	17151
636.654	17977
636.715	15617
636.776	13936
636.838	14711
636.899	13452
636.960	13473
637.021	13820
637.082	13374
637.143	13242
637.204	12853
637.265	12627
637.326	13530
637.387	13212
637.448	12503
637.509	12600
637.570	12981
637.631	12902
637.692	11733
637.753	11606
637.814	11671
637.875	11670
637.936	12087
637.997	11594
638.058	12018
638.119	12967
638.179	12424
638.240	11389
638.301	11859
638.362	11099
638.423	10686
638.483	10975
638.544	10419
638.605	10831
638.666	10780
638.726	10315
638.787	10748
638.848	9842
638.908	10699
638.969	9875
639.030	9817
639.090	9041
639.151	10683
639.211	10713
639.272	12895
639.332	17053
639.393	26128
639.453	13700
639.514	14144
639.574	12845
639.635	10216
639.695	9689
639.756	9731
639.816	10634
639.877	11372
639.937	15495
639.997	26911
640.058	28254
640.118	11869
640.178	10172
640.239	9844
640.299	8325
640.359	9353
640.420	10416
640.480	11104
640.540	12690
640.600	16190
640.661	15246
640.721	13183
640.781	14467
640.841	15375
640.901	11545
640.961	10334
641.021	10855
641.082	12992
641.142	17066
641.202	20907
641.262	10542
641.322	9525
641.382	9434
641.442	8642
641.502	8403
641.562	9322
641.622	9730
641.682	9471
641.742	11188
641.802	13195
641.861	10805
641.921	10450
641.981	10710
642.041	11407
642.101	12129
642.161	14869
642.221	9312
642.280	7399
642.340	8498
642.400	7775
642.460	9030
642.519	9518
642.579	8878
642.639	8935
642.698	8355
642.758	9856
642.818	9012
642.877	10028
642.937	9962
642.997	10314
643.056	13240
643.116	17323
643.175	10828
643.235	9532
643.294	10573
643.354	11198
643.414	10983
643.473	13761
643.532	17801
643.592	25828
643.651	39513
643.711	67691
643.770	131167
643.830	265332
643.889	689379
643.948	1172899
644.008	183815
644.067	38654
644.126	25041
644.186	19355
644.245	14730
644.304	12888
644.363	12202
644.423	10999
644.482	10302
644.541	10364
644.600	11328
644.659	13252
644.719	16535
644.778	23146
644.837	37639
644.896	70765
644.955	152442
645.014	305414
645.073	66767
645.132	17263
645.191	13464
645.250	12182
645.309	11301
645.368	11351
645.427	13986
645.486	19544
645.545	36668
645.604	52449
645.663	13613
645.722	10565
645.781	11880
645.840	12322
645.898	15409
645.957	22642
646.016	36037
646.075	64118
646.134	121721
646.192	236678
646.251	696942
646.310	761285
646.369	83086
646.427	27953
646.486	22136
646.545	15939
646.603	12816
646.662	10107
646.721	9730
646.779	9847
646.838	9243
646.896	11765
646.955	16149
647.014	21591
647.072	37481
647.131	76209
647.189	205142
647.248	66518
647.306	12313
647.365	8697
647.423	8145
647.481	7815
647.540	7188
647.598	7940
647.657	6844
647.715	6241
647.773	6071
647.832	6489
647.890	6161
647.948	5657
648.007	6507
648.065	5575
648.123	5590
648.181	6165
648.240	6402
648.298	6130
648.356	5718
648.414	5354
648.472	5837
648.531	6267
648.589	5474
648.647	5357
648.705	5167
648.763	5276
648.821	5919
648.879	6911
648.937	7411
648.995	8709
649.053	11897
649.111	17827
649.169	28536
649.227	51848
649.285	95876
649.343	206632
649.401	567731
649.459	193050
649.516	48331
649.574	24174
649.632	15239
649.690	19166
649.748	19063
649.806	18653
649.863	27954
649.921	50204
649.979	144342
650.037	70398
650.094	9418
650.152	7598
650.210	6643
650.268	6158
650.325	4874
650.383	5084
650.440	5157
650.498	5397
650.556	4021
650.613	4098
650.671	4527
650.728	4404
650.786	4231
650.843	4957
650.901	6833
650.958	4523
651.016	3769
651.073	4194
651.131	3138
651.188	3129
651.246	4203
651.303	4214
651.360	4706
651.418	3728
651.475	4393
651.532	3590
651.590	3382
651.647	2561
651.704	3843
651.762	4361
651.819	3371
651.876	3963
651.933	3676
651.990	3735
652.048	3265
652.105	3530
652.162	3245
652.219	3438
652.276	3602
652.333	3711
652.390	3837
652.448	3528
652.505	2877
652.562	3330
652.619	2903
652.676	3145
652.733	4023
652.790	3466
652.847	2494
652.904	3530
652.961	2765
653.017	3145
653.074	3096
653.131	3244
653.188	2419
653.245	3012
653.302	2636
653.359	3132
653.415	3112
653.472	3283
653.529	3174
653.586	3420
653.642	3551
653.699	3136
653.756	2426
653.813	2933
653.869	3145
653.926	3010
653.983	1793
654.039	2151
654.096	2817
654.152	2621
654.209	3235
654.266	3131
654.322	2976
654.379	4083
654.435	3410
654.492	4420
654.548	4270
654.605	7079
654.661	10522
654.717	4287
654.774	3514
654.830	3536
654.887	3598
654.943	3038
655.000	3080
655.056	3450
655.112	2707
655.168	3200
655.225	3614
655.281	3812
655.337	3305
655.394	5038
655.450	7426
655.506	5396
655.562	4769
655.618	8376
655.675	4515
655.731	3364
655.787	2743
655.843	3151
655.899	2234
655.955	3733
656.011	3543
656.067	3382
656.123	3077
656.179	3196
656.235	3912
656.291	2968
656.347	3721
656.403	3546
656.459	4330
656.515	3731
656.571	3669
656.627	3504
656.683	2716
656.739	3897
656.795	2451
656.850	3268
656.906	3623
656.962	4563
657.018	4347
657.074	4092
657.129	4040
657.185	4472
657.241	6724
657.297	14964
657.352	8016
657.408	3305
657.464	2980
657.519	3675
657.575	2755
657.630	2346
657.686	2126
657.742	2332
657.797	1833
657.853	2844
657.908	2731
657.964	3376
658.019	2453
658.075	2608
658.130	2680
658.186	2228
658.241	2195
658.297	2071
658.352	1903
658.407	2923
658.463	2776
658.518	2066
658.573	2098
658.629	2045
658.684	2754
658.739	2447
658.795	1784
658.850	2618
658.905	2125
658.960	2697
659.016	2329
659.071	1848
659.126	2929
659.181	3359
659.236	3947
659.291	7277
659.346	7408
659.401	3985
659.457	2957
659.512	2323
659.567	3763
659.622	2282
659.677	1981
659.732	1865
659.787	1981
659.842	2699
659.897	3202
659.952	3269
660.007	2259
660.061	2122
660.116	1686
660.171	2043
660.226	1863
660.281	3063
660.336	2416
660.391	1862
660.445	1707
660.500	2494
660.555	2597
660.610	1628
660.664	2488
660.719	2385
660.774	1780
660.828	2209
660.883	2466
660.938	2586
660.992	1809
661.047	2644
661.101	2479
661.156	1888
661.211	1868
661.265	1614
661.320	2463
661.374	2298
661.429	2175
661.483	2033
661.538	1805
661.592	2397
661.647	2628
661.701	1604
661.755	2065
661.810	2341
661.864	1788
661.919	982
661.973	2328
662.027	2265
662.081	1857
662.136	1736
662.190	1918
662.244	2806
662.299	1809
662.353	2273
662.407	1992
662.461	1519
662.515	2171
662.569	1800
662.624	2103
662.678	1956
662.732	1657
662.786	1614
662.840	2073
662.894	2213
662.948	2440
663.002	1957
663.056	1536
663.110	1651
663.164	1859
663.218	2207
663.272	2329
663.326	2976
663.380	2131
663.434	3219
663.488	2185
663.542	2549
663.595	2124
663.649	1336
663.703	2868
663.757	2352
663.811	1896
663.864	2263
663.918	2583
663.972	2101
664.026	2213
664.079	1620
664.133	2382
664.187	1962
664.240	1643
664.294	2337
664.348	2322
664.401	1997
664.455	1876
664.508	1769
664.562	1756
664.615	1632
664.669	2099
664.722	2968
664.776	1913
664.829	1961
664.883	1595
664.936	2174
664.990	1992
665.043	2661
665.097	2179
665.150	2345
665.203	2008
665.257	2561
665.310	1667
665.363	2591
665.417	3139
665.470	2315
665.523	2488
665.576	2090
665.630	2273
665.683	2169
665.736	2567
665.789	2746
665.842	2218
665.895	2020
665.949	2435
666.002	2140
666.055	2685
666.108	2377
666.161	2715
666.214	2570
666.267	3413
666.320	3017
666.373	3917
666.426	2716
666.479	2390
666.532	3405
666.585	2754
666.638	3752
666.691	3853
666.744	3843
666.796	2986
666.849	2945
666.902	3527
666.955	2671
667.008	2047
667.060	1799
667.113	1969
667.166	2432
667.219	1953
667.271	2144
667.324	2057
667.377	1433
667.430	2222
667.482	2384
667.535	2895
667.587	2971
667.640	2841
667.693	3404
667.745	4770
667.798	7890
667.850	7850
667.903	3519
667.955	2104
668.008	2794
668.060	2022
668.113	2947
668.165	2702
668.218	2282
668.270	1744
668.322	2019
668.375	2702
668.427	3003
668.479	2341
668.532	2472
668.584	1850
668.636	1295
668.689	2166
668.741	2153
668.793	2645
668.845	2511
668.898	2913
668.950	2765
669.002	2362
669.054	2409
669.106	2668
669.158	3060
669.211	2329
669.263	2023
669.315	3284
669.367	2674
669.419	2663
669.471	3789
669.523	4000
669.575	4387
669.627	5560
669.679	3924
669.731	3789
669.783	4046
669.835	3528
669.886	4213
669.938	3644
669.990	3081
670.042	3102
670.094	3176
670.146	3821
670.197	4790
670.249	5467
670.301	7100
670.353	8216
670.404	12113
670.456	18054
670.508	26913
670.560	42980
670.611	72953
670.663	122164
670.715	212054
670.766	487169
670.818	856934
670.869	295658
670.921	45542
670.972	21756
671.024	15494
671.075	10696
671.127	8491
671.178	6773
671.230	5820
671.281	6504
671.333	6024
671.384	4707
671.436	5545
671.487	6550
671.538	8466
671.590	10434
671.641	16481
671.692	24997
671.744	45241
671.795	94271
671.846	60846
671.897	17072
671.949	8978
672.000	6070
672.051	4767
672.102	4722
672.153	3408
672.204	3062
672.256	3147
672.307	2943
672.358	2610
672.409	3093
672.460	2545
672.511	2889
672.562	2749
672.613	2538
672.664	2465
672.715	2729
672.766	2201
672.817	1947
672.868	2207
672.919	2172
672.970	2159
673.021	1623
673.071	1523
673.122	2374
673.173	2291
673.224	1874
673.275	2238
673.326	2057
673.376	2039
673.427	1643
673.478	2684
673.528	1658
673.579	2274
673.630	2247
673.680	2402
673.731	1255
673.782	1480
673.832	1438
673.883	1863
673.934	2244
673.984	2550
674.035	1637
674.085	2282
674.136	2150
674.186	2247
674.237	2383
674.287	3378
674.338	3929
674.388	2482
674.438	1844
674.489	3339
674.539	1709
674.589	2907
674.640	2635
674.690	2149
674.740	2069
674.791	1822
674.841	2315
674.891	1159
674.942	2386
674.992	2422
675.042	2442
675.092	1824
675.142	1854
675.193	2216
675.243	1214
675.293	2178
675.343	1477
675.393	2124
675.443	1574
675.493	1779
675.543	1364
675.593	2248
675.643	2231
675.693	2231
675.743	1546
675.793	2448
675.843	1698
675.893	1731
675.943	1210
675.993	2382
676.043	1932
676.093	1375
676.142	1745
676.192	1830
676.242	1546
676.292	1090
676.341	584
676.391	1114
676.441	1391
676.491	1236
676.540	1104
676.590	876
676.640	1008
676.689	1560
676.739	1346
676.789	585
676.838	1274
676.888	1473
676.937	1045
676.987	1349
677.037	1236
677.086	1268
677.136	1111
677.185	1239
677.235	1249
677.284	1004
677.333	435
677.383	1511
677.432	1066
677.482	1220
677.531	1591
677.580	692
677.630	1822
677.679	1427
677.728	1052
677.778	1204
677.827	1070
677.876	1197
677.925	594
677.975	1215
678.024	1290
678.073	1977
678.122	1383
678.171	1289
678.220	1498
678.269	1839
678.319	2327
678.368	1515
678.417	2690
678.466	1844
678.515	1654
678.564	1417
678.613	1588
678.662	1574
678.711	438
678.760	1594
678.809	1376
678.857	906
678.906	1491
678.955	701
679.004	1598
679.053	1455
679.102	1035
679.151	1545
679.199	1020
679.248	1107
679.297	1003
679.346	906
679.394	1538
679.443	881
679.492	1059
679.540	787
679.589	885
679.638	1525
679.686	376
679.735	1350
679.784	523
679.832	1686
679.881	1410
679.929	2318
679.978	-35
680.026	415
680.075	1242
680.123	1396
680.172	1042
680.220	833
680.268	703
680.317	1116
680.365	442
680.414	482
680.462	887
680.510	946
680.559	1473
680.607	775
680.655	862
680.703	622
680.752	1081
680.800	1389
680.848	404
680.896	1224
680.945	522
680.993	859
681.041	993
681.089	839
681.137	1048
681.185	99
681.233	215
681.258	299
681.281	360
681.329	955
681.377	478
681.380	511
681.425	788
681.473	1137
681.502	625
681.521	237
681.569	1422
681.617	1625
681.624	1599
681.665	1320
681.713	205
681.745	1213
681.761	1669
681.809	659
681.857	1321
681.867	1459
681.904	1872
681.952	1304
681.989	1600
682.000	1671
682.048	1702
682.096	760
682.111	744
682.143	656
682.191	1542
682.233	1672
682.239	1663
682.286	1116
682.334	1856
682.354	1662
682.382	1410
682.430	1347
682.476	1914
682.477	1910
682.525	1890
682.572	1020
682.598	1555
682.620	2018
682.667	1484
682.715	2375
682.720	2281
682.763	1200
682.810	1852
682.841	1809
682.857	1803
682.905	2131
682.952	1844
682.963	1997
683.000	2367
683.047	2210
683.085	2190
683.095	2164
683.142	1731
683.190	2373
683.206	1895
683.237	994
683.284	2692
683.328	2014
683.332	1948
683.379	2218
683.426	2214
683.449	1996
683.473	1727
683.521	2324
683.568	1561
683.571	1594
683.615	1898
683.662	2459
683.693	2481
683.709	2452
683.757	2233
683.804	2539
683.814	2446
683.851	2115
683.898	2355
683.936	2386
683.945	2378
683.992	2245
684.039	3148
684.057	3020
684.086	2868
684.133	3455
684.179	3474
684.180	3460
684.227	3561
684.274	3542
684.300	3899
684.321	4044
684.368	3571
684.415	3268
684.422	3299
684.462	3546
684.509	2884
684.543	3132
684.556	3128
684.603	3214
684.649	2729
684.665	2706
684.696	2900
684.743	3075
684.786	3222
684.790	3221
684.837	3672
684.883	3520
684.908	3430
684.930	3306
684.977	3539
685.023	3420
685.029	3420
685.070	3330
685.117	2930
685.150	3235
685.164	3350
685.210	3217
685.257	4538
685.272	4237
685.303	3649
685.350	3860
685.393	4193
685.396	4217
685.443	4543
685.490	4612
685.514	4857
685.536	5142
685.583	5236
685.629	5579
685.636	5552
685.675	4677
685.722	4719
685.757	4116
685.768	4023
685.815	5160
685.861	4387
685.878	4376
685.908	4396
685.954	4620
686.000	5012
686.000	5011
686.047	4134
686.093	5057
686.121	5165
686.139	5382
686.185	5298
686.232	5504
686.242	5694
686.278	5889
686.324	4952
686.363	5036
686.370	5048
686.416	4287
686.463	4547
686.484	4445
686.509	4469
686.555	4498
686.601	4157
686.606	4191
686.647	4479
686.693	4582
686.727	4501
686.739	4423
686.785	3938
686.831	4343
686.848	4181
686.877	4024
686.923	4873
686.969	4630
686.969	4627
687.015	4022
687.061	4616
687.090	4343
687.107	4253
687.153	5147
687.199	4752
687.211	4778
687.245	4748
687.291	4154
687.332	4891
687.336	4978
687.382	5245
687.428	5433
687.453	5400
687.474	5299
687.520	5756
687.565	5278
687.574	5268
687.611	5126
687.657	4766
687.695	4991
687.702	5056
687.748	4975
687.794	5493
687.816	5373
687.839	5367
687.885	5560
687.931	5658
687.937	5669
687.976	5509
688.022	5528
688.058	5243
688.067	5189
688.113	5858
688.158	6015
688.179	5997
688.204	5983
688.249	5669
688.295	5459
688.300	5457
688.340	5536
688.386	6078
688.421	5910
688.431	5829
688.477	5515
688.522	5794
688.542	5904
688.567	6223
688.613	6360
688.658	6457
688.663	6427
688.703	6032
688.749	6595
688.784	6142
688.794	5989
688.839	5793
688.884	5762
688.905	5675
688.930	5550
688.975	5554
689.020	5401
689.026	5330
689.065	5232
689.110	5817
689.146	5534
689.155	5456
689.201	5863
689.246	5704
689.267	5871
689.291	6017
689.336	6015
689.381	6019
689.388	6016
689.426	5935
689.471	5717
689.509	5399
689.516	5382
689.561	5629
689.606	6147
689.630	5893
689.651	5612
689.696	5481
689.741	5680
689.750	5644
689.785	5641
689.830	5367
689.871	5981
689.875	6047
689.920	5849
689.965	5755
689.992	5750
690.010	5758
690.054	6296
690.099	5813
690.112	5806
690.144	5775
690.189	5983
690.233	5952
690.233	5961
690.278	5868
690.323	5908
690.354	6194
690.367	6256
690.412	6260
690.457	5806
690.474	5844
690.501	5910
690.546	5960
690.590	5688
690.595	5678
690.635	5871
690.680	5821
690.716	5941
690.724	5964
690.769	5965
690.813	6222
690.836	6373
690.857	6515
690.902	6127
690.946	5678
690.957	5749
690.991	6248
691.035	6450
691.077	6612
691.080	6631
691.124	7288
691.168	7367
691.198	7413
691.213	7464
691.257	7809
691.301	8234
691.318	8301
691.346	8215
691.390	7843
691.434	7710
691.439	7693
691.478	7426
691.522	7092
691.559	6629
691.567	6676
691.611	7229
691.655	7365
691.680	7681
691.699	7886
691.743	8040
691.787	7983
691.800	8039
691.831	7804
691.875	7752
691.919	7025
691.921	6999
691.964	6970
692.008	7009
692.041	7001
692.052	7098
692.096	7316
692.139	7987
692.162	8070
692.183	7923
692.227	7595
692.271	7513
692.282	7409
692.315	7478
692.359	7731
692.402	7834
692.403	7849
692.447	7715
692.490	7968
692.523	7848
692.534	7858
692.578	7784
692.622	8154
692.643	8022
692.666	7839
692.709	7960
692.753	7782
692.763	7732
692.797	7674
692.840	8005
692.884	7739
692.884	7751
692.928	7337
692.971	7068
693.004	6923
693.015	7044
693.059	7215
693.102	7569
693.124	7700
693.146	7638
693.189	7244
693.233	7418
693.245	7366
693.276	7586
693.320	8020
693.363	8090
693.365	8075
693.407	7978
693.450	8131
693.485	8158
693.493	8132
693.537	8128
693.580	7594
693.605	7555
693.624	7745
693.667	7996
693.710	8436
693.725	8415
693.753	8271
693.797	8177
693.840	8241
693.845	8233
693.883	9188
693.926	10075
693.966	10943
693.970	10923
694.013	10544
694.056	10101
694.086	9620
694.099	9397
694.142	8608
694.185	8354
694.206	8029
694.229	8137
694.272	8192
694.315	8579
694.326	8553
694.358	8623
694.401	9102
694.444	9450
694.446	9438
694.487	9817
694.530	10434
694.566	10819
694.573	10829
694.616	10425
694.659	10429
694.686	10339
694.702	10044
694.745	9176
694.787	8279
694.806	7834
694.830	7829
694.873	7879
694.916	8028
694.926	8010
694.959	7897
695.002	7743
695.044	7441
695.046	7416
695.087	7905
695.130	8517
695.166	8793
695.172	8821
695.215	8914
695.258	9050
695.286	9100
695.301	9000
695.343	8823
695.386	8483
695.406	8273
695.428	8324
695.471	8414
695.514	8542
695.526	8602
695.556	8673
695.599	8557
695.641	8476
695.646	8446
695.684	8573
695.726	8416
695.766	8599
695.769	8621
695.811	8547
695.854	8438
695.886	8372
695.896	8389
695.938	8263
695.981	8030
696.005	8026
696.023	8216
696.065	8635
696.108	8850
696.125	8968
696.150	8835
696.192	8502
696.235	8189
696.245	8066
696.277	8375
696.319	8869
696.361	9333
696.365	9347
696.404	9360
696.446	9399
696.485	9413
696.488	9445
696.530	9416
696.572	9457
696.604	9486
696.614	9556
696.656	9832
696.698	9953
696.724	10043
696.740	9914
696.783	9532
696.825	9078
696.844	8835
696.867	9038
696.909	9406
696.951	9854
696.964	9970
696.992	9887
697.034	9575
697.076	9409
697.083	9333
697.118	9472
697.160	9696
697.202	9918
697.203	9895
697.244	9796
697.286	9811
697.323	9656
697.327	9710
697.369	10084
697.411	10342
697.442	10608
697.453	10566
697.494	10131
697.536	9784
697.562	9559
697.578	9904
697.620	10655
697.661	11445
697.682	11789
697.703	11682
697.744	11497
697.786	11300
697.801	11180
697.828	11952
697.869	13152
697.911	14378
697.921	14620
697.952	14817
697.994	15052
698.035	15357
698.040	15343
698.077	14254
698.118	12966
698.160	11754
698.160	11715
698.201	11508
698.243	11312
698.279	11117
698.284	11143
698.325	11088
698.367	11030
698.399	10956
698.408	11052
698.449	11343
698.491	11643
698.518	11817
698.532	11775
698.573	11552
698.614	11319
698.638	11161
698.656	11240
698.697	11346
698.738	11462
698.757	11477
698.779	11503
698.820	11520
698.862	11512
698.877	11486
698.903	11712
698.944	12015
698.985	12320
698.996	12373
699.026	12186
699.067	11880
699.116	11484
699.235	11740
699.354	10932
699.474	11593
699.593	11492
699.713	12514
699.832	12156
699.951	11616
700.070	13709
700.190	12679
700.309	12172
700.428	11339
700.547	12921
700.667	11537
700.786	11474
700.905	13077
701.024	10700
701.143	11758
701.262	11690
701.381	10526
701.500	10250
701.619	11408
701.738	13975
701.857	12607
701.976	10077
702.095	9921
702.214	10699
702.333	11886
702.452	13140
702.571	12764
702.690	10928
702.809	10997
702.928	10465
703.047	9950
703.165	9727
703.284	10461
703.403	9890
703.522	9798
703.640	11456
703.759	11740
703.878	13174
703.997	16900
704.115	10877
704.234	10168
704.353	10374
704.471	10369
704.590	8936
704.708	8542
704.827	9105
704.946	8573
705.064	8976
705.183	10091
705.301	9665
705.420	9655
705.538	11140
705.656	11158
705.775	9473
705.893	8922
706.012	10729
706.130	11205
706.249	10010
706.367	10264
706.485	9935
706.604	10358
706.722	10630
706.840	11308
706.958	14691
707.077	12102
707.195	10111
707.313	9306
707.431	8557
707.549	8811
707.668	9647
707.786	9714
707.904	9623
708.022	8673
708.140	9042
708.258	8903
708.376	9499
708.494	9062
708.612	8592
708.730	9956
708.848	11655
708.966	11593
709.084	12977
709.202	11774
709.320	9689
709.438	9797
709.556	10616
709.674	10736
709.791	10014
709.909	9831
710.027	9174
710.145	9196
710.263	9292
710.380	9049
710.498	10207
710.616	8718
710.733	9503
710.851	9372
710.969	9429
711.086	9964
711.204	10428
711.322	9605
711.439	8368
711.557	9223
711.674	9514
711.792	9727
711.909	8849
712.027	8736
712.144	9007
712.262	8459
712.379	8994
712.497	9253
712.614	11685
712.732	11768
712.849	11438
712.966	9835
713.084	12932
713.201	17464
713.318	12495
713.436	11381
713.553	10666
713.670	11281
713.787	11609
713.905	12056
714.022	13361
714.139	10753
714.256	12656
714.373	15647
714.490	24709
714.608	45718
714.725	116585
714.842	567464
714.959	743621
715.076	51982
715.193	19719
715.310	14982
715.427	13646
715.544	11324
715.661	11029
715.778	10572
715.895	9185
716.011	10447
716.128	11669
716.245	9960
716.362	10181
716.479	13392
716.596	16591
716.713	9726
716.829	9393
716.946	9634
717.063	8675
717.180	8442
717.296	8075
717.413	7677
717.530	8590
717.646	8275
717.763	8988
717.880	8729
717.996	8551
718.113	8273
718.229	9680
718.346	8870
718.462	8712
718.579	9064
718.695	12952
718.812	28859
718.928	19345
719.045	12117
719.161	9618
719.277	7885
719.394	8744
719.510	8173
719.626	8924
719.743	9663
719.859	12308
719.975	17544
720.092	36113
720.208	150100
720.324	434748
720.440	58905
720.557	12989
720.673	12393
720.789	20460
720.905	23213
721.021	36922
721.137	15788
721.253	7175
721.369	7353
721.486	7460
721.602	9003
721.718	11640
721.834	7500
721.950	6998
722.066	7277
722.181	6640
722.297	7039
722.413	7758
722.529	7326
722.645	7177
722.761	5686
722.877	6059
722.993	6720
723.108	6902
723.224	9015
723.340	7906
723.456	6950
723.571	6882
723.687	6998
723.803	6357
723.918	5317
724.034	6195
724.150	5746
724.265	5668
724.381	5776
724.497	13414
724.612	19725
724.728	6205
724.843	5755
724.959	6580
725.074	6634
725.190	12313
725.305	17406
725.421	7140
725.536	7077
725.651	4935
725.767	5686
725.882	4707
725.997	5080
726.113	5254
726.228	6222
726.343	5954
726.459	4789
726.574	5306
726.689	5589
726.804	5338
726.920	4671
727.035	5545
727.150	5233
727.265	5964
727.380	5237
727.495	5776
727.610	5581
727.725	5475
727.841	4930
727.956	4941
728.071	5802
728.186	6482
728.301	5064
728.416	5691
728.531	6143
728.645	5447
728.760	4613
728.875	5493
728.990	8327
729.105	7463
729.220	6655
729.335	6588
729.449	6469
729.564	5671
729.679	5071
729.794	4572
729.908	4508
730.023	5154
730.138	4945
730.253	4539
730.367	4720
730.482	3867
730.596	3845
730.711	4625
730.826	5033
730.940	5956
731.055	5763
731.169	5846
731.284	5190
731.398	4863
731.513	4924
731.627	6641
731.742	5896
731.856	7360
731.970	8480
732.085	7383
732.199	10155
732.313	12712
732.428	23531
732.542	62026
732.656	209765
732.771	157244
732.885	23490
732.999	11637
733.113	8832
733.227	8904
733.342	7894
733.456	6818
733.570	6092
733.684	5832
733.798	5338
733.912	5963
734.026	5666
734.140	6038
734.254	5939
734.368	6365
734.482	8365
734.596	12328
734.710	5959
734.824	5397
734.938	5174
735.052	5494
735.166	5975
735.280	6378
735.393	5222
735.507	5475
735.621	5698
735.735	7937
735.849	10251
735.962	6783
736.076	5460
736.190	5805
736.303	6212
736.417	7194
736.531	9148
736.644	5763
736.758	5262
736.872	4540
736.985	4951
737.099	5310
737.212	5266
737.326	4931
737.439	4376
737.553	5322
737.666	5080
737.780	4425
737.893	5310
738.007	5333
738.120	4092
738.233	4602
738.347	4660
738.460	5856
738.573	4675
738.687	5915
738.800	5725
738.913	6419
739.026	8285
739.140	6206
739.253	4400
739.366	4929
739.479	4310
739.592	4007
739.705	4778
739.818	4595
739.932	4978
740.045	5469
740.158	6089
740.271	5668
740.384	4712
740.497	4768
740.610	4789
740.723	5679
740.836	5653
740.949	6493
741.062	6701
741.174	9188
741.287	6853
741.400	5117
741.513	3936
741.626	5024
741.739	7045
741.851	5871
741.964	5692
742.077	5186
742.189	4827
742.302	5716
742.415	6295
742.527	6988
742.640	5536
742.753	4843
742.865	4357
742.978	3862
743.090	3781
743.203	3922
743.316	4073
743.428	3493
743.541	3246
743.653	3720
743.766	3582
743.878	4011
743.990	3386
744.103	5666
744.215	5546
744.327	4714
744.440	4338
744.552	6258
744.664	9982
744.777	6199
744.889	4519
745.001	4124
745.113	2106
745.226	3373
745.338	3925
745.450	3117
745.562	2818
745.674	3108
745.786	3379
745.898	3917
746.010	2988
746.122	3204
746.234	4679
746.347	5752
746.459	3010
746.570	3737
746.682	2503
746.794	3115
746.906	3652
747.018	4007
747.130	2846
747.242	3686
747.354	2715
747.466	3927
747.577	3419
747.689	2851
747.801	2873
747.913	2372
748.024	2865
748.136	2540
748.248	1902
748.359	3324
748.471	2798
748.583	3456
748.694	2672
748.806	2973
748.918	3336
749.029	4003
749.141	3073
749.252	4804
749.364	4003
749.475	5023
749.587	12739
749.698	8497
749.809	3182
749.921	2678
750.032	2893
750.144	2643
750.255	2158
750.366	2400
750.478	2688
750.589	2088
750.700	2478
750.811	3562
750.923	3712
751.034	4793
751.145	13184
751.256	17248
751.367	4438
751.479	2956
751.590	2298
751.701	2257
751.812	1992
751.923	2393
752.034	2661
752.145	2637
752.256	3005
752.367	2690
752.478	2946
752.589	2760
752.700	2300
752.811	2170
752.922	1989
753.032	2139
753.143	3994
753.254	5053
753.365	2350
753.476	2896
753.586	2860
753.697	1921
753.808	1825
753.919	2579
754.029	2392
754.140	1988
754.251	2146
754.361	2572
754.472	2738
754.582	2506
754.693	2484
754.804	2964
754.914	1883
755.025	1978
755.135	2256
755.246	2003
755.356	1653
755.466	1894
755.577	1908
755.687	1863
755.798	1653
755.908	2217
756.018	1921
756.129	2436
756.239	2379
756.349	1986
756.460	2333
756.570	2810
756.680	3155
756.790	2537
756.900	3102
757.011	3761
757.121	2462
757.231	1919
757.341	2645
757.451	3167
757.561	2006
757.671	1723
757.781	1135
757.891	2181
758.001	1443
758.111	2695
758.221	2761
758.331	2690
758.441	3816
758.551	3422
758.661	6720
758.771	6426
758.880	2759
758.990	3242
759.100	2511
759.210	3017
759.320	2526
759.429	2749
759.539	3285
759.649	3672
759.758	2974
759.868	4298
759.978	3841
760.087	4185
760.197	4524
760.307	4430
760.416	4068
760.526	3705
760.635	3874
760.745	3678
760.854	3895
760.964	4428
761.073	5234
761.182	5231
761.292	4829
761.401	4371
761.511	4047
761.620	3741
761.729	2272
761.839	2253
761.948	2642
762.057	2875
762.166	3977
762.276	2572
762.385	2493
762.494	2590
762.603	3066
762.712	2402
762.822	2411
762.931	2294
763.040	1308
763.149	2343
763.258	1742
763.367	1957
763.476	2004
763.585	1923
763.694	1739
763.803	2242
763.912	2858
764.021	2263
764.130	1809
764.238	2559
764.347	1991
764.456	2578
764.565	3316
764.674	2837
764.783	2624
764.891	2788
765.000	2104
765.109	2786
765.217	2151
765.326	3405
765.435	3560
765.543	5253
765.652	4876
765.761	3778
765.869	4105
765.978	6344
766.086	9200
766.195	15843
766.303	32839
766.412	85591
766.520	300341
766.629	315316
766.737	54628
766.846	15812
766.954	10385
767.062	7649
767.171	5896
767.279	4839
767.387	4415
767.496	3627
767.604	2921
767.712	3078
767.820	2736
767.928	2427
768.037	3497
768.145	2819
768.253	3582
768.361	2943
768.469	2452
768.577	3123
768.685	2763
768.793	3028
768.901	2622
769.009	2806
769.117	2901
769.225	2988
769.333	3565
769.441	4638
769.549	6280
769.657	14035
769.765	31320
769.873	106030
769.981	295876
770.088	100936
770.196	14245
770.304	7283
770.412	5261
770.519	5066
770.627	3965
770.735	3059
770.842	2981
770.950	3732
771.058	2990
771.165	3567
771.273	2095
771.380	3356
771.488	2587
771.595	3207
771.703	2797
771.810	3556
771.918	2770
772.025	3391
772.133	2948
772.240	4139
772.348	3495
772.455	4065
772.562	3195
772.670	3292
772.777	3127
772.884	3766
772.991	3914
773.099	3287
773.206	2219
773.313	3652
773.420	3103
773.528	2855
773.635	3049
773.742	3175
773.849	3122
773.956	2929
774.063	2803
774.170	2228
774.277	3097
774.384	3447
774.491	2914
774.598	2964
774.705	3084
774.812	3920
774.919	4834
775.026	2498
775.133	3066
775.239	2972
775.346	2944
775.453	2667
775.560	2715
775.667	3391
775.773	2888
775.880	2459
775.987	2315
776.093	2691
776.200	2819
776.307	2963
776.413	2342
776.520	2413
776.627	3266
776.733	3039
776.840	2688
776.946	2624
777.053	3419
777.159	3011
777.266	4714
777.372	4193
777.478	3738
777.585	4735
777.691	3422
777.798	3176
777.904	3855
778.010	3238
778.117	4707
778.223	5939
778.329	2772
778.435	2648
778.542	2274
778.648	2863
778.754	2481
778.860	1775
778.966	1825
779.072	2896
779.178	2895
779.284	2265
779.391	2050
779.497	1546
779.603	2842
779.708	1555
779.815	1689
779.920	2366
780.026	3237
780.132	6489
780.238	2296
780.344	1855
780.450	2151
780.556	2445
780.661	1504
780.767	2428
780.873	2673
780.979	1858
781.085	1853
781.190	2780
781.296	2224
781.402	1838
781.507	1786
781.613	2213
781.719	1296
781.824	1428
781.930	2683
782.035	1370
782.141	2415
782.246	1825
782.352	2128
782.457	1639
782.563	1688
782.668	2467
782.773	2192
782.879	1972
782.984	2033
783.090	1960
783.195	2590
783.300	6707
783.405	4939
783.511	2740
783.616	2856
783.721	2312
783.826	2062
783.932	2638
784.037	2222
784.142	2719
784.247	1596
784.352	1699
784.457	1487
784.562	1915
784.667	2102
784.772	2669
784.877	1675
784.982	1734
785.087	1655
785.192	1569
785.297	2004
785.402	2151
785.507	1316
785.611	1741
785.716	2017
785.821	1535
785.926	1437
786.031	1378
786.135	1010
786.240	1195
786.345	1192
786.450	2200
786.554	1014
786.659	1590
786.763	1522
786.868	1084
786.973	1759
787.077	1885
787.182	1190
787.286	1011
787.391	764
787.495	1721
787.600	660
787.704	507
787.809	663
787.913	1820
788.017	884
788.122	1778
788.226	1436
788.330	1536
788.435	585
788.539	1387
788.643	1856
788.747	995
788.852	1193
788.956	1051
789.060	1120
789.164	1241
789.268	1315
789.372	1238
789.476	1252
789.580	1599
789.684	923
789.788	1330
789.892	965
789.996	1028
790.100	1224
790.204	1257
790.308	685
790.412	1082
790.516	1592
790.620	1469
790.724	777
790.828	836
790.931	1328
791.035	993
791.139	824
791.242	1294
791.346	1295
791.450	1271
791.554	1412
791.657	1567
791.761	921
791.864	915
791.968	1263
792.072	1433
792.175	1134
792.279	1488
792.382	472
792.486	1699
792.589	1409
792.693	1553
792.796	933
792.899	1605
793.003	983
793.106	1741
793.209	837
793.313	1417
793.416	1308
793.519	1331
793.623	1294
793.726	4060
793.829	6712
793.932	2351
794.035	1484
794.138	1782
794.242	1192
794.345	2369
794.448	1905
794.551	2510
794.654	5643
794.757	5894
794.860	3775
794.963	2488
795.066	1406
795.169	919
795.272	1520
795.375	879
795.477	1206
795.580	1409
795.683	529
795.786	773
795.889	439
795.991	1509
796.094	871
796.197	1114
796.300	1562
796.402	637
796.505	1401
796.608	852
796.710	1269
796.813	1029
796.915	1230
797.018	1752
797.120	561
797.223	912
797.326	1060
797.428	873
797.530	972
797.633	714
797.735	1163
797.838	1978
797.940	2584
798.042	2414
798.145	798
798.247	517
798.349	240
798.452	1102
798.554	791
798.656	613
798.758	1381
798.860	1119
798.962	892
799.065	1173
799.167	1060
799.269	918
799.371	676
799.473	1539
799.575	1802
799.677	1871
799.779	2698
799.881	2111
799.983	5136
800.085	3813
800.187	1236
800.289	1098
800.390	350
800.492	1290
800.594	610
800.696	541
800.798	182
800.899	440
801.001	861
801.103	495
801.205	457
801.306	1341
801.408	863
801.509	915
801.611	-685
801.713	884
801.814	308
801.916	1010
802.017	121
802.119	602
802.220	673
802.322	34
802.423	863
802.525	1371
802.626	841
802.727	763
802.829	578
802.930	1422
803.031	1116
803.133	607
803.234	730
803.335	780
803.436	-193
803.538	657
803.639	286
803.740	599
803.841	1010
803.942	712
804.043	627
804.144	382
804.245	197
804.346	83
804.447	433
804.548	172
804.649	2303
804.750	3269
804.851	907
804.952	197
805.053	193
805.154	960
805.255	841
805.355	696
805.456	944
805.557	-175
805.658	602
805.758	268
805.859	802
805.960	-531
806.061	-87
806.161	453
806.262	538
806.362	681
806.463	859
806.564	-201
806.664	79
806.765	408
806.865	534
806.966	1143
807.066	93
807.166	1085
807.267	260
807.367	966
807.468	390
807.568	-170
807.668	-14
807.769	1053
807.869	324
807.969	421
808.069	503
808.170	-136
808.270	-201
808.370	320
808.470	809
808.570	1391
808.670	2572
808.770	486
808.870	-416
808.970	-346
809.070	-277
809.170	535
809.271	523
809.370	350
809.470	651
809.570	356
809.670	-51
809.770	749
809.870	-480
809.970	322
810.070	470
810.169	570
810.269	-364
810.369	643
810.469	-56
810.568	268
810.668	633
810.768	-405
810.867	-228
810.967	108
811.066	507
811.166	-213
811.265	-345
811.365	-362
811.464	353
811.564	-82
811.663	362
811.763	212
811.862	671
811.962	45
812.061	352
812.160	-98
812.260	349
812.359	49
812.458	202
812.557	1038
812.657	3942
812.756	8439
812.855	2992
812.954	-62
813.053	686
813.153	974
813.252	968
813.351	690
813.450	753
813.549	-388
813.648	488
813.747	446
813.846	514
813.945	-142
814.044	511
814.143	322
814.242	100
814.341	434
814.439	298
814.538	290
814.637	24
814.736	306
814.835	715
814.933	812
815.032	158
815.131	917
815.229	887
815.328	1441
815.427	1762
815.525	1559
815.624	721
815.722	1245
815.821	1288
815.919	1678
816.018	1736
816.116	1979
816.215	977
816.313	1901
816.412	1512
816.510	1878
816.609	2068
816.707	2743
816.805	2006
816.904	2717
817.002	2565
817.100	2825
817.198	3146
817.296	2769
817.395	3573
817.493	3962
817.591	4365
817.689	3813
817.787	5402
817.885	7426
817.983	11177
818.081	18152
818.179	40017
818.277	96068
818.375	240231
818.473	273818
818.571	81647
818.669	25304
818.767	15909
818.865	12986
818.963	12830
819.061	14778
819.158	22020
819.256	37632
819.354	81397
819.452	189911
819.549	438420
819.647	372713
819.745	105134
819.842	37339
819.940	20780
820.038	14502
820.135	10438
820.233	8719
820.330	6943
820.428	5678
820.525	4367
820.623	4242
820.720	3473
820.818	3918
820.915	3155
821.012	2502
821.110	2040
821.207	2852
821.304	2208
821.402	1057
821.499	2769
821.596	2068
821.693	2226
821.791	3285
821.888	2279
821.985	3644
822.082	7123
822.179	7975
822.276	2861
822.373	1642
822.470	1585
822.567	1031
822.664	768
822.761	1002
822.858	1189
822.955	1848
823.052	1145
823.149	1342
823.246	1988
823.343	2166
823.440	946
823.536	868
823.633	313
823.730	1043
823.827	741
823.923	735
824.020	1431
824.117	1059
824.213	440
824.310	1131
824.407	1341
824.503	1028
824.600	1442
824.696	777
824.793	1790
824.889	1028
824.986	1628
825.082	1203
825.179	821
825.275	1022
825.371	1476
825.468	1396
825.564	680
825.660	93
825.757	811
825.853	820
825.949	787
826.045	601
826.142	578
826.238	953
826.334	561
826.430	1295
826.526	476
826.622	581
826.718	725
826.814	829
826.910	130
827.006	919
827.102	7
827.198	594
827.294	1361
827.390	787
827.486	935
827.582	110
827.678	504
827.774	620
827.869	21
827.965	753
828.061	278
828.157	703
828.252	1088
828.348	969
828.444	452
828.539	330
828.635	549
828.731	1125
828.826	782
828.922	366
829.017	607
829.113	1721
829.208	636
829.304	167
829.399	1158
829.495	999
829.590	691
829.685	318
829.781	953
829.876	480
829.971	75
830.066	150
830.162	-288
830.257	289
830.352	789
830.447	1118
830.543	203
830.638	555
830.733	516
830.828	586
830.923	-214
831.018	626
831.113	792
831.208	1234
831.303	524
831.398	587
831.493	-51
831.588	478
831.683	554
831.778	231
831.873	-516
831.967	536
832.062	69
832.157	758
832.252	1440
832.346	633
832.441	843
832.536	799
832.631	2026
832.725	5199
832.820	5750
832.914	1084
833.009	761
833.104	1073
833.198	144
833.293	1101
833.387	690
833.482	424
833.576	29
833.670	1075
833.765	53
833.859	955
833.954	1412
834.048	1389
834.142	824
834.237	-95
834.331	224
834.425	181
834.519	-207
834.613	306
834.708	569
834.802	135
834.896	-479
834.990	-295
835.084	206
835.178	138
835.272	-302
835.366	55
835.460	291
835.554	-65
835.648	194
835.742	126
835.836	-69
835.930	-345
836.024	587
836.117	739
836.211	413
836.305	478
836.399	329
836.493	880
836.586	256
836.680	551
836.774	248
836.867	371
836.961	-353
837.055	-519
837.148	199
837.242	40
837.335	-345
837.429	-104
837.522	-267
837.616	-64
837.709	9
837.803	720
837.896	632
837.989	242
838.083	451
838.176	149
838.269	1076
838.363	2110
838.456	132
838.549	788
838.642	1134
838.735	1873
838.829	5852
838.922	3432
839.015	104
839.108	34
839.201	-704
839.294	-162
839.387	-186
839.480	172
839.573	-133
839.666	-78
839.759	1375
839.852	196
839.945	344
840.038	-442
840.131	-857
840.223	-166
840.316	-40
840.409	74
840.502	-505
840.594	261
840.687	-566
840.780	-378
840.873	-690
840.965	-111
841.058	-289
841.150	483
841.243	924
841.336	1243
841.428	-562
841.521	-83
841.613	-437
841.706	-17
841.798	187
841.890	-514
841.983	-680
842.075	-704
842.167	103
842.260	-147
842.352	424
842.444	304
842.537	253
842.629	2008
842.721	3130
842.813	656
842.905	-931
842.997	142
843.090	-93
843.182	18
843.274	791
843.366	2273
843.458	3449
843.550	8804
843.642	8338
843.734	1454
843.826	506
843.918	792
844.009	1401
844.101	784
844.193	-161
844.285	244
844.377	-236
844.469	172
844.560	-602
844.652	-27
844.744	368
844.835	418
844.927	-277
845.019	169
845.110	7
845.202	104
845.293	135
845.385	65
845.476	-441
845.568	84
845.659	-287
845.751	252
845.842	-576
845.934	-383
846.025	-415
846.116	81
846.208	-113
846.299	-336
846.390	-536
846.482	-60
846.573	-352
846.664	504
846.755	1166
846.846	1697
846.937	1300
847.029	-226
847.120	-765
847.211	-512
847.302	256
847.393	-803
847.484	85
847.575	-318
847.666	-516
847.757	-252
847.847	-150
847.938	445
848.029	-793
848.120	-24
848.211	-558
848.302	-44
848.392	-653
848.483	-616
848.574	-542
848.664	-405
848.755	74
848.846	0
848.936	-826
849.027	-25
849.118	32
849.208	413
849.299	600
849.389	1511
849.480	4697
849.570	10427
849.661	24365
849.751	43986
849.841	89984
849.932	51270
850.022	6223
850.112	2391
850.203	845
850.293	1060
850.383	483
850.474	277
850.564	534
850.654	115
850.744	-824
850.834	327
850.924	-239
851.014	-84
851.104	-470
851.194	-256
851.284	593
851.374	666
851.464	1056
851.554	892
851.644	392
851.734	454
851.824	541
851.914	756
852.004	-407
852.094	-232
852.183	119
852.273	-134
852.363	28
852.452	159
852.542	22
852.632	523
852.721	463
852.811	80
852.901	68
852.990	281
853.080	61
853.169	506
853.259	1405
853.348	1483
853.438	2158
853.527	3228
853.617	4514
853.706	7887
853.795	14211
853.885	28663
853.974	64005
854.063	125334
854.152	208585
854.242	385068
854.331	221010
854.420	43385
854.509	13694
854.598	8440
854.687	6512
854.777	5439
854.866	3497
854.955	2861
855.044	1463
855.133	917
855.222	1554
855.311	253
855.400	1506
855.488	406
855.577	153
855.666	-38
855.755	739
855.844	-152
855.933	-332
856.021	408
856.110	-68
856.199	334
856.288	118
856.376	-883
856.465	-636
856.554	491
856.642	-657
856.731	578
856.819	715
856.908	-306
856.996	-558
857.085	113
857.173	-489
857.262	-505
857.350	-233
857.438	-253
857.527	-246
857.615	-73
857.703	-467
857.792	-208
857.880	-102
857.968	-464
858.056	-800
858.145	-97
858.233	-442
858.321	-394
858.409	-418
858.497	-834
858.585	-1024
858.673	-213
858.761	-752
858.849	-348
858.937	-166
859.025	-673
859.113	-141
859.201	-392
859.289	-100
859.377	421
859.465	67
859.552	3
859.640	688
859.728	-857
859.816	-153
859.903	-598
859.991	-994
860.079	218
860.166	-628
860.254	-385
860.342	-259
860.429	-411
860.517	-394
860.604	-296
860.692	-570
860.779	-787
860.867	-533
860.954	-510
861.042	69
861.129	-393
861.216	-161
861.304	103
861.391	-373
861.478	-784
861.565	-335
861.653	-23
861.740	-988
861.827	-451
861.914	-165
862.001	-742
862.089	-556
862.176	-300
862.263	-321
862.350	-538
862.437	-735
862.524	-218
862.611	-931
862.698	-666
862.785	47
862.871	-433
862.958	-474
863.045	57
863.132	-359
863.219	57
863.306	-262
863.392	318
863.479	-148
863.566	529
863.652	-450
863.739	101
863.826	-164
863.912	-109
863.999	105
864.086	-144
864.172	-485
864.259	-41
864.345	-35
864.432	-364
864.518	-235
864.604	176
864.691	-163
864.777	-551
864.863	638
864.950	515
865.036	748
865.122	1718
865.209	2095
865.295	2834
865.381	2065
865.467	3548
865.553	3038
865.639	4804
865.726	9085
865.812	16466
865.898	31846
865.984	65583
866.070	99502
866.156	164629
866.242	251747
866.328	99540
866.414	18826
866.499	7422
866.585	5475
866.671	4661
866.757	3730
866.843	3645
866.928	2599
867.014	1725
867.100	2540
867.186	1547
867.271	1705
867.357	2114
867.442	2520
867.528	2072
867.614	1961
867.699	1733
867.785	1300
867.870	1635
867.956	1492
868.041	1728
868.127	1702
868.212	1947
868.297	1547
868.383	1966
868.468	1567
868.553	2446
868.639	3584
868.724	4933
868.809	7508
868.894	10912
868.979	2667
869.065	631
869.150	708
869.235	1615
869.320	865
869.405	1346
869.490	943
869.575	932
869.660	914
869.745	851
869.830	701
869.915	1151
870.000	785
870.085	506
870.169	681
870.254	1527
870.339	806
870.424	344
870.509	328
870.593	635
870.678	342
870.763	731
870.847	344
870.932	10
871.016	1492
871.101	731
871.186	-72
871.270	573
871.355	850
871.439	660
871.523	-126
871.608	539
871.692	391
871.777	204
871.861	336
871.945	764
872.030	68
872.114	451
872.198	848
872.282	118
872.367	-585
872.451	514
872.535	598
872.619	414
872.703	-633
872.787	-439
872.871	1235
872.955	1118
873.039	188
873.123	102
873.207	645
873.291	353
873.375	-23
873.459	-206
873.543	743
873.627	677
873.711	673
873.794	442
873.878	554
873.962	334
874.045	142
874.129	499
874.137	461
874.213	83
874.245	518
874.296	1223
874.352	579
874.380	263
874.460	517
874.464	526
874.547	330
874.568	183
874.631	-268
874.676	197
874.714	590
874.784	843
874.798	892
874.881	1077
874.892	943
874.965	64
874.999	66
875.048	57
875.107	249
875.131	314
875.215	867
875.215	867
875.298	414
875.323	311
875.381	111
875.430	429
875.465	604
875.538	573
875.548	578
875.631	615
875.646	604
875.714	508
875.753	241
875.798	-51
875.861	19
875.881	56
875.964	341
875.968	373
876.047	852
876.076	720
876.130	482
876.183	140
876.213	0
876.291	499
876.296	523
876.379	361
876.398	542
876.462	1174
876.506	752
876.545	381
876.613	783
876.628	879
876.711	600
876.721	521
876.794	-158
876.828	-107
876.877	8
876.935	688
876.960	955
877.043	208
877.043	211
877.125	1046
877.150	1131
877.208	1344
877.258	1728
877.291	1897
877.365	1265
877.374	1206
877.456	1247
877.472	1242
877.539	1097
877.579	1062
877.622	1088
877.687	1114
877.704	1116
877.787	1062
877.794	1039
877.869	916
877.901	1280
877.952	1746
878.008	1428
878.034	1316
878.115	634
878.117	620
878.199	316
878.222	445
878.282	850
878.329	986
878.364	1050
878.437	1095
878.447	1084
878.529	197
878.544	241
878.611	661
878.651	570
878.694	437
878.758	501
878.776	512
878.858	526
878.865	545
878.941	746
878.972	520
879.023	134
879.078	750
879.105	1068
879.185	461
879.187	455
879.269	1234
879.292	1170
879.351	883
879.399	1402
879.433	1676
879.506	1022
879.516	956
879.598	392
879.613	503
879.680	1134
879.720	696
879.762	166
879.827	628
879.844	743
879.926	793
879.933	767
880.007	573
880.040	836
880.089	1367
880.147	1630
880.171	1736
880.253	3377
880.254	3391
880.335	5700
880.360	6655
880.417	9546
880.467	11435
880.499	13981
880.574	23257
880.580	23790
880.662	34606
880.680	31996
880.744	16282
880.787	7930
880.825	3532
880.893	1807
880.907	1531
880.989	567
881.000	495
881.070	532
881.106	702
881.152	950
881.213	1162
881.233	1121
881.315	384
881.319	366
881.396	430
881.426	526
881.478	721
881.532	758
881.559	737
881.639	526
881.641	526
881.722	821
881.745	763
881.803	575
881.852	687
881.885	787
881.958	786
881.966	791
882.047	801
882.064	844
882.129	1024
882.171	1068
882.210	1205
882.277	1356
882.291	1444
882.372	2977
882.383	2952
882.454	2168
882.489	1797
882.535	1358
882.596	1127
882.616	1113
882.697	1579
882.702	1557
882.778	859
882.808	666
882.859	714
882.914	754
882.940	684
883.020	505
883.021	511
883.102	685
883.127	756
883.183	860
883.233	1138
883.264	1298
883.339	1176
883.345	1122
883.426	238
883.445	136
883.507	744
883.551	1048
883.587	952
883.657	743
883.668	771
883.749	1196
883.763	1263
883.830	1505
883.869	1390
883.910	1313
883.975	1455
883.991	1430
884.072	1223
884.081	1177
884.152	960
884.187	901
884.233	970
884.292	1356
884.314	1427
884.394	1086
884.398	1070
884.475	836
884.504	771
884.555	596
884.610	366
884.636	426
884.716	718
884.716	723
884.797	906
884.821	884
884.877	963
884.927	1142
884.958	1159
885.033	1028
885.038	1009
885.118	550
885.139	544
885.199	680
885.244	579
885.279	480
885.350	236
885.359	310
885.439	1052
885.456	1180
885.520	1363
885.561	1475
885.600	1273
885.667	977
885.680	964
885.760	925
885.773	869
885.840	1062
885.878	1255
885.920	1121
885.984	901
886.000	961
886.080	1247
886.089	1262
886.160	1164
886.195	1210
886.240	1126
886.300	887
886.320	947
886.400	1037
886.406	1046
886.480	1608
886.511	1784
886.560	1437
886.616	1211
886.640	1265
886.720	1335
886.722	1327
886.800	971
886.827	922
886.879	1441
886.932	1812
886.959	1693
887.038	1657
887.039	1666
887.119	1596
887.143	1593
887.198	1407
887.248	1252
887.278	1298
887.354	1426
887.358	1418
887.437	1147
887.459	1018
887.517	1311
887.564	1589
887.596	1563
887.669	1519
887.676	1430
887.755	244
887.774	-59
887.835	490
887.880	890
887.914	1137
887.985	1689
887.994	1717
888.073	1890
888.090	1911
888.153	2012
888.195	2011
888.232	1802
888.300	1521
888.311	1507
888.391	1235
888.405	1204
888.470	1220
888.510	1127
888.549	1118
888.615	1229
888.628	1134
888.708	472
888.720	370
888.787	1222
888.825	1662
888.866	1367
888.930	920
888.945	1022
889.024	1534
889.035	1596
889.103	1898
889.140	2068
889.182	1989
889.245	1816
889.261	1767
889.340	1519
889.349	1484
889.419	1214
889.454	1075
889.498	1173
889.559	1295
889.577	1396
889.656	1825
889.664	1862
889.735	1987
889.768	2034
889.814	1906
889.873	1725
889.978	1673
890.083	2689
890.187	1615
890.292	1010
890.397	1994
890.501	1345
890.606	1547
890.710	1318
890.815	1596
890.919	1150
891.024	861
891.128	1769
891.233	673
891.337	1111
891.442	2098
891.546	1344
891.650	1556
891.755	1028
891.859	1746
891.963	1214
892.068	2187
892.172	1706
892.276	1409
892.380	1724
892.484	1955
892.589	1940
892.693	1756
892.797	2141
892.901	1188
893.005	1891
893.109	1346
893.213	2382
893.317	1602
893.421	1780
893.525	1252
893.629	1063
893.733	1390
893.837	1578
893.941	1098
894.045	2057
894.148	1797
894.252	817
894.356	1472
894.460	1665
894.564	1878
894.667	1896
894.771	1752
894.875	1346
894.978	1003
895.082	1033
895.186	1217
895.289	1606
895.393	1392
895.496	1469
895.600	1698
895.703	913
895.807	1037
895.910	1278
896.014	1215
896.117	1363
896.221	1712
896.324	1298
896.427	1934
896.531	1374
896.634	1262
896.737	1271
896.840	1080
896.944	1719
897.047	1644
897.150	1677
897.253	1066
897.356	1046
897.460	1084
897.563	1752
897.666	1240
897.769	1873
897.872	1675
897.975	1490
898.078	1307
898.181	1533
898.284	309
898.387	1457
898.490	1677
898.593	2090
898.695	570
898.798	1459
898.901	1347
899.004	814
899.107	1455
899.209	880
899.312	1988
899.415	1988
899.518	424
899.620	889
899.723	1232
899.826	1503
899.928	2563
900.031	2950
900.133	928
900.236	1751
900.338	1113
900.441	1439
900.543	1364
900.646	1319
900.748	1507
900.851	1790
900.953	1600
901.055	1785
901.158	1682
901.260	1349
901.362	1685
901.465	1950
901.567	843
901.669	1422
901.771	839
901.873	1212
901.976	87
902.078	984
902.180	1777
902.282	539
902.384	1084
902.486	951
902.588	1284
902.690	1284
902.792	600
902.894	1057
902.996	1511
903.098	1205
903.200	1254
903.302	1123
903.404	803
903.505	778
903.607	-187
903.709	1999
903.811	1749
903.913	2072
904.014	1038
904.116	1222
904.218	142
904.319	1392
904.421	1858
904.523	921
904.624	1383
904.726	775
904.827	1420
904.929	1159
905.030	1032
905.132	1604
905.233	1702
905.335	1258
905.436	640
905.537	1191
905.639	1481
905.740	1155
905.841	1627
905.943	775
906.044	1214
906.145	1542
906.247	776
906.348	1820
906.449	675
906.550	1189
906.651	1383
906.752	768
906.854	830
906.955	1320
907.056	652
907.157	1753
907.258	1164
907.359	517
907.460	994
907.561	395
907.662	751
907.762	520
907.863	1216
907.964	964
908.065	1611
908.166	1093
908.267	1382
908.367	1082
908.468	298
908.569	1103
908.670	1372
908.770	1384
908.871	1276
908.971	1268
909.072	1878
909.173	1136
909.273	1037
909.374	1350
909.474	1275
909.575	1390
909.675	1250
909.776	1642
909.876	1315
909.977	1055
910.077	1248
910.177	984
910.278	1874
910.378	690
910.478	789
910.579	1444
910.679	684
910.779	740
910.879	1427
910.980	1775
911.080	924
911.180	1485
911.280	1537
911.380	929
911.480	868
911.580	1367
911.680	1716
911.780	1166
911.880	1165
911.980	940
912.080	698
912.180	926
912.280	1173
912.380	1944
912.480	1402
912.580	907
912.679	842
912.779	1607
912.879	1505
912.979	1054
913.078	402
913.178	1344
913.278	1391
913.377	1733
913.477	1019
913.577	930
913.676	1400
913.776	1287
913.875	1118
913.975	1503
914.074	641
914.174	1837
914.273	743
914.373	2162
914.472	932
914.572	911
914.671	923
914.770	1413
914.870	725
914.969	1676
915.068	941
915.167	1911
915.267	666
915.366	1382
915.465	1558
915.564	1142
915.663	1118
915.763	1752
915.862	1274
915.961	1947
916.060	1193
916.159	1444
916.258	953
916.357	824
916.456	965
916.555	1094
916.654	1010
916.752	521
916.851	1360
916.950	1076
917.049	769
917.148	730
917.247	1345
917.345	1411
917.444	543
917.543	1858
917.642	1616
917.740	1073
917.839	1487
917.937	1551
918.036	1103
918.135	1886
918.233	1050
918.332	1175
918.430	903
918.529	576
918.627	1428
918.726	1156
918.824	1495
918.923	1555
919.021	1145
919.119	1273
919.218	747
919.316	1379
919.414	1320
919.512	1145
919.611	1418
919.709	1378
919.807	1566
919.905	1127
920.003	2240
920.102	1244
920.200	591
920.298	716
920.396	882
920.494	1445
920.592	1298
920.690	1171
920.788	1210
920.886	2106
920.984	1752
921.082	1728
921.180	1678
921.277	1725
921.375	1593
921.473	2307
921.571	3048
921.669	2129
921.766	1722
921.864	2391
921.962	2058
922.060	2230
922.157	2499
922.255	791
922.352	2483
922.450	2625
922.548	2535
922.645	2533
922.743	2539
922.840	3458
922.938	4402
923.035	4857
923.133	4388
923.230	4097
923.327	4673
923.425	5738
923.522	4536
923.619	5026
923.717	4232
923.814	3893
923.911	3768
924.008	4948
924.106	4132
924.203	4153
924.300	3853
924.397	4250
924.494	3626
924.591	4385
924.688	3809
924.786	3387
924.883	3941
924.979	4254
925.077	3462
925.173	3911
925.270	4573
925.367	4298
925.464	4529
925.561	4165
925.658	4372
925.755	5072
925.852	4343
925.948	4350
926.045	4291
926.142	3719
926.239	3930
926.335	4198
926.432	3986
926.529	3859
926.625	4068
926.722	3751
926.818	3390
926.915	3570
927.011	4025
927.108	3954
927.204	2698
927.301	3635
927.397	2782
927.494	3625
927.590	3625
927.687	2563
927.783	3165
927.879	4300
927.976	4165
928.072	3323
928.168	3044
928.264	4153
928.361	3005
928.457	3562
928.553	3400
928.649	2966
928.745	4239
928.841	3812
928.937	2742
929.033	3269
929.129	3317
929.225	3607
929.321	3183
929.417	3133
929.513	2231
929.609	3706
929.705	2603
929.801	2666
929.897	3257
929.993	2744
930.089	3091
930.184	2593
930.280	2549
930.376	3093
930.471	3731
930.567	1847
930.663	2158
930.758	2460
930.854	2740
930.950	3317
931.045	3215
931.141	1987
931.236	2192
931.332	3522
931.427	2623
931.523	3023
931.618	3203
931.714	3806
931.809	2423
931.905	2342
932.000	3614
932.095	2516
932.191	2340
932.286	3209
932.381	3730
932.476	3323
932.572	1763
932.667	2877
932.762	2148
932.857	3158
932.952	3276
933.047	3482
933.142	2930
933.237	1882
933.332	2342
933.427	3464
933.522	3049
933.617	2350
933.712	1604
933.807	1406
933.902	2439
933.997	3334
934.092	2643
934.187	2026
934.282	1803
934.376	2430
934.471	2443
934.566	2662
934.661	1675
934.755	2098
934.850	2178
934.945	2884
935.039	1398
935.134	1897
935.228	2267
935.323	2401
935.417	3007
935.512	1421
935.606	1802
935.701	1341
935.795	2711
935.890	2556
935.984	2784
936.079	2111
936.173	1406
936.267	1522
936.362	1952
936.456	2022
936.550	1936
936.644	2644
936.738	1550
936.833	1474
936.927	1481
937.021	1620
937.115	1723
937.209	2400
937.303	3092
937.397	2140
937.491	911
937.585	1931
937.679	2614
937.773	2393
937.867	1727
937.961	1291
938.055	1254
938.149	2381
938.243	2275
938.337	1557
938.430	824
938.524	1669
938.618	2023
938.712	2003
938.805	1963
938.899	1385
938.993	2264
939.086	2259
939.180	1196
939.274	1584
939.367	623
939.461	1778
939.554	2068
939.648	1734
939.741	1623
939.835	1297
939.928	2421
940.022	2396
940.115	2650
940.208	2063
940.302	1209
940.395	2044
940.488	2090
940.582	1863
940.675	1511
940.768	1792
940.861	1645
940.954	2803
941.048	2222
941.141	1659
941.234	1018
941.327	1949
941.420	2515
941.513	3027
941.606	1443
941.699	1460
941.792	1274
941.885	2372
941.978	1274
942.071	1922
942.164	2576
942.257	2045
942.349	1200
942.442	1841
942.535	1374
942.628	1721
942.721	720
942.813	1419
942.906	1501
942.999	1289
943.091	1159
943.184	1801
943.277	1826
943.369	812
943.462	1167
943.554	240
943.647	949
943.739	1612
943.832	1794
943.924	1414
944.017	715
944.109	923
944.201	827
944.294	1308
944.386	1383
944.478	1174
944.571	360
944.663	1524
944.755	1076
944.847	846
944.940	1887
945.032	1236
945.124	1045
945.216	757
945.308	1402
945.400	1254
945.492	1105
945.584	719
945.676	1838
945.768	1554
945.860	669
945.952	1482
946.044	1336
946.136	734
946.228	574
946.320	804
946.412	611
946.503	1122
946.595	1729
946.687	1578
946.779	531
946.870	615
946.962	286
947.054	1061
947.145	374
947.237	1385
947.329	1013
947.420	460
947.512	1177
947.603	1534
947.695	921
947.786	984
947.878	151
947.969	1137
948.061	169
948.152	1222
948.243	537
948.335	269
948.426	458
948.517	999
948.609	602
948.700	1234
948.791	1560
948.882	909
948.973	857
949.065	-17
949.156	760
949.247	536
949.338	-49
949.429	-195
949.520	273
949.611	682
949.702	586
949.793	922
949.884	182
949.975	555
950.066	466
950.157	-564
950.247	319
950.338	715
950.429	699
950.520	109
950.611	712
950.701	965
950.792	372
950.883	916
950.973	1016
951.064	310
951.155	548
951.245	1008
951.336	1209
951.427	1534
951.517	886
951.608	960
951.698	42
951.788	626
951.879	219
951.969	70
952.060	117
952.150	557
952.240	521
952.331	290
952.421	170
952.511	387
952.602	-300
952.692	385
952.782	-104
952.872	537
952.962	-228
953.052	661
953.143	547
953.233	1483
953.323	-144
953.413	647
953.503	501
953.593	140
953.683	-43
953.773	281
953.863	536
953.953	49
954.042	834
954.132	211
954.222	994
954.312	238
954.402	650
954.492	427
954.581	-211
954.671	960
954.761	-60
954.850	4
954.940	-492
955.030	412
955.119	-395
955.209	90
955.298	374
955.388	317
955.477	951
955.567	-155
955.656	-479
955.746	625
955.835	-7
955.925	-449
956.014	164
956.103	118
956.193	-84
956.282	765
956.371	1262
956.461	364
956.550	-680
956.639	91
956.728	-408
956.817	874
956.906	19
956.995	887
957.085	388
957.174	155
957.263	467
957.352	-33
957.441	316
957.530	184
957.619	-81
957.708	99
957.796	-317
957.885	1045
957.974	26
958.063	398
958.152	-368
958.241	-818
958.329	63
958.418	343
958.507	-330
958.596	-82
958.684	-113
958.773	945
958.861	449
958.950	-212
959.039	-165
959.127	-409
959.216	465
959.304	138
959.393	426
959.481	-120
959.570	103
959.658	276
959.746	-280
959.835	-159
959.923	472
960.011	730
960.100	-228
960.188	207
960.276	224
960.365	-86
960.453	85
960.541	-330
960.629	-653
960.717	-54
960.805	232
960.893	336
960.981	157
961.069	787
961.158	402
961.245	408
961.333	248
961.421	1160
961.509	-504
961.597	-135
961.685	-129
961.773	395
961.861	129
961.949	-265
962.036	210
962.124	254
962.212	173
962.299	209
962.387	-131
962.475	195
962.562	-756
962.650	680
962.738	-135
962.825	188
962.913	-792
963.000	-116
963.088	-83
963.175	172
963.263	94
963.350	203
963.438	13
963.525	196
963.612	-540
963.700	500
963.787	1623
963.874	3965
963.962	1272
964.049	-28
964.136	137
964.223	288
964.310	-534
964.398	593
964.485	148
964.572	434
964.659	119
964.746	737
964.833	-23
964.920	-56
965.007	400
965.094	173
965.181	-627
965.268	-589
965.355	-282
965.441	1375
965.528	-868
965.615	94
965.702	-282
965.789	-50
965.875	-241
965.962	92
966.049	325
966.136	1033
966.222	-125
966.309	747
966.395	-639
966.482	1357
966.569	1077
966.655	332
966.742	24
966.828	36
966.915	34
967.001	631
967.087	278
967.174	228
967.260	-8
967.347	-337
967.433	460
967.519	1461
967.605	2706
967.692	743
967.778	-128
967.864	-641
967.950	-232
968.036	-341
968.123	408
968.209	633
968.295	89
968.381	-77
968.467	-447
968.553	-12
968.639	-778
968.725	368
968.811	149
968.897	1596
968.983	95
969.069	131
969.154	-388
969.240	334
969.326	-583
969.412	-504
969.497	-430
969.583	428
969.669	-276
969.755	-1020
969.840	206
969.926	956
970.012	24
970.097	1258
970.183	975
970.268	1376
970.354	-579
970.439	280
970.525	564
970.610	602
970.696	776
970.781	-71
970.866	-360
970.952	519
971.037	-37
971.122	-140
971.208	-415
971.293	371
971.378	-571
971.463	14
971.549	-27
971.634	-263
971.719	215
971.804	145
971.889	-91
971.974	-33
972.059	-150
972.144	231
972.229	-746
972.314	348
972.399	-243
972.484	-564
972.569	223
972.654	-2
972.739	-413
972.824	586
972.908	603
972.993	-815
973.078	253
973.163	-205
973.247	228
973.332	-512
973.417	-87
973.501	365
973.586	-706
973.671	565
973.755	571
973.840	187
973.924	580
974.009	509
974.093	-44
974.178	525
974.262	403
974.346	447
974.431	718
974.515	228
974.600	676
974.684	-452
974.768	474
974.852	-43
974.937	-634
975.021	241
975.105	1074
975.189	322
975.273	-237
975.358	-364
975.442	-55
975.526	-323
975.610	-853
975.694	-244
975.778	-256
975.862	385
975.946	-722
976.030	-208
976.114	-39
976.198	98
976.281	-524
976.365	398
976.449	-102
976.533	-213
976.617	-119
976.700	662
976.784	-89
976.868	188
976.951	-26
977.035	405
977.119	169
977.202	-11
977.286	-890
977.369	-59
977.453	-60
977.536	630
977.620	832
977.703	1103
977.787	-189
977.870	803
977.953	249
978.037	-149
978.120	239
978.203	70
978.287	811
978.370	554
978.453	610
978.536	-19
978.620	-551
978.703	-252
978.786	1033
978.869	581
978.952	-970
979.035	250
979.118	48
979.201	5
979.284	558
979.367	245
979.450	-556
979.533	-4
979.616	-100
979.699	-550
979.782	413
979.865	-193
979.948	-41
980.030	-176
980.113	29
980.196	-432
980.279	-321
980.361	-69
980.444	-236
980.526	-109
980.609	213
980.692	793
980.774	479
980.857	396
980.939	-44
981.022	-6
981.104	-23
981.187	-632
981.269	-158
981.352	-169
981.434	-774
981.516	-5
981.599	-330
981.681	42
981.763	-872
981.846	-200
981.928	-587
982.010	-154
982.092	-308
982.174	515
982.256	-497
982.339	315
982.421	-507
982.503	-118
982.585	369
982.667	-32
982.749	-180
982.831	102
982.913	346
982.995	667
983.077	-487
983.158	-1057
983.240	-503
983.322	16
983.404	644
983.486	1221
983.568	656
983.649	-101
983.731	276
983.813	189
983.894	465
983.976	-505
984.058	82
984.139	642
984.221	-169
984.302	838
984.384	425
984.465	422
984.547	-149
984.628	-430
984.710	39
984.791	258
984.872	-326
984.954	290
985.035	-75
985.116	480
985.198	-372
985.279	109
985.360	545
985.441	374
985.522	74
985.604	-234
985.685	-825
985.766	1062
985.847	-754
985.928	-32
986.009	-131
986.090	93
986.171	-742
986.252	228
986.333	-100
986.414	840
986.495	94
986.576	-128
986.656	-643
986.737	40
986.818	-810
986.899	1345
986.980	469
987.060	-317
987.141	110
987.222	313
987.302	860
987.383	832
987.464	-656
987.544	337
987.625	907
987.705	636
987.786	524
987.866	946
987.947	361
988.027	-50
988.108	188
988.188	811
988.268	535
988.349	91
988.429	850
988.509	27
988.589	245
988.670	-177
988.750	-196
988.830	686
988.910	74
988.990	71
989.070	624
989.151	-33
989.231	316
989.311	886
989.391	-62
989.471	-357
989.551	512
989.631	-408
989.711	212
989.791	-73
989.870	-259
989.950	439
990.030	-148
990.110	620
990.190	280
990.269	-425
990.349	293
990.429	576
990.509	778
990.588	-82
990.668	60
990.747	-620
990.827	-195
990.907	-72
990.986	-238
991.066	141
991.145	14
991.225	236
991.304	263
991.383	651
991.463	202
991.542	-100
991.622	36
991.701	118
991.780	-388
991.859	668
991.939	-764
992.018	-170
992.097	-588
992.176	-135
992.256	-142
992.335	560
992.414	-443
992.493	117
992.572	-306
992.651	-1075
992.730	-709
992.809	595
992.888	-19
992.967	25
993.046	31
993.125	-470
993.203	-883
993.282	314
993.361	-770
993.440	-593
993.519	-551
993.597	-159
993.676	-577
993.755	-199
993.834	-523
993.912	-622
993.991	-371
994.069	173
994.148	-613
994.226	-432
994.305	-981
994.384	-733
994.462	-91
994.540	-332
994.619	-1127
994.697	-229
994.776	-27
994.854	-544
994.932	-953
995.011	-370
995.089	-739
995.167	-499
995.245	-862
995.324	-182
995.402	267
995.480	-281
995.558	-381
995.636	-1556
995.714	-727
995.792	-123
995.870	-822
995.948	-168
996.026	-967
996.104	-891
996.182	-252
996.260	-874
996.338	-683
996.416	-95
996.494	-546
996.572	196
996.649	-337
996.727	-892
996.805	-296
996.883	-831
996.960	-547
997.038	-852
997.116	-105
997.193	-790
997.271	-390
997.348	-1530
997.426	-1043
997.504	-1103
997.581	-1067
997.658	-1446
997.736	-807
997.813	-292
997.891	-637
997.968	-586
998.046	-1091
998.123	-1506
998.200	-523
998.277	-316
998.355	-739
998.432	-1183
998.509	-421
998.586	-63
998.663	-762
998.741	-635
998.818	-773
998.895	-596
998.972	-1259
999.049	-636
999.126	-1186
999.203	560
999.280	-344
999.357	-414
999.434	-1541
999.511	-332
999.587	-308
999.664	-1454
999.741	-1214
999.818	-112
999.895	-752
999.971	-424
1000.048	-1412
1000.125	-153
1000.202	-2038
1000.278	-875
1000.355	-124
1000.431	-945
1000.508	-763
1000.584	-1109
1000.661	-515
1000.738	-710
1000.814	-1185
1000.890	-1374
1000.967	-1429
1001.043	-729
1001.120	-1394
1001.196	-643
1001.272	-1097
1001.349	-596
1001.425	-1001
1001.501	-73
1001.577	-505
1001.654	-279
1001.730	-627
1001.806	-1408
1001.882	-2105
1001.958	-314
1002.034	-788
1002.110	-1264
1002.186	-939
1002.262	-612
1002.338	-1625
1002.414	-1282
1002.490	-305
1002.566	-1172
1002.642	-1292
1002.718	-379
1002.794	-1077
1002.870	-1187
1002.945	-1721
1003.021	-1221
1003.097	-1341
1003.173	-693
1003.248	-1082
1003.324	-885
1003.400	-1299
1003.475	-302
1003.551	-1175
1003.626	-420
1003.702	-1059
1003.777	-1016
1003.853	-1316
1003.928	-441
1004.004	-1646
1004.079	-986
1004.155	-1210
1004.230	-876
1004.305	-979
1004.381	-1141
1004.456	-780
1004.531	-922
1004.607	-1943
1004.682	-1121
1004.757	-1023
1004.832	-1571
1004.907	-1006
1004.982	-1189
1005.057	-1693
1005.133	-1457
1005.208	-451
1005.283	-1598
1005.358	-784
1005.433	-636
1005.508	-1109
1005.583	-1411
1005.657	-1485
1005.732	-823
1005.807	-1172
1005.882	-959
1005.957	-792
1006.032	-1398
1006.106	-769
1006.181	-1182
1006.256	-937
1006.331	-912
1006.405	-1096
1006.480	-865
1006.554	-1038
1006.629	-1241
1006.704	-1345
1006.778	-1240
1006.853	-2039
1006.927	-952
1007.002	-1588
1007.076	-752
1007.150	-1196
1007.225	-690
1007.299	-1270
1007.373	-1945
1007.448	-1444
1007.522	-657
1007.596	-1896
1007.671	-1713
1007.745	-873
1007.819	-1629
1007.893	-1568
1007.967	-1316
1008.041	-1659
1008.115	-1053
1008.190	-2021
1008.264	-748
1008.338	-1085
1008.412	-1491
1008.486	-1789
1008.560	-1490
1008.633	-1979
1008.707	-1198
1008.781	-761
1008.855	-525
1008.929	-1217
1009.003	-734
1009.076	-1621
1009.150	-1104
1009.224	-1334
1009.298	-1098
1009.371	-2097
1009.445	-1798
1009.519	-1192
1009.592	-1258
1009.666	-993
1009.739	-1362
1009.813	-2332
1009.886	-1706
1009.960	-1975
1010.033	-757
1010.107	-1438
1010.180	-1496
1010.253	-1957
1010.327	-804
1010.400	-1694
1010.473	-1577
1010.547	-688
1010.620	-1408
1010.693	-1619
1010.766	-1432
1010.840	-811
1010.913	-524
1010.986	-1108
1011.059	-1777
1011.132	-811
1011.205	-996
1011.278	-1162
1011.351	-1937
1011.424	-1149
1011.497	-1610
1011.570	-1678
1011.643	-1176
1011.716	-2011
1011.789	-1212
1011.862	-1141
1011.934	-1591
1012.007	-1497
1012.080	-1271
1012.153	-1553
1012.225	-1711
1012.298	-1183
1012.371	-1221
1012.443	-1166
1012.516	-1756
1012.588	-1563
1012.661	-539
1012.733	-1762
1012.806	-619
1012.879	-1554
1012.951	-1417
1013.023	-1056
1013.096	-1237
1013.168	-1598
1013.241	-460
1013.313	-1720
1013.385	-1431
1013.458	-1866
1013.530	-895
1013.602	-1960
1013.674	-1797
1013.746	-2101
1013.819	-1329
1013.891	-1339
1013.963	-1631
1014.035	-834
1014.107	-1712
1014.179	-1603
1014.251	-1338
1014.323	-2409
1014.395	-513
1014.467	-1696
1014.539	-1846
1014.611	-1658
1014.683	-1600
1014.754	-1288
1014.826	-1217
1014.898	-1080
1014.970	-1838
1015.042	-539
1015.113	-854
1015.185	-1134
1015.257	-1996
1015.328	-1087
1015.400	-1334
1015.471	-1213
1015.543	-1129
1015.615	-1192
1015.686	-1722
1015.757	-1331
1015.829	-1155
1015.901	-1554
1015.972	-1135
1016.043	-1965
1016.115	-396
1016.186	-794
1016.257	-1633
1016.328	-985
1016.400	-1250
1016.471	-1063
1016.542	-1493
1016.613	-1233
1016.685	-777
1016.756	-1343
1016.827	-1320
1016.898	-1774
1016.969	-1167
1017.040	-1810
1017.111	-1193
1017.182	-1883
1017.253	-1328
1017.324	-1493
1017.395	-622
1017.466	-1519
1017.537	-1311
1017.608	-1197
1017.678	-1583
1017.749	-640
1017.820	-93
1017.891	-1040
1017.961	-1319
1018.032	-979
1018.103	-765
1018.173	-1210
1018.244	-1519
1018.315	-1341
1018.385	-1070
1018.456	-1062
1018.526	-773
1018.597	-1629
1018.667	-1146
1018.738	-1819
1018.808	-1693
1018.878	-1977
1018.949	-710
1019.019	-1492
1019.089	-757
1019.160	-1328
1019.230	-1235
1019.300	-1184
1019.371	-1993
1019.441	-1064
1019.511	-994
1019.581	-1671
1019.651	-1264
1019.721	-1278
1019.791	-1585
1019.861	-181
1019.931	-1205
1020.001	-1260
1020.071	-1301
1020.141	-1118
1020.211	-1049
1020.281	-1385
1020.351	-1415
1020.421	-448
1020.491	-1140
1020.560	-1708
1020.630	-1587
1020.700	-2299
1020.770	-1474
1020.839	-1468
1020.909	-1228
1020.979	-1444
1021.048	-1053
1021.118	-1657
1021.187	-699
1021.257	-2103
1021.326	-933
1021.396	-1034
1021.465	-584
1021.535	-1232
1021.604	-689
1021.674	-1164
1021.743	-946
1021.812	-2295
1021.882	-1322
1021.951	-1366
1022.020	-1776
1022.089	-786
1022.159	-1646
1022.228	-982
1022.297	-1249
1022.366	-1464
1022.435	-1418
1022.504	-1401
1022.573	-718
1022.642	-1124
1022.711	-1686
1022.781	-941
1022.849	-59
1022.918	-872
1022.987	-1170
1023.056	-1688
1023.125	-1130
1023.194	-1511
1023.263	-1209
1023.331	-1123
1023.400	-1455
1023.469	-1891
1023.538	-1170
1023.606	-1431
1023.675	-1245
1023.744	-1317
1023.812	-1582
1023.881	-1413
1023.949	-1277
1024.018	-1415
1024.086	-1355
1024.155	-967
1024.223	-1182
1024.292	-952
1024.360	-786
1024.429	-1387
1024.497	-1382
1024.565	-668
1024.634	-885
1024.702	-1226
1024.770	-1478
1024.838	-1408
1024.907	-591
1024.975	-1537
1025.043	-1456
1025.111	-1581
1025.179	-787
1025.247	-946
1025.315	-1402
1025.383	-1477
1025.451	-1219
1025.519	-1124
1025.587	-939
1025.655	-1235
1025.723	-1330
1025.791	-928
1025.859	-1222
1025.927	-802
1025.995	-1825
1026.062	-991
1026.130	-2183
1026.198	-1449
1026.266	-1011
1026.333	-618
1026.401	-1300
1026.469	-1496
1026.536	-1365
1026.604	-1239
1026.671	-1261
1026.739	-1149
1026.806	-744
1026.874	-1815
1026.941	-420
1027.009	-1309
1027.076	-571
1027.144	-1251
1027.211	-1295
1027.278	-1850
1027.345	-796
1027.413	-1173
1027.480	-1224
1027.547	-1366
1027.614	-1106
1027.682	-1089
1027.749	-1099
1027.816	-1222
1027.883	-1576
1027.950	-1670
1028.017	-1404
1028.084	-792
1028.151	-1188
1028.218	-1541
1028.285	-704
1028.352	-1857
1028.419	-1308
1028.486	-1166
1028.553	-1397
1028.619	-1210
1028.686	-1823
1028.753	-1316
1028.820	-1700
1028.886	-1243
1028.953	-1271
1029.020	-905
1029.086	-1252
1029.153	-1206
1029.220	-368
1029.286	-735
1029.353	-948
1029.419	-1768
1029.486	-1639
1029.552	-1467
1029.619	-543
1029.685	-962
1029.751	-581
1029.818	-896
1029.884	-1300
1029.951	-229
1030.017	-1207
1030.083	-1561
1030.149	-1528
1030.216	-1040
1030.282	-873
1030.348	-1597
1030.414	-1068
1030.480	-1196
1030.546	-1454
1030.612	-834
1030.678	-1356
1030.744	-856
1030.810	-1127
1030.876	-1791
1030.942	-927
1031.008	-1478
1031.074	-1488
1031.140	-1222
1031.206	-1621
1031.272	-1682
1031.337	-1011
1031.403	-829
1031.469	-1054
1031.534	-1094
1031.600	-572
1031.666	-952
1031.731	-1255
1031.797	-1212
1031.863	-1663
1031.928	-1302
1031.994	-1562
1032.059	-829
1032.125	-1425
1032.190	-1225
1032.256	-1430
1032.321	-1250
1032.386	-1350
1032.452	-1432
1032.517	-1144
1032.582	-1672
1032.647	-1258
1032.713	-1687
1032.778	-928
1032.843	-1135
1032.908	-2025
1032.974	-1100
1033.039	-1300
1033.104	-1049
1033.169	-840
1033.234	-1297
1033.299	-550
1033.364	-838
1033.429	637
1033.494	-977
1033.559	-564
1033.624	-160
1033.688	-1166
1033.753	-1086
1033.818	-918
1033.883	-949
1033.948	-1383
1034.013	-1343
1034.077	-157
1034.142	-264
1034.207	-1107
1034.271	-340
1034.336	823
1034.400	1751
1034.465	1060
1034.530	793
1034.594	539
1034.658	182
1034.723	-626
1034.787	-1375
1034.852	-539
1034.916	-1394
1034.981	-403
1035.045	-1180
1035.109	-716
1035.173	-1499
1035.238	-1145
1035.302	-1622
1035.366	-1264
1035.430	-2104
1035.495	-1095
1035.559	-1028
1035.623	-1239
1035.687	-1990
1035.751	-1064
1035.815	-1593
1035.879	-1425
1035.943	-1685
1036.007	-1709
1036.071	-1017
1036.135	-1884
1036.198	-1629
1036.262	-1056
1036.326	-379
1036.390	-573
1036.454	-648
1036.517	-573
1036.581	-781
1036.645	-464
1036.709	-611
1036.772	360
1036.836	-214
1036.900	-484
1036.963	-1047
1037.026	-1190
1037.090	-1792
1037.154	-1463
1037.217	-991
1037.280	-1452
1037.344	-2146
1037.407	-1469
1037.471	-1681
1037.534	-1264
1037.597	-1761
1037.661	-1580
1037.724	-972
1037.787	-1125
1037.850	-1745
1037.913	-1155
1037.977	-1537
1038.040	-1733
1038.103	-953
1038.166	-1074
1038.229	-925
1038.292	-1606
1038.355	-1938
1038.418	-705
1038.481	-1735
1038.544	-1135
1038.607	-1572
1038.670	-2037
1038.732	-1374
1038.795	-811
1038.858	-1372
1038.921	-1681
1038.984	-919
1039.046	-1872
1039.109	-1595
1039.172	-1555
1039.234	-2232
1039.297	-1528
1039.360	-1265
1039.422	-1447
1039.485	-1909
1039.547	-1044
1039.610	-1627
1039.672	-1570
1039.734	-1081
1039.797	-1847
1039.859	-1228
1039.922	-1594
1039.984	-1542
1040.046	-1385
1040.109	-1602
1040.171	-2008
1040.233	-1194
1040.295	-1156
1040.358	-1441
1040.420	-1265
1040.482	-1893
1040.544	-1859
1040.606	-2243
1040.668	-1620
1040.730	-1725
1040.792	-1696
1040.854	-2084
1040.916	-1436
1040.978	-1511
1041.040	-1120
1041.102	-1278
1041.164	-1075
1041.225	-1725
1041.287	-1698
1041.349	-1684
1041.411	-966
1041.472	-2033
1041.534	-1373
1041.596	-2546
1041.657	-2145
1041.719	-1370
1041.781	-1744
1041.842	-2090
1041.904	-1863
1041.965	-1253
1042.027	-972
1042.088	-633
1042.150	-1440
1042.211	-1413
1042.272	-1336
1042.334	-2142
1042.395	-1431
1042.456	-1575
1042.518	-1561
1042.579	-1808
1042.640	-1555
1042.701	-1812
1042.763	-1626
1042.824	-1834
1042.885	-1596
1042.946	-1861
1043.007	-2023
1043.068	-1318
1043.129	-1519
1043.190	-1358
1043.251	-1900
1043.312	-1344
1043.373	-813
1043.434	-1603
1043.495	-1216
1043.556	-1486
1043.616	-2060
1043.677	-1681
1043.738	-1767
1043.799	-2176
1043.859	-2034
1043.920	-1874
1043.981	-1915
1044.041	-1862
1044.102	-1695
1044.162	-1436
1044.223	-2559
1044.284	-1914
1044.344	-1984
1044.405	-2253
1044.465	-1253
1044.525	-1810
1044.586	-1857
1044.646	-1572
1044.707	-1790
1044.767	-2072
1044.827	-1387
1044.887	-1720
1044.948	-1170
1045.008	-2116
1045.068	-2036
1045.128	-1947
1045.188	-2042
1045.249	-1920
1045.309	-1888
1045.369	-2135
1045.429	-1782
1045.489	-2084
1045.549	-1024
1045.609	-1750
1045.669	-1943
1045.729	-1355
1045.789	-2140
1045.848	-1407
1045.908	-1441
1045.968	-1328
1046.028	-1749
1046.088	-1710
1046.147	-1028
1046.207	-1517
1046.267	-2237
1046.326	-1722
1046.386	-1245
1046.446	-1682
1046.505	-1273
1046.565	-1071
1046.624	-1168
1046.684	-958
1046.743	-207
1046.803	-1061
1046.862	-774
1046.922	0
