'Start Wavelength	183.907
'End Wavelength	1046.922
'Gate Delay	5.000
'Gate Width (ms)	1.050
'Laser Output Level	0.000
'X Position	0.000
'Y Position	0.000
'Z Position	0.000
'Grid Point Number	1.000
'Shot Number	100.000
183.907	812.000
183.977	415.000
184.047	166
184.116	-8
184.186	-275
184.256	-225
184.325	67
184.395	134
184.465	443
184.534	164
184.604	248
184.674	209
184.743	-335
184.813	585
184.883	462
184.952	479
185.022	-62
185.092	-41
185.161	50
185.231	158
185.301	731
185.370	536
185.440	273
185.509	-62
185.579	417
185.649	694
185.718	232
185.788	657
185.857	429
185.927	197
185.996	318
186.066	-325
186.136	1252
186.205	598
186.275	833
186.344	137
186.414	405
186.483	550
186.553	1241
186.622	763
186.692	895
186.761	240
186.831	-28
186.900	-222
186.970	487
187.039	817
187.109	1295
187.178	157
187.248	512
187.317	426
187.387	791
187.456	631
187.526	657
187.595	1150
187.664	827
187.734	1196
187.803	874
187.873	1521
187.942	983
188.012	1075
188.081	722
188.150	832
188.220	1325
188.289	1129
188.358	987
188.428	793
188.497	999
188.567	283
188.636	915
188.705	474
188.775	679
188.844	749
188.913	648
188.983	469
189.052	-63
189.121	209
189.191	124
189.260	1465
189.329	514
189.399	-138
189.468	575
189.537	635
189.606	901
189.676	807
189.745	552
189.814	797
189.883	141
189.953	1112
190.022	1954
190.091	3648
190.161	1980
190.230	877
190.299	70
190.368	816
190.437	660
190.507	364
190.576	898
190.645	1329
190.714	1359
190.783	722
190.853	583
190.922	998
190.991	620
191.060	1167
191.129	977
191.198	336
191.268	1103
191.337	970
191.406	1008
191.475	636
191.544	603
191.613	1153
191.682	976
191.752	931
191.821	76
191.890	1162
191.959	1173
192.028	1274
192.097	746
192.166	1337
192.235	545
192.304	940
192.373	1024
192.442	821
192.511	512
192.580	798
192.650	423
192.719	1118
192.788	1012
192.857	595
192.926	972
192.995	879
193.064	1695
193.133	1687
193.202	2768
193.271	1998
193.340	1749
193.409	2148
193.478	2430
193.547	2574
193.615	3610
193.684	2738
193.753	2093
193.822	2058
193.891	1073
193.960	1448
194.029	822
194.098	962
194.167	570
194.236	890
194.305	928
194.374	1034
194.443	974
194.512	581
194.580	1542
194.649	1471
194.718	1447
194.787	1115
194.856	1320
194.925	1310
194.994	1890
195.062	1287
195.131	1992
195.200	1750
195.269	2297
195.338	1374
195.407	1331
195.475	781
195.544	1890
195.613	1493
195.682	1740
195.751	1842
195.819	1322
195.888	768
195.957	2744
196.026	1651
196.094	1840
196.163	2325
196.232	2494
196.301	2141
196.369	2169
196.438	1009
196.507	1295
196.576	359
196.644	1274
196.713	1596
196.782	872
196.850	1146
196.919	1595
196.988	1356
197.056	1478
197.125	1206
197.194	963
197.262	1674
197.331	999
197.400	1156
197.468	1166
197.537	1203
197.606	1696
197.674	2647
197.743	2923
197.812	2159
197.880	3308
197.949	2741
198.017	3764
198.086	1676
198.155	1627
198.223	2203
198.292	3677
198.360	1294
198.429	1787
198.497	1248
198.566	4368
198.635	2299
198.703	1395
198.772	2662
198.840	5081
198.909	2615
198.977	1682
199.046	1134
199.114	1150
199.183	973
199.251	812
199.320	1209
199.388	1723
199.457	1286
199.525	1471
199.594	1822
199.662	1864
199.731	1491
199.799	1449
199.867	1741
199.936	1148
200.004	995
200.073	1884
200.141	1388
200.210	1905
200.278	1124
200.346	2728
200.415	2470
200.483	2822
200.552	1255
200.620	1573
200.688	1071
200.757	1656
200.825	1257
200.893	1764
200.962	1362
201.030	1672
201.098	1411
201.167	1406
201.235	1766
201.303	2203
201.372	1083
201.440	1761
201.508	2550
201.577	2009
201.645	1640
201.713	1408
201.781	1998
201.850	2508
201.918	1745
201.986	1486
202.055	2113
202.123	2025
202.191	1383
202.259	1157
202.327	1592
202.396	1687
202.464	1812
202.532	3945
202.600	7261
202.669	2288
202.737	2870
202.805	1408
202.873	1553
202.941	1641
203.009	1171
203.078	1950
203.146	1711
203.214	1900
203.282	1619
203.350	918
203.418	2087
203.487	1540
203.555	1461
203.623	974
203.691	1731
203.759	1296
203.827	1841
203.895	2204
203.963	1717
204.031	1961
204.099	1264
204.168	1040
204.236	1941
204.304	2495
204.372	1375
204.440	2189
204.508	1629
204.576	1513
204.644	1482
204.712	1609
204.780	2121
204.848	2199
204.916	1847
204.984	1529
205.052	1579
205.120	2213
205.188	1881
205.256	1689
205.324	1649
205.392	1885
205.460	1751
205.528	2056
205.596	1836
205.664	2277
205.732	1812
205.799	7589
205.867	4805
205.935	2160
206.003	1838
206.071	2172
206.139	1703
206.207	2178
206.275	1060
206.343	2169
206.411	2300
206.478	1858
206.546	2468
206.614	1916
206.682	1556
206.750	2732
206.818	2756
206.885	2888
206.953	1988
207.021	2079
207.089	1797
207.157	1910
207.225	1776
207.292	2605
207.360	2252
207.428	2256
207.496	1367
207.563	2021
207.631	2001
207.699	2616
207.767	2254
207.834	2334
207.902	2360
207.970	2400
208.038	1675
208.105	2214
208.173	3520
208.241	3510
208.309	2662
208.376	4046
208.444	4140
208.512	1731
208.579	2641
208.647	3014
208.715	2361
208.782	2474
208.850	2404
208.918	2412
208.985	1796
209.053	2993
209.120	2225
209.188	2347
209.256	2169
209.323	2941
209.391	2882
209.459	2426
209.526	1995
209.594	3468
209.661	2364
209.729	2741
209.796	2528
209.864	2978
209.932	2600
209.999	2927
210.067	3689
210.134	3324
210.202	2916
210.269	3527
210.337	3630
210.404	2171
210.472	2318
210.539	2959
210.607	3165
210.674	3391
210.742	2920
210.809	2796
210.877	4001
210.944	3429
211.012	3502
211.079	3354
211.146	2378
211.214	4150
211.281	3946
211.349	3416
211.416	3715
211.484	3293
211.551	2493
211.618	3050
211.686	2477
211.753	3018
211.821	3016
211.888	3653
211.955	3677
212.023	2951
212.090	2670
212.157	3017
212.225	3915
212.292	6493
212.359	14004
212.427	17411
212.494	6826
212.561	4839
212.629	3331
212.696	3612
212.763	3142
212.831	3556
212.898	2905
212.965	3441
213.032	2679
213.100	4487
213.167	3980
213.234	3157
213.301	2678
213.369	3632
213.436	3095
213.503	3471
213.570	3251
213.638	3428
213.705	2980
213.772	3067
213.839	4091
213.906	3448
213.973	4269
214.041	2517
214.108	3004
214.175	3856
214.242	3915
214.309	2897
214.376	3247
214.444	3661
214.511	3447
214.578	3924
214.645	3467
214.712	3912
214.779	4145
214.846	3496
214.913	4082
214.980	4655
215.048	4607
215.115	5511
215.182	3919
215.249	4260
215.316	3321
215.383	3500
215.450	2834
215.517	3372
215.584	3222
215.651	2889
215.718	3796
215.785	4427
215.852	4061
215.919	4112
215.986	3862
216.053	3073
216.120	2984
216.187	3385
216.254	2993
216.321	3033
216.388	3526
216.455	3452
216.522	3651
216.589	5451
216.656	8332
216.722	6197
216.789	5170
216.856	5229
216.923	4452
216.990	4797
217.057	4398
217.124	6491
217.191	5690
217.258	7399
217.324	7960
217.391	7238
217.458	5159
217.525	5040
217.592	4368
217.659	4309
217.725	3588
217.792	6707
217.859	4269
217.926	3651
217.993	3092
218.059	3031
218.126	2556
218.193	2656
218.260	2151
218.327	2807
218.393	3065
218.460	2841
218.527	2371
218.594	4563
218.660	6653
218.727	5013
218.794	3269
218.860	3050
218.927	1872
218.994	2928
219.061	3264
219.127	3862
219.194	4510
219.261	2369
219.327	2670
219.394	2781
219.461	1755
219.527	2520
219.594	5067
219.661	3438
219.727	2806
219.794	3061
219.860	2945
219.927	3774
219.994	6666
220.060	8582
220.127	5220
220.193	4052
220.260	4890
220.326	7751
220.393	11609
220.460	9815
220.526	6402
220.593	5954
220.659	6120
220.726	7585
220.792	13266
220.859	12193
220.925	16940
220.992	16734
221.058	17738
221.125	13857
221.191	8514
221.258	5370
221.324	4289
221.391	4126
221.457	3269
221.524	4329
221.590	7568
221.657	14526
221.723	7040
221.789	10689
221.856	6161
221.922	3953
221.989	3547
222.055	3645
222.121	4295
222.188	5045
222.254	3728
222.321	3493
222.387	2223
222.453	2504
222.520	1957
222.586	2823
222.652	3198
222.719	2802
222.785	2330
222.851	2182
222.918	2487
222.984	3756
223.050	3090
223.116	3315
223.183	2279
223.249	1873
223.315	2121
223.382	2823
223.448	2354
223.514	2204
223.580	2216
223.647	2362
223.713	2889
223.779	2034
223.845	2316
223.911	2148
223.978	2014
224.044	1980
224.110	2264
224.176	2667
224.242	1873
224.309	2616
224.375	1843
224.441	2382
224.507	2080
224.573	2966
224.639	2261
224.705	1983
224.772	2630
224.838	2732
224.904	2677
224.970	1919
225.036	2683
225.102	2522
225.168	2963
225.234	2046
225.300	2114
225.366	2759
225.432	2012
225.499	2368
225.565	3140
225.631	3269
225.697	3837
225.763	4406
225.829	3508
225.895	5925
225.961	6498
226.027	5373
226.093	6117
226.159	7007
226.225	11940
226.291	26583
226.357	23872
226.423	13045
226.489	8331
226.554	6343
226.620	7000
226.686	10321
226.752	13580
226.818	25858
226.884	35790
226.950	21930
227.016	10423
227.082	7713
227.148	7005
227.214	6704
227.279	5007
227.345	5096
227.411	5356
227.477	7699
227.543	12468
227.609	9353
227.674	6639
227.740	4434
227.806	3975
227.872	3223
227.938	4706
228.003	5477
228.069	3487
228.135	3218
228.201	2793
228.267	3134
228.332	4695
228.398	5090
228.464	2261
228.530	2653
228.595	2007
228.661	4327
228.727	5352
228.792	3607
228.858	3528
228.924	4362
228.990	3846
229.055	5059
229.121	3370
229.187	3286
229.252	3532
229.318	2328
229.384	3948
229.449	3616
229.515	2246
229.581	2074
229.646	2588
229.712	4687
229.777	10075
229.843	6411
229.909	5641
229.974	6058
230.040	4169
230.105	5584
230.171	5403
230.236	7588
230.302	8843
230.368	4584
230.433	4549
230.499	4495
230.564	4606
230.630	3626
230.695	3205
230.761	3342
230.826	4044
230.892	5568
230.957	2690
231.023	3440
231.088	3362
231.154	3287
231.219	3319
231.284	6341
231.350	4514
231.415	3427
231.481	2830
231.546	3039
231.612	1819
231.677	2485
231.742	2803
231.808	2711
231.873	2641
231.939	2892
232.004	7146
232.069	3811
232.135	4058
232.200	2234
232.265	1926
232.331	2677
232.396	2640
232.461	2302
232.527	2828
232.592	2775
232.657	3957
232.723	5053
232.788	2307
232.853	2610
232.918	2975
232.984	2395
233.049	2816
233.114	5415
233.179	4000
233.245	8768
233.310	4362
233.375	3233
233.440	2459
233.506	2508
233.571	1660
233.636	2150
233.701	2399
233.766	7421
233.832	3774
233.897	3626
233.962	4315
234.027	4343
234.092	3451
234.157	3707
234.222	3820
234.288	9661
234.353	14414
234.418	11168
234.483	6778
234.548	5958
234.613	4653
234.678	4870
234.743	8385
234.808	15299
234.873	7075
234.938	4958
235.004	4289
235.069	4255
235.134	4073
235.199	4117
235.264	3890
235.329	3743
235.394	3878
235.459	5135
235.524	4223
235.589	3750
235.654	3137
235.719	2728
235.784	3561
235.849	5624
235.913	7685
235.978	10780
236.043	6423
236.108	4664
236.173	5215
236.238	3758
236.303	3783
236.368	4337
236.433	9374
236.498	9140
236.563	8803
236.627	26004
236.692	49115
236.757	25408
236.822	14627
236.887	11561
236.952	8456
237.017	8248
237.081	9150
237.146	15731
237.211	28917
237.276	59375
237.341	55167
237.405	24983
237.470	14433
237.535	9217
237.600	7121
237.664	5967
237.729	6189
237.794	12144
237.859	13126
237.923	8611
237.988	6598
238.053	8312
238.118	10859
238.182	22983
238.247	11181
238.312	9080
238.376	6778
238.441	5681
238.506	3847
238.570	3371
238.635	3349
238.700	3405
238.764	4490
238.829	12898
238.893	7042
238.958	7064
239.023	4768
239.087	4344
239.152	4626
239.216	3355
239.281	3455
239.346	3802
239.410	3634
239.475	7898
239.539	21534
239.604	7437
239.668	4725
239.733	4863
239.797	11881
239.862	19614
239.926	13967
239.991	5551
240.055	3966
240.120	3646
240.184	3727
240.249	3983
240.313	3341
240.378	4734
240.442	16696
240.507	11058
240.571	5900
240.635	11985
240.700	7163
240.764	3912
240.829	3113
240.893	2769
240.957	3898
241.022	16017
241.086	14405
241.151	5811
241.215	3234
241.279	8343
241.344	7942
241.408	5940
241.472	4972
241.537	5317
241.601	3758
241.665	4595
241.730	4361
241.794	4557
241.858	4825
241.922	5629
241.987	4692
242.051	4171
242.115	4349
242.179	4060
242.244	3662
242.308	4646
242.372	5564
242.436	5582
242.501	4636
242.565	4197
242.629	3653
242.693	4208
242.757	3457
242.822	3954
242.886	3771
242.950	4603
243.014	4284
243.078	6119
243.142	4786
243.206	5575
243.271	4380
243.335	5662
243.399	10571
243.463	50400
243.527	43214
243.591	13850
243.655	8995
243.719	6105
243.783	7390
243.847	12428
243.911	13300
243.975	17463
244.040	8451
244.104	5012
244.168	5140
244.232	11745
244.296	11843
244.360	10060
244.424	5636
244.488	4670
244.552	4265
244.615	3563
244.679	4065
244.743	7714
244.807	4562
244.871	3572
244.935	4064
244.999	3997
245.063	3843
245.127	6797
245.191	9662
245.255	7151
245.319	8845
245.383	4759
245.446	4771
245.510	4714
245.574	5167
245.638	5248
245.702	8799
245.766	10676
245.829	6693
245.893	5647
245.957	4959
246.021	5343
246.085	6485
246.149	9259
246.212	23727
246.276	18723
246.340	10130
246.404	7223
246.467	11839
246.531	10899
246.595	6989
246.659	7096
246.722	8758
246.786	8463
246.850	11882
246.913	8619
246.977	5010
247.041	6513
247.104	5611
247.168	9635
247.232	25069
247.295	27966
247.359	9671
247.423	11252
247.486	12618
247.550	8024
247.614	8654
247.677	8692
247.741	5773
247.804	5780
247.868	7994
247.932	26085
247.995	22172
248.059	8583
248.122	6655
248.186	10168
248.249	27068
248.313	59307
248.376	42835
248.440	22719
248.503	10762
248.567	13531
248.630	19494
248.694	22393
248.757	40344
248.821	46985
248.884	26616
248.948	38379
249.011	48564
249.075	64768
249.138	34653
249.202	17900
249.265	14400
249.328	14040
249.392	12690
249.455	9335
249.519	8574
249.582	13778
249.645	17709
249.709	10994
249.772	8269
249.835	8909
249.899	8331
249.962	8586
250.025	10021
250.089	28799
250.152	20857
250.215	11805
250.279	9691
250.342	10701
250.405	9497
250.468	9732
250.532	13600
250.595	27530
250.658	92148
250.721	61103
250.785	27950
250.848	16597
250.911	10992
250.974	11786
251.038	27342
251.101	25368
251.164	16705
251.227	17536
251.290	16571
251.354	40163
251.417	98650
251.480	55628
251.543	88639
251.606	143040
251.669	68670
251.732	42376
251.795	45850
251.859	62161
251.922	86117
251.985	33169
252.048	19760
252.111	16473
252.174	18784
252.237	48603
252.300	57103
252.363	96446
252.426	90101
252.489	37658
252.552	23029
252.615	17196
252.678	27895
252.741	50794
252.804	91492
252.867	103843
252.930	58666
252.993	32904
253.056	21670
253.119	16371
253.182	17138
253.245	22945
253.308	17323
253.371	19517
253.434	14963
253.497	21906
253.559	29237
253.622	20219
253.685	34142
253.748	19498
253.811	13816
253.874	18111
253.937	13315
254.000	13115
254.062	31479
254.125	26073
254.188	34060
254.251	15758
254.314	15024
254.376	28460
254.439	22649
254.502	19035
254.565	33906
254.628	31889
254.690	18508
254.753	12095
254.816	11962
254.878	14723
254.941	29180
255.004	15000
255.067	11802
255.129	9947
255.192	5887
255.255	7663
255.317	6877
255.380	4729
255.443	5102
255.505	5208
255.568	4829
255.631	5857
255.693	6383
255.756	5378
255.819	5197
255.881	4787
255.944	4174
256.006	5426
256.069	4375
256.132	5881
256.194	11017
256.257	15233
256.319	13181
256.382	9258
256.444	6661
256.507	6385
256.569	5995
256.632	7237
256.694	12558
256.757	52030
256.819	55411
256.882	20531
256.944	11388
257.007	11557
257.069	9811
257.132	7023
257.194	6726
257.257	7724
257.319	5966
257.381	10259
257.444	39320
257.506	103673
257.569	66733
257.631	36096
257.693	18068
257.756	12175
257.818	8808
257.880	6566
257.943	6729
258.005	7044
258.067	5731
258.130	5993
258.192	12350
258.254	14055
258.317	6666
258.379	10090
258.441	21814
258.503	12305
258.566	28741
258.628	13397
258.690	7299
258.753	11767
258.815	13870
258.877	7285
258.939	5896
259.001	5944
259.064	5797
259.126	9670
259.188	7880
259.250	8296
259.312	14228
259.375	23076
259.437	8507
259.499	6688
259.561	6428
259.623	7480
259.685	6071
259.747	7982
259.809	30739
259.872	30181
259.934	60539
259.996	28145
260.058	10068
260.120	6704
260.182	4883
260.244	4724
260.306	4919
260.368	5766
260.430	6158
260.492	18832
260.554	22826
260.616	16393
260.678	41182
260.740	19510
260.802	7927
260.864	8986
260.926	6486
260.988	5991
261.050	8897
261.112	28688
261.174	41043
261.236	14852
261.298	10147
261.359	23130
261.421	13229
261.483	6487
261.545	6118
261.607	5078
261.669	5659
261.731	19917
261.793	20890
261.854	9457
261.916	7028
261.978	9353
262.040	6202
262.102	7118
262.164	10554
262.225	5474
262.287	9370
262.349	19254
262.411	7983
262.472	6462
262.534	21036
262.596	13443
262.658	6101
262.719	5317
262.781	13653
262.843	17492
262.904	7654
262.966	7013
263.028	12360
263.090	82749
263.151	64986
263.213	27628
263.275	14783
263.336	6883
263.398	5543
263.459	4914
263.521	8737
263.583	15968
263.644	7206
263.706	4302
263.767	4129
263.829	2804
263.891	3506
263.952	2930
264.014	3931
264.075	17495
264.137	16480
264.198	6767
264.260	3871
264.321	4738
264.383	27016
264.444	21437
264.506	7413
264.567	6786
264.629	23396
264.690	17437
264.752	8531
264.813	5683
264.875	4752
264.936	5107
264.998	3772
265.059	4039
265.120	5107
265.182	17828
265.243	52464
265.305	19489
265.366	7545
265.427	5717
265.489	4214
265.550	3954
265.611	6528
265.673	5670
265.734	3703
265.795	4382
265.857	4217
265.918	5068
265.979	27119
266.040	75000
266.102	25893
266.163	14685
266.224	10583
266.286	6384
266.347	4877
266.408	5897
266.469	5004
266.530	4168
266.592	5683
266.653	17682
266.714	11443
266.775	6101
266.836	4045
266.898	6027
266.959	8975
267.020	4556
267.081	4781
267.142	4536
267.203	4911
267.264	4333
267.326	5483
267.387	3883
267.448	4037
267.509	4334
267.570	4319
267.631	3961
267.692	3250
267.753	4534
267.814	4310
267.875	18967
267.936	15332
267.997	13326
268.058	8577
268.119	5742
268.180	5297
268.241	4082
268.302	3884
268.363	4817
268.424	5394
268.485	5019
268.546	3167
268.607	3532
268.668	3119
268.729	3644
268.790	4114
268.851	7243
268.912	18862
268.972	12630
269.033	5920
269.094	3741
269.155	3913
269.216	4047
269.277	3664
269.338	3504
269.398	3978
269.459	6396
269.520	8171
269.581	11905
269.642	10770
269.702	7384
269.763	5556
269.824	5251
269.885	11396
269.945	7566
270.006	4426
270.067	3997
270.128	3340
270.188	4426
270.249	3696
270.310	3876
270.370	4257
270.431	4293
270.492	3737
270.553	5909
270.613	17263
270.674	16451
270.734	6227
270.795	5814
270.856	9117
270.916	5597
270.977	4872
271.038	6899
271.098	6491
271.159	13439
271.219	6510
271.280	4142
271.340	4061
271.401	9935
271.462	10454
271.522	6322
271.583	5103
271.643	5578
271.704	4737
271.764	8219
271.825	28109
271.885	70572
271.946	37634
272.006	19826
272.066	48584
272.127	31015
272.187	12068
272.248	8868
272.308	19256
272.369	31432
272.429	12566
272.489	19981
272.550	14729
272.610	17409
272.671	8378
272.731	16451
272.791	15548
272.852	10355
272.912	7738
272.972	5272
273.033	7463
273.093	11674
273.153	9409
273.214	6063
273.274	11445
273.334	46999
273.394	33814
273.455	17065
273.515	36034
273.575	32148
273.635	15947
273.696	40856
273.756	33808
273.816	14631
273.876	12199
273.936	36295
273.997	20873
274.057	9220
274.117	9353
274.177	30641
274.237	68597
274.297	34046
274.358	33366
274.418	37858
274.478	19011
274.538	9470
274.598	15429
274.658	37486
274.718	26153
274.778	9940
274.838	7959
274.898	37934
274.958	44832
275.018	46024
275.078	18666
275.138	10112
275.198	6713
275.258	6585
275.318	11468
275.378	17603
275.438	12754
275.498	11066
275.558	40177
275.618	45199
275.678	21023
275.738	22673
275.798	13275
275.858	5672
275.918	5609
275.978	9235
276.038	5471
276.098	5445
276.157	27431
276.217	27569
276.277	13380
276.337	9925
276.397	7898
276.457	8474
276.517	5515
276.576	5083
276.636	6418
276.696	13100
276.756	24403
276.815	10066
276.875	7878
276.935	10187
276.995	5843
277.055	5742
277.114	5414
277.174	20057
277.234	21458
277.293	8922
277.353	7203
277.413	6532
277.472	7444
277.532	5530
277.592	10437
277.651	53552
277.711	26553
277.771	29182
277.830	68990
277.890	26233
277.950	65706
278.009	62633
278.069	23902
278.128	56914
278.188	31300
278.248	35194
278.307	57231
278.367	17882
278.426	9609
278.486	7064
278.545	5628
278.605	5838
278.664	5404
278.724	8050
278.783	37820
278.843	29581
278.902	10619
278.962	10426
279.021	11445
279.081	17635
279.140	11974
279.199	11416
279.259	10514
279.318	11811
279.378	17217
279.437	44536
279.496	144063
279.556	249712
279.615	97651
279.675	39952
279.734	32747
279.793	66739
279.853	46412
279.912	17639
279.971	13614
280.031	14434
280.090	40842
280.149	31205
280.208	71711
280.268	202332
280.327	81660
280.386	32300
280.445	35554
280.505	18181
280.564	12805
280.623	11333
280.682	25717
280.742	15900
280.801	8350
280.860	6637
280.919	6441
280.978	6005
281.037	5881
281.097	5780
281.156	6364
281.215	5768
281.274	14501
281.333	35664
281.392	10871
281.451	6115
281.510	5909
281.569	5122
281.628	4269
281.688	4639
281.747	7180
281.806	5209
281.865	4167
281.924	5917
281.983	4478
282.042	4125
282.101	4419
282.160	4348
282.219	3995
282.278	11573
282.337	20626
282.396	7543
282.454	5095
282.513	17291
282.572	28333
282.631	9212
282.690	6117
282.749	5360
282.808	6679
282.867	7243
282.926	5882
282.985	4628
283.043	5068
283.102	4586
283.161	7264
283.220	27481
283.279	18573
283.338	7702
283.396	6700
283.455	6708
283.514	10060
283.573	11690
283.631	7304
283.690	6572
283.749	8406
283.808	18939
283.866	10138
283.925	6543
283.984	8226
284.043	11489
284.101	7373
284.160	7902
284.219	8188
284.277	8851
284.336	24111
284.395	44830
284.453	18360
284.512	15809
284.570	20059
284.629	16124
284.688	18273
284.746	19981
284.805	23876
284.863	32542
284.922	37294
284.981	48658
285.039	75152
285.098	140649
285.156	235106
285.215	230531
285.273	244567
285.332	161967
285.390	100878
285.449	67194
285.507	45909
285.566	34408
285.624	25565
285.683	20220
285.741	16603
285.799	16016
285.858	14509
285.916	12396
285.975	10964
286.033	9038
286.091	8490
286.150	7315
286.208	8361
286.267	8978
286.325	11310
286.383	14329
286.442	8462
286.500	7063
286.558	5814
286.616	7161
286.675	8683
286.733	7273
286.791	6944
286.850	8424
286.908	15751
286.966	12091
287.024	6893
287.083	5699
287.141	4757
287.199	7523
287.257	7940
287.315	5855
287.374	11758
287.432	17579
287.490	7697
287.548	7050
287.606	5675
287.664	7240
287.723	10748
287.781	7497
287.839	6609
287.897	6933
287.955	8926
288.013	14125
288.071	44807
288.129	216351
288.187	217370
288.245	70167
288.303	33421
288.361	22406
288.419	15994
288.477	10828
288.535	7921
288.593	6400
288.651	5317
288.709	4629
288.767	5574
288.825	4940
288.883	4276
288.941	4477
288.999	4152
289.057	4270
289.115	3541
289.173	4225
289.231	5115
289.289	3982
289.346	5500
289.404	6815
289.462	10963
289.520	7396
289.578	4164
289.636	3688
289.694	2855
289.751	3215
289.809	3313
289.867	4446
289.925	6865
289.983	4818
290.040	3438
290.098	4693
290.156	5939
290.214	5143
290.271	3730
290.329	3380
290.387	2802
290.444	2813
290.502	2329
290.560	3687
290.617	3415
290.675	3336
290.733	3721
290.790	3490
290.848	3857
290.906	4179
290.963	3857
291.021	2901
291.078	2897
291.136	5985
291.194	30274
291.251	19565
291.309	4898
291.366	4182
291.424	4285
291.481	4855
291.539	4617
291.596	3379
291.654	2729
291.711	3067
291.769	6997
291.826	8845
291.884	4312
291.941	3861
291.999	4362
292.056	5407
292.114	3205
292.171	3648
292.228	4641
292.286	7414
292.343	13816
292.401	11108
292.458	6165
292.515	5682
292.573	6805
292.630	6102
292.687	4574
292.745	4515
292.802	12175
292.859	26492
292.917	29324
292.974	10016
293.031	5208
293.089	4878
293.146	4117
293.203	4070
293.260	3963
293.318	7905
293.375	6682
293.432	3570
293.489	3050
293.546	3461
293.604	9330
293.661	39633
293.718	40447
293.775	17418
293.832	11967
293.889	11383
293.947	9544
294.004	6212
294.061	8497
294.118	24966
294.175	38165
294.232	27875
294.289	9968
294.346	8318
294.403	6977
294.460	6824
294.517	5159
294.574	4702
294.631	4250
294.688	6419
294.745	32243
294.802	68111
294.859	36260
294.916	18133
294.973	12160
295.030	11162
295.087	6876
295.144	5878
295.201	5034
295.258	4475
295.315	9190
295.372	36776
295.429	26461
295.486	10390
295.542	12166
295.599	41789
295.656	30718
295.713	37236
295.770	24545
295.827	10163
295.883	6962
295.940	9182
295.997	14889
296.054	7997
296.111	4819
296.167	4708
296.224	4133
296.281	3934
296.338	2817
296.394	3826
296.451	7956
296.508	28285
296.564	23976
296.621	26600
296.678	67548
296.734	40300
296.791	15246
296.848	10684
296.904	20234
296.961	37000
297.018	41650
297.074	17107
297.131	9550
297.187	8753
297.244	19382
297.301	70733
297.357	45525
297.414	15877
297.470	9710
297.527	7699
297.583	7493
297.640	6683
297.696	4916
297.753	4374
297.809	2840
297.866	2946
297.922	3955
297.979	3486
298.035	5886
298.092	14870
298.148	28276
298.204	13750
298.261	10860
298.317	41491
298.374	46546
298.430	19007
298.486	12533
298.543	9641
298.599	9590
298.656	11515
298.712	32113
298.768	42638
298.824	16226
298.881	8375
298.937	6433
298.993	6909
299.050	8003
299.106	6006
299.162	6649
299.218	5356
299.275	3380
299.331	5599
299.387	27240
299.443	60342
299.500	32336
299.556	13357
299.612	10314
299.668	11063
299.724	15370
299.780	8387
299.837	6805
299.893	22730
299.949	51904
300.005	34832
300.061	59175
300.117	49294
300.173	19257
300.229	14685
300.285	22076
300.341	15349
300.397	7700
300.453	5645
300.510	5444
300.566	5694
300.622	13294
300.678	41474
300.734	40213
300.790	43977
300.845	34012
300.901	37201
300.957	43899
301.013	17979
301.069	10254
301.125	10938
301.181	8975
301.237	5771
301.293	3891
301.349	4750
301.405	4869
301.461	5064
301.516	5722
301.572	11330
301.628	12325
301.684	11423
301.740	25993
301.796	20172
301.851	22971
301.907	30254
301.963	26027
302.019	89379
302.074	137740
302.130	84596
302.186	34432
302.242	19003
302.297	13355
302.353	21187
302.409	28066
302.464	15065
302.520	30303
302.576	57289
302.631	42240
302.687	19885
302.743	10442
302.798	7073
302.854	5921
302.910	7497
302.965	13029
303.021	17305
303.076	15630
303.132	25823
303.187	17655
303.243	8824
303.299	6110
303.354	6383
303.410	5101
303.465	4675
303.521	4489
303.576	4121
303.632	6893
303.687	28776
303.743	43522
303.798	20577
303.853	10161
303.909	7224
303.964	8665
304.020	16271
304.075	14682
304.130	22435
304.186	31234
304.241	27964
304.297	17029
304.352	10204
304.358	9971
304.407	8042
304.449	8935
304.463	9247
304.518	7745
304.539	7047
304.573	5873
304.629	7007
304.630	7274
304.684	19304
304.720	37559
304.739	47167
304.794	35382
304.811	30744
304.850	17360
304.902	9598
304.905	9195
304.960	8728
304.992	8506
305.015	8505
305.071	8392
305.083	8040
305.126	6474
305.173	4959
305.181	4728
305.236	5396
305.264	6121
305.292	7126
305.347	8621
305.354	8766
305.402	9433
305.445	10615
305.457	10964
305.512	12090
305.535	11385
305.567	10273
305.622	12542
305.626	13493
305.678	31700
305.716	49759
305.733	57441
305.788	44275
305.807	44917
305.843	42022
305.897	53180
305.898	53394
305.953	37415
305.988	30453
306.008	24966
306.063	17381
306.078	15178
306.118	11302
306.168	8195
306.173	8033
306.228	7230
306.259	6518
306.283	6183
306.338	6680
306.349	6831
306.393	8030
306.440	8710
306.448	8686
306.503	8539
306.530	10857
306.558	15899
306.613	31356
306.620	33268
306.668	48063
306.711	57329
306.723	57278
306.778	40365
306.801	35064
306.833	25409
306.888	12899
306.892	12128
306.943	10117
306.982	8890
306.997	8738
307.052	8213
307.072	8230
307.107	8712
307.162	11833
307.163	11866
307.217	18476
307.253	22378
307.272	23840
307.327	23204
307.343	22797
307.381	19151
307.434	17991
307.436	18462
307.491	37829
307.524	48576
307.546	55273
307.600	53522
307.614	52983
307.655	34120
307.704	16994
307.710	16879
307.765	19716
307.795	24358
307.819	32109
307.874	44054
307.885	44661
307.929	34758
307.975	28751
307.984	29666
308.038	38437
308.065	47337
308.093	73048
308.148	157671
308.156	170674
308.202	279029
308.246	323049
308.257	304414
308.312	196400
308.336	157012
308.366	129919
308.421	79790
308.426	75105
308.475	50502
308.517	32730
308.530	31370
308.585	26471
308.607	24904
308.639	24808
308.694	26178
308.697	26577
308.748	43751
308.787	54075
308.803	55361
308.857	49606
308.877	48991
308.912	45188
308.967	41563
308.967	41424
309.021	55564
309.058	68031
309.076	83185
309.130	136341
309.148	158040
309.185	239848
309.238	375897
309.239	378493
309.293	436082
309.328	445442
309.348	394906
309.402	256880
309.418	220670
309.457	165154
309.508	96758
309.511	96113
309.566	84675
309.598	80833
309.620	91583
309.674	122814
309.688	128700
309.729	136670
309.778	139350
309.783	136371
309.837	98835
309.868	79341
309.892	79707
309.946	88151
309.959	89971
310.001	129429
310.049	165127
310.055	159451
310.109	102433
310.139	72746
310.163	59797
310.218	33349
310.229	28085
310.272	24005
310.319	20071
310.326	19846
310.381	17733
310.409	16822
310.435	16453
310.489	15648
310.499	15434
310.543	15474
310.589	15914
310.598	16254
310.652	17542
310.679	18160
310.706	17286
310.760	15509
310.769	15155
310.814	13322
310.859	11528
310.868	11624
310.923	12191
310.948	12378
310.977	13545
311.031	16030
311.038	16268
311.085	16862
311.128	17305
311.139	17140
311.193	16001
311.218	15493
311.247	14613
311.301	12658
311.308	12407
311.356	13524
311.398	14312
311.410	14266
311.464	13829
311.488	13527
311.518	13526
311.572	13708
311.578	13689
311.626	19132
311.668	23679
311.680	23684
311.734	23265
311.758	23025
311.788	23445
311.842	23977
311.847	23959
311.896	25497
311.937	26677
311.950	28557
312.004	36298
312.027	39519
312.058	32772
312.112	20500
312.117	19195
312.165	17354
312.207	15659
312.297	24347
312.386	24569
312.476	17839
312.566	35725
312.656	27783
312.745	14220
312.835	15961
312.925	19387
313.015	17360
313.104	17952
313.194	14893
313.284	16509
313.374	19533
313.463	25697
313.553	15045
313.643	15806
313.732	14632
313.822	14157
313.912	16012
314.001	18921
314.091	20693
314.180	31428
314.270	26310
314.360	25107
314.449	25066
314.539	18611
314.628	15132
314.718	17254
314.808	21814
314.897	16941
314.987	15308
315.076	19060
315.166	25938
315.255	22738
315.345	23089
315.434	22475
315.524	20220
315.613	23838
315.703	28481
315.792	36191
315.881	60622
315.971	51334
316.060	35556
316.150	46373
316.239	48837
316.328	29121
316.418	16712
316.507	17398
316.597	20699
316.686	24543
316.775	22453
316.865	46982
316.954	23622
317.043	13625
317.133	17299
317.222	16805
317.311	15433
317.400	15856
317.490	17938
317.579	27324
317.668	19056
317.757	21988
317.847	43652
317.936	106464
318.025	96129
318.114	46590
318.203	36065
318.293	41636
318.382	101943
318.471	89334
318.560	98210
318.649	133260
318.738	64089
318.828	23756
318.917	30217
319.006	23331
319.095	56001
319.184	143728
319.273	142574
319.362	80034
319.451	26369
319.540	21002
319.629	38242
319.718	88615
319.807	38410
319.896	51521
319.985	179745
320.074	140195
320.163	30923
320.252	36002
320.341	35217
320.430	45372
320.519	41586
320.608	38630
320.697	23939
320.786	26635
320.875	26627
320.964	35611
321.053	51719
321.142	72574
321.230	97251
321.319	59930
321.408	132047
321.497	94843
321.586	53124
321.675	56915
321.764	66084
321.852	43212
321.941	72698
322.030	77210
322.119	51022
322.207	133552
322.296	102798
322.385	55524
322.474	53708
322.562	142060
322.651	138067
322.740	54832
322.829	92761
322.917	71765
323.006	59062
323.095	49760
323.183	34692
323.272	40928
323.361	62525
323.449	146011
323.538	87762
323.626	93903
323.715	111513
323.804	31329
323.892	88557
323.981	106603
324.069	29062
324.158	41661
324.246	75586
324.335	30497
324.424	57172
324.512	29423
324.601	27363
324.689	41885
324.778	99999
324.866	65627
324.954	26910
325.043	18670
325.131	29769
325.220	47709
325.308	58107
325.397	43702
325.485	43398
325.574	16745
325.662	17760
325.750	19300
325.839	18256
325.927	14919
326.015	19305
326.104	21045
326.192	34487
326.280	18130
326.369	15857
326.457	21986
326.545	44026
326.634	33374
326.722	12796
326.810	14485
326.898	15267
326.987	17010
327.075	34012
327.163	45554
327.251	21839
327.340	26506
327.428	63379
327.516	21103
327.604	15826
327.692	16419
327.781	14853
327.869	24284
327.957	22443
328.045	23686
328.133	13608
328.221	14432
328.309	17226
328.397	15526
328.485	19170
328.574	22924
328.662	72932
328.750	71816
328.838	23855
328.926	16571
329.014	14197
329.102	20840
329.190	48257
329.278	58673
329.366	17009
329.454	12641
329.542	16184
329.630	14727
329.718	15916
329.806	21729
329.893	24486
329.981	30284
330.069	37316
330.157	118308
330.245	420510
330.333	371603
330.421	84340
330.509	36627
330.597	90528
330.684	111485
330.772	35363
330.860	37048
330.948	51215
331.036	38048
331.123	15194
331.211	13137
331.299	19207
331.387	28635
331.475	88323
331.562	34885
331.650	14893
331.738	15252
331.825	20771
331.913	15441
332.001	12687
332.089	14903
332.176	29684
332.264	44892
332.352	65426
332.439	28934
332.527	20203
332.614	14554
332.702	18092
332.790	14037
332.877	23296
332.965	62408
333.052	38994
333.140	21663
333.228	63003
333.315	37900
333.403	16764
333.490	28297
333.578	44228
333.665	70126
333.753	72048
333.840	21479
333.928	18261
334.015	30429
334.103	50779
334.190	163598
334.278	108055
334.365	30045
334.452	27175
334.540	21239
334.627	20246
334.715	28543
334.802	35482
334.889	123873
334.977	236939
335.064	55342
335.151	26739
335.239	23695
335.326	28219
335.413	60781
335.501	172030
335.588	41625
335.675	23565
335.762	26516
335.850	52795
335.937	37954
336.024	51690
336.111	186010
336.199	171368
336.286	44309
336.373	24081
336.460	17849
336.547	16713
336.635	20145
336.722	22331
336.809	17020
336.896	20794
336.983	50325
337.070	147018
337.157	206059
337.245	126787
337.332	123973
337.419	23205
337.506	15633
337.593	16478
337.680	32691
337.767	166070
337.854	79608
337.941	64284
338.028	56652
338.115	35042
338.202	24044
338.289	38201
338.376	105446
338.463	77228
338.550	61505
338.637	144070
338.724	31050
338.811	48257
338.898	18377
338.984	13642
339.071	20052
339.158	19592
339.245	45510
339.332	52836
339.419	25249
339.506	43409
339.593	12551
339.679	13377
339.766	15221
339.853	16779
339.940	41003
340.027	25056
340.113	14665
340.200	24453
340.287	19545
340.374	16914
340.460	41459
340.547	25546
340.634	19143
340.720	70354
340.807	93518
340.894	15250
340.980	13384
341.067	15913
341.154	16031
341.240	19774
341.327	55476
341.414	28359
341.500	22896
341.587	17608
341.674	12669
341.760	26258
341.847	53005
341.933	25917
342.020	10281
342.106	8724
342.193	11700
342.279	30845
342.366	21497
342.452	39141
342.539	26530
342.625	30411
342.712	103359
342.798	68775
342.885	30863
342.971	11165
343.058	9598
343.144	11460
343.230	12384
343.317	11628
343.403	14579
343.490	9756
343.576	10691
343.662	11708
343.749	14820
343.835	17436
343.921	21448
344.008	80733
344.094	340432
344.180	154702
344.267	35998
344.353	62081
344.439	132592
344.525	61958
344.612	31319
344.698	20299
344.784	21247
344.870	11952
344.957	12686
345.043	20949
345.129	18982
345.215	35060
345.301	29404
345.387	20104
345.474	11542
345.560	10437
345.646	13727
345.732	13707
345.818	14995
345.904	17755
345.990	16791
346.076	14232
346.162	24654
346.249	18691
346.335	12495
346.421	11570
346.507	21119
346.593	117099
346.679	73058
346.765	18211
346.851	13320
346.937	18112
347.023	13325
347.108	14024
347.194	17656
347.280	12726
347.366	14219
347.452	26935
347.538	125584
347.624	141679
347.710	125397
347.796	34780
347.882	15537
347.967	13333
348.053	19388
348.139	18424
348.225	12938
348.311	13728
348.397	12445
348.482	13380
348.568	22819
348.654	13270
348.740	14120
348.825	24158
348.911	20897
348.997	42860
349.083	154063
349.168	56255
349.254	14488
349.340	18657
349.425	12469
349.511	15786
349.597	24481
349.682	24690
349.768	84883
349.854	86564
349.939	18713
350.025	10997
350.110	11738
350.196	10516
350.282	12466
350.367	8742
350.453	13160
350.538	22763
350.624	17955
350.709	25335
350.795	13120
350.880	14556
350.966	12510
351.051	18000
351.137	17533
351.222	13424
351.308	21577
351.393	94738
351.479	53155
351.564	17741
351.649	12816
351.735	12835
351.820	9826
351.906	12112
351.991	15113
352.076	34299
352.162	114326
352.247	37080
352.332	17383
352.418	27763
352.503	37952
352.588	92559
352.673	184162
352.759	45449
352.844	22284
352.929	16836
353.014	30892
353.100	20558
353.185	25864
353.270	42449
353.355	56040
353.441	20106
353.526	14773
353.611	27182
353.696	55312
353.781	29866
353.866	20165
353.952	12961
354.037	26833
354.122	76623
354.207	84661
354.292	50845
354.377	17177
354.462	14158
354.547	17880
354.632	20139
354.717	23290
354.802	42238
354.887	25912
354.972	11988
355.057	11971
355.142	11059
355.227	13137
355.312	22232
355.397	43423
355.482	111370
355.567	105711
355.652	39293
355.737	52620
355.822	73105
355.907	140972
355.991	29520
356.076	15071
356.161	13684
356.246	13229
356.331	13443
356.416	18770
356.501	89898
356.585	237603
356.670	61250
356.755	26078
356.840	26250
356.924	75416
357.009	344997
357.094	308864
357.179	58489
357.263	42243
357.348	28033
357.433	40304
357.517	30842
357.602	30281
357.687	22016
357.771	25908
357.856	64836
357.941	72067
358.025	54398
358.110	299150
358.195	343646
358.279	67599
358.364	30357
358.448	55347
358.533	194980
358.617	226529
358.702	161007
358.787	111501
358.871	40653
358.956	50765
359.040	20825
359.125	13217
359.209	13555
359.294	23454
359.378	72191
359.462	45003
359.547	29044
359.631	17599
359.716	14227
359.800	13340
359.885	23660
359.969	21703
360.053	14713
360.138	15082
360.222	19167
360.306	36842
360.391	42411
360.475	31879
360.559	108774
360.644	90304
360.728	98888
360.812	55355
360.896	223832
360.981	172693
361.065	116170
361.149	32660
361.233	25192
361.318	23275
361.402	22556
361.486	22551
361.570	18008
361.654	20137
361.739	33227
361.823	106563
361.907	288043
361.991	112677
362.075	33026
362.159	73602
362.243	81169
362.327	61423
362.411	81296
362.495	51768
362.580	32883
362.664	22042
362.748	23712
362.832	27888
362.916	43131
363.000	91025
363.084	206095
363.168	351834
363.252	170492
363.336	47712
363.420	41493
363.503	83986
363.587	210110
363.671	67284
363.755	31196
363.839	47047
363.923	34383
364.007	36046
364.091	66960
364.175	50722
364.258	168928
364.342	249610
364.426	234024
364.510	189971
364.594	84074
364.677	60532
364.761	143365
364.845	245584
364.929	75823
365.013	79908
365.096	45789
365.180	67560
365.264	42441
365.347	156751
365.431	169860
365.515	52702
365.598	26070
365.682	17820
365.766	24077
365.849	56915
365.933	27207
366.017	26908
366.100	34464
366.184	16945
366.267	13992
366.351	14030
366.435	15798
366.518	13961
366.602	11460
366.685	14023
366.769	18095
366.852	22534
366.936	55187
367.019	45156
367.103	22821
367.186	49677
367.270	29978
367.353	13818
367.436	13417
367.520	14817
367.603	17439
367.687	24742
367.770	47089
367.853	36396
367.937	37033
368.020	128849
368.104	59724
368.187	29141
368.270	51653
368.353	57448
368.437	47186
368.520	73394
368.603	85212
368.687	61187
368.770	168868
368.853	88406
368.936	40631
369.020	63921
369.103	34848
369.186	16836
369.269	22738
369.352	23826
369.436	52453
369.519	39498
369.602	27230
369.685	18318
369.768	22667
369.851	20587
369.934	16428
370.018	15403
370.101	37692
370.184	43729
370.267	27923
370.350	37008
370.433	65484
370.516	91330
370.599	177466
370.682	77849
370.765	80218
370.848	124148
370.931	161750
371.014	141204
371.097	34387
371.180	22631
371.263	15135
371.346	14017
371.429	15834
371.511	15392
371.594	25297
371.677	43992
371.760	59820
371.843	45901
371.926	82177
372.009	337554
372.091	239212
372.174	75501
372.257	146311
372.340	132340
372.423	56884
372.505	102094
372.588	57728
372.671	39703
372.754	142925
372.836	164123
372.919	51571
373.002	147680
373.085	94585
373.167	39285
373.250	69989
373.332	152726
373.415	181410
373.498	401331
373.580	320844
373.663	143273
373.746	347973
373.828	159533
373.911	53035
373.993	39025
374.076	82289
374.159	174569
374.241	61639
374.324	116688
374.406	171270
374.489	77316
374.571	295969
374.654	280016
374.736	74234
374.819	156538
374.901	274388
374.983	389705
375.066	152493
375.148	34686
375.231	51383
375.313	197077
375.395	148376
375.478	42694
375.560	21316
375.643	22894
375.725	40912
375.807	174187
375.890	287744
375.972	124817
376.054	64086
376.136	68090
376.219	57567
376.301	38104
376.383	185215
376.465	174191
376.548	63092
376.630	74694
376.712	142876
376.794	173740
376.877	31195
376.959	14173
377.041	17982
377.123	24907
377.205	59948
377.287	25330
377.369	12227
377.452	13177
377.534	14856
377.616	14042
377.698	16466
377.780	13490
377.862	15173
377.944	16431
378.026	13352
378.108	11369
378.190	12833
378.272	12061
378.354	10970
378.436	10782
378.518	14041
378.600	59349
378.682	84489
378.764	79160
378.846	138746
378.928	42637
379.010	48035
379.091	44881
379.173	16872
379.255	15036
379.337	16184
379.419	31860
379.501	127769
379.583	128265
379.664	27679
379.746	34108
379.828	86408
379.910	156499
379.991	172890
380.073	62302
380.155	22431
380.237	22030
380.318	14904
380.400	17218
380.482	20359
380.564	52694
380.645	48079
380.727	61865
380.809	39707
380.890	27784
380.972	24563
381.053	19786
381.135	19849
381.217	27585
381.298	100893
381.380	116166
381.461	47395
381.543	105656
381.624	296817
381.706	121517
381.787	41014
381.869	44861
381.951	52882
382.032	230103
382.113	345136
382.195	115576
382.276	55831
382.358	60865
382.439	157927
382.521	205225
382.602	297081
382.684	236470
382.765	207478
382.846	380754
382.928	535067
383.009	536297
383.090	258629
383.172	495512
383.253	1082356
383.334	657728
383.416	338491
383.497	296795
383.578	150442
383.659	204543
383.741	446397
383.822	1123092
383.903	1108301
383.984	415269
384.066	348002
384.147	371534
384.228	128139
384.309	62857
384.390	62196
384.471	44196
384.553	42533
384.634	45700
384.715	59753
384.796	39906
384.877	33569
384.958	63956
385.039	162417
385.120	101486
385.201	39103
385.282	38068
385.363	44986
385.444	43527
385.525	47208
385.606	111105
385.687	188266
385.768	67217
385.849	47316
385.930	94722
386.011	293114
386.092	190852
386.173	44410
386.254	27498
386.335	27132
386.416	27563
386.496	46991
386.577	132784
386.658	88717
386.739	42322
386.820	38217
386.901	34060
386.981	30905
387.062	23038
387.143	23272
387.224	69483
387.304	148462
387.385	66714
387.466	42681
387.547	46874
387.627	41281
387.708	33399
387.789	102363
387.869	259063
387.950	140736
388.031	27337
388.111	21428
388.192	37284
388.273	68955
388.353	64385
388.434	31622
388.514	29322
388.595	90561
388.676	241182
388.756	181213
388.837	102226
388.917	127462
388.998	36619
389.078	22994
389.159	19871
389.239	19782
389.320	23593
389.400	32827
389.480	29411
389.561	90285
389.641	107947
389.722	28619
389.802	42629
389.883	50355
389.963	93001
390.043	130670
390.124	53992
390.204	35290
390.284	101582
390.365	145962
390.445	70457
390.525	172219
390.605	243682
390.686	130972
390.766	47835
390.846	24796
390.927	15784
391.007	19759
391.087	20086
391.167	23800
391.247	23898
391.328	20710
391.408	35373
391.488	47794
391.568	22117
391.648	19542
391.728	33503
391.808	32283
391.888	35124
391.969	40669
392.049	111683
392.129	85426
392.209	47276
392.289	99601
392.369	121319
392.449	71303
392.529	79399
392.609	43804
392.689	41131
392.769	79586
392.849	157195
392.929	78166
393.009	145328
393.089	211558
393.169	129250
393.248	214108
393.328	657092
393.408	1168427
393.488	694732
393.568	224762
393.648	103193
393.728	64692
393.807	48943
393.887	39570
393.967	36564
394.047	36678
394.127	46688
394.206	56087
394.286	102497
394.366	368323
394.446	824261
394.525	457731
394.605	121364
394.685	60259
394.764	77251
394.844	144251
394.924	179593
395.003	74048
395.083	38567
395.163	33277
395.242	27707
395.322	31832
395.402	26653
395.481	27164
395.561	36600
395.640	134865
395.720	192655
395.799	152549
395.879	210229
395.958	105171
396.038	152242
396.117	509815
396.197	1004489
396.276	655510
396.356	245596
396.435	134520
396.515	103025
396.594	77295
396.673	107471
396.753	195437
396.832	647711
396.912	988442
396.991	470876
397.070	131027
397.150	64069
397.229	45011
397.308	38661
397.388	77274
397.467	81696
397.546	33293
397.625	22715
397.705	25410
397.784	29308
397.863	26854
397.942	16257
398.022	16114
398.101	22512
398.180	109037
398.259	148228
398.338	50311
398.417	24836
398.497	20444
398.576	17301
398.655	15649
398.734	13338
398.813	12964
398.892	18536
398.971	99041
399.050	151703
399.129	33259
399.208	11040
399.287	11036
399.366	10690
399.445	10998
399.524	11184
399.603	12077
399.682	16062
399.761	36596
399.840	93933
399.919	188110
399.998	55583
400.077	13533
400.156	10118
400.235	12210
400.313	12089
400.392	13765
400.471	27167
400.550	110997
400.629	76600
400.708	19649
400.786	16978
400.865	27185
400.944	64528
401.023	43691
401.102	12758
401.180	8332
401.259	9449
401.338	11567
401.416	16281
401.495	20300
401.574	16223
401.652	12918
401.731	15174
401.810	18758
401.888	16399
401.967	8233
402.046	10471
402.124	13081
402.203	22858
402.281	20960
402.360	13484
402.438	36212
402.517	68226
402.596	25041
402.674	17158
402.753	14905
402.831	10324
402.910	10432
402.988	18509
403.066	93711
403.145	152992
403.223	43285
403.302	86023
403.380	132331
403.459	94961
403.537	85537
403.615	28788
403.694	12879
403.772	7806
403.850	7942
403.929	7108
404.007	8385
404.085	13690
404.164	31366
404.242	22517
404.320	10213
404.398	14975
404.477	30017
404.555	110436
404.633	299346
404.711	107271
404.789	20353
404.868	14019
404.946	15206
405.024	8529
405.102	7065
405.180	8159
405.258	7550
405.336	8966
405.415	7414
405.493	16138
405.571	29414
405.649	15934
405.727	8791
405.805	12555
405.883	16022
405.961	15171
406.039	20447
406.117	18422
406.195	11770
406.273	24884
406.351	122027
406.429	228761
406.507	63833
406.585	22478
406.663	11919
406.740	17371
406.818	19494
406.896	15268
406.974	10225
407.052	12262
407.130	47313
407.208	199635
407.285	111610
407.363	16597
407.441	12089
407.519	11808
407.596	10548
407.674	17491
407.752	40524
407.830	83735
407.907	64141
407.985	25022
408.063	14009
408.141	8320
408.218	10733
408.296	23270
408.373	19952
408.451	15209
408.529	14978
408.606	11840
408.684	6968
408.762	6325
408.839	6429
408.917	6261
408.994	6790
409.072	9805
409.149	9650
409.227	10525
409.304	20407
409.382	18137
409.459	15864
409.537	19376
409.614	25100
409.692	22109
409.769	16876
409.846	20286
409.924	27483
410.001	35362
410.079	29256
410.156	18191
410.233	16626
410.311	16137
410.388	11805
410.465	12138
410.543	19525
410.620	15226
410.697	9521
410.775	14637
410.852	13063
410.929	10142
411.006	21452
411.083	17498
411.161	20055
411.238	46308
411.315	28357
411.392	14034
411.469	11446
411.547	23209
411.624	18778
411.701	14743
411.778	10050
411.855	17299
411.932	26214
412.009	11282
412.086	8604
412.163	8865
412.240	14318
412.317	14586
412.394	21713
412.471	13599
412.548	7009
412.625	7886
412.702	9703
412.779	18620
412.856	29005
412.933	13865
413.010	8609
413.087	7964
413.164	23554
413.241	104301
413.318	67444
413.395	16334
413.471	23439
413.548	24938
413.625	8279
413.702	10203
413.779	14523
413.855	7696
413.932	5176
414.009	5557
414.086	6462
414.162	5468
414.239	8551
414.316	22610
414.393	101662
414.469	119982
414.546	21041
414.623	7261
414.699	5915
414.776	9304
414.853	10957
414.929	7505
415.006	9712
415.082	9581
415.159	12054
415.236	8531
415.312	8597
415.389	10363
415.465	22855
415.542	22762
415.618	9179
415.695	13373
415.771	15702
415.848	11709
415.924	10706
416.000	10509
416.077	7958
416.153	5428
416.230	3901
416.306	4266
416.383	5085
416.459	6084
416.535	4830
416.612	4849
416.688	6764
416.764	5639
416.841	6429
416.917	6554
416.993	7850
417.069	7478
417.146	11668
417.222	16168
417.298	18462
417.374	9857
417.451	8448
417.527	9771
417.603	16295
417.679	13988
417.755	9827
417.831	8095
417.908	5988
417.984	4543
418.060	5637
418.136	8242
418.212	29048
418.288	21871
418.364	8644
418.440	6606
418.516	11358
418.592	14527
418.668	26241
418.744	43396
418.820	53644
418.896	26019
418.972	8324
419.048	6062
419.124	11506
419.200	27726
419.276	13794
419.352	4727
419.428	5614
419.504	6023
419.579	11258
419.655	11805
419.731	8892
419.807	13295
419.883	44455
419.959	60669
420.034	24656
420.110	11831
420.186	37171
420.262	103438
420.337	38031
420.413	14861
420.489	12727
420.565	8233
420.640	7394
420.716	9691
420.792	9231
420.867	9869
420.943	9092
421.019	12230
421.094	20896
421.170	12660
421.245	9875
421.321	9820
421.397	12059
421.472	13942
421.548	23906
421.623	44806
421.699	28237
421.774	18279
421.850	18520
421.925	21683
422.001	32326
422.076	25855
422.152	27835
422.227	38461
422.302	54717
422.378	63591
422.453	101078
422.529	181536
422.604	393671
422.679	664842
422.755	658387
422.830	556119
422.905	257949
422.981	131687
423.056	81221
423.131	57216
423.207	41128
423.282	33908
423.357	38415
423.432	48066
423.508	30436
423.583	38329
423.658	67371
423.733	32078
423.808	20756
423.883	22830
423.959	24094
424.034	21001
424.109	17581
424.184	13608
424.259	11524
424.334	10307
424.409	9581
424.484	7861
424.559	10971
424.634	10131
424.709	10314
424.784	15128
424.859	14883
424.934	11274
425.009	26893
425.084	87989
425.159	93810
425.234	21903
425.309	8067
425.384	9431
425.459	29387
425.534	29078
425.609	9746
425.683	9848
425.758	7563
425.833	7691
425.908	9933
425.983	14001
426.058	65557
426.132	111290
426.207	28382
426.282	13139
426.357	22661
426.431	14606
426.506	7452
426.581	8133
426.655	9493
426.730	8337
426.805	7562
426.879	9427
426.954	9024
427.029	10896
427.103	28062
427.178	129812
427.253	187133
427.327	45610
427.402	12911
427.476	29564
427.551	47685
427.625	14837
427.700	12616
427.774	10526
427.849	10057
427.923	10487
427.998	8365
428.072	8253
428.147	14559
428.221	29551
428.296	125321
428.370	222552
428.444	63971
428.519	19865
428.593	31301
428.667	54193
428.742	38991
428.816	53367
428.890	52999
428.965	208243
429.039	181581
429.113	60286
429.188	52093
429.262	15471
429.336	9832
429.410	27216
429.485	58978
429.559	28784
429.633	47911
429.707	24487
429.781	15226
429.855	52805
429.930	229458
430.004	211136
430.078	129406
430.152	200453
430.226	157297
430.300	316373
430.374	175152
430.448	33121
430.522	23004
430.596	89693
430.670	169414
430.744	91360
430.818	287370
430.892	223959
430.966	34988
431.040	13504
431.114	8843
431.188	7465
431.262	8135
431.336	6418
431.410	9022
431.484	30781
431.557	66825
431.631	23473
431.705	8907
431.779	13060
431.853	70805
431.927	206986
432.000	78023
432.074	12261
432.148	8615
432.222	13172
432.295	9899
432.369	6575
432.443	7951
432.516	19366
432.590	110096
432.664	172813
432.737	39968
432.811	9398
432.885	4995
432.958	3918
433.032	4889
433.106	4913
433.179	3675
433.253	4330
433.326	5236
433.400	4506
433.473	3226
433.547	3446
433.620	3647
433.694	5671
433.767	18549
433.841	9636
433.914	5744
433.988	3887
434.061	4737
434.134	5516
434.208	5439
434.281	3979
434.355	3028
434.428	4183
434.501	4920
434.575	4279
434.648	5559
434.721	5739
434.795	4211
434.868	3848
434.941	3499
435.014	3620
435.088	4114
435.161	4875
435.234	9369
435.307	17322
435.381	17607
435.454	9136
435.527	9305
435.600	10619
435.673	11233
435.746	8719
435.819	8418
435.892	8351
435.966	7574
436.039	5931
436.112	6601
436.185	5198
436.258	4070
436.331	4294
436.404	3782
436.477	3444
436.550	3356
436.623	3296
436.696	3468
436.769	4599
436.842	6287
436.915	4763
436.987	8266
437.060	9196
437.133	4333
437.206	3211
437.279	4683
437.352	3727
437.425	4657
437.498	4455
437.570	7161
437.643	20586
437.716	12596
437.789	3689
437.861	5653
437.934	24522
438.007	49698
438.080	12891
438.152	5612
438.225	8253
438.298	19784
438.370	129320
438.443	229985
438.516	77498
438.588	31203
438.661	7482
438.734	5384
438.806	5100
438.879	8849
438.951	8399
439.024	18530
439.096	23565
439.169	7442
439.241	4578
439.314	4691
439.386	6157
439.459	11613
439.531	15073
439.604	22531
439.676	7241
439.749	3632
439.821	3722
439.893	3593
439.966	3807
440.038	5612
440.110	10781
440.183	8955
440.255	5426
440.327	5782
440.400	10668
440.472	61469
440.544	179690
440.617	65072
440.689	15953
440.761	17269
440.833	28945
440.905	41428
440.978	17290
441.050	4761
441.122	4023
441.194	4062
441.266	4495
441.338	4457
441.411	5536
441.483	14662
441.555	81010
441.627	69982
441.699	14749
441.771	15956
441.843	13789
441.915	5673
441.987	4740
442.059	5885
442.131	6229
442.203	10828
442.275	15557
442.347	18211
442.419	14304
442.491	29731
442.563	142064
442.635	227366
442.706	72340
442.778	67366
442.850	32273
442.922	10886
442.994	7919
443.066	12559
443.137	18224
443.209	12382
443.281	13530
443.353	20956
443.425	46778
443.496	177682
443.568	444207
443.640	328572
443.711	100387
443.783	26450
443.855	16403
443.926	12138
443.998	8975
444.070	10840
444.141	12790
444.213	12740
444.285	18448
444.356	17410
444.428	14350
444.499	12510
444.571	6426
444.642	6096
444.714	6197
444.785	10589
444.857	16420
444.928	21908
445.000	41397
445.071	20308
445.143	34104
445.214	33126
445.285	24250
445.357	49157
445.428	121534
445.500	347461
445.571	523418
445.642	328587
445.714	158847
445.785	80277
445.856	59859
445.928	21510
445.999	23399
446.070	21036
446.141	16137
446.213	18540
446.284	17772
446.355	10707
446.426	10815
446.497	8357
446.569	8491
446.640	17318
446.711	21847
446.782	11765
446.853	5615
446.924	8589
446.995	8701
447.066	8479
447.138	9138
447.209	16587
447.280	6367
447.351	4277
447.422	3787
447.493	4257
447.564	9053
447.635	10645
447.706	12064
447.777	4975
447.847	3619
447.918	3380
447.989	5076
448.060	9817
448.131	13249
448.202	28951
448.273	21429
448.344	16198
448.414	5212
448.485	5418
448.556	4513
448.627	4004
448.698	3550
448.768	3136
448.839	3371
448.910	6403
448.981	16215
449.051	11412
449.122	4933
449.193	3846
449.263	3322
449.334	4542
449.405	5015
449.475	9574
449.546	19242
449.616	11438
449.687	18494
449.758	10745
449.828	5617
449.899	5799
449.969	5272
450.040	4155
450.110	4168
450.181	6600
450.251	6009
450.322	4771
450.392	4608
450.463	5243
450.533	3802
450.604	4363
450.674	3723
450.744	4997
450.815	4971
450.885	4685
450.955	4148
451.026	4508
451.096	4437
451.166	6251
451.237	7031
451.307	22729
451.377	38488
451.447	10407
451.518	5084
451.588	5114
451.658	5400
451.728	5556
451.799	12289
451.869	51425
451.939	34395
452.009	7752
452.079	4814
452.149	5097
452.219	5581
452.289	16421
452.360	53973
452.430	23508
452.500	6470
452.570	8243
452.640	9171
452.710	14493
452.780	45434
452.850	49626
452.920	38574
452.990	28024
453.060	9700
453.129	8744
453.199	14122
453.269	15346
453.339	105805
453.409	196321
453.479	103282
453.549	162889
453.619	211444
453.688	211300
453.758	50924
453.828	11311
453.898	7457
453.968	6387
454.037	5916
454.087	5198
454.107	4902
454.168	4995
454.177	5002
454.247	3725
454.249	3759
454.316	4285
454.330	4433
454.386	4877
454.411	5950
454.456	7326
454.492	19224
454.525	29810
454.574	28873
454.595	28654
454.655	10110
454.665	7106
454.734	5755
454.736	5867
454.804	8155
454.817	9628
454.873	14469
454.898	25929
454.943	46634
454.979	39556
455.013	33626
455.060	18014
455.082	11033
455.141	7041
455.152	6205
455.221	9664
455.222	10032
455.291	31526
455.303	33545
455.360	44331
455.384	32960
455.430	12041
455.465	11745
455.499	11172
455.546	15466
455.569	16640
455.627	33000
455.638	36505
455.707	15294
455.708	15235
455.777	5116
455.789	5000
455.846	4233
455.869	4512
455.916	5145
455.950	4746
455.985	4367
456.031	4810
456.054	4942
456.112	5057
456.124	5096
456.193	4294
456.193	4282
456.262	3762
456.274	4030
456.332	5225
456.355	5466
456.401	5519
456.436	5876
456.470	6368
456.516	4911
456.540	4197
456.597	3422
456.609	3254
456.678	3721
456.678	3714
456.747	3161
456.759	3174
456.817	3176
456.840	3225
456.886	3323
456.920	3339
456.955	3433
457.001	3943
457.024	4250
457.082	4607
457.093	4652
457.162	6040
457.163	6066
457.232	7230
457.243	7376
457.301	7607
457.324	6456
457.370	4548
457.405	4390
457.439	4403
457.485	3874
457.508	3738
457.566	5232
457.577	5502
457.646	5966
457.647	5993
457.715	8908
457.727	9700
457.784	14216
457.808	16282
457.853	18569
457.889	24738
457.922	27556
457.969	28524
457.991	31839
458.050	26926
458.060	26249
458.129	32761
458.130	33195
458.198	36481
458.211	37514
458.267	42823
458.292	33611
458.336	21644
458.372	16730
458.405	15066
458.453	18162
458.474	21292
458.533	32759
458.543	33495
458.611	47923
458.614	49199
458.680	58399
458.694	52795
458.749	43127
458.775	31657
458.818	15075
458.855	11102
458.887	8146
458.936	7022
458.955	6649
459.016	6156
459.024	6050
459.093	6051
459.097	6003
459.162	5709
459.177	5953
459.230	6689
459.257	6911
459.299	7111
459.338	8043
459.368	8876
459.418	8902
459.437	8341
459.499	9052
459.505	9253
459.574	6715
459.579	6661
459.643	6035
459.659	5959
459.711	5813
459.740	5644
459.780	5381
459.820	5658
459.849	6130
459.900	7007
459.917	7058
459.981	6961
459.986	6946
460.054	7296
460.061	7235
460.123	7304
460.141	7484
460.191	8701
460.222	9490
460.260	9991
460.302	11063
460.328	10764
460.382	10908
460.397	11223
460.462	8840
460.465	8867
460.534	10795
460.543	11204
460.602	22364
460.623	26233
460.671	37944
460.703	47648
460.739	41349
460.783	45252
460.808	46727
460.864	25959
460.876	24509
460.944	7956
460.945	7763
461.013	6643
461.024	6540
461.081	6408
461.104	6570
461.150	6312
461.184	6353
461.218	6507
461.264	5995
461.286	5924
461.345	5895
461.355	5788
461.423	5805
461.425	5789
461.491	6308
461.505	6478
461.559	10677
461.585	12503
461.628	18600
461.665	24951
461.696	27400
461.745	33442
461.764	29409
461.825	22660
461.832	23845
461.901	11246
461.905	10968
461.969	6797
461.985	6721
462.037	6768
462.065	6584
462.105	7474
462.145	8418
462.173	10533
462.225	14579
462.241	16100
462.305	22608
462.310	21902
462.378	15704
462.385	14480
462.446	13566
462.465	11474
462.514	7366
462.545	7255
462.582	7089
462.625	7164
462.650	6937
462.705	6075
462.718	6363
462.785	8023
462.786	8056
462.854	10145
462.865	10467
462.922	12367
462.945	13519
462.990	10891
463.025	8894
463.058	9158
463.104	6974
463.126	6396
463.184	6690
463.194	6816
463.262	7615
463.264	7654
463.330	6851
463.344	6688
463.398	7793
463.424	8187
463.466	7741
463.504	7315
463.533	7368
463.583	7869
463.601	8082
463.663	8124
463.669	8393
463.737	11635
463.743	11951
463.805	17204
463.823	18881
463.873	27695
463.903	32690
463.940	33740
463.982	36768
464.008	30695
464.062	18819
464.076	18921
464.142	10252
464.144	10104
464.211	7269
464.221	7244
464.279	7645
464.301	7818
464.347	8475
464.381	8994
464.414	9467
464.461	10264
464.482	10796
464.540	12179
464.550	11892
464.617	10283
464.620	10179
464.685	11489
464.699	11806
464.753	12151
464.779	12554
464.820	13244
464.859	13907
464.888	13887
464.938	13669
464.956	13799
465.018	13839
465.023	13653
465.091	11832
465.098	11543
465.158	11310
465.177	11288
465.226	11041
465.257	11001
465.293	11751
465.336	12469
465.361	12995
465.416	14321
465.428	15469
465.495	21473
465.496	21571
465.563	32454
465.575	34260
465.631	41841
465.654	45483
465.698	29014
465.734	15825
465.765	16095
465.813	12879
465.833	11798
465.893	10549
465.900	10604
465.968	11703
465.972	11764
466.035	11805
466.052	11804
466.102	12094
466.131	12240
466.170	12135
466.210	11982
466.237	12251
466.290	12780
466.304	13008
466.369	13900
466.372	13953
466.439	15046
466.449	15184
466.506	16184
466.528	16542
466.573	22236
466.607	26406
466.641	36601
466.687	50814
466.708	56006
466.766	70030
466.775	65012
466.842	27595
466.845	25768
466.909	21171
466.925	19942
466.977	18467
467.004	18014
467.044	18371
467.083	18759
467.111	19500
467.163	20819
467.178	21210
467.242	22719
467.245	22662
467.312	20825
467.321	20556
467.379	19446
467.400	18989
467.446	20421
467.480	21407
467.559	18945
467.638	16235
467.717	17138
467.796	17197
467.875	20114
467.955	18736
468.034	27107
468.113	54848
468.192	82738
468.271	24312
468.350	18419
468.429	19406
468.508	20358
468.588	17157
468.667	17201
468.746	17585
468.825	16177
468.904	14413
468.983	17315
469.062	23048
469.141	29588
469.220	13186
469.299	14069
469.378	15161
469.456	16756
469.535	16242
469.614	15432
469.693	16366
469.772	20775
469.851	27020
469.930	20815
470.009	15453
470.088	15968
470.166	19546
470.245	28301
470.324	32892
470.403	23812
470.482	17963
470.560	15873
470.639	15796
470.718	17509
470.797	15575
470.875	18100
470.954	23475
471.033	25248
471.111	12397
471.190	11503
471.269	12149
471.347	11610
471.426	12646
471.505	14906
471.583	15620
471.662	14006
471.740	13584
471.819	13843
471.898	13679
471.976	12277
472.055	12672
472.133	14061
472.212	19446
472.290	20710
472.369	13962
472.447	13257
472.526	10868
472.604	12561
472.683	12934
472.761	14834
472.839	13171
472.918	13611
472.996	13303
473.075	14422
473.153	14389
473.231	12928
473.310	15388
473.388	15043
473.466	13876
473.545	15824
473.623	18829
473.701	20002
473.780	13999
473.858	13815
473.936	15079
474.014	12973
474.093	14603
474.171	21006
474.249	27464
474.327	19410
474.405	13031
474.484	12179
474.562	12332
474.640	12530
474.718	13237
474.796	14324
474.874	12522
474.952	12148
475.030	12538
475.108	13595
475.187	15938
475.265	16801
475.343	22044
475.421	24789
475.499	13749
475.577	13395
475.655	16571
475.733	32429
475.811	54576
475.889	48830
475.966	35175
476.044	13776
476.122	16941
476.200	22164
476.278	17430
476.356	12718
476.434	13532
476.512	16401
476.590	21200
476.667	17816
476.745	12142
476.823	13854
476.901	12024
476.979	12996
477.056	13239
477.134	13722
477.212	15008
477.290	13454
477.367	11688
477.445	11305
477.523	11557
477.601	11874
477.678	11770
477.756	14281
477.834	16051
477.911	11864
477.989	11878
478.066	11762
478.144	13578
478.222	16526
478.299	24786
478.377	24685
478.454	11567
478.532	10747
478.609	12390
478.687	12585
478.764	11375
478.842	12067
478.919	12962
478.997	13208
479.074	10740
479.152	13268
479.229	15803
479.307	12229
479.384	9671
479.461	10185
479.539	11613
479.616	13153
479.694	11083
479.771	12300
479.848	13232
479.926	17991
480.003	19106
480.080	11534
480.157	9321
480.235	10370
480.312	10253
480.389	12421
480.467	18898
480.544	24246
480.621	14101
480.698	13304
480.775	15297
480.853	14767
480.930	12087
481.007	12272
481.084	14047
481.161	16739
481.238	15174
481.315	10909
481.392	10968
481.470	11830
481.547	12203
481.624	11225
481.701	11558
481.778	11755
481.855	13142
481.932	19385
482.009	31489
482.086	25207
482.163	13284
482.240	19764
482.317	32364
482.393	28251
482.470	12181
482.547	12695
482.624	12257
482.701	13386
482.778	13454
482.855	10789
482.932	11134
483.009	10807
483.085	12955
483.162	16875
483.239	15332
483.316	13204
483.393	11498
483.469	12249
483.546	13211
483.623	14356
483.699	10036
483.776	11476
483.853	12979
483.930	19590
484.006	46141
484.083	81198
484.160	40447
484.236	51242
484.313	42168
484.389	32860
484.466	28557
484.543	27817
484.619	28850
484.696	30758
484.772	31226
484.849	33744
484.925	26967
485.002	25888
485.078	28691
485.155	29392
485.231	25303
485.308	25131
485.384	26397
485.461	31424
485.537	48653
485.614	61917
485.690	26285
485.766	24390
485.843	26399
485.919	36016
485.995	39764
486.072	23260
486.148	22759
486.224	22558
486.301	22886
486.377	27628
486.453	29787
486.530	26669
486.606	30593
486.682	37347
486.758	42661
486.835	53134
486.911	39393
486.987	63301
487.063	71105
487.139	88890
487.215	63532
487.292	31165
487.368	26027
487.444	30010
487.520	37664
487.596	39706
487.672	54962
487.748	130084
487.824	212085
487.900	88791
487.976	37210
488.052	33026
488.128	39849
488.204	32756
488.280	25205
488.356	30117
488.432	54506
488.508	92058
488.584	34858
488.660	23341
488.736	22901
488.812	23702
488.888	29345
488.964	39709
489.039	80343
489.115	129057
489.191	82823
489.267	26212
489.343	23728
489.418	20369
489.494	20523
489.570	19582
489.646	19276
489.722	19398
489.797	21852
489.873	31175
489.949	62713
490.024	62701
490.100	20660
490.176	20230
490.251	24743
490.327	32986
490.403	20679
490.478	18045
490.554	16328
490.629	16763
490.705	17297
490.781	19069
490.856	18338
490.932	21702
491.007	21541
491.083	20215
491.158	19107
491.234	24359
491.309	48277
491.385	56496
491.460	20216
491.536	19874
491.611	18321
491.686	19080
491.762	26795
491.837	51242
491.913	94136
491.988	117829
492.063	165481
492.139	48451
492.214	28846
492.289	16985
492.365	15974
492.440	19790
492.515	19029
492.590	18632
492.666	15940
492.741	20410
492.816	30721
492.891	19731
492.967	14916
493.042	13398
493.117	13585
493.192	13912
493.267	15879
493.342	20317
493.418	20739
493.493	15468
493.568	12756
493.643	13959
493.718	18209
493.793	27440
493.868	31457
493.943	21565
494.018	15947
494.093	14881
494.168	15248
494.243	13771
494.318	12064
494.393	13396
494.468	12945
494.543	13638
494.618	15754
494.693	14702
494.768	14012
494.842	15621
494.917	12645
494.992	13925
495.067	12555
495.142	12310
495.217	13765
495.292	12745
495.366	14783
495.441	19485
495.516	24040
495.591	37019
495.665	106329
495.740	265593
495.815	132015
495.890	24305
495.964	19415
496.039	19671
496.114	19202
496.188	20527
496.263	21426
496.338	17940
496.412	20748
496.487	24200
496.561	24255
496.636	27286
496.710	20882
496.785	23272
496.860	26502
496.934	22477
497.009	21661
497.083	23043
497.158	23485
497.232	27145
497.307	33056
497.381	29156
497.455	31404
497.530	40621
497.604	31864
497.679	31567
497.753	45055
497.827	61685
497.902	57229
497.976	63091
498.050	117873
498.125	366945
498.199	448881
498.273	95311
498.348	72748
498.422	60350
498.496	55004
498.570	50368
498.645	37817
498.719	34928
498.793	37708
498.867	49413
498.941	70947
499.016	152606
499.090	419081
499.164	189906
499.238	26752
499.312	23400
499.386	28316
499.460	26854
499.534	22824
499.609	26699
499.683	38170
499.757	37857
499.831	71550
499.905	262491
499.979	305731
500.053	49522
500.127	47337
500.201	35711
500.275	22653
500.349	21227
500.422	23988
500.496	34263
500.570	72269
500.644	155547
500.718	312396
500.792	86942
500.866	20516
500.940	26312
501.013	22616
501.087	21295
501.161	35598
501.235	53528
501.309	94184
501.382	251512
501.456	272833
501.530	58174
501.603	89606
501.677	45749
501.751	16860
501.825	20859
501.898	36841
501.972	104313
502.046	84317
502.119	22703
502.193	46360
502.266	117766
502.340	72549
502.413	49852
502.487	107497
502.561	67049
502.634	25692
502.708	18456
502.781	16576
502.855	14525
502.928	12265
503.002	12703
503.075	11127
503.149	13739
503.222	12042
503.295	14895
503.369	16390
503.442	26384
503.516	72854
503.589	201982
503.662	155710
503.736	44303
503.809	88731
503.882	93640
503.956	106392
504.029	128813
504.102	84245
504.175	117219
504.249	53540
504.322	28810
504.395	22731
504.468	16026
504.542	15699
504.615	12970
504.688	11466
504.761	11335
504.834	14569
504.907	18291
504.980	30725
505.053	18359
505.127	19757
505.200	23243
505.273	20782
505.346	14992
505.419	12453
505.492	10793
505.565	10033
505.638	9759
505.711	10405
505.784	9994
505.857	9459
505.930	10072
506.003	10450
506.076	11713
506.149	13345
506.221	19348
506.294	17620
506.367	42521
506.440	139707
506.513	101074
506.586	20038
506.659	14755
506.731	11368
506.804	13527
506.877	21489
506.950	15668
507.022	9878
507.095	14580
507.168	18347
507.241	12473
507.313	10070
507.386	12540
507.459	16100
507.531	12512
507.604	9646
507.677	9385
507.749	8977
507.822	13249
507.894	23551
507.967	31001
508.040	17261
508.112	14695
508.185	13917
508.257	14797
508.330	20408
508.402	15506
508.475	13566
508.547	14951
508.620	14391
508.692	22162
508.765	16119
508.837	11272
508.909	11090
508.982	11960
509.054	12895
509.127	12547
509.199	11856
509.271	10686
509.344	10431
509.416	9954
509.488	10364
509.560	11251
509.633	12716
509.705	14365
509.777	12428
509.849	18545
509.922	14729
509.994	11298
510.066	11103
510.138	13076
510.210	21469
510.283	22809
510.355	17696
510.427	15844
510.499	15128
510.571	14300
510.643	15563
510.715	22704
510.787	23202
510.859	15042
510.931	17784
511.003	23121
511.076	23038
511.148	14961
511.219	13214
511.291	20600
511.363	27895
511.435	14092
511.507	12270
511.579	12731
511.651	12596
511.723	11908
511.795	12573
511.867	12581
511.939	15588
512.010	28676
512.082	28233
512.154	14221
512.226	13741
512.298	18081
512.369	28584
512.441	23028
512.513	21486
512.585	19048
512.656	16266
512.728	20558
512.800	16021
512.871	14995
512.943	14562
513.015	13241
513.086	14208
513.158	16419
513.230	16332
513.301	23185
513.373	26498
513.444	17784
513.516	13756
513.588	14710
513.659	15054
513.731	19402
513.802	19659
513.874	31681
513.945	59867
514.016	27400
514.088	13979
514.159	17211
514.231	19864
514.302	26705
514.374	20427
514.445	20412
514.516	32654
514.588	32393
514.659	19153
514.730	33312
514.802	29841
514.873	24448
514.944	24133
515.016	21883
515.087	23319
515.158	27791
515.229	38542
515.301	28151
515.372	34407
515.443	27064
515.514	20505
515.585	16694
515.656	15224
515.728	15329
515.799	14252
515.870	14927
515.941	16048
516.012	17609
516.083	19267
516.154	22599
516.225	26881
516.296	24953
516.367	22084
516.438	24170
516.509	34221
516.580	56807
516.651	161847
516.722	553631
516.793	338031
516.864	50151
516.935	41532
517.006	46955
517.077	75482
517.148	184010
517.219	566140
517.289	1072573
517.360	308992
517.431	99920
517.502	29521
517.573	26322
517.643	24098
517.714	25332
517.785	26394
517.856	27115
517.926	28973
517.997	32866
518.068	43298
518.138	65002
518.209	125943
518.280	395049
518.350	1325261
518.421	733267
518.492	89401
518.562	43417
518.633	39369
518.703	41533
518.774	62243
518.845	128488
518.915	145782
518.986	57145
519.056	38590
519.127	54935
519.197	82962
519.268	162022
519.338	135620
519.408	32578
519.479	36679
519.549	31363
519.620	19777
519.690	17486
519.760	16359
519.831	17276
519.901	18978
519.971	14573
520.042	16610
520.112	19922
520.182	21158
520.253	24971
520.323	17358
520.393	20560
520.463	31549
520.534	22743
520.604	38252
520.674	24340
520.744	21523
520.814	43569
520.885	49363
520.955	54213
521.025	176477
521.095	107308
521.165	17177
521.235	16846
521.305	16210
521.375	13724
521.445	15324
521.515	20461
521.585	23552
521.655	25673
521.725	18083
521.795	18154
521.865	14826
521.935	19819
522.005	21148
522.075	14056
522.145	13658
522.215	16286
522.285	22906
522.355	29950
522.424	50345
522.494	53613
522.564	30070
522.634	45160
522.704	127334
522.774	71886
522.843	16284
522.913	14682
522.983	19870
523.053	16578
523.122	16198
523.192	25424
523.262	63932
523.331	84069
523.401	18701
523.471	12751
523.540	13534
523.610	11823
523.680	11033
523.749	12633
523.819	15324
523.888	17761
523.958	12385
524.027	12884
524.097	14370
524.166	13138
524.236	15499
524.305	14639
524.375	13232
524.444	12135
524.514	13096
524.583	13835
524.653	17732
524.722	18791
524.791	14640
524.861	13036
524.930	13103
524.999	13660
525.069	17375
525.138	17143
525.207	17964
525.277	15512
525.346	14339
525.415	13257
525.484	13772
525.554	16867
525.623	16755
525.692	15026
525.761	15489
525.830	15608
525.900	18662
525.969	28535
526.038	50763
526.107	91752
526.176	258537
526.245	265518
526.314	89735
526.383	130703
526.452	223952
526.522	278605
526.591	380427
526.660	103491
526.729	50088
526.797	51564
526.867	111452
526.935	380600
527.004	692174
527.073	503369
527.142	55356
527.211	22399
527.280	20074
527.349	21544
527.418	13370
527.487	13201
527.555	12475
527.624	11653
527.693	10896
527.762	12198
527.831	10623
527.899	11019
527.968	12048
528.037	13191
528.106	13648
528.174	23940
528.243	23813
528.312	26704
528.380	39725
528.449	17569
528.518	10872
528.586	10366
528.655	9812
528.723	10610
528.792	10259
528.861	12119
528.929	10489
528.998	10350
529.066	9481
529.135	10208
529.203	9037
529.272	9936
529.340	11062
529.409	10612
529.477	10586
529.545	13695
529.614	15583
529.682	15827
529.751	19452
529.819	16833
529.887	16087
529.956	11319
530.024	11346
530.092	11294
530.161	13015
530.229	20093
530.297	14191
530.365	10850
530.434	10709
530.502	10062
530.570	9762
530.638	9606
530.707	11069
530.775	11672
530.843	11242
530.911	10678
530.979	10498
531.047	10856
531.115	11295
531.183	10500
531.252	10445
531.320	11181
531.388	10404
531.456	10914
531.524	10895
531.592	10936
531.660	12896
531.728	11708
531.796	10773
531.864	10390
531.932	11500
532.000	11850
532.067	11830
532.135	12914
532.203	13365
532.271	16389
532.339	22826
532.407	53000
532.475	43780
532.542	17913
532.610	20681
532.678	32515
532.746	86617
532.814	259661
532.881	95250
532.949	15848
533.017	13760
533.084	12189
533.152	12104
533.220	11882
533.287	14115
533.355	11939
533.423	11724
533.490	12500
533.558	11440
533.625	12105
533.693	12881
533.761	13114
533.828	12758
533.896	14382
533.963	21021
534.031	28630
534.098	37611
534.166	25842
534.233	12668
534.300	12705
534.368	12243
534.435	12166
534.503	12915
534.570	15040
534.637	14544
534.705	16341
534.772	21094
534.840	36290
534.907	106718
534.974	196668
535.041	36037
535.109	18108
535.176	13699
535.243	12831
535.310	12957
535.378	12924
535.445	11095
535.512	12455
535.579	11515
535.646	12126
535.714	13132
535.781	14379
535.848	12921
535.915	14377
535.982	13624
536.049	13208
536.116	13402
536.183	12349
536.250	13698
536.317	14221
536.384	16077
536.451	20741
536.518	22771
536.585	17965
536.652	20073
536.719	27011
536.786	23553
536.853	19278
536.920	23592
536.987	40419
537.053	44995
537.120	113638
537.187	146419
537.254	21057
537.321	13937
537.388	14140
537.454	12639
537.521	13628
537.588	12461
537.654	14608
537.721	15928
537.788	16242
537.855	14652
537.921	13960
537.988	15074
538.055	14731
538.121	14666
538.188	15587
538.254	20636
538.321	37554
538.388	28575
538.454	16725
538.521	14669
538.587	13325
538.654	13274
538.720	14361
538.787	12481
538.853	14262
538.920	16622
538.986	17376
539.053	15817
539.119	15636
539.185	15416
539.252	16354
539.318	24434
539.385	21327
539.451	18454
539.517	19388
539.583	22442
539.650	38198
539.716	103677
539.782	47135
539.849	15420
539.915	16056
539.981	16371
540.047	17949
540.114	17061
540.180	16041
540.246	18644
540.312	22973
540.378	36871
540.444	45184
540.510	42031
540.576	110653
540.643	59798
540.709	15938
540.775	14792
540.841	15092
540.907	18534
540.973	29013
541.039	25165
541.105	26373
541.171	17733
541.237	16800
541.303	16158
541.369	19074
541.435	21808
541.500	33390
541.566	27499
541.632	15369
541.698	13351
541.764	14529
541.830	13946
541.896	13391
541.961	14488
542.027	16115
542.093	14764
542.159	16514
542.224	18271
542.290	23271
542.356	32606
542.421	40468
542.487	22025
542.553	17136
542.618	17392
542.684	16314
542.750	16133
542.815	21134
542.881	32096
542.947	88299
543.012	98825
543.078	17670
543.143	13871
543.209	15707
543.274	18407
543.340	20117
543.405	36189
543.471	71854
543.536	24265
543.602	15651
543.667	14460
543.732	14392
543.798	14248
543.863	15390
543.928	14162
543.994	13927
544.059	14200
544.124	14156
544.190	13669
544.255	13839
544.320	14650
544.386	16175
544.451	20151
544.516	26203
544.581	26664
544.646	53991
544.712	114335
544.777	34225
544.842	19556
544.907	21358
544.972	19806
545.037	18199
545.102	18622
545.168	19528
545.233	19469
545.298	21343
545.363	24228
545.428	28810
545.493	39196
545.558	82855
545.623	52760
545.688	21786
545.753	19228
545.818	20147
545.883	20200
545.947	20336
546.012	22259
546.077	22881
546.142	21876
546.207	23192
546.272	25297
546.337	28654
546.401	23057
546.466	23446
546.531	22472
546.596	24215
546.661	25008
546.725	23346
546.790	23168
546.855	23706
546.919	24219
546.984	25876
547.049	28270
547.113	32815
547.178	32675
547.243	36070
547.307	40034
547.372	45547
547.436	49558
547.501	44642
547.565	46176
547.630	47692
547.695	47356
547.759	47477
547.823	47571
547.888	41026
547.952	42324
548.017	45265
548.081	49194
548.146	54925
548.210	52459
548.274	48667
548.339	46763
548.403	43833
548.468	42542
548.532	40173
548.596	41051
548.660	43243
548.725	45815
548.789	51925
548.853	54514
548.917	48525
548.982	50671
549.046	52237
549.110	39580
549.174	38084
549.238	41443
549.303	45323
549.367	47071
549.431	45969
549.495	42926
549.559	42904
549.623	46410
549.687	55050
549.751	62826
549.815	63705
549.879	61957
549.943	57881
550.007	61392
550.071	61678
550.135	61894
550.199	57501
550.263	52647
550.327	51359
550.391	58180
550.455	59444
550.519	57243
550.582	62224
550.646	72830
550.710	80838
550.774	68433
550.838	67265
550.901	68235
550.965	73406
551.029	78703
551.093	86803
551.156	98542
551.220	125582
551.284	159485
551.347	110788
551.411	112017
551.475	137484
551.538	80767
551.602	70406
551.666	62929
551.729	61546
551.793	58061
551.856	58866
551.920	55636
551.983	56615
552.047	55704
552.110	55426
552.174	56275
552.237	58560
552.301	56217
552.364	52188
552.428	52000
552.491	53149
552.554	55008
552.618	55110
552.681	58036
552.745	61461
552.808	74409
552.871	96448
552.934	78885
552.998	60084
553.061	56473
553.124	53958
553.187	50443
553.251	53598
553.314	53934
553.377	52409
553.440	56022
553.503	58823
553.567	63020
553.630	54973
553.693	54613
553.756	54970
553.819	51692
553.882	51529
553.945	50046
554.008	50599
554.071	50113
554.134	51146
554.197	48433
554.260	47367
554.323	48130
554.386	50398
554.449	51183
554.512	52094
554.575	48901
554.638	51070
554.701	49452
554.764	47323
554.827	47378
554.889	45694
554.952	42527
555.015	41224
555.078	42368
555.141	44335
555.203	42719
555.266	42319
555.329	42890
555.391	42184
555.454	41116
555.517	41037
555.580	39120
555.642	37427
555.705	36838
555.768	36930
555.830	37490
555.893	34071
555.955	34693
556.018	34232
556.080	34826
556.143	36101
556.206	34510
556.268	35577
556.330	36146
556.393	35161
556.455	34120
556.518	39617
556.580	44203
556.643	33188
556.705	29989
556.767	31034
556.830	31589
556.892	33168
556.955	38888
557.017	38538
557.079	31085
557.142	30075
557.204	32307
557.266	44392
557.328	49303
557.391	29785
557.453	26743
557.515	27423
557.577	28268
557.639	32564
557.701	27135
557.764	26480
557.826	26135
557.888	28596
557.950	31038
558.012	36227
558.074	46360
558.136	75410
558.198	197207
558.260	122520
558.322	32308
558.384	29858
558.446	32683
558.508	38444
558.570	48365
558.632	71460
558.694	123658
558.756	158893
558.818	291129
558.880	838687
558.942	469149
559.003	205050
559.065	156990
559.127	45381
559.189	45055
559.251	60378
559.312	89624
559.374	162551
559.436	486772
559.498	440221
559.559	65418
559.621	48721
559.683	60884
559.744	97690
559.806	213061
559.868	469965
559.929	151207
559.991	58928
560.052	75922
560.114	177617
560.176	192073
560.237	97336
560.299	208278
560.360	84082
560.422	26543
560.483	24139
560.545	23049
560.606	21833
560.667	22273
560.729	21995
560.790	19980
560.852	20512
560.913	20749
560.974	19802
561.036	19529
561.097	20717
561.158	19918
561.220	20278
561.281	19731
561.342	20298
561.403	25431
561.465	28679
561.526	44891
561.587	76661
561.648	34161
561.709	20584
561.771	19567
561.832	19414
561.893	18965
561.954	19905
562.015	18292
562.076	18909
562.137	18967
562.198	19678
562.259	18344
562.320	19519
562.381	21525
562.442	25229
562.503	26804
562.564	19154
562.625	17900
562.686	18303
562.747	19719
562.808	21245
562.869	18627
562.930	22137
562.991	21802
563.051	21572
563.112	19476
563.173	19052
563.234	17575
563.294	18893
563.355	17556
563.416	19525
563.477	17874
563.537	19311
563.598	20051
563.659	19529
563.720	19573
563.780	19414
563.841	20271
563.901	19934
563.962	18585
564.023	17878
564.083	19839
564.144	19258
564.204	18862
564.265	19741
564.325	22185
564.386	31466
564.446	38939
564.507	20385
564.567	18623
564.628	19028
564.688	18492
564.749	18581
564.809	19785
564.869	23056
564.930	20532
564.990	18304
565.050	17344
565.111	17862
565.171	17742
565.231	18834
565.292	18733
565.352	17940
565.412	18603
565.472	18384
565.532	19354
565.593	19893
565.653	18515
565.713	18803
565.773	21442
565.833	22129
565.893	25691
565.953	22380
566.013	20375
566.074	22353
566.134	25101
566.194	32647
566.254	38643
566.314	29384
566.374	23542
566.434	22233
566.494	23082
566.554	23091
566.614	23839
566.673	25629
566.733	25155
566.793	27422
566.853	28044
566.913	28351
566.973	28809
567.033	30342
567.092	30821
567.152	29819
567.212	29630
567.272	29731
567.331	31904
567.391	32049
567.451	33873
567.511	36885
567.570	40886
567.630	31354
567.690	28889
567.749	28493
567.809	29392
567.868	33224
567.928	37040
567.988	43782
568.047	50934
568.107	62542
568.166	82499
568.226	116279
568.285	168137
568.345	162825
568.404	129158
568.464	109863
568.523	100984
568.582	102147
568.642	114403
568.701	139060
568.761	183902
568.820	272660
568.879	308637
568.939	241700
568.998	181392
569.057	139050
569.116	108934
569.176	88822
569.235	73175
569.294	62777
569.353	55170
569.413	48057
569.472	43999
569.531	40116
569.590	35859
569.649	34223
569.708	31181
569.767	31717
569.827	32509
569.886	32438
569.945	25996
570.004	25407
570.063	25575
570.122	25686
570.181	25755
570.240	25549
570.299	26714
570.358	26760
570.417	23814
570.475	20791
570.534	22163
570.593	21302
570.652	21186
570.711	23511
570.770	20254
570.829	21933
570.887	20384
570.946	22115
571.005	19879
571.064	18869
571.122	19898
571.181	21402
571.240	20361
571.299	18775
571.357	17809
571.416	19295
571.475	19238
571.533	23093
571.592	18650
571.650	19202
571.709	17233
571.768	16718
571.826	17787
571.885	17359
571.943	17041
572.002	16067
572.060	17016
572.119	15692
572.177	14879
572.236	14834
572.294	14744
572.352	15080
572.411	15369
572.469	14968
572.528	15442
572.586	15982
572.644	17225
572.703	22869
572.761	19725
572.819	16021
572.877	15029
572.936	14729
572.994	14302
573.052	14307
573.110	14895
573.169	15619
573.227	14285
573.285	14905
573.343	14503
573.401	13908
573.459	15046
573.517	14559
573.576	14762
573.634	14864
573.692	15771
573.750	14915
573.808	14484
573.866	15084
573.924	16627
573.982	17712
574.040	15739
574.098	14753
574.155	13930
574.213	13655
574.271	13799
574.329	15121
574.387	14150
574.445	13578
574.503	13150
574.560	12115
574.618	12442
574.676	12752
574.734	13153
574.792	13375
574.849	12532
574.907	13031
574.965	12928
575.022	12404
575.080	12372
575.138	13470
575.195	12382
575.253	13071
575.311	14655
575.368	13931
575.426	11580
575.483	13043
575.541	11538
575.598	12154
575.656	12245
575.713	13212
575.771	12779
575.828	13144
575.886	12364
575.943	12765
576.001	13522
576.058	14288
576.115	13800
576.173	15307
576.230	16837
576.287	18911
576.345	16815
576.402	13945
576.459	14676
576.517	14554
576.574	15005
576.631	15656
576.688	13419
576.746	13471
576.803	13533
576.860	14227
576.917	13138
576.974	13633
577.031	12943
577.089	13230
577.146	13808
577.203	14165
577.260	13862
577.317	14687
577.374	15393
577.431	16178
577.488	14429
577.545	13594
577.602	13426
577.659	13193
577.716	12455
577.773	12912
577.830	12260
577.886	13149
577.943	12065
578.000	13201
578.057	12873
578.114	13821
578.171	13563
578.227	13333
578.284	12986
578.341	14245
578.398	13413
578.454	14531
578.511	15014
578.568	16886
578.625	15788
578.681	13849
578.738	11924
578.794	13262
578.851	13284
578.908	13785
578.964	13477
579.021	14729
579.077	13509
579.134	14285
579.190	13223
579.247	13368
579.303	12876
579.360	13277
579.416	12112
579.473	12181
579.529	12645
579.586	13233
579.642	13144
579.698	12728
579.755	13721
579.811	14408
579.867	13885
579.924	13354
579.980	12590
580.036	13699
580.093	14141
580.149	13218
580.205	14017
580.261	14828
580.317	14818
580.374	15269
580.430	15546
580.486	16154
580.542	14577
580.598	15565
580.619	14963
580.654	13913
580.692	14952
580.710	15463
580.765	15230
580.767	15219
580.823	14830
580.838	14609
580.879	14006
580.911	14825
580.935	15409
580.984	13915
580.991	13702
581.047	14847
581.057	15058
581.103	15980
581.130	15402
581.159	14773
581.203	15687
581.215	15929
581.270	15480
581.276	15531
581.326	15859
581.349	16096
581.382	16456
581.422	15914
581.438	15690
581.494	16636
581.494	16645
581.550	16311
581.567	16581
581.606	17134
581.640	17489
581.661	17701
581.713	17638
581.717	17613
581.773	16560
581.786	16839
581.829	17860
581.859	17864
581.885	17790
581.932	17714
581.940	17698
581.996	17357
582.004	17492
582.052	18121
582.077	18182
582.107	18270
582.150	18343
582.163	18354
582.219	19106
582.223	19091
582.274	18737
582.296	18936
582.330	19349
582.368	20320
582.386	20634
582.441	19413
582.441	19401
582.497	19423
582.514	19347
582.552	19189
582.587	19492
582.608	19648
582.659	19331
582.663	19319
582.719	20700
582.732	20752
582.774	20722
582.805	20950
582.830	21143
582.877	21321
582.885	21321
582.941	21816
582.950	21709
582.996	21276
583.023	22285
583.052	23475
583.095	23399
583.107	23331
583.162	23605
583.168	23676
583.218	24206
583.240	24085
583.273	23906
583.313	23979
583.328	23974
583.384	24825
583.385	24802
583.439	24556
583.458	24552
583.494	24385
583.531	24521
583.549	24619
583.603	25487
583.605	25518
583.660	26034
583.676	26306
583.715	27000
583.748	26669
583.770	26516
583.820	27728
583.825	27891
583.881	28518
583.893	28775
583.936	29279
583.965	29245
583.991	29247
584.038	29479
584.046	29514
584.101	29341
584.110	29391
584.156	30186
584.183	30530
584.211	30779
584.255	31188
584.266	31314
584.321	31080
584.328	31234
584.376	32687
584.400	32339
584.431	32172
584.472	33822
584.486	34252
584.541	33155
584.545	33158
584.596	34694
584.617	35151
584.651	35892
584.689	37241
584.706	37917
584.761	38657
584.762	38626
584.816	39723
584.834	40014
584.871	40746
584.906	41260
584.926	41605
584.978	42137
584.980	42211
585.035	44214
585.051	44370
585.090	45807
585.123	47257
585.145	48222
585.195	49479
585.200	49695
585.254	52596
585.267	53114
585.309	55805
585.340	58736
585.364	61449
585.412	66192
585.419	66986
585.473	75889
585.484	77869
585.528	88089
585.556	96502
585.583	109128
585.628	132644
585.637	145707
585.692	242734
585.700	266524
585.747	490832
585.772	554203
585.801	507585
585.845	396478
585.856	342378
585.910	143490
585.917	120897
585.965	95769
585.989	83680
586.019	80616
586.061	76495
586.074	76419
586.128	75625
586.133	75515
586.183	76752
586.205	76888
586.237	78674
586.277	79558
586.292	79971
586.346	82607
586.349	82528
586.401	83264
586.421	83867
586.455	85996
586.493	86894
586.509	88816
586.564	96159
586.565	96223
586.618	121710
586.637	129511
586.672	143818
586.709	148759
586.727	136882
586.781	109963
586.781	110234
586.835	110253
586.853	110231
586.889	110419
586.925	109978
586.944	110842
586.996	112891
586.998	113285
587.052	116877
587.068	117861
587.106	122172
587.140	125354
587.161	127570
587.212	132151
587.215	132838
587.269	139803
587.284	141381
587.323	147461
587.356	151358
587.377	153915
587.427	160012
587.431	161124
587.485	169936
587.499	172037
587.539	179708
587.571	184640
587.593	190001
587.643	201028
587.648	202766
587.702	215017
587.715	217612
587.755	230037
587.786	238783
587.810	247753
587.858	263831
587.864	266673
587.917	288839
587.930	292949
587.971	315155
588.001	330459
588.025	346291
588.073	374999
588.079	380308
588.133	419226
588.145	426867
588.187	464612
588.217	489732
588.241	518963
588.288	572836
588.295	583573
588.348	662229
588.360	677626
588.402	758051
588.431	812390
588.456	873544
588.503	987362
588.510	1011896
588.564	1195295
588.575	1231845
588.617	1435026
588.646	1572028
588.671	1740705
588.718	2055994
588.725	2118600
588.778	2570635
588.789	2657251
588.832	3014270
588.861	3232803
588.886	3254189
588.932	3206046
588.939	3118376
588.993	2306664
589.004	2158615
589.047	2306042
589.075	2409570
589.100	2804962
589.147	3444905
589.154	3436027
589.207	3261732
589.218	3220260
589.261	2944596
589.290	2751206
589.314	2698454
589.361	2589093
589.368	2615958
589.421	2787355
589.433	2818872
589.475	3094788
589.504	3262865
589.528	3220328
589.576	3032543
589.582	2981702
589.635	2499666
589.647	2390175
589.689	2933643
589.718	3263420
589.742	3121549
589.790	2804825
589.795	2749888
589.849	2149892
589.861	2005295
589.902	1717644
589.932	1495895
589.955	1395702
590.004	1168793
590.009	1153879
590.062	945368
590.075	891091
590.115	807442
590.146	737264
590.168	706071
590.218	628574
590.222	626441
590.275	567317
590.289	549814
590.328	517998
590.360	488381
590.381	474895
590.431	437149
590.435	437019
590.488	405480
590.503	395260
590.541	380635
590.574	364927
590.594	358362
590.645	336979
590.647	337649
590.700	319276
590.716	312548
590.753	302864
590.787	291589
590.806	288132
590.859	274149
590.859	275091
590.912	264271
590.930	259724
590.965	253621
591.001	245420
591.018	244253
591.071	237954
591.072	236912
591.124	231304
591.143	228106
591.177	224370
591.214	218192
591.230	217560
591.283	212781
591.285	211702
591.336	210732
591.356	209147
591.389	207918
591.427	204333
591.442	202978
591.495	194870
591.498	193453
591.547	188794
591.569	185618
591.600	184024
591.640	179836
591.653	180071
591.706	178092
591.711	177123
591.759	176056
591.782	174403
591.811	177693
591.853	180758
591.864	181639
591.917	181870
591.924	181137
591.969	171732
591.995	165123
592.022	165116
592.066	163265
592.075	164121
592.127	165068
592.137	164553
592.180	172079
592.208	175765
592.233	177290
592.279	177769
592.285	176774
592.338	161865
592.350	157770
592.390	155626
592.421	152825
592.443	152577
592.491	149917
592.495	150549
592.548	150212
592.562	149462
592.600	150481
592.633	150140
592.653	150288
592.704	148109
592.705	148889
592.775	144749
592.846	145914
592.916	144084
592.987	144909
593.058	145178
593.128	139080
593.199	135889
593.270	133406
593.341	132325
593.411	131280
593.482	133025
593.553	131686
593.623	129764
593.694	128604
593.764	132233
593.835	135601
593.906	128310
593.976	126911
594.047	128468
594.117	133536
594.188	145820
594.258	138588
594.329	125488
594.399	123021
594.470	124694
594.540	122289
594.611	125241
594.681	124077
594.751	123551
594.822	125135
594.892	128046
594.963	129882
595.033	131702
595.103	131624
595.174	132675
595.244	141840
595.314	179878
595.384	182754
595.455	133203
595.525	132965
595.595	135826
595.665	137653
595.736	137518
595.806	132731
595.876	134111
595.946	134486
596.016	134623
596.087	135950
596.157	138163
596.227	137996
596.297	137127
596.367	143999
596.437	151908
596.507	160492
596.577	185982
596.647	193877
596.717	155180
596.787	152731
596.857	155795
596.927	154888
596.997	155810
597.067	156460
597.137	155137
597.207	161131
597.277	160458
597.347	158490
597.417	154049
597.487	152963
597.557	154741
597.626	156128
597.696	159544
597.766	165996
597.836	182584
597.906	196161
597.975	150383
598.045	143006
598.115	146672
598.185	148070
598.254	156667
598.324	170460
598.394	177091
598.464	180441
598.533	176020
598.603	169982
598.672	160744
598.742	160830
598.812	161979
598.881	162394
598.951	163963
599.020	161216
599.090	162854
599.159	165936
599.229	166542
599.299	161140
599.368	157757
599.437	163864
599.507	158632
599.576	153673
599.646	151192
599.715	147826
599.785	147470
599.854	148677
599.924	152684
599.993	154601
600.062	148091
600.132	146730
600.201	146818
600.270	157515
600.340	176600
600.409	174551
600.478	171094
600.547	170656
600.617	175853
600.686	158842
600.755	141861
600.824	134227
600.894	134906
600.963	131545
601.032	126507
601.101	125281
601.170	123825
601.239	120027
601.308	122826
601.378	126754
601.447	123677
601.516	121844
601.585	120119
601.654	126027
601.723	133884
601.792	126011
601.861	128251
601.930	130194
601.999	137456
602.068	138479
602.137	134335
602.206	145081
602.275	140290
602.343	139773
602.412	149823
602.481	143727
602.550	137247
602.619	135692
602.688	138827
602.756	141241
602.825	140898
602.894	139090
602.963	142565
603.032	143837
603.100	145216
603.169	143505
603.238	144487
603.307	146327
603.375	142099
603.444	144221
603.513	147660
603.581	145025
603.650	149656
603.719	150522
603.787	145814
603.856	147603
603.924	149917
603.993	157440
604.061	157577
604.130	161518
604.198	165731
604.267	168561
604.335	169891
604.404	171520
604.472	174783
604.541	173510
604.609	175791
604.678	177719
604.746	177341
604.815	180104
604.883	185559
604.951	185655
605.020	183600
605.088	186819
605.156	186962
605.225	190437
605.293	191834
605.361	190746
605.429	193328
605.498	193717
605.566	198973
605.634	203666
605.702	209614
605.771	213037
605.839	219010
605.907	218252
605.975	210533
606.043	205590
606.111	202722
606.180	203201
606.248	204246
606.316	199894
606.384	200787
606.452	207767
606.520	214287
606.588	225789
606.656	204042
606.724	202188
606.792	196824
606.860	185099
606.928	167970
606.996	157814
607.064	152120
607.132	151117
607.200	155144
607.267	163585
607.335	168373
607.403	172459
607.471	172609
607.539	166811
607.607	163923
607.674	160909
607.742	149883
607.810	152603
607.878	153525
607.946	150172
608.013	153544
608.081	158451
608.149	163662
608.216	162744
608.284	167374
608.352	167636
608.419	172433
608.487	175927
608.555	190614
608.622	167610
608.690	164985
608.757	176764
608.825	191639
608.893	194206
608.960	193513
609.028	198517
609.095	201029
609.163	200607
609.230	175753
609.298	159211
609.365	149403
609.432	156718
609.500	164678
609.567	178947
609.635	204401
609.702	225745
609.769	233954
609.837	226869
609.904	192920
609.971	176122
610.039	191959
610.106	229432
610.173	345987
610.241	709619
610.308	1583212
610.375	1135726
610.442	515034
610.509	245739
610.577	192662
610.644	178001
610.711	175703
610.778	175785
610.845	178219
610.912	183958
610.980	191218
611.047	195721
611.114	195914
611.181	193800
611.248	186010
611.315	184173
611.382	191910
611.449	195631
611.516	201903
611.583	205017
611.650	202952
611.717	207283
611.784	208245
611.851	217766
611.918	236840
611.984	271402
612.051	328215
612.118	510728
612.185	1095241
612.252	2534477
612.319	1284465
612.386	379852
612.452	290632
612.519	255827
612.586	247577
612.653	262423
612.719	241046
612.786	237488
612.853	227801
612.919	209686
612.986	207067
613.053	205832
613.120	195596
613.186	183317
613.253	182909
613.319	182881
613.386	181502
613.453	185350
613.519	191540
613.586	197775
613.652	214024
613.719	233682
613.785	216836
613.852	203176
613.918	188139
613.985	184139
614.051	185888
614.118	193724
614.184	195318
614.250	186514
614.317	185197
614.383	186595
614.449	185258
614.516	188494
614.582	186675
614.648	191125
614.715	183674
614.781	185204
614.847	180358
614.914	187042
614.980	187732
615.046	184280
615.112	181957
615.179	187501
615.245	193776
615.311	206413
615.377	239474
615.443	331988
615.509	344405
615.575	254574
615.642	224370
615.708	214201
615.774	222342
615.840	240816
615.906	271219
615.972	332900
616.038	489409
616.104	894896
616.170	1549629
616.236	2987530
616.302	2148344
616.368	605451
616.434	422059
616.500	305611
616.565	273182
616.631	301832
616.697	364525
616.763	302329
616.829	319000
616.895	489829
616.961	849235
617.026	776429
617.092	343945
617.158	237397
617.224	210071
617.289	200819
617.355	187901
617.421	180347
617.487	178314
617.552	174548
617.618	165910
617.684	163556
617.749	164245
617.815	163669
617.880	155934
617.946	155642
618.012	153034
618.077	160508
618.143	159075
618.208	152626
618.274	155523
618.339	166123
618.405	166509
618.470	142894
618.536	143013
618.601	147315
618.667	149923
618.732	138121
618.798	131627
618.863	130257
618.928	128194
618.994	129496
619.059	133512
619.124	143555
619.190	169002
619.255	137518
619.320	127961
619.386	129944
619.451	128514
619.516	127977
619.581	123738
619.647	126411
619.712	128390
619.777	127919
619.842	122660
619.907	127432
619.972	130955
620.038	130601
620.103	126350
620.168	122343
620.233	123115
620.298	123625
620.363	123508
620.428	124836
620.493	129198
620.558	131628
620.623	129389
620.688	131845
620.753	131321
620.818	128427
620.883	133811
620.948	132751
621.013	131227
621.078	132144
621.143	132098
621.207	135926
621.272	136358
621.337	136407
621.402	140509
621.467	140222
621.532	158143
621.596	154601
621.661	146727
621.726	131320
621.791	131406
621.855	133186
621.920	136262
621.985	138309
622.049	143518
622.114	149712
622.179	146664
622.243	140021
622.308	147405
622.373	145163
622.437	149081
622.502	147824
622.566	138642
622.631	137654
622.695	139697
622.760	139914
622.824	141094
622.889	139725
622.953	143131
623.018	152993
623.082	193224
623.147	175480
623.211	146730
623.276	144452
623.340	145819
623.404	135592
623.469	130803
623.533	132667
623.597	132916
623.662	129634
623.726	129152
623.790	122450
623.854	117193
623.919	118490
623.983	118940
624.047	122196
624.111	121848
624.176	120677
624.240	126343
624.304	138517
624.368	139348
624.432	123072
624.496	123454
624.560	128228
624.625	135984
624.689	142695
624.753	129428
624.817	131517
624.881	125892
624.945	124231
625.009	114785
625.073	115194
625.137	117042
625.201	129797
625.265	144342
625.329	138369
625.393	120797
625.456	125946
625.520	123377
625.584	128094
625.648	137558
625.712	152284
625.776	201910
625.839	352132
625.903	360522
625.967	159933
626.031	126219
626.095	172936
626.158	236585
626.222	125530
626.286	97112
626.349	92738
626.413	91211
626.477	88621
626.540	92080
626.604	87823
626.668	87817
626.731	85092
626.795	84969
626.858	90149
626.922	89629
626.986	87010
627.049	83779
627.113	84776
627.176	86201
627.240	83973
627.303	81157
627.366	82984
627.430	83174
627.493	85247
627.557	84427
627.620	83862
627.684	83271
627.747	85318
627.810	85350
627.874	81152
627.937	76205
628.000	74955
628.064	78533
628.127	75811
628.190	70667
628.253	69897
628.317	70302
628.380	67588
628.443	66845
628.506	67388
628.569	68810
628.632	63075
628.696	61156
628.759	60622
628.822	60508
628.885	59769
628.948	59206
629.011	58183
629.074	59235
629.137	58794
629.200	56571
629.263	59974
629.326	61726
629.389	55904
629.452	55904
629.515	55863
629.578	56925
629.641	57471
629.704	59886
629.767	57312
629.830	59261
629.892	53577
629.955	54323
630.018	55081
630.081	57209
630.144	61081
630.207	67932
630.269	59894
630.332	58543
630.395	62148
630.458	55129
630.520	51147
630.583	52723
630.646	50530
630.708	49675
630.771	50606
630.834	51841
630.896	52120
630.959	51078
631.021	51316
631.084	51240
631.146	52850
631.209	56771
631.272	59352
631.334	51856
631.397	51129
631.459	51213
631.522	52049
631.584	53880
631.646	56014
631.709	56951
631.771	59677
631.834	72698
631.896	60923
631.958	53536
632.021	50740
632.083	50221
632.145	49566
632.208	49704
632.270	49918
632.332	49413
632.395	46712
632.457	48593
632.519	48405
632.581	47754
632.643	46657
632.706	47539
632.768	45619
632.830	46048
632.892	45752
632.954	46668
633.016	47404
633.078	47407
633.141	45304
633.203	45835
633.265	46411
633.327	46684
633.389	45935
633.451	46633
633.513	51471
633.575	58935
633.637	56496
633.698	56420
633.760	53829
633.822	49328
633.884	48401
633.946	49377
634.008	49145
634.070	50889
634.132	50732
634.193	53670
634.255	57730
634.317	59408
634.379	60239
634.441	59760
634.502	57261
634.564	52358
634.626	50359
634.687	47145
634.749	45811
634.811	45129
634.873	43578
634.934	42259
634.996	42638
635.057	43706
635.119	43789
635.181	45155
635.242	44454
635.304	44585
635.365	44630
635.427	44193
635.488	45328
635.550	45320
635.611	44060
635.673	43155
635.734	46322
635.796	47839
635.857	49508
635.918	53694
635.980	54272
636.041	58775
636.102	59766
636.164	62853
636.225	61910
636.286	59323
636.348	56772
636.409	51343
636.470	47905
636.531	45874
636.593	44749
636.654	49031
636.715	44820
636.776	39634
636.838	37626
636.899	38523
636.960	38796
637.021	38654
637.082	36283
637.143	38078
637.204	37314
637.265	34671
637.326	35108
637.387	36216
637.448	36419
637.509	35760
637.570	36438
637.631	35754
637.692	34888
637.753	34442
637.814	33321
637.875	35531
637.936	34707
637.997	34383
638.058	35253
638.119	36108
638.179	35808
638.240	33290
638.301	34693
638.362	33937
638.423	34253
638.483	34455
638.544	32921
638.605	32267
638.666	31943
638.726	33611
638.787	32627
638.848	32339
638.908	32997
638.969	31636
639.030	31433
639.090	31617
639.151	30906
639.211	32402
639.272	35400
639.332	41659
639.393	61225
639.453	40748
639.514	34142
639.574	34402
639.635	31546
639.695	30846
639.756	31010
639.816	31409
639.877	32311
639.937	36961
639.997	51541
640.058	64443
640.118	35213
640.178	29509
640.239	28891
640.299	28396
640.359	28915
640.420	29605
640.480	29301
640.540	31504
640.600	35324
640.661	36114
640.721	33742
640.781	36207
640.841	40822
640.901	36904
640.961	30237
641.021	30429
641.082	33327
641.142	38298
641.202	47174
641.262	33860
641.322	28497
641.382	28213
641.442	28183
641.502	28409
641.562	28005
641.622	28922
641.682	28847
641.742	29999
641.802	31668
641.861	31270
641.921	30226
641.981	29104
642.041	31163
642.101	32268
642.161	39431
642.221	31293
642.280	26979
642.340	26042
642.400	26308
642.460	27786
642.519	26908
642.579	28312
642.639	26596
642.698	28448
642.758	28318
642.818	27713
642.877	27231
642.937	28412
642.997	29799
643.056	33903
643.116	44059
643.175	33234
643.235	28478
643.294	28799
643.354	30332
643.414	31881
643.473	34326
643.532	39491
643.592	47720
643.651	64468
643.711	99470
643.770	167696
643.830	319711
643.889	732977
643.948	1523919
644.008	406283
644.067	84927
644.126	53610
644.186	43578
644.245	36461
644.304	32029
644.363	30309
644.423	28282
644.482	27960
644.541	28990
644.600	29931
644.659	31075
644.719	35736
644.778	45096
644.837	64628
644.896	102934
644.955	197813
645.014	470578
645.073	166343
645.132	43768
645.191	36272
645.250	32354
645.309	30393
645.368	30777
645.427	33358
645.486	40060
645.545	61029
645.604	103028
645.663	39260
645.722	29188
645.781	29584
645.840	29982
645.898	34618
645.957	42678
646.016	60049
646.075	92292
646.134	158096
646.192	297063
646.251	748444
646.310	1142005
646.369	200712
646.427	61010
646.486	48279
646.545	38192
646.603	30992
646.662	28048
646.721	27451
646.779	26482
646.838	26657
646.896	28543
646.955	33685
647.014	43284
647.072	64989
647.131	109467
647.189	304847
647.248	160089
647.306	32172
647.365	25341
647.423	23895
647.481	24337
647.540	21967
647.598	22282
647.657	21318
647.715	20443
647.773	21361
647.832	20291
647.890	20541
647.948	21354
648.007	20464
648.065	20503
648.123	19858
648.181	20545
648.240	20948
648.298	19658
648.356	19589
648.414	19931
648.472	20468
648.531	20835
648.589	20788
648.647	19531
648.705	19355
648.763	19876
648.821	20857
648.879	20612
648.937	21970
648.995	23841
649.053	27954
649.111	34952
649.169	49413
649.227	77796
649.285	130980
649.343	250505
649.401	738897
649.459	399468
649.516	98256
649.574	60449
649.632	33207
649.690	32704
649.748	33455
649.806	38877
649.863	50114
649.921	79246
649.979	206313
650.037	155333
650.094	29299
650.152	21490
650.210	20927
650.268	19627
650.325	19615
650.383	19615
650.440	20979
650.498	18615
650.556	17423
650.613	17363
650.671	17256
650.728	17065
650.786	18360
650.843	19291
650.901	21194
650.958	19431
651.016	16007
651.073	15485
651.131	15719
651.188	14690
651.246	16581
651.303	16332
651.360	15916
651.418	15690
651.475	15929
651.532	15777
651.590	15126
651.647	14873
651.704	15665
651.762	16181
651.819	16017
651.876	16689
651.933	15262
651.990	15305
652.048	15102
652.105	15320
652.162	15376
652.219	14544
652.276	14697
652.333	14220
652.390	14311
652.448	13806
652.505	14419
652.562	14224
652.619	14615
652.676	14024
652.733	14962
652.790	15004
652.847	14127
652.904	13573
652.961	13633
653.017	14002
653.074	14709
653.131	14447
653.188	14702
653.245	14337
653.302	12850
653.359	13803
653.415	14214
653.472	14197
653.529	13360
653.586	13897
653.642	13406
653.699	14102
653.756	13590
653.813	13796
653.869	13990
653.926	13554
653.983	12997
654.039	13686
654.096	13308
654.152	13624
654.209	13616
654.266	13738
654.322	13933
654.379	15085
654.435	15715
654.492	16495
654.548	18126
654.605	22020
654.661	35508
654.717	19522
654.774	14730
654.830	14798
654.887	14916
654.943	14531
655.000	15120
655.056	15589
655.112	14513
655.168	14049
655.225	15400
655.281	14951
655.337	16913
655.394	20054
655.450	30949
655.506	23835
655.562	19794
655.618	30896
655.675	27854
655.731	15145
655.787	14714
655.843	14268
655.899	13386
655.955	13747
656.011	13241
656.067	13673
656.123	14741
656.179	12808
656.235	14283
656.291	13968
656.347	14351
656.403	14762
656.459	15686
656.515	14957
656.571	15431
656.627	16657
656.683	14741
656.739	14365
656.795	14761
656.850	13470
656.906	14858
656.962	16262
657.018	16049
657.074	14189
657.129	15294
657.185	16582
657.241	19270
657.297	32300
657.352	26747
657.408	14382
657.464	14599
657.519	14970
657.575	14462
657.630	13168
657.686	13337
657.742	13301
657.797	12640
657.853	13430
657.908	13911
657.964	13695
658.019	13297
658.075	13356
658.130	13136
658.186	13492
658.241	12704
658.297	12256
658.352	12647
658.407	12970
658.463	12536
658.518	13161
658.573	13008
658.629	12419
658.684	12990
658.739	12018
658.795	12665
658.850	12342
658.905	11916
658.960	13038
659.016	12249
659.071	12728
659.126	13017
659.181	14220
659.236	15474
659.291	19162
659.346	23160
659.401	16130
659.457	14767
659.512	12837
659.567	12650
659.622	12323
659.677	13317
659.732	12951
659.787	12763
659.842	13716
659.897	14942
659.952	18217
660.007	13205
660.061	11861
660.116	12717
660.171	13058
660.226	12546
660.281	12061
660.336	12152
660.391	11938
660.445	11785
660.500	12710
660.555	11935
660.610	12527
660.664	13756
660.719	11508
660.774	12517
660.828	12299
660.883	11987
660.938	12966
660.992	12671
661.047	12248
661.101	13476
661.156	11621
661.211	12910
661.265	12432
661.320	11617
661.374	12694
661.429	12638
661.483	11945
661.538	12063
661.592	11873
661.647	12363
661.701	12091
661.755	12940
661.810	13027
661.864	12751
661.919	12926
661.973	13023
662.027	12516
662.081	12020
662.136	11544
662.190	11707
662.244	12814
662.299	13861
662.353	12291
662.407	11703
662.461	12231
662.515	12885
662.569	13185
662.624	13227
662.678	13215
662.732	13464
662.786	12566
662.840	13079
662.894	13199
662.948	13204
663.002	12671
663.056	11933
663.110	12111
663.164	11865
663.218	12008
663.272	11317
663.326	11882
663.380	12838
663.434	13759
663.488	13602
663.542	13613
663.595	12542
663.649	11735
663.703	12901
663.757	12389
663.811	12955
663.864	11695
663.918	12866
663.972	10960
664.026	11983
664.079	12752
664.133	12431
664.187	12655
664.240	11709
664.294	11088
664.348	11313
664.401	11754
664.455	11859
664.508	12180
664.562	12267
664.615	11847
664.669	11393
664.722	11792
664.776	12130
664.829	11548
664.883	12771
664.936	11494
664.990	12425
665.043	12411
665.097	12550
665.150	14368
665.203	15361
665.257	12971
665.310	13016
665.363	13139
665.417	13054
665.470	13794
665.523	13061
665.576	13920
665.630	12902
665.683	12552
665.736	13472
665.789	13601
665.842	13332
665.895	12968
665.949	13186
666.002	12646
666.055	12462
666.108	12975
666.161	13748
666.214	14007
666.267	13589
666.320	14092
666.373	15595
666.426	14400
666.479	13973
666.532	13689
666.585	13594
666.638	15479
666.691	15735
666.744	15711
666.796	16111
666.849	16578
666.902	15153
666.955	13942
667.008	14221
667.060	12721
667.113	12214
667.166	12345
667.219	11963
667.271	12724
667.324	13095
667.377	12402
667.430	12679
667.482	12171
667.535	13063
667.587	12716
667.640	13594
667.693	14155
667.745	17063
667.798	20833
667.850	26801
667.903	14432
667.955	13477
668.008	13476
668.060	13135
668.113	14744
668.165	15000
668.218	14889
668.270	14741
668.322	13975
668.375	14139
668.427	13825
668.479	14053
668.532	14018
668.584	14326
668.636	14687
668.689	13872
668.741	13458
668.793	13282
668.845	13465
668.898	14214
668.950	13546
669.002	13881
669.054	13682
669.106	13983
669.158	13874
669.211	14104
669.263	14202
669.315	13817
669.367	14633
669.419	14880
669.471	16018
669.523	15907
669.575	16629
669.627	17791
669.679	18662
669.731	16138
669.783	16451
669.835	15869
669.886	16847
669.938	18528
669.990	16672
670.042	15649
670.094	16819
670.146	18209
670.197	20043
670.249	22024
670.301	24930
670.353	30351
670.404	38844
670.456	51192
670.508	72258
670.560	106059
670.611	162614
670.663	256231
670.715	418400
670.766	794462
670.818	1233008
670.869	791772
670.921	215583
670.972	91372
671.024	59500
671.075	44746
671.127	34226
671.178	29155
671.230	25440
671.281	22902
671.333	22755
671.384	21356
671.436	22218
671.487	23195
671.538	25497
671.590	26979
671.641	35030
671.692	46254
671.744	64999
671.795	116660
671.846	114040
671.897	55355
671.949	31646
672.000	24203
672.051	20436
672.102	18481
672.153	16825
672.204	16108
672.256	16217
672.307	15568
672.358	15469
672.409	15159
672.460	14853
672.511	14481
672.562	13011
672.613	14753
672.664	13542
672.715	12694
672.766	13056
672.817	13158
672.868	13069
672.919	12669
672.970	12133
673.021	13039
673.071	12307
673.122	12518
673.173	12378
673.224	12336
673.275	12163
673.326	12713
673.376	12195
673.427	12656
673.478	12180
673.528	12761
673.579	11914
673.630	12399
673.680	12097
673.731	12017
673.782	11674
673.832	11572
673.883	11844
673.934	12963
673.984	12876
674.035	11868
674.085	12432
674.136	12773
674.186	12433
674.237	13696
674.287	15186
674.338	20890
674.388	16092
674.438	12622
674.489	12618
674.539	12356
674.589	13324
674.640	12255
674.690	12977
674.740	11866
674.791	12861
674.841	13362
674.891	13500
674.942	12892
674.992	11404
675.042	12028
675.092	10871
675.142	10759
675.193	10518
675.243	12084
675.293	11794
675.343	12099
675.393	12664
675.443	12218
675.493	12177
675.543	10627
675.593	10727
675.643	12759
675.693	11743
675.743	10822
675.793	11796
675.843	11039
675.893	9795
675.943	11392
675.993	10337
676.043	10370
676.093	10401
676.142	11269
676.192	10686
676.242	10878
676.292	10331
676.341	10478
676.391	10880
676.441	11346
676.491	10679
676.540	10235
676.590	9521
676.640	10600
676.689	9868
676.739	10261
676.789	9137
676.838	9728
676.888	9766
676.937	10065
676.987	9328
677.037	9589
677.086	9223
677.136	8910
677.185	8296
677.235	9755
677.284	8827
677.333	9198
677.383	9385
677.432	9641
677.482	8835
677.531	9018
677.580	9408
677.630	9664
677.679	8902
677.728	8760
677.778	9658
677.827	8823
677.876	8926
677.925	8473
677.975	8070
678.024	9759
678.073	9521
678.122	9448
678.171	9627
678.220	10597
678.269	10252
678.319	10343
678.368	11348
678.417	11711
678.466	10723
678.515	10655
678.564	10266
678.613	11024
678.662	10178
678.711	10022
678.760	9873
678.809	9851
678.857	9157
678.906	9774
678.955	9507
679.004	10336
679.053	8610
679.102	10180
679.151	10425
679.199	10381
679.248	9465
679.297	8839
679.346	9173
679.394	10511
679.443	10194
679.492	9080
679.540	8751
679.589	9276
679.638	10218
679.686	10504
679.735	8456
679.784	9101
679.832	8890
679.881	9626
679.929	9432
679.978	9264
680.026	8999
680.075	8582
680.123	9397
680.172	8310
680.220	8232
680.268	7978
680.317	8588
680.365	9117
680.414	7927
680.462	8415
680.510	7708
680.559	8844
680.607	8077
680.655	7795
680.703	8389
680.752	8574
680.800	9081
680.848	7888
680.896	7301
680.945	7477
680.993	7622
681.041	8785
681.089	7332
681.137	8205
681.185	6956
681.233	8202
681.258	8112
681.281	8006
681.329	8315
681.377	8214
681.380	8239
681.425	8277
681.473	8315
681.502	8726
681.521	8974
681.569	9338
681.617	9257
681.624	9194
681.665	8668
681.713	8803
681.745	8791
681.761	8741
681.809	8441
681.857	8360
681.867	8530
681.904	9019
681.952	8701
681.989	8880
682.000	8907
682.048	9074
682.096	8817
682.111	8803
682.143	8735
682.191	8512
682.233	8231
682.239	8161
682.286	8791
682.334	9032
682.354	8894
682.382	8680
682.430	8498
682.476	8726
682.477	8709
682.525	9093
682.572	8947
682.598	8909
682.620	8847
682.667	8479
682.715	9005
682.720	9031
682.763	9079
682.810	8310
682.841	9372
682.857	9908
682.905	9624
682.952	9394
682.963	9262
683.000	8687
683.047	9355
683.085	9874
683.095	9992
683.142	9294
683.190	8682
683.206	8798
683.237	8941
683.284	8925
683.328	9025
683.332	9019
683.379	9064
683.426	9397
683.449	9170
683.473	8887
683.521	9035
683.568	9164
683.571	9149
683.615	8773
683.662	9153
683.693	9162
683.709	9131
683.757	9637
683.804	9197
683.814	9199
683.851	9145
683.898	9886
683.936	9518
683.945	9410
683.992	9531
684.039	9169
684.057	9363
684.086	9629
684.133	9784
684.179	10335
684.180	10341
684.227	9889
684.274	10129
684.300	10262
684.321	10242
684.368	10121
684.415	9621
684.422	9719
684.462	10303
684.509	9673
684.543	9823
684.556	9824
684.603	10375
684.649	9116
684.665	9276
684.696	9705
684.743	10373
684.786	10015
684.790	9958
684.837	10209
684.883	10408
684.908	10434
684.930	10617
684.977	11407
685.023	11593
685.029	11638
685.070	11674
685.117	10781
685.150	11102
685.164	11163
685.210	11028
685.257	11461
685.272	11578
685.303	12040
685.350	11985
685.393	11614
685.396	11555
685.443	11830
685.490	12001
685.514	12054
685.536	12195
685.583	12369
685.629	12315
685.636	12317
685.675	12048
685.722	11783
685.757	12160
685.768	12262
685.815	12915
685.861	12218
685.878	12108
685.908	12000
685.954	11776
686.000	12221
686.000	12222
686.047	12902
686.093	12811
686.121	13380
686.139	13839
686.185	13874
686.232	13208
686.242	13240
686.278	13126
686.324	13559
686.363	13705
686.370	13643
686.416	12209
686.463	11687
686.484	11936
686.509	12409
686.555	11714
686.601	11257
686.606	11328
686.647	12047
686.693	12288
686.727	11717
686.739	11482
686.785	11740
686.831	11355
686.848	11450
686.877	11640
686.923	11419
686.969	11705
686.969	11705
687.015	11195
687.061	11918
687.090	12139
687.107	12257
687.153	12017
687.199	12096
687.211	12038
687.245	12002
687.291	12198
687.332	12512
687.336	12521
687.382	12897
687.428	13124
687.453	13202
687.474	13397
687.520	12401
687.565	12048
687.574	12274
687.611	12871
687.657	12893
687.695	13093
687.702	13167
687.748	12326
687.794	12762
687.816	13114
687.839	13521
687.885	13494
687.931	12923
687.937	12914
687.976	12743
688.022	13087
688.058	13102
688.067	13073
688.113	13275
688.158	12605
688.179	12719
688.204	13032
688.249	12707
688.295	12734
688.300	12769
688.340	12944
688.386	13139
688.421	13173
688.431	13238
688.477	12939
688.522	12982
688.542	13180
688.567	13342
688.613	13833
688.658	13974
688.663	13883
688.703	13312
688.749	13628
688.784	13813
688.794	13827
688.839	14238
688.884	13944
688.905	13657
688.930	13352
688.975	13876
689.020	13488
689.026	13462
689.065	13057
689.110	12890
689.146	12612
689.155	12725
689.201	13237
689.246	13804
689.267	13872
689.291	13585
689.336	13579
689.381	13217
689.388	13262
689.426	13757
689.471	13335
689.509	13567
689.516	13640
689.561	13333
689.606	13115
689.630	13346
689.651	13545
689.696	13654
689.741	13936
689.750	13904
689.785	13774
689.830	13899
689.871	13455
689.875	13425
689.920	13314
689.965	13579
689.992	13593
690.010	13640
690.054	13410
690.099	13441
690.112	13564
690.144	13746
690.189	13194
690.233	13130
690.233	13145
690.278	13523
690.323	13622
690.354	13569
690.367	13520
690.412	13936
690.457	13769
690.474	13966
690.501	14178
690.546	13919
690.590	14013
690.595	13964
690.635	13848
690.680	13797
690.716	13739
690.724	13704
690.769	13879
690.813	13610
690.836	13666
690.857	13853
690.902	13668
690.946	14062
690.957	14035
690.991	14040
691.035	14067
691.077	14421
691.080	14474
691.124	14808
691.168	15450
691.198	15772
691.213	15857
691.257	16212
691.301	15871
691.318	15904
691.346	15925
691.390	15624
691.434	15513
691.439	15505
691.478	15347
691.522	15053
691.559	14903
691.567	14956
691.611	15011
691.655	14759
691.680	14771
691.699	14934
691.743	15313
691.787	15481
691.800	15554
691.831	15640
691.875	15861
691.919	15881
691.921	15859
691.964	15818
692.008	16092
692.041	16025
692.052	16166
692.096	16742
692.139	17010
692.162	17382
692.183	17343
692.227	16659
692.271	16472
692.282	16278
692.315	15985
692.359	15956
692.402	15880
692.403	15904
692.447	15645
692.490	15724
692.523	15482
692.534	15447
692.578	15578
692.622	15693
692.643	15672
692.666	15852
692.709	15971
692.753	16448
692.763	16447
692.797	16183
692.840	15889
692.884	15839
692.884	15866
692.928	15891
692.971	15918
693.004	15874
693.015	15869
693.059	15699
693.102	15964
693.124	15916
693.146	15970
693.189	15980
693.233	16128
693.245	16087
693.276	15942
693.320	16327
693.363	15851
693.365	15822
693.407	16343
693.450	16724
693.485	17259
693.493	17379
693.537	17526
693.580	17624
693.605	17800
693.624	17736
693.667	17092
693.710	16938
693.725	16772
693.753	16963
693.797	17161
693.840	17566
693.845	17593
693.883	18344
693.926	19122
693.966	19316
693.970	19309
694.013	19138
694.056	19100
694.086	18891
694.099	18632
694.142	17917
694.185	17456
694.206	17076
694.229	17183
694.272	17384
694.315	17267
694.326	17332
694.358	17544
694.401	17518
694.444	17281
694.446	17254
694.487	17753
694.530	18317
694.566	18337
694.573	18310
694.616	18279
694.659	18199
694.686	17893
694.702	17618
694.745	17265
694.787	16659
694.806	16403
694.830	16385
694.873	16083
694.916	16260
694.926	16194
694.959	16545
695.002	16809
695.044	17289
695.046	17270
695.087	17087
695.130	17032
695.166	16725
695.172	16762
695.215	17060
695.258	17113
695.286	17192
695.301	17238
695.343	17285
695.386	17410
695.406	17369
695.428	17489
695.471	17634
695.514	17789
695.526	17782
695.556	17696
695.599	17704
695.641	17688
695.646	17632
695.684	17799
695.726	17996
695.766	18221
695.769	18252
695.811	18039
695.854	17817
695.886	17756
695.896	17796
695.938	17605
695.981	17473
696.005	17367
696.023	17337
696.065	17074
696.108	17096
696.125	16949
696.150	17088
696.192	17455
696.235	17662
696.245	17701
696.277	18146
696.319	18631
696.361	19136
696.365	19142
696.404	18871
696.446	18497
696.485	17976
696.488	18016
696.530	18035
696.572	18134
696.604	18213
696.614	18243
696.656	18330
696.698	18159
696.724	18048
696.740	18116
696.783	18102
696.825	18244
696.844	18246
696.867	18351
696.909	18453
696.951	18604
696.964	18601
696.992	18653
697.034	18721
697.076	18688
697.083	18628
697.118	18567
697.160	18671
697.202	18560
697.203	18517
697.244	18549
697.286	18549
697.323	18376
697.327	18448
697.369	18823
697.411	19168
697.442	19345
697.453	19324
697.494	19202
697.536	18896
697.562	18741
697.578	18969
697.620	19378
697.661	19810
697.682	19991
697.703	20001
697.744	19887
697.786	19849
697.801	19766
697.828	20045
697.869	20429
697.911	20820
697.921	20843
697.952	21069
697.994	21464
698.035	21766
698.040	21755
698.077	21352
698.118	20822
698.160	20249
698.160	20197
698.201	19760
698.243	19244
698.279	18765
698.284	18815
698.325	18860
698.367	18882
698.399	18881
698.408	18987
698.449	19236
698.491	19485
698.518	19604
698.532	19706
698.573	19899
698.614	20092
698.638	20146
698.656	20194
698.697	20181
698.738	20194
698.757	20142
698.779	20134
698.820	20040
698.862	19959
698.877	19877
698.903	20301
698.944	20904
698.985	21511
698.996	21631
699.026	21357
699.067	20904
699.116	20317
699.235	20648
699.354	20255
699.474	20656
699.593	19846
699.713	21210
699.832	21569
699.951	20064
700.070	21804
700.190	21200
700.309	19572
700.428	19390
700.547	20267
700.667	21072
700.786	19656
700.905	20383
701.024	20200
701.143	19168
701.262	20728
701.381	18556
701.500	19376
701.619	20579
701.738	20857
701.857	19668
701.976	19274
702.095	17272
702.214	18414
702.333	18880
702.452	19877
702.571	18731
702.690	19630
702.809	18962
702.928	18204
703.047	17513
703.165	18993
703.284	17677
703.403	17274
703.522	17269
703.640	19428
703.759	19413
703.878	19979
703.997	24247
704.115	20292
704.234	17768
704.353	17875
704.471	17487
704.590	17543
704.708	17620
704.827	16918
704.946	16787
705.064	17145
705.183	18616
705.301	17908
705.420	19748
705.538	25909
705.656	25092
705.775	21597
705.893	19838
706.012	21411
706.130	23643
706.249	21605
706.367	21848
706.485	21746
706.604	23092
706.722	22009
706.840	22106
706.958	24708
707.077	24980
707.195	23489
707.313	21188
707.431	20805
707.549	20077
707.668	19755
707.786	20117
707.904	20345
708.022	20090
708.140	19647
708.258	19673
708.376	19157
708.494	20034
708.612	19329
708.730	21515
708.848	27953
708.966	28298
709.084	25341
709.202	23402
709.320	23365
709.438	23343
709.556	24968
709.674	24246
709.791	23715
709.909	24387
710.027	22839
710.145	23039
710.263	22457
710.380	23793
710.498	22184
710.616	23376
710.733	22570
710.851	22679
710.969	22823
711.086	23812
711.204	22838
711.322	23129
711.439	22071
711.557	23110
711.674	23192
711.792	21872
711.909	21393
712.027	20833
712.144	22098
712.262	21462
712.379	20972
712.497	23672
712.614	29843
712.732	33653
712.849	28200
712.966	25691
713.084	26899
713.201	31022
713.318	29103
713.436	27704
713.553	25795
713.670	26925
713.787	28045
713.905	29047
714.022	30923
714.139	27361
714.256	26227
714.373	28540
714.490	33627
714.608	44798
714.725	79570
714.842	297426
714.959	567959
715.076	75331
715.193	31281
715.310	28726
715.427	26960
715.544	25193
715.661	24214
715.778	23549
715.895	24076
716.011	25528
716.128	25383
716.245	24719
716.362	23951
716.479	24673
716.596	27366
716.713	23065
716.829	24262
716.946	22654
717.063	23864
717.180	21092
717.296	22720
717.413	21522
717.530	20663
717.646	20604
717.763	21957
717.880	21308
717.996	20361
718.113	20247
718.229	21084
718.346	20740
718.462	21033
718.579	19727
718.695	21874
718.812	29310
718.928	30001
719.045	25235
719.161	23865
719.277	19887
719.394	19501
719.510	18983
719.626	20009
719.743	20433
719.859	24724
719.975	26805
720.092	36761
720.208	90243
720.324	280445
720.440	85112
720.557	24117
720.673	22851
720.789	27274
720.905	34370
721.021	57202
721.137	41874
721.253	19892
721.369	20436
721.486	20334
721.602	20976
721.718	25213
721.834	20069
721.950	17688
722.066	18335
722.181	17164
722.297	17163
722.413	18149
722.529	18215
722.645	17858
722.761	17376
722.877	16210
722.993	17124
723.108	16896
723.224	18003
723.340	17816
723.456	17666
723.571	16369
723.687	16289
723.803	15386
723.918	15467
724.034	15898
724.150	16273
724.265	16649
724.381	16752
724.497	24868
724.612	39003
724.728	17559
724.843	16148
724.959	15304
725.074	16560
725.190	23375
725.305	35732
725.421	17089
725.536	16001
725.651	14352
725.767	14512
725.882	14740
725.997	13875
726.113	14656
726.228	13878
726.343	14240
726.459	13775
726.574	12933
726.689	14476
726.804	14998
726.920	12869
727.035	14753
727.150	15283
727.265	14915
727.380	14549
727.495	14885
727.610	14468
727.725	12925
727.841	14085
727.956	13019
728.071	13033
728.186	15458
728.301	14298
728.416	13145
728.531	13070
728.645	13052
728.760	12391
728.875	12979
728.990	14350
729.105	13759
729.220	14003
729.335	13935
729.449	14099
729.564	12863
729.679	12730
729.794	12366
729.908	13125
730.023	12698
730.138	13704
730.253	11296
730.367	12559
730.482	12703
730.596	12061
730.711	11855
730.826	12570
730.940	13082
731.055	13455
731.169	12002
731.284	12485
731.398	12407
731.513	12377
731.627	14086
731.742	13433
731.856	14765
731.970	17715
732.085	15016
732.199	15800
732.313	17519
732.428	24047
732.542	44140
732.656	128165
732.771	129277
732.885	29258
732.999	17801
733.113	15850
733.227	16334
733.342	16422
733.456	14267
733.570	13805
733.684	13490
733.798	13284
733.912	13576
734.026	13242
734.140	12939
734.254	12761
734.368	14040
734.482	17170
734.596	24569
734.710	13598
734.824	13152
734.938	12994
735.052	11714
735.166	13433
735.280	13918
735.393	12479
735.507	12614
735.621	13162
735.735	13800
735.849	20108
735.962	17305
736.076	12330
736.190	12948
736.303	13208
736.417	14673
736.531	18851
736.644	13079
736.758	12102
736.872	11616
736.985	11202
737.099	11390
737.212	11065
737.326	10922
737.439	11172
737.553	11412
737.666	11152
737.780	11124
737.893	10812
738.007	11553
738.120	10541
738.233	11119
738.347	11079
738.460	11425
738.573	10719
738.687	11624
738.800	11316
738.913	11365
739.026	12478
739.140	12161
739.253	9962
739.366	10167
739.479	9862
739.592	11052
739.705	10818
739.818	10970
739.932	10667
740.045	10421
740.158	10637
740.271	11028
740.384	11243
740.497	11155
740.610	10750
740.723	10325
740.836	10401
740.949	11158
741.062	11275
741.174	12677
741.287	12540
741.400	10560
741.513	10475
741.626	10403
741.739	10602
741.851	10699
741.964	10976
742.077	10086
742.189	10266
742.302	10360
742.415	11046
742.527	11415
742.640	9544
742.753	10479
742.865	10151
742.978	9838
743.090	9235
743.203	9422
743.316	8887
743.428	9364
743.541	8501
743.653	10406
743.766	8843
743.878	9867
743.990	10187
744.103	10669
744.215	11447
744.327	10596
744.440	11108
744.552	11222
744.664	13010
744.777	11538
744.889	9503
745.001	9739
745.113	8599
745.226	9239
745.338	8923
745.450	8188
745.562	9473
745.674	9151
745.786	8232
745.898	8519
746.010	9026
746.122	9087
746.234	8864
746.347	9404
746.459	9022
746.570	8578
746.682	8113
746.794	8925
746.906	10276
747.018	9721
747.130	8643
747.242	8692
747.354	8668
747.466	8379
747.577	8398
747.689	8518
747.801	8537
747.913	9025
748.024	7249
748.136	8108
748.248	8427
748.359	8342
748.471	7948
748.583	8391
748.694	8186
748.806	7680
748.918	8578
749.029	9246
749.141	9440
749.252	9275
749.364	8689
749.475	8800
749.587	12989
749.698	13198
749.809	9332
749.921	7798
750.032	8151
750.144	7934
750.255	7165
750.366	7097
750.478	7666
750.589	8169
750.700	7929
750.811	8013
750.923	8353
751.034	9192
751.145	12457
751.256	18122
751.367	8912
751.479	6750
751.590	8221
751.701	6987
751.812	7478
751.923	7420
752.034	6775
752.145	6837
752.256	7485
752.367	6599
752.478	8008
752.589	7020
752.700	7480
752.811	6674
752.922	7021
753.032	7382
753.143	7325
753.254	7843
753.365	7389
753.476	7285
753.586	7945
753.697	6745
753.808	6893
753.919	7029
754.029	6052
754.140	7151
754.251	6825
754.361	7373
754.472	6617
754.582	7371
754.693	6804
754.804	6312
754.914	6720
755.025	6717
755.135	6034
755.246	6390
755.356	7026
755.466	6818
755.577	6340
755.687	6256
755.798	6660
755.908	6464
756.018	6783
756.129	6416
756.239	6665
756.349	6644
756.460	6014
756.570	6948
756.680	6981
756.790	6217
756.900	7143
757.011	7242
757.121	6690
757.231	6131
757.341	6650
757.451	6141
757.561	6473
757.671	6382
757.781	6138
757.891	6806
758.001	6667
758.111	6740
758.221	5827
758.331	6622
758.441	7096
758.551	7974
758.661	7734
758.771	10259
758.880	7049
758.990	7671
759.100	8382
759.210	8025
759.320	7446
759.429	7129
759.539	7124
759.649	7540
759.758	8045
759.868	7895
759.978	7781
760.087	8052
760.197	7868
760.307	8125
760.416	7966
760.526	7906
760.635	7216
760.745	7399
760.854	7595
760.964	7897
761.073	8303
761.182	8489
761.292	7366
761.401	8081
761.511	7712
761.620	8038
761.729	6628
761.839	6669
761.948	7860
762.057	6934
762.166	6775
762.276	6485
762.385	6486
762.494	6645
762.603	6314
762.712	6682
762.822	6801
762.931	7736
763.040	7652
763.149	6237
763.258	7056
763.367	6831
763.476	6569
763.585	6610
763.694	6396
763.803	6494
763.912	7334
764.021	7552
764.130	7236
764.238	7545
764.347	7549
764.456	6920
764.565	7383
764.674	6787
764.783	7005
764.891	7884
765.000	7592
765.109	7252
765.217	7505
765.326	8052
765.435	8509
765.543	10236
765.652	9401
765.761	10191
765.869	11031
765.978	13820
766.086	19016
766.195	30573
766.303	58727
766.412	141448
766.520	461641
766.629	664343
766.737	159604
766.846	42324
766.954	24897
767.062	18788
767.171	16128
767.279	13743
767.387	11662
767.496	10083
767.604	9900
767.712	9838
767.820	9566
767.928	8193
768.037	8978
768.145	8412
768.253	8792
768.361	8415
768.469	8358
768.577	8070
768.685	8256
768.793	7594
768.901	8773
769.009	9630
769.117	9087
769.225	9447
769.333	9235
769.441	12676
769.549	14991
769.657	26956
769.765	55495
769.873	163347
769.981	505582
770.088	265212
770.196	40188
770.304	19543
770.412	15555
770.519	12714
770.627	12012
770.735	9765
770.842	9331
770.950	9144
771.058	8268
771.165	8390
771.273	8784
771.380	9164
771.488	7628
771.595	8732
771.703	9620
771.810	9197
771.918	8323
772.025	8941
772.133	8700
772.240	9486
772.348	8815
772.455	10009
772.562	9470
772.670	9237
772.777	8576
772.884	9550
772.991	8430
773.099	9052
773.206	8826
773.313	8202
773.420	9152
773.528	8957
773.635	7565
773.742	7988
773.849	8227
773.956	8278
774.063	8251
774.170	8183
774.277	8066
774.384	8475
774.491	9250
774.598	8875
774.705	8465
774.812	8213
774.919	10009
775.026	8620
775.133	9154
775.239	8406
775.346	7480
775.453	7930
775.560	7961
775.667	8082
775.773	8469
775.880	8701
775.987	7626
776.093	8382
776.200	7723
776.307	8817
776.413	7230
776.520	8724
776.627	8595
776.733	8620
776.840	7224
776.946	7429
777.053	8313
777.159	8739
777.266	9849
777.372	11421
777.478	9512
777.585	10737
777.691	10103
777.798	7454
777.904	7742
778.010	7868
778.117	8402
778.223	10604
778.329	7453
778.435	7509
778.542	7265
778.648	7785
778.754	6529
778.860	6727
778.966	6301
779.072	7390
779.178	7821
779.284	7702
779.391	6970
779.497	6343
779.603	7045
779.708	6446
779.815	7606
779.920	7190
780.026	9889
780.132	16418
780.238	9748
780.344	7249
780.450	6825
780.556	7102
780.661	6160
780.767	6809
780.873	7414
780.979	6652
781.085	6039
781.190	6988
781.296	6717
781.402	5701
781.507	5537
781.613	6751
781.719	5667
781.824	6150
781.930	6318
782.035	6290
782.141	6118
782.246	7141
782.352	5828
782.457	6474
782.563	6265
782.668	6402
782.773	5678
782.879	6732
782.984	6352
783.090	6576
783.195	6591
783.300	7804
783.405	8957
783.511	7244
783.616	6886
783.721	7110
783.826	7308
783.932	5862
784.037	5787
784.142	6325
784.247	5768
784.352	6049
784.457	7175
784.562	6161
784.667	5331
784.772	5428
784.877	5839
784.982	5180
785.087	5855
785.192	6585
785.297	5951
785.402	5122
785.507	5678
785.611	5836
785.716	5006
785.821	5469
785.926	5695
786.031	5189
786.135	5513
786.240	6090
786.345	4640
786.450	4903
786.554	5221
786.659	5460
786.763	5307
786.868	5905
786.973	5499
787.077	4969
787.182	4937
787.286	5005
787.391	4890
787.495	5226
787.600	5078
787.704	4363
787.809	5230
787.913	5507
788.017	5495
788.122	4597
788.226	5350
788.330	4815
788.435	5137
788.539	5063
788.643	5360
788.747	4924
788.852	3862
788.956	4846
789.060	4853
789.164	4076
789.268	4174
789.372	4822
789.476	4987
789.580	4772
789.684	4612
789.788	3903
789.892	4546
789.996	4685
790.100	5479
790.204	4927
790.308	4367
790.412	4835
790.516	4036
790.620	3850
790.724	4181
790.828	5293
790.931	4852
791.035	4353
791.139	4250
791.242	5216
791.346	4726
791.450	5256
791.554	4525
791.657	4635
791.761	3902
791.864	4646
791.968	4453
792.072	4902
792.175	4999
792.279	4137
792.382	4081
792.486	4477
792.589	4393
792.693	4862
792.796	4520
792.899	4343
793.003	4101
793.106	4257
793.209	4545
793.313	5052
793.416	3506
793.519	4446
793.623	4398
793.726	5422
793.829	7598
793.932	5213
794.035	4157
794.138	4175
794.242	4549
794.345	4604
794.448	3834
794.551	5096
794.654	6448
794.757	7988
794.860	8809
794.963	6599
795.066	5282
795.169	3714
795.272	4164
795.375	3619
795.477	4443
795.580	3385
795.683	2726
795.786	3191
795.889	3341
795.991	4214
796.094	3259
796.197	3661
796.300	4974
796.402	4311
796.505	3609
796.608	3493
796.710	3186
796.813	4043
796.915	4103
797.018	4432
797.120	3756
797.223	3745
797.326	3459
797.428	3301
797.530	3652
797.633	2721
797.735	4196
797.838	3851
797.940	5968
798.042	6160
798.145	3957
798.247	3146
798.349	3685
798.452	2950
798.554	3227
798.656	2992
798.758	3627
798.860	3723
798.962	3232
799.065	2944
799.167	2773
799.269	3968
799.371	2814
799.473	4248
799.575	4024
799.677	4251
799.779	5206
799.881	4098
799.983	5520
800.085	5519
800.187	2402
800.289	3216
800.390	2885
800.492	2864
800.594	4028
800.696	3183
800.798	3014
800.899	2913
801.001	2754
801.103	3330
801.205	2403
801.306	3155
801.408	3231
801.509	3426
801.611	3171
801.713	2587
801.814	2919
801.916	2979
802.017	3009
802.119	2520
802.220	3276
802.322	2579
802.423	3551
802.525	4598
802.626	4187
802.727	3036
802.829	3177
802.930	2858
803.031	2813
803.133	2873
803.234	2876
803.335	2106
803.436	2481
803.538	3073
803.639	2800
803.740	2415
803.841	1921
803.942	2442
804.043	3300
804.144	2560
804.245	2195
804.346	2713
804.447	2496
804.548	2556
804.649	3298
804.750	4140
804.851	3595
804.952	1849
805.053	2404
805.154	2397
805.255	1802
805.355	2572
805.456	2759
805.557	2921
805.658	2375
805.758	2021
805.859	2369
805.960	2370
806.061	2281
806.161	1568
806.262	2310
806.362	2095
806.463	2902
806.564	2651
806.664	3081
806.765	3041
806.865	2818
806.966	3760
807.066	2636
807.166	3149
807.267	2643
807.367	2548
807.468	980
807.568	2156
807.668	1803
807.769	1969
807.869	2898
807.969	2358
808.069	2609
808.170	2003
808.270	2263
808.370	1737
808.470	2019
808.570	3126
808.670	3199
808.770	2555
808.870	2275
808.970	1053
809.070	2054
809.170	2241
809.271	2042
809.370	2189
809.470	2166
809.570	2338
809.670	1888
809.770	1825
809.870	2660
809.970	2253
810.070	2041
810.169	2065
810.269	1943
810.369	2347
810.469	2298
810.568	2588
810.668	3061
810.768	1969
810.867	2423
810.967	2650
811.066	2690
811.166	2160
811.265	2556
811.365	2018
811.464	1726
811.564	2137
811.663	1720
811.763	2558
811.862	2300
811.962	2015
812.061	1883
812.160	1941
812.260	2553
812.359	2855
812.458	3079
812.557	4648
812.657	9028
812.756	18765
812.855	10349
812.954	3145
813.053	2762
813.153	2685
813.252	2086
813.351	2877
813.450	2623
813.549	3000
813.648	2403
813.747	1989
813.846	2817
813.945	3058
814.044	3046
814.143	2767
814.242	2362
814.341	3385
814.439	2015
814.538	3072
814.637	2741
814.736	2967
814.835	2884
814.933	3336
815.032	3486
815.131	3471
815.229	3218
815.328	5184
815.427	4806
815.525	4463
815.624	4537
815.722	5170
815.821	3389
815.919	4808
816.018	4200
816.116	5349
816.215	5070
816.313	5478
816.412	4909
816.510	5327
816.609	6035
816.707	6646
816.805	6441
816.904	7368
817.002	7027
817.100	8587
817.198	8368
817.296	8245
817.395	10163
817.493	11034
817.591	12208
817.689	13089
817.787	18450
817.885	23734
817.983	35827
818.081	61179
818.179	117603
818.277	243584
818.375	524609
818.473	656778
818.571	311695
818.669	121397
818.767	67610
818.865	53459
818.963	49521
819.061	54181
819.158	72380
819.256	114008
819.354	207077
819.452	409220
819.549	764901
819.647	763934
819.745	380690
819.842	165042
819.940	90839
820.038	59390
820.135	43499
820.233	33141
820.330	26350
820.428	20629
820.525	17311
820.623	14667
820.720	13006
820.818	11830
820.915	10995
821.012	10192
821.110	9125
821.207	8303
821.304	7916
821.402	7229
821.499	6513
821.596	6936
821.693	6998
821.791	6937
821.888	6305
821.985	6743
822.082	7344
822.179	8572
822.276	5892
822.373	4930
822.470	5519
822.567	4064
822.664	3927
822.761	4201
822.858	3050
822.955	4037
823.052	3687
823.149	4530
823.246	3320
823.343	3688
823.440	3257
823.536	2954
823.633	2849
823.730	3996
823.827	2842
823.923	2958
824.020	2592
824.117	2959
824.213	3310
824.310	3625
824.407	3078
824.503	2884
824.600	2784
824.696	2666
824.793	2928
824.889	2760
824.986	2479
825.082	3032
825.179	3379
825.275	3052
825.371	2542
825.468	3001
825.564	2218
825.660	2104
825.757	2492
825.853	3163
825.949	2627
826.045	2549
826.142	1865
826.238	2421
826.334	2307
826.430	2313
826.526	2738
826.622	1858
826.718	1552
826.814	2014
826.910	2243
827.006	2672
827.102	1444
827.198	1936
827.294	1800
827.390	2145
827.486	1483
827.582	1514
827.678	1151
827.774	2300
827.869	2076
827.965	1859
828.061	1248
828.157	1933
828.252	2203
828.348	2592
828.444	2267
828.539	1962
828.635	1944
828.731	1979
828.826	1154
828.922	2584
829.017	1632
829.113	2304
829.208	1525
829.304	2085
829.399	1803
829.495	2175
829.590	2140
829.685	1944
829.781	2185
829.876	2075
829.971	2211
830.066	1372
830.162	1169
830.257	1625
830.352	1941
830.447	2054
830.543	847
830.638	1055
830.733	2115
830.828	1894
830.923	2151
831.018	1788
831.113	2018
831.208	2160
831.303	1566
831.398	1389
831.493	722
831.588	1962
831.683	2146
831.778	1767
831.873	2001
831.967	1495
832.062	1266
832.157	1731
832.252	2383
832.346	2012
832.441	1768
832.536	2413
832.631	2819
832.725	3988
832.820	6542
832.914	2367
833.009	1893
833.104	1501
833.198	1207
833.293	1315
833.387	1429
833.482	2427
833.576	1851
833.670	1872
833.765	1534
833.859	1357
833.954	1942
834.048	2263
834.142	1522
834.237	1318
834.331	1051
834.425	1050
834.519	662
834.613	2138
834.708	842
834.802	1060
834.896	924
834.990	1158
835.084	1042
835.178	731
835.272	1651
835.366	1336
835.460	1235
835.554	1108
835.648	1035
835.742	1829
835.836	872
835.930	860
836.024	1245
836.117	1081
836.211	1126
836.305	1520
836.399	1991
836.493	2980
836.586	1853
836.680	1133
836.774	1361
836.867	1228
836.961	645
837.055	1002
837.148	323
837.242	1541
837.335	1222
837.429	1390
837.522	377
837.616	2099
837.709	1978
837.803	2714
837.896	3523
837.989	1613
838.083	2635
838.176	2307
838.269	2985
838.363	4959
838.456	1483
838.549	1126
838.642	2012
838.735	3088
838.829	5454
838.922	4509
839.015	1935
839.108	951
839.201	800
839.294	446
839.387	1149
839.480	585
839.573	1185
839.666	1301
839.759	2231
839.852	1475
839.945	839
840.038	935
840.131	1174
840.223	574
840.316	439
840.409	804
840.502	387
840.594	985
840.687	894
840.780	873
840.873	805
840.965	585
841.058	832
841.150	1221
841.243	2690
841.336	3735
841.428	1203
841.521	551
841.613	898
841.706	926
841.798	1399
841.890	924
841.983	711
842.075	490
842.167	566
842.260	1761
842.352	771
842.444	1310
842.537	2338
842.629	3856
842.721	5559
842.813	3706
842.905	421
842.997	1619
843.090	610
843.182	1908
843.274	2030
843.366	3255
843.458	6979
843.550	14697
843.642	15696
843.734	4783
843.826	607
843.918	1596
844.009	2016
844.101	1455
844.193	1153
844.285	744
844.377	976
844.469	1296
844.560	664
844.652	385
844.744	1940
844.835	1772
844.927	550
845.019	1400
845.110	1255
845.202	1063
845.293	264
845.385	759
845.476	838
845.568	887
845.659	1032
845.751	612
845.842	661
845.934	98
846.025	-64
846.116	1042
846.208	180
846.299	466
846.390	586
846.482	291
846.573	475
846.664	1377
846.755	1477
846.846	2150
846.937	2574
847.029	764
847.120	114
847.211	617
847.302	1679
847.393	1008
847.484	1338
847.575	1029
847.666	486
847.757	1146
847.847	1
847.938	1202
848.029	765
848.120	849
848.211	983
848.302	770
848.392	635
848.483	1383
848.574	346
848.664	653
848.755	1099
848.846	147
848.936	430
849.027	1233
849.118	525
849.208	517
849.299	510
849.389	1650
849.480	1480
849.570	3404
849.661	6077
849.751	10052
849.841	20865
849.932	17460
850.022	3868
850.112	1724
850.203	1118
850.293	765
850.383	909
850.474	298
850.564	179
850.654	972
850.744	171
850.834	841
850.924	194
851.014	1056
851.104	537
851.194	861
851.284	262
851.374	447
851.464	1452
851.554	1122
851.644	984
851.734	1506
851.824	782
851.914	1345
852.004	595
852.094	593
852.183	631
852.273	551
852.363	620
852.452	942
852.542	187
852.632	557
852.721	638
852.811	916
852.901	233
852.990	847
853.080	649
853.169	933
853.259	555
853.348	980
853.438	64
853.527	1466
853.617	1500
853.706	2732
853.795	4371
853.885	8559
853.974	18196
854.063	38769
854.152	60795
854.242	123450
854.331	96820
854.420	18305
854.509	5599
854.598	2951
854.687	2543
854.777	2059
854.866	1999
854.955	1037
855.044	1212
855.133	1120
855.222	201
855.311	605
855.400	858
855.488	441
855.577	439
855.666	1034
855.755	562
855.844	393
855.933	-1
856.021	950
856.110	609
856.199	642
856.288	638
856.376	310
856.465	348
856.554	575
856.642	1097
856.731	554
856.819	609
856.908	912
856.996	812
857.085	577
857.173	283
857.262	263
857.350	-29
857.438	696
857.527	-33
857.615	910
857.703	270
857.792	496
857.880	548
857.968	40
858.056	399
858.145	257
858.233	-125
858.321	501
858.409	295
858.497	727
858.585	-84
858.673	246
858.761	1065
858.849	-45
858.937	-571
859.025	-86
859.113	-54
859.201	47
859.289	683
859.377	861
859.465	369
859.552	-113
859.640	-177
859.728	529
859.816	385
859.903	754
859.991	288
860.079	1075
860.166	-316
860.254	404
860.342	377
860.429	332
860.517	-452
860.604	75
860.692	-503
860.779	-173
860.867	-324
860.954	119
861.042	406
861.129	-8
861.216	836
861.304	-159
861.391	363
861.478	-254
861.565	255
861.653	24
861.740	-77
861.827	297
861.914	-214
862.001	210
862.089	-217
862.176	636
862.263	-193
862.350	22
862.437	47
862.524	618
862.611	404
862.698	-305
862.785	746
862.871	564
862.958	-102
863.045	800
863.132	320
863.219	369
863.306	-706
863.392	512
863.479	-219
863.566	43
863.652	668
863.739	326
863.826	57
863.912	461
863.999	-209
864.086	-8
864.172	334
864.259	379
864.345	-346
864.432	381
864.518	371
864.604	740
864.691	451
864.777	1264
864.863	626
864.950	274
865.036	603
865.122	1237
865.209	1433
865.295	2466
865.381	1735
865.467	1641
865.553	2385
865.639	2541
865.726	3243
865.812	5341
865.898	9344
865.984	19275
866.070	29200
866.156	43778
866.242	79045
866.328	42075
866.414	8537
866.499	3054
866.585	2065
866.671	2197
866.757	1953
866.843	2017
866.928	1940
867.014	2401
867.100	1540
867.186	1745
867.271	1373
867.357	1782
867.442	1956
867.528	3380
867.614	2493
867.699	1508
867.785	410
867.870	1626
867.956	2210
868.041	3014
868.127	2419
868.212	1915
868.297	2588
868.383	2427
868.468	2641
868.553	1764
868.639	2544
868.724	4010
868.809	4848
868.894	8170
868.979	3794
869.065	1191
869.150	741
869.235	946
869.320	920
869.405	1507
869.490	620
869.575	996
869.660	373
869.745	227
869.830	599
869.915	1168
870.000	432
870.085	1053
870.169	1513
870.254	556
870.339	1235
870.424	1000
870.509	790
870.593	905
870.678	871
870.763	1058
870.847	1015
870.932	13
871.016	388
871.101	1460
871.186	1768
871.270	938
871.355	1307
871.439	586
871.523	527
871.608	671
871.692	672
871.777	335
871.861	704
871.945	938
872.030	-48
872.114	202
872.198	849
872.282	641
872.367	255
872.451	1282
872.535	412
872.619	1196
872.703	453
872.787	500
872.871	805
872.955	587
873.039	610
873.123	542
873.207	590
873.291	628
873.375	442
873.459	456
873.543	843
873.627	418
873.711	534
873.794	606
873.878	428
873.962	458
874.045	564
874.129	371
874.137	418
874.213	888
874.245	890
874.296	894
874.352	407
874.380	168
874.460	-44
874.464	-53
874.547	237
874.568	239
874.631	235
874.676	637
874.714	984
874.784	492
874.798	387
874.881	866
874.892	794
874.965	367
874.999	234
875.048	37
875.107	237
875.131	316
875.215	307
875.215	307
875.298	730
875.323	713
875.381	715
875.430	455
875.465	253
875.538	595
875.548	645
875.631	-79
875.646	34
875.714	554
875.753	522
875.798	552
875.861	344
875.881	239
875.964	657
875.968	650
876.047	629
876.076	545
876.130	308
876.183	465
876.213	602
876.291	886
876.296	905
876.379	457
876.398	549
876.462	850
876.506	603
876.545	344
876.613	628
876.628	695
876.711	298
876.721	354
876.794	724
876.828	643
876.877	659
876.935	928
876.960	979
877.043	456
877.043	455
877.125	445
877.150	302
877.208	-49
877.258	497
877.291	953
877.365	986
877.374	965
877.456	856
877.472	828
877.539	697
877.579	841
877.622	1037
877.687	990
877.704	1000
877.787	806
877.794	810
877.869	804
877.901	941
877.952	1026
878.008	919
878.034	890
878.115	405
878.117	398
878.199	416
878.222	370
878.282	350
878.329	496
878.364	567
878.437	1138
878.447	1179
878.529	-109
878.544	-63
878.611	473
878.651	569
878.694	521
878.758	634
878.776	718
878.858	757
878.865	816
878.941	1341
878.972	965
879.023	498
879.078	284
879.105	85
879.185	243
879.187	253
879.269	226
879.292	374
879.351	586
879.399	368
879.433	357
879.506	332
879.516	300
879.598	567
879.613	535
879.680	381
879.720	291
879.762	45
879.827	-259
879.844	-172
879.926	517
879.933	553
880.007	243
880.040	262
880.089	518
880.147	380
880.171	288
880.253	630
880.254	634
880.335	1850
880.360	2429
880.417	3591
880.467	4052
880.499	4711
880.574	6627
880.580	6735
880.662	11189
880.680	10646
880.744	6924
880.787	3757
880.825	1707
880.893	877
880.907	721
880.989	610
881.000	572
881.070	713
881.106	634
881.152	317
881.213	328
881.233	394
881.315	314
881.319	330
881.396	698
881.426	697
881.478	533
881.532	399
881.559	477
881.639	877
881.641	867
881.722	370
881.745	130
881.803	303
881.852	397
881.885	262
881.958	413
881.966	441
882.047	767
882.064	722
882.129	402
882.171	466
882.210	821
882.277	1349
882.291	1392
882.372	1739
882.383	1709
882.454	1288
882.489	943
882.535	436
882.596	88
882.616	177
882.697	1148
882.702	1140
882.778	543
882.808	537
882.859	501
882.914	492
882.940	495
883.020	238
883.021	241
883.102	774
883.127	835
883.183	756
883.233	547
883.264	403
883.339	465
883.345	484
883.426	302
883.445	312
883.507	168
883.551	128
883.587	270
883.657	330
883.668	391
883.749	1069
883.763	1197
883.830	882
883.869	490
883.910	425
883.975	436
883.991	418
884.072	335
884.081	330
884.152	580
884.187	559
884.233	282
884.292	443
884.314	643
884.394	1037
884.398	1033
884.475	382
884.504	272
884.555	337
884.610	473
884.636	467
884.716	-107
884.716	-104
884.797	516
884.821	607
884.877	771
884.927	889
884.958	961
885.033	924
885.038	905
885.118	636
885.139	511
885.199	115
885.244	71
885.279	269
885.350	358
885.359	388
885.439	1122
885.456	1144
885.520	476
885.561	251
885.600	424
885.667	484
885.680	485
885.760	626
885.773	632
885.840	439
885.878	330
885.920	304
885.984	269
886.000	397
886.080	1122
886.089	1162
886.160	474
886.195	341
886.240	631
886.300	720
886.320	697
886.400	736
886.406	730
886.480	763
886.511	763
886.560	736
886.616	895
886.640	1090
886.720	1433
886.722	1437
886.800	783
886.827	617
886.879	1003
886.932	1202
886.959	940
887.038	286
887.039	293
887.119	669
887.143	794
887.198	648
887.248	515
887.278	595
887.354	883
887.358	867
887.437	363
887.459	199
887.517	435
887.564	742
887.596	722
887.669	617
887.676	612
887.755	454
887.774	401
887.835	241
887.880	182
887.914	180
887.985	219
887.994	295
888.073	898
888.090	1000
888.153	839
888.195	766
888.232	542
888.300	113
888.311	210
888.391	903
888.405	1015
888.470	661
888.510	512
888.549	662
888.615	742
888.628	602
888.708	-167
888.720	-279
888.787	302
888.825	598
888.866	567
888.930	506
888.945	504
889.024	520
889.035	515
889.103	684
889.140	798
889.182	821
889.245	805
889.261	813
889.340	849
889.349	855
889.419	839
889.454	799
889.498	584
889.559	317
889.577	445
889.656	996
889.664	1049
889.735	635
889.768	440
889.814	794
889.873	1259
889.978	757
890.083	987
890.187	434
890.292	360
890.397	1361
890.501	1148
890.606	516
890.710	1143
890.815	169
890.919	1119
891.024	-227
891.128	673
891.233	556
891.337	1164
891.442	835
891.546	1502
891.650	392
891.755	1122
891.859	1210
891.963	768
892.068	790
892.172	1245
892.276	1001
892.380	916
892.484	684
892.589	1068
892.693	171
892.797	813
892.901	257
893.005	1007
893.109	180
893.213	1114
893.317	135
893.421	1375
893.525	584
893.629	660
893.733	1007
893.837	1521
893.941	309
894.045	398
894.148	303
894.252	393
894.356	155
894.460	1254
894.564	714
894.667	681
894.771	716
894.875	350
894.978	652
895.082	960
895.186	562
895.289	1493
895.393	-204
895.496	1252
895.600	135
895.703	646
895.807	1239
895.910	508
896.014	425
896.117	344
896.221	750
896.324	1014
896.427	-103
896.531	523
896.634	412
896.737	1188
896.840	-4
896.944	1347
897.047	611
897.150	477
897.253	18
897.356	713
897.460	983
897.563	772
897.666	449
897.769	1185
897.872	965
897.975	723
898.078	504
898.181	566
898.284	490
898.387	448
898.490	437
898.593	814
898.695	424
898.798	586
898.901	575
899.004	388
899.107	-802
899.209	536
899.312	644
899.415	1158
899.518	270
899.620	225
899.723	845
899.826	717
899.928	1007
900.031	1303
900.133	274
900.236	977
900.338	790
900.441	264
900.543	342
900.646	1079
900.748	260
900.851	899
900.953	3
901.055	174
901.158	478
901.260	863
901.362	1293
901.465	-176
901.567	507
901.669	729
901.771	511
901.873	72
901.976	220
902.078	406
902.180	339
902.282	361
902.384	-66
902.486	1325
902.588	1248
902.690	1027
902.792	78
902.894	1230
902.996	467
903.098	936
903.200	315
903.302	703
903.404	612
903.505	775
903.607	130
903.709	-21
903.811	-19
903.913	331
904.014	646
904.116	820
904.218	1238
904.319	112
904.421	870
904.523	694
904.624	963
904.726	133
904.827	564
904.929	416
905.030	400
905.132	893
905.233	733
905.335	399
905.436	6
905.537	427
905.639	451
905.740	159
905.841	412
905.943	426
906.044	-87
906.145	324
906.247	290
906.348	304
906.449	296
906.550	889
906.651	457
906.752	535
906.854	186
906.955	1112
907.056	253
907.157	248
907.258	614
907.359	326
907.460	608
907.561	918
907.662	218
907.762	1305
907.863	357
907.964	876
908.065	886
908.166	754
908.267	329
908.367	-29
908.468	495
908.569	42
908.670	915
908.770	1046
908.871	590
908.971	1222
909.072	516
909.173	-76
909.273	287
909.374	747
909.474	-13
909.575	382
909.675	425
909.776	333
909.876	619
909.977	1038
910.077	238
910.177	709
910.278	378
910.378	480
910.478	-36
910.579	1110
910.679	796
910.779	1054
910.879	289
910.980	586
911.080	495
911.180	824
911.280	1023
911.380	1287
911.480	158
911.580	750
911.680	630
911.780	300
911.880	337
911.980	343
912.080	708
912.180	898
912.280	770
912.380	445
912.480	1165
912.580	1677
912.679	610
912.779	785
912.879	261
912.979	1159
913.078	374
913.178	1249
913.278	384
913.377	400
913.477	-154
913.577	889
913.676	881
913.776	748
913.875	-274
913.975	731
914.074	766
914.174	518
914.273	501
914.373	470
914.472	298
914.572	428
914.671	452
914.770	74
914.870	578
914.969	1233
915.068	691
915.167	554
915.267	774
915.366	219
915.465	86
915.564	1277
915.663	322
915.763	1194
915.862	36
915.961	541
916.060	768
916.159	839
916.258	49
916.357	1095
916.456	695
916.555	85
916.654	623
916.752	286
916.851	699
916.950	147
917.049	81
917.148	910
917.247	942
917.345	801
917.444	196
917.543	1211
917.642	295
917.740	1992
917.839	618
917.937	463
918.036	348
918.135	802
918.233	83
918.332	786
918.430	343
918.529	1208
918.627	321
918.726	1067
918.824	305
918.923	1408
919.021	-147
919.119	633
919.218	-150
919.316	602
919.414	296
919.512	1349
919.611	389
919.709	968
919.807	345
919.905	1065
920.003	188
920.102	103
920.200	661
920.298	903
920.396	541
920.494	1069
920.592	532
920.690	1226
920.788	1404
920.886	1093
920.984	502
921.082	756
921.180	985
921.277	473
921.375	331
921.473	1122
921.571	1520
921.669	1378
921.766	486
921.864	1705
921.962	755
922.060	1177
922.157	1367
922.255	1205
922.352	1339
922.450	1406
922.548	1145
922.645	657
922.743	412
922.840	1952
922.938	1778
923.035	2096
923.133	1653
923.230	1321
923.327	1249
923.425	2328
923.522	1490
923.619	2018
923.717	1502
923.814	2060
923.911	1711
924.008	1220
924.106	1038
924.203	1694
924.300	1631
924.397	1763
924.494	1633
924.591	1296
924.688	1387
924.786	1231
924.883	1539
924.979	1824
925.077	1832
925.173	1771
925.270	2070
925.367	2022
925.464	1176
925.561	1400
925.658	1944
925.755	2284
925.852	1061
925.948	1991
926.045	1678
926.142	2579
926.239	1533
926.335	1908
926.432	1698
926.529	1412
926.625	1724
926.722	2036
926.818	1469
926.915	1585
927.011	1546
927.108	1484
927.204	1812
927.301	1793
927.397	1731
927.494	1449
927.590	946
927.687	153
927.783	419
927.879	2161
927.976	1634
928.072	1802
928.168	1297
928.264	1907
928.361	1117
928.457	1557
928.553	990
928.649	2018
928.745	1299
928.841	1587
928.937	770
929.033	1436
929.129	1263
929.225	1642
929.321	1104
929.417	1310
929.513	668
929.609	1906
929.705	1640
929.801	1449
929.897	1673
929.993	1360
930.089	270
930.184	2138
930.280	515
930.376	1988
930.471	740
930.567	1373
930.663	862
930.758	852
930.854	445
930.950	704
931.045	879
931.141	1558
931.236	683
931.332	1075
931.427	903
931.523	1386
931.618	675
931.714	1147
931.809	499
931.905	1282
932.000	266
932.095	1047
932.191	680
932.286	864
932.381	1274
932.476	1783
932.572	779
932.667	1217
932.762	1333
932.857	1425
932.952	533
933.047	1731
933.142	1032
933.237	1494
933.332	612
933.427	1143
933.522	1104
933.617	898
933.712	611
933.807	1441
933.902	960
933.997	910
934.092	1464
934.187	629
934.282	805
934.376	527
934.471	400
934.566	992
934.661	892
934.755	1470
934.850	627
934.945	1399
935.039	603
935.134	697
935.228	608
935.323	1236
935.417	510
935.512	284
935.606	321
935.701	1399
935.795	717
935.890	1034
935.984	535
936.079	210
936.173	422
936.267	1282
936.362	102
936.456	1000
936.550	1212
936.644	1190
936.738	756
936.833	1453
936.927	918
937.021	562
937.115	704
937.209	699
937.303	1012
937.397	1202
937.491	276
937.585	589
937.679	1334
937.773	388
937.867	1086
937.961	794
938.055	-179
938.149	986
938.243	723
938.337	718
938.430	-281
938.524	413
938.618	1507
938.712	1313
938.805	775
938.899	708
938.993	561
939.086	733
939.180	224
939.274	1470
939.367	1111
939.461	855
939.554	-162
939.648	612
939.741	35
939.835	877
939.928	1166
940.022	785
940.115	1214
940.208	1063
940.302	892
940.395	1218
940.488	692
940.582	897
940.675	644
940.768	1897
940.861	-341
940.954	822
941.048	677
941.141	1051
941.234	-213
941.327	764
941.420	289
941.513	1210
941.606	713
941.699	588
941.792	369
941.885	520
941.978	95
942.071	583
942.164	840
942.257	826
942.349	70
942.442	183
942.535	348
942.628	1098
942.721	237
942.813	804
942.906	487
942.999	1355
943.091	27
943.184	923
943.277	622
943.369	476
943.462	61
943.554	198
943.647	-174
943.739	1044
943.832	280
943.924	324
944.017	416
944.109	315
944.201	241
944.294	564
944.386	-44
944.478	924
944.571	471
944.663	415
944.755	113
944.847	601
944.940	710
945.032	433
945.124	538
945.216	863
945.308	492
945.400	826
945.492	-45
945.584	519
945.676	383
945.768	408
945.860	-101
945.952	693
946.044	309
946.136	484
946.228	138
946.320	563
946.412	184
946.503	328
946.595	252
946.687	696
946.779	410
946.870	-609
946.962	26
947.054	111
947.145	542
947.237	-70
947.329	114
947.420	803
947.512	83
947.603	376
947.695	-198
947.786	148
947.878	-35
947.969	363
948.061	584
948.152	588
948.243	446
948.335	81
948.426	297
948.517	331
948.609	-130
948.700	831
948.791	777
948.882	776
948.973	717
949.065	20
949.156	498
949.247	383
949.338	194
949.429	736
949.520	-550
949.611	547
949.702	-254
949.793	422
949.884	-308
949.975	190
950.066	-189
950.157	8
950.247	370
950.338	622
950.429	566
950.520	554
950.611	-422
950.701	445
950.792	249
950.883	815
950.973	579
951.064	524
951.155	375
951.245	213
951.336	249
951.427	249
951.517	344
951.608	-80
951.698	-485
951.788	107
951.879	-1140
951.969	375
952.060	-86
952.150	13
952.240	97
952.331	280
952.421	-413
952.511	549
952.602	29
952.692	700
952.782	190
952.872	-116
952.962	93
953.052	552
953.143	77
953.233	819
953.323	332
953.413	697
953.503	270
953.593	614
953.683	299
953.773	-408
953.863	-107
953.953	-397
954.042	-120
954.132	-350
954.222	231
954.312	-451
954.402	19
954.492	329
954.581	82
954.671	730
954.761	-214
954.850	588
954.940	496
955.030	125
955.119	-644
955.209	645
955.298	-237
955.388	301
955.477	802
955.567	-675
955.656	-881
955.746	561
955.835	-548
955.925	67
956.014	-471
956.103	568
956.193	-121
956.282	-46
956.371	308
956.461	639
956.550	174
956.639	28
956.728	326
956.817	-337
956.906	-159
956.995	308
957.085	-289
957.174	-240
957.263	-95
957.352	360
957.441	-232
957.530	393
957.619	-369
957.708	116
957.796	-120
957.885	861
957.974	431
958.063	323
958.152	-951
958.241	-566
958.329	-249
958.418	151
958.507	419
958.596	165
958.684	-320
958.773	1096
958.861	-428
958.950	209
959.039	-447
959.127	448
959.216	214
959.304	182
959.393	-765
959.481	395
959.570	-442
959.658	721
959.746	60
959.835	-143
959.923	-248
960.011	878
960.100	-185
960.188	494
960.276	-247
960.365	403
960.453	-462
960.541	-297
960.629	-944
960.717	-90
960.805	-348
960.893	-174
960.981	78
961.069	-217
961.158	-768
961.245	26
961.333	-546
961.421	-346
961.509	-987
961.597	33
961.685	-90
961.773	-52
961.861	-956
961.949	251
962.036	71
962.124	761
962.212	-228
962.299	-157
962.387	-441
962.475	-287
962.562	-86
962.650	-443
962.738	30
962.825	105
962.913	-413
963.000	-382
963.088	-91
963.175	999
963.263	-478
963.350	-17
963.438	-498
963.525	490
963.612	-317
963.700	-30
963.787	444
963.874	3278
963.962	818
964.049	804
964.136	224
964.223	7
964.310	-547
964.398	-322
964.485	-356
964.572	39
964.659	278
964.746	844
964.833	81
964.920	-393
965.007	-457
965.094	53
965.181	-237
965.268	437
965.355	-188
965.441	161
965.528	-569
965.615	-87
965.702	-483
965.789	28
965.875	-191
965.962	65
966.049	-167
966.136	58
966.222	188
966.309	287
966.395	-338
966.482	53
966.569	-631
966.655	379
966.742	-281
966.828	244
966.915	-232
967.001	127
967.087	-733
967.174	-335
967.260	-756
967.347	357
967.433	83
967.519	726
967.605	1679
967.692	670
967.778	545
967.864	-609
967.950	-962
968.036	-170
968.123	-20
968.209	415
968.295	-451
968.381	142
968.467	-385
968.553	-538
968.639	-775
968.725	226
968.811	-554
968.897	231
968.983	304
969.069	46
969.154	-258
969.240	-801
969.326	-315
969.412	-485
969.497	-1043
969.583	-738
969.669	-1836
969.755	229
969.840	-1617
969.926	-8
970.012	-68
970.097	-426
970.183	-90
970.268	339
970.354	-247
970.439	-772
970.525	102
970.610	834
970.696	413
970.781	-987
970.866	-403
970.952	-249
971.037	-400
971.122	-974
971.208	-806
971.293	-72
971.378	-905
971.463	-760
971.549	-242
971.634	27
971.719	-1096
971.804	-821
971.889	-386
971.974	-930
972.059	-753
972.144	-1000
972.229	-1248
972.314	-1107
972.399	-156
972.484	-394
972.569	-384
972.654	0
972.739	-1034
972.824	235
972.908	322
972.993	-658
973.078	-1022
973.163	-463
973.247	-1294
973.332	-1079
973.417	-1185
973.501	-445
973.586	-161
973.671	-212
973.755	-1244
973.840	-353
973.924	-487
974.009	49
974.093	-1561
974.178	-341
974.262	-1447
974.346	-489
974.431	-762
974.515	-391
974.600	-71
974.684	24
974.768	-987
974.852	23
974.937	-1520
975.021	-554
975.105	-1137
975.189	-296
975.273	-1217
975.358	-1476
975.442	-573
975.526	-864
975.610	-496
975.694	-511
975.778	-692
975.862	-502
975.946	-1029
976.030	-243
976.114	-1335
976.198	-921
976.281	-1056
976.365	-303
976.449	-1593
976.533	-637
976.617	-1191
976.700	-311
976.784	-965
976.868	-1408
976.951	-513
977.035	-981
977.119	-1858
977.202	-768
977.286	-1244
977.369	-614
977.453	-1263
977.536	-645
977.620	-741
977.703	-511
977.787	-1537
977.870	-792
977.953	-1348
978.037	-1043
978.120	-1002
978.203	-747
978.287	-1303
978.370	58
978.453	-331
978.536	-645
978.620	-403
978.703	-522
978.786	-329
978.869	-111
978.952	-1395
979.035	-146
979.118	-1336
979.201	-941
979.284	-1008
979.367	-484
979.450	-934
979.533	-889
979.616	-1699
979.699	-1458
979.782	-958
979.865	-899
979.948	-1195
980.030	-1340
980.113	-2027
980.196	-1067
980.279	-1061
980.361	-1149
980.444	-2130
980.526	-1042
980.609	-417
980.692	-1037
980.774	-1198
980.857	-484
980.939	-862
981.022	-1491
981.104	-1139
981.187	-783
981.269	-904
981.352	-812
981.434	-2094
981.516	-1173
981.599	-790
981.681	-973
981.763	-1092
981.846	187
981.928	-943
982.010	-237
982.092	-1060
982.174	-1145
982.256	-1158
982.339	-1190
982.421	-1675
982.503	-666
982.585	-653
982.667	-1234
982.749	-568
982.831	-1328
982.913	-1208
982.995	-854
983.077	-1166
983.158	-508
983.240	-1250
983.322	-914
983.404	-863
983.486	-476
983.568	-408
983.649	-1166
983.731	-839
983.813	-526
983.894	-876
983.976	-629
984.058	-694
984.139	-373
984.221	-977
984.302	-495
984.384	-936
984.465	-1206
984.547	-1133
984.628	-1122
984.710	-937
984.791	-979
984.872	-1407
984.954	-813
985.035	-1697
985.116	-921
985.198	-536
985.279	-441
985.360	-1277
985.441	-732
985.522	-1452
985.604	-1067
985.685	-1813
985.766	-355
985.847	-1687
985.928	-1184
986.009	-1445
986.090	-940
986.171	-2332
986.252	-550
986.333	-1175
986.414	-859
986.495	-1586
986.576	-671
986.656	-1686
986.737	-443
986.818	-777
986.899	-1111
986.980	-1342
987.060	-389
987.141	-1477
987.222	-537
987.302	-1034
987.383	-421
987.464	-960
987.544	-1106
987.625	-981
987.705	-1328
987.786	-671
987.866	-662
987.947	-1099
988.027	-654
988.108	-784
988.188	-86
988.268	-1029
988.349	-1305
988.429	-938
988.509	-1234
988.589	-997
988.670	-652
988.750	-1662
988.830	-927
988.910	-135
988.990	-562
989.070	-912
989.151	-831
989.231	-1056
989.311	-717
989.391	-985
989.471	-853
989.551	-652
989.631	-1142
989.711	-1102
989.791	-798
989.870	-1103
989.950	-592
990.030	-1308
990.110	-710
990.190	-979
990.269	-1738
990.349	-1061
990.429	-1491
990.509	-805
990.588	-489
990.668	-208
990.747	-877
990.827	-1528
990.907	-201
990.986	-1135
991.066	-824
991.145	-1261
991.225	-480
991.304	-856
991.383	-1432
991.463	-1946
991.542	-783
991.622	-348
991.701	-657
991.780	-945
991.859	-1918
991.939	-504
992.018	-741
992.097	-814
992.176	-1723
992.256	-1256
992.335	-859
992.414	-1224
992.493	-1151
992.572	-1130
992.651	-724
992.730	-767
992.809	-517
992.888	-1411
992.967	-1058
993.046	-1209
993.125	-1300
993.203	-1367
993.282	144
993.361	-1533
993.440	-950
993.519	-1303
993.597	-1779
993.676	-1130
993.755	-897
993.834	-1655
993.912	-980
993.991	-1278
994.069	-302
994.148	-1136
994.226	-1074
994.305	-1564
994.384	-781
994.462	-483
994.540	-1108
994.619	-1528
994.697	-1064
994.776	-1823
994.854	-1046
994.932	-710
995.011	-852
995.089	-1150
995.167	-954
995.245	-1584
995.324	-641
995.402	-881
995.480	-1081
995.558	-539
995.636	-925
995.714	-874
995.792	-588
995.870	-1279
995.948	-283
996.026	-1359
996.104	-360
996.182	-1120
996.260	-739
996.338	-1344
996.416	-1280
996.494	-1382
996.572	-753
996.649	-749
996.727	-1126
996.805	-823
996.883	-1009
996.960	-1829
997.038	-1024
997.116	-320
997.193	-892
997.271	-1669
997.348	-697
997.426	-78
997.504	-308
997.581	-317
997.658	-332
997.736	-994
997.813	-654
997.891	-960
997.968	-1135
998.046	-1479
998.123	-1237
998.200	-1452
998.277	-992
998.355	-154
998.432	-1539
998.509	-1751
998.586	-839
998.663	-1074
998.741	-1022
998.818	-1364
998.895	-1840
998.972	-662
999.049	-810
999.126	-815
999.203	-314
999.280	-1137
999.357	-1195
999.434	-1309
999.511	-1852
999.587	-251
999.664	-1624
999.741	-718
999.818	-964
999.895	-716
999.971	-152
1000.048	-1668
1000.125	-692
1000.202	-2082
1000.278	-1132
1000.355	-1102
1000.431	-944
1000.508	-1182
1000.584	-983
1000.661	-1409
1000.738	-1393
1000.814	-1286
1000.890	-1643
1000.967	-1762
1001.043	-475
1001.120	-980
1001.196	-1126
1001.272	-1901
1001.349	-224
1001.425	-1153
1001.501	-1154
1001.577	-1187
1001.654	-895
1001.730	-1531
1001.806	-1155
1001.882	-1443
1001.958	-1821
1002.034	-1201
1002.110	-1343
1002.186	-1681
1002.262	-1918
1002.338	-1038
1002.414	-1504
1002.490	-940
1002.566	-985
1002.642	-1562
1002.718	-912
1002.794	-1532
1002.870	-807
1002.945	-1019
1003.021	-915
1003.097	-2014
1003.173	-616
1003.248	-874
1003.324	-2101
1003.400	-1564
1003.475	-901
1003.551	-2207
1003.626	-987
1003.702	-1517
1003.777	-1303
1003.853	-1615
1003.928	-1074
1004.004	-2122
1004.079	-1454
1004.155	-1711
1004.230	-1410
1004.305	-2141
1004.381	-1193
1004.456	-1186
1004.531	-800
1004.607	-1332
1004.682	-866
1004.757	-1646
1004.832	-1032
1004.907	-2048
1004.982	-394
1005.057	-1159
1005.133	-1554
1005.208	-1833
1005.283	-1368
1005.358	-1067
1005.433	-1515
1005.508	-1979
1005.583	-962
1005.657	-1782
1005.732	-1082
1005.807	-1186
1005.882	-1271
1005.957	-2138
1006.032	-1281
1006.106	-1907
1006.181	-1974
1006.256	-1330
1006.331	-1691
1006.405	-2073
1006.480	-697
1006.554	-1757
1006.629	-1221
1006.704	-1490
1006.778	-1521
1006.853	-1508
1006.927	-2062
1007.002	-788
1007.076	-1889
1007.150	-1438
1007.225	-1478
1007.299	-2004
1007.373	-1710
1007.448	-1885
1007.522	-1464
1007.596	-2099
1007.671	-1244
1007.745	-1339
1007.819	-1579
1007.893	-1368
1007.967	-1555
1008.041	-2010
1008.115	-1490
1008.190	-1713
1008.264	-1909
1008.338	-1750
1008.412	-1663
1008.486	-1456
1008.560	-1053
1008.633	-2050
1008.707	-1402
1008.781	-1683
1008.855	-1719
1008.929	-1922
1009.003	-2179
1009.076	-2202
1009.150	-1737
1009.224	-1752
1009.298	-1482
1009.371	-1820
1009.445	-961
1009.519	-2075
1009.592	-1641
1009.666	-1918
1009.739	-1901
1009.813	-1749
1009.886	-2038
1009.960	-2055
1010.033	-1691
1010.107	-1638
1010.180	-890
1010.253	-1634
1010.327	-1425
1010.400	-2041
1010.473	-1832
1010.547	-1599
1010.620	-1327
1010.693	-2070
1010.766	-2356
1010.840	-1960
1010.913	-1309
1010.986	-2776
1011.059	-1714
1011.132	-1748
1011.205	-1552
1011.278	-2044
1011.351	-1811
1011.424	-1623
1011.497	-1393
1011.570	-1449
1011.643	-2055
1011.716	-1535
1011.789	-1168
1011.862	-2002
1011.934	-2060
1012.007	-1378
1012.080	-1425
1012.153	-1577
1012.225	-2083
1012.298	-2097
1012.371	-1594
1012.443	-1544
1012.516	-1982
1012.588	-1641
1012.661	-1387
1012.733	-2270
1012.806	-2239
1012.879	-1527
1012.951	-1528
1013.023	-2184
1013.096	-1062
1013.168	-1549
1013.241	-1585
1013.313	-2347
1013.385	-1466
1013.458	-2092
1013.530	-1504
1013.602	-1835
1013.674	-1402
1013.746	-2920
1013.819	-1148
1013.891	-1649
1013.963	-1658
1014.035	-2166
1014.107	-866
1014.179	-1142
1014.251	-1458
1014.323	-1731
1014.395	-1091
1014.467	-1891
1014.539	-1447
1014.611	-1124
1014.683	-1194
1014.754	-1898
1014.826	-2360
1014.898	-2028
1014.970	-1600
1015.042	-1600
1015.113	-1154
1015.185	-1718
1015.257	-1705
1015.328	-2067
1015.400	-1342
1015.471	-2438
1015.543	-2069
1015.615	-1659
1015.686	-1444
1015.757	-1677
1015.829	-1205
1015.901	-1652
1015.972	-988
1016.043	-2252
1016.115	-993
1016.186	-1584
1016.257	-1994
1016.328	-1480
1016.400	-1567
1016.471	-1923
1016.542	-1637
1016.613	-1237
1016.685	-1129
1016.756	-1513
1016.827	-1438
1016.898	-2682
1016.969	-1853
1017.040	-1476
1017.111	-2521
1017.182	-1836
1017.253	-1991
1017.324	-2735
1017.395	-1111
1017.466	-2249
1017.537	-1380
1017.608	-1340
1017.678	-1810
1017.749	-1975
1017.820	-1229
1017.891	-2220
1017.961	-1398
1018.032	-2248
1018.103	-2248
1018.173	-1821
1018.244	-1399
1018.315	-1895
1018.385	-1568
1018.456	-1866
1018.526	-1891
1018.597	-2127
1018.667	-1560
1018.738	-2354
1018.808	-2144
1018.878	-1519
1018.949	-1254
1019.019	-1475
1019.089	-2238
1019.160	-1784
1019.230	-1342
1019.300	-2302
1019.371	-2204
1019.441	-1291
1019.511	-1570
1019.581	-2754
1019.651	-979
1019.721	-1808
1019.791	-1468
1019.861	-1654
1019.931	-1626
1020.001	-2518
1020.071	-1237
1020.141	-2424
1020.211	-2241
1020.281	-1828
1020.351	-1884
1020.421	-1634
1020.491	-1613
1020.560	-1890
1020.630	-1180
1020.700	-1575
1020.770	-1540
1020.839	-1673
1020.909	-1431
1020.979	-1906
1021.048	-1519
1021.118	-1625
1021.187	-687
1021.257	-1551
1021.326	-1583
1021.396	-1932
1021.465	-1575
1021.535	-1667
1021.604	-614
1021.674	-1339
1021.743	-1046
1021.812	-2562
1021.882	-1077
1021.951	-2312
1022.020	-1614
1022.089	-1045
1022.159	-1995
1022.228	-1685
1022.297	-1793
1022.366	-1516
1022.435	-977
1022.504	-2329
1022.573	-1381
1022.642	-1691
1022.711	-1938
1022.781	-1795
1022.849	-551
1022.918	-1780
1022.987	-405
1023.056	-1167
1023.125	-1503
1023.194	-1857
1023.263	-1340
1023.331	-1055
1023.400	-1695
1023.469	-1335
1023.538	-1147
1023.606	-1787
1023.675	-1228
1023.744	-1268
1023.812	-1277
1023.881	-1404
1023.949	-1585
1024.018	-2145
1024.086	-1940
1024.155	-1371
1024.223	-1512
1024.292	-1165
1024.360	-935
1024.429	-1815
1024.497	-1451
1024.565	-1853
1024.634	-1352
1024.702	-1509
1024.770	-1368
1024.838	-2079
1024.907	-1649
1024.975	-2074
1025.043	-1379
1025.111	-1487
1025.179	-666
1025.247	-1180
1025.315	-2133
1025.383	-1651
1025.451	-1036
1025.519	-2505
1025.587	-1203
1025.655	-1499
1025.723	-1198
1025.791	-946
1025.859	-819
1025.927	-954
1025.995	-1135
1026.062	-2101
1026.130	-388
1026.198	-1637
1026.266	-926
1026.333	-1800
1026.401	-665
1026.469	-1325
1026.536	-1155
1026.604	-1235
1026.671	-589
1026.739	-1554
1026.806	-341
1026.874	-908
1026.941	-1787
1027.009	-1783
1027.076	-1693
1027.144	-1494
1027.211	-1022
1027.278	-1368
1027.345	-1119
1027.413	-1389
1027.480	-1494
1027.547	-907
1027.614	-1049
1027.682	-1495
1027.749	-116
1027.816	-1287
1027.883	-1247
1027.950	-1464
1028.017	-880
1028.084	-2179
1028.151	-1393
1028.218	-1628
1028.285	-851
1028.352	-1710
1028.419	-804
1028.486	-1543
1028.553	-1606
1028.619	-1800
1028.686	-1210
1028.753	-1614
1028.820	-452
1028.886	-1550
1028.953	-1519
1029.020	-949
1029.086	-1415
1029.153	-1564
1029.220	-1600
1029.286	-2135
1029.353	-943
1029.419	-1157
1029.486	-802
1029.552	-1767
1029.619	-1084
1029.685	-1073
1029.751	-1261
1029.818	-694
1029.884	-1101
1029.951	-1393
1030.017	-1221
1030.083	-743
1030.149	-1334
1030.216	-1795
1030.282	-1711
1030.348	-1809
1030.414	-794
1030.480	-1262
1030.546	-1152
1030.612	-1704
1030.678	-1292
1030.744	-1299
1030.810	-986
1030.876	-1308
1030.942	-820
1031.008	-1133
1031.074	-1102
1031.140	-1584
1031.206	-539
1031.272	-1915
1031.337	-1627
1031.403	-783
1031.469	-750
1031.534	-1563
1031.600	-770
1031.666	-1769
1031.731	-1003
1031.797	-1660
1031.863	-1006
1031.928	-1412
1031.994	-1348
1032.059	-1449
1032.125	-1089
1032.190	-1036
1032.256	-881
1032.321	-1519
1032.386	-1390
1032.452	-926
1032.517	-917
1032.582	-2107
1032.647	-1771
1032.713	-1848
1032.778	-1702
1032.843	-1471
1032.908	-1332
1032.974	-957
1033.039	-1176
1033.104	-426
1033.169	-1275
1033.234	-2457
1033.299	-486
1033.364	-1188
1033.429	-1259
1033.494	-1336
1033.559	-356
1033.624	-923
1033.688	-35
1033.753	-2421
1033.818	-1115
1033.883	-2144
1033.948	-1445
1034.013	-948
1034.077	-1904
1034.142	-1888
1034.207	-1596
1034.271	-1107
1034.336	-659
1034.400	-550
1034.465	-684
1034.530	-813
1034.594	-681
1034.658	-416
1034.723	-1635
1034.787	-1446
1034.852	-1075
1034.916	-1561
1034.981	-1849
1035.045	-1425
1035.109	-1342
1035.173	-2118
1035.238	-1691
1035.302	-1656
1035.366	-1103
1035.430	-1350
1035.495	-877
1035.559	-984
1035.623	-1335
1035.687	-1832
1035.751	-1420
1035.815	-1909
1035.879	-1374
1035.943	-1155
1036.007	-1620
1036.071	-1955
1036.135	-1229
1036.198	-1714
1036.262	-1118
1036.326	-2069
1036.390	-974
1036.454	-2093
1036.517	-1300
1036.581	-978
1036.645	-231
1036.709	-1673
1036.772	-1034
1036.836	-822
1036.900	-728
1036.963	-1504
1037.026	-1892
1037.090	-1842
1037.154	-1405
1037.217	-1773
1037.280	-2303
1037.344	-1232
1037.407	-1776
1037.471	-1452
1037.534	-1513
1037.597	-1659
1037.661	-2036
1037.724	-2675
1037.787	-1501
1037.850	-1726
1037.913	-1414
1037.977	-829
1038.040	-1269
1038.103	-2104
1038.166	-1621
1038.229	-928
1038.292	-2510
1038.355	-2641
1038.418	-1199
1038.481	-2079
1038.544	-1748
1038.607	-1488
1038.670	-1428
1038.732	-1864
1038.795	-2042
1038.858	-2136
1038.921	-1672
1038.984	-2216
1039.046	-1715
1039.109	-2319
1039.172	-1579
1039.234	-1919
1039.297	-1344
1039.360	-2485
1039.422	-1942
1039.485	-1743
1039.547	-1149
1039.610	-1730
1039.672	-637
1039.734	-2467
1039.797	-1970
1039.859	-1998
1039.922	-1592
1039.984	-1880
1040.046	-1252
1040.109	-2171
1040.171	-2365
1040.233	-2465
1040.295	-1681
1040.358	-1963
1040.420	-1550
1040.482	-1672
1040.544	-2018
1040.606	-1815
1040.668	-1484
1040.730	-1943
1040.792	-1446
1040.854	-1578
1040.916	-1861
1040.978	-2213
1041.040	-1901
1041.102	-1943
1041.164	-1789
1041.225	-2118
1041.287	-2024
1041.349	-1803
1041.411	-1755
1041.472	-2502
1041.534	-1720
1041.596	-1848
1041.657	-1595
1041.719	-1659
1041.781	-1992
1041.842	-1996
1041.904	-1528
1041.965	-1238
1042.027	-1311
1042.088	-1938
1042.150	-1606
1042.211	-2417
1042.272	-1751
1042.334	-2306
1042.395	-2344
1042.456	-2359
1042.518	-1729
1042.579	-1492
1042.640	-1700
1042.701	-1961
1042.763	-930
1042.824	-1785
1042.885	-1328
1042.946	-2094
1043.007	-1350
1043.068	-2040
1043.129	-1619
1043.190	-2260
1043.251	-1172
1043.312	-2223
1043.373	-1674
1043.434	-2483
1043.495	-2265
1043.556	-2363
1043.616	-1762
1043.677	-2147
1043.738	-1474
1043.799	-1493
1043.859	-1520
1043.920	-2489
1043.981	-2086
1044.041	-2771
1044.102	-1397
1044.162	-1698
1044.223	-2006
1044.284	-2527
1044.344	-1508
1044.405	-2097
1044.465	-1638
1044.525	-1625
1044.586	-1275
1044.646	-1521
1044.707	-1427
1044.767	-1982
1044.827	-1435
1044.887	-1596
1044.948	-2050
1045.008	-2071
1045.068	-1438
1045.128	-1650
1045.188	-1074
1045.249	-1358
1045.309	-1868
1045.369	-1578
1045.429	-1349
1045.489	-1891
1045.549	-1466
1045.609	-1507
1045.669	-1221
1045.729	-2262
1045.789	-1800
1045.848	-1704
1045.908	-865
1045.968	-1842
1046.028	-1789
1046.088	-2166
1046.147	-1429
1046.207	-1868
1046.267	-1365
1046.326	-1435
1046.386	-1539
1046.446	-1633
1046.505	-888
1046.565	-1217
1046.624	-1463
1046.684	-1321
1046.743	-504
1046.803	-588
1046.862	-449
1046.922	0
