'Start Wavelength	183.907
'End Wavelength	1046.922
'Gate Delay	5.000
'Gate Width (ms)	1.050
'Laser Output Level	0.000
'X Position	0.000
'Y Position	0.000
'Z Position	0.000
'Grid Point Number	1.000
'Shot Number	100.000
183.907	314.000
183.977	-316.000
184.047	-437
184.116	123
184.186	-223
184.256	329
184.325	-16
184.395	503
184.465	451
184.534	523
184.604	184
184.674	140
184.743	-592
184.813	432
184.883	431
184.952	313
185.022	-256
185.092	334
185.161	-441
185.231	378
185.301	-121
185.370	398
185.440	284
185.509	-168
185.579	-298
185.649	316
185.718	-21
185.788	341
185.857	657
185.927	-45
185.996	-208
186.066	-20
186.136	-101
186.205	22
186.275	-413
186.344	-143
186.414	565
186.483	-8
186.553	708
186.622	910
186.692	66
186.761	-349
186.831	739
186.900	496
186.970	272
187.039	722
187.109	914
187.178	499
187.248	-257
187.317	16
187.387	-535
187.456	-27
187.526	471
187.595	542
187.664	622
187.734	381
187.803	-577
187.873	511
187.942	1183
188.012	442
188.081	-75
188.150	154
188.220	-286
188.289	210
188.358	-53
188.428	37
188.497	-323
188.567	922
188.636	700
188.705	586
188.775	-519
188.844	559
188.913	-128
188.983	257
189.052	-41
189.121	174
189.191	253
189.260	553
189.329	353
189.399	554
189.468	-56
189.537	562
189.606	628
189.676	356
189.745	-20
189.814	320
189.883	-423
189.953	-68
190.022	853
190.091	1332
190.161	953
190.230	1270
190.299	109
190.368	838
190.437	-176
190.507	113
190.576	-688
190.645	467
190.714	34
190.783	-397
190.853	-695
190.922	146
190.991	441
191.060	854
191.129	-296
191.198	259
191.268	238
191.337	-269
191.406	711
191.475	-63
191.544	59
191.613	742
191.682	-337
191.752	-204
191.821	147
191.890	490
191.959	-120
192.028	-87
192.097	428
192.166	-10
192.235	295
192.304	440
192.373	216
192.442	-385
192.511	552
192.580	260
192.650	884
192.719	589
192.788	-480
192.857	-400
192.926	378
192.995	-112
193.064	382
193.133	318
193.202	658
193.271	180
193.340	1301
193.409	284
193.478	890
193.547	1455
193.615	1598
193.684	1361
193.753	988
193.822	1385
193.891	6
193.960	939
194.029	170
194.098	985
194.167	313
194.236	-500
194.305	1158
194.374	691
194.443	-367
194.512	485
194.580	-20
194.649	703
194.718	578
194.787	149
194.856	91
194.925	83
194.994	1416
195.062	811
195.131	522
195.200	716
195.269	1183
195.338	528
195.407	609
195.475	352
195.544	-47
195.613	454
195.682	14
195.751	557
195.819	63
195.888	651
195.957	335
196.026	1208
196.094	1049
196.163	1191
196.232	257
196.301	1424
196.369	870
196.438	-138
196.507	281
196.576	553
196.644	3
196.713	519
196.782	216
196.850	727
196.919	-65
196.988	510
197.056	509
197.125	834
197.194	592
197.262	473
197.331	-591
197.400	450
197.468	430
197.537	386
197.606	412
197.674	1317
197.743	1429
197.812	980
197.880	661
197.949	542
198.017	1093
198.086	1054
198.155	155
198.223	591
198.292	1569
198.360	749
198.429	222
198.497	767
198.566	1054
198.635	1680
198.703	500
198.772	1027
198.840	2141
198.909	1043
198.977	967
199.046	-284
199.114	220
199.183	858
199.251	605
199.320	-245
199.388	976
199.457	408
199.525	597
199.594	448
199.662	433
199.731	-171
199.799	467
199.867	863
199.936	487
200.004	131
200.073	277
200.141	235
200.210	-45
200.278	512
200.346	791
200.415	1310
200.483	1074
200.552	208
200.620	861
200.688	674
200.757	1011
200.825	384
200.893	-254
200.962	1198
201.030	316
201.098	113
201.167	431
201.235	977
201.303	677
201.372	87
201.440	1032
201.508	1595
201.577	570
201.645	881
201.713	-112
201.781	518
201.850	690
201.918	514
201.986	930
202.055	914
202.123	1117
202.191	-123
202.259	1063
202.327	484
202.396	468
202.464	624
202.532	622
202.600	2496
202.669	1159
202.737	458
202.805	1114
202.873	269
202.941	547
203.009	203
203.078	-13
203.146	872
203.214	749
203.282	363
203.350	341
203.418	891
203.487	726
203.555	209
203.623	675
203.691	782
203.759	1091
203.827	726
203.895	607
203.963	266
204.031	390
204.099	765
204.168	349
204.236	797
204.304	628
204.372	441
204.440	-163
204.508	114
204.576	516
204.644	632
204.712	474
204.780	421
204.848	353
204.916	589
204.984	665
205.052	947
205.120	274
205.188	1151
205.256	490
205.324	1154
205.392	113
205.460	428
205.528	958
205.596	805
205.664	437
205.732	994
205.799	2535
205.867	2639
205.935	1088
206.003	1607
206.071	657
206.139	628
206.207	746
206.275	886
206.343	1201
206.411	924
206.478	772
206.546	1261
206.614	841
206.682	827
206.750	317
206.818	1229
206.885	1270
206.953	-555
207.021	708
207.089	789
207.157	339
207.225	1283
207.292	262
207.360	1003
207.428	320
207.496	277
207.563	540
207.631	543
207.699	355
207.767	634
207.834	969
207.902	867
207.970	22
208.038	1311
208.105	801
208.173	534
208.241	722
208.309	2059
208.376	185
208.444	1685
208.512	457
208.579	890
208.647	1312
208.715	1656
208.782	425
208.850	431
208.918	629
208.985	876
209.053	1005
209.120	208
209.188	800
209.256	837
209.323	688
209.391	1119
209.459	1418
209.526	1155
209.594	770
209.661	1059
209.729	1191
209.796	805
209.864	323
209.932	564
209.999	1226
210.067	1096
210.134	1041
210.202	736
210.269	1125
210.337	2102
210.404	695
210.472	1252
210.539	1022
210.607	1458
210.674	1028
210.742	1583
210.809	1360
210.877	1566
210.944	1809
211.012	788
211.079	1797
211.146	452
211.214	736
211.281	2158
211.349	1430
211.416	1668
211.484	1237
211.551	670
211.618	791
211.686	1421
211.753	667
211.821	1558
211.888	1389
211.955	1672
212.023	1656
212.090	700
212.157	596
212.225	1784
212.292	2446
212.359	4533
212.427	8834
212.494	3187
212.561	1425
212.629	1220
212.696	1246
212.763	1572
212.831	1754
212.898	1877
212.965	803
213.032	973
213.100	1407
213.167	1269
213.234	991
213.301	1504
213.369	1498
213.436	784
213.503	1068
213.570	882
213.638	1378
213.705	1283
213.772	484
213.839	248
213.906	1498
213.973	1976
214.041	854
214.108	1827
214.175	1137
214.242	1022
214.309	1928
214.376	848
214.444	757
214.511	2076
214.578	1146
214.645	1749
214.712	1524
214.779	852
214.846	907
214.913	1614
214.980	1120
215.048	2657
215.115	2330
215.182	2516
215.249	1332
215.316	1939
215.383	569
215.450	1673
215.517	1348
215.584	580
215.651	1129
215.718	999
215.785	1729
215.852	1628
215.919	1561
215.986	1949
216.053	1280
216.120	625
216.187	1402
216.254	1387
216.321	1348
216.388	1279
216.455	1448
216.522	1513
216.589	1462
216.656	2875
216.722	1779
216.789	2290
216.856	2425
216.923	1688
216.990	1923
217.057	2112
217.124	2800
217.191	2348
217.258	2687
217.324	3134
217.391	3454
217.458	2529
217.525	1336
217.592	1321
217.659	1647
217.725	946
217.792	1851
217.859	1588
217.926	1143
217.993	1546
218.059	945
218.126	968
218.193	526
218.260	1319
218.327	882
218.393	1660
218.460	117
218.527	642
218.594	540
218.660	2342
218.727	1915
218.794	907
218.860	1418
218.927	119
218.994	952
219.061	1224
219.127	1638
219.194	1569
219.261	278
219.327	1588
219.394	377
219.461	454
219.527	1515
219.594	1748
219.661	636
219.727	1187
219.794	1276
219.860	1019
219.927	1162
219.994	2679
220.060	3548
220.127	2164
220.193	1959
220.260	1704
220.326	2750
220.393	5067
220.460	5649
220.526	3339
220.593	1685
220.659	2404
220.726	2578
220.792	5993
220.859	5270
220.925	8131
220.992	9779
221.058	8716
221.125	6830
221.191	4909
221.258	2682
221.324	1790
221.391	1557
221.457	856
221.524	1485
221.590	1881
221.657	6086
221.723	3719
221.789	4194
221.856	2941
221.922	1897
221.989	1328
222.055	946
222.121	1262
222.188	1765
222.254	1961
222.321	766
222.387	834
222.453	564
222.520	579
222.586	749
222.652	1535
222.719	1038
222.785	1015
222.851	858
222.918	1033
222.984	1261
223.050	1171
223.116	218
223.183	567
223.249	691
223.315	676
223.382	1102
223.448	527
223.514	481
223.580	828
223.647	449
223.713	268
223.779	712
223.845	964
223.911	971
223.978	846
224.044	739
224.110	446
224.176	1029
224.242	1227
224.309	-13
224.375	986
224.441	626
224.507	922
224.573	1083
224.639	1047
224.705	76
224.772	441
224.838	611
224.904	815
224.970	1015
225.036	561
225.102	456
225.168	612
225.234	334
225.300	1208
225.366	707
225.432	349
225.499	505
225.565	818
225.631	1447
225.697	1499
225.763	1463
225.829	1186
225.895	1759
225.961	2298
226.027	2307
226.093	1958
226.159	2834
226.225	3913
226.291	10888
226.357	13492
226.423	6312
226.489	4571
226.554	1997
226.620	2440
226.686	2721
226.752	5221
226.818	8725
226.884	17840
226.950	12533
227.016	5478
227.082	3116
227.148	2757
227.214	2629
227.279	2218
227.345	1500
227.411	1482
227.477	2983
227.543	6090
227.609	4748
227.674	2469
227.740	1920
227.806	1793
227.872	1625
227.938	838
228.003	2053
228.069	1123
228.135	1222
228.201	1545
228.267	1669
228.332	1416
228.398	1526
228.464	806
228.530	796
228.595	325
228.661	1177
228.727	1997
228.792	853
228.858	1054
228.924	653
228.990	1811
229.055	934
229.121	1313
229.187	864
229.252	1026
229.318	560
229.384	1331
229.449	1370
229.515	-13
229.581	234
229.646	1815
229.712	770
229.777	2761
229.843	2215
229.909	2638
229.974	2590
230.040	1986
230.105	1311
230.171	1360
230.236	2226
230.302	3514
230.368	2976
230.433	1329
230.499	1714
230.564	2409
230.630	897
230.695	1157
230.761	1211
230.826	946
230.892	2066
230.957	1044
231.023	1157
231.088	1530
231.154	577
231.219	1666
231.284	1708
231.350	1029
231.415	943
231.481	954
231.546	67
231.612	1363
231.677	1276
231.742	614
231.808	1170
231.873	778
231.939	56
232.004	2554
232.069	1434
232.135	1654
232.200	1158
232.265	792
232.331	1521
232.396	1014
232.461	371
232.527	687
232.592	-155
232.657	1264
232.723	2560
232.788	1413
232.853	1047
232.918	687
232.984	320
233.049	755
233.114	1704
233.179	1516
233.245	3531
233.310	3283
233.375	1040
233.440	1655
233.506	306
233.571	777
233.636	660
233.701	1341
233.766	2399
233.832	2111
233.897	1303
233.962	927
234.027	527
234.092	1646
234.157	997
234.222	1029
234.288	2937
234.353	7322
234.418	5443
234.483	4147
234.548	2215
234.613	2177
234.678	1564
234.743	2802
234.808	7712
234.873	3309
234.938	2339
235.004	1374
235.069	1297
235.134	1400
235.199	1278
235.264	2092
235.329	552
235.394	899
235.459	1758
235.524	1392
235.589	1496
235.654	1233
235.719	815
235.784	1614
235.849	2328
235.913	4629
235.978	4425
236.043	3701
236.108	1427
236.173	2018
236.238	2095
236.303	1562
236.368	1339
236.433	3565
236.498	4458
236.563	3668
236.627	7454
236.692	22870
236.757	12828
236.822	6854
236.887	4418
236.952	4325
237.017	2767
237.081	3790
237.146	5485
237.211	10251
237.276	23925
237.341	28975
237.405	12803
237.470	6980
237.535	3810
237.600	3254
237.664	2776
237.729	1944
237.794	4215
237.859	6715
237.923	3316
237.988	2532
238.053	3833
238.118	3445
238.182	11096
238.247	6491
238.312	3402
238.376	2746
238.441	1891
238.506	3081
238.570	1626
238.635	1667
238.700	1899
238.764	997
238.829	4310
238.893	4174
238.958	2895
239.023	2164
239.087	1638
239.152	2215
239.216	1173
239.281	1596
239.346	1262
239.410	1248
239.475	2292
239.539	10570
239.604	4644
239.668	2547
239.733	1739
239.797	4293
239.862	9302
239.926	8716
239.991	2580
240.055	1715
240.120	2272
240.184	1750
240.249	1347
240.313	1130
240.378	1320
240.442	7157
240.507	7790
240.571	2197
240.635	5221
240.700	4377
240.764	887
240.829	1392
240.893	604
240.957	1579
241.022	6598
241.086	8314
241.151	2885
241.215	1644
241.279	3249
241.344	4454
241.408	1803
241.472	2234
241.537	1908
241.601	1825
241.665	1612
241.730	1507
241.794	1874
241.858	1871
241.922	1066
241.987	1944
242.051	1484
242.115	1022
242.179	994
242.244	764
242.308	1817
242.372	2419
242.436	2126
242.501	1143
242.565	1474
242.629	1439
242.693	1599
242.757	998
242.822	955
242.886	2284
242.950	1630
243.014	2135
243.078	1414
243.142	1772
243.206	1765
243.271	2510
243.335	1155
243.399	2735
243.463	14687
243.527	25541
243.591	7010
243.655	3621
243.719	1701
243.783	2486
243.847	5356
243.911	5315
243.975	5705
244.040	2508
244.104	3166
244.168	2259
244.232	3624
244.296	3894
244.360	4764
244.424	2355
244.488	2168
244.552	2403
244.615	950
244.679	1751
244.743	2907
244.807	1797
244.871	1227
244.935	1629
244.999	1173
245.063	1835
245.127	1484
245.191	4137
245.255	1935
245.319	2997
245.383	955
245.446	2603
245.510	987
245.574	2195
245.638	1430
245.702	2025
245.766	5383
245.829	2574
245.893	912
245.957	1820
246.021	2015
246.085	2334
246.149	2544
246.212	6844
246.276	8146
246.340	3647
246.404	1914
246.467	3335
246.531	3955
246.595	2849
246.659	2744
246.722	2730
246.786	3626
246.850	3439
246.913	3494
246.977	1827
247.041	1711
247.104	2573
247.168	2586
247.232	7545
247.295	10555
247.359	5236
247.423	3163
247.486	5185
247.550	3028
247.614	3256
247.677	4022
247.741	2618
247.804	1770
247.868	3260
247.932	6580
247.995	9748
248.059	3993
248.122	1926
248.186	3015
248.249	6654
248.313	20428
248.376	16300
248.440	9892
248.503	3700
248.567	4373
248.630	5639
248.694	7398
248.757	12159
248.821	18480
248.884	10483
248.948	11828
249.011	15818
249.075	22945
249.138	15859
249.202	6486
249.265	5505
249.328	5882
249.392	4457
249.455	3401
249.519	3313
249.582	4153
249.645	7790
249.709	4322
249.772	4008
249.835	4136
249.899	4399
249.962	3343
250.025	2848
250.089	9006
250.152	9837
250.215	5541
250.279	3946
250.342	4987
250.405	4469
250.468	3342
250.532	4138
250.595	8600
250.658	37241
250.721	36027
250.785	13474
250.848	7558
250.911	5156
250.974	4792
251.038	7836
251.101	11009
251.164	6922
251.227	6802
251.290	5304
251.354	11439
251.417	45765
251.480	27907
251.543	29647
251.606	75173
251.669	38469
251.732	17386
251.795	17707
251.859	20438
251.922	45012
251.985	18303
252.048	9286
252.111	6151
252.174	6635
252.237	14169
252.300	21956
252.363	33814
252.426	50283
252.489	18427
252.552	10707
252.615	7618
252.678	8576
252.741	18431
252.804	32288
252.867	53373
252.930	27541
252.993	14562
253.056	10793
253.119	7745
253.182	5923
253.245	10135
253.308	6673
253.371	5520
253.434	6523
253.497	7135
253.559	11841
253.622	6973
253.685	11464
253.748	8645
253.811	4603
253.874	6069
253.937	5274
254.000	4755
254.062	10384
254.125	10564
254.188	12497
254.251	7013
254.314	5327
254.376	9990
254.439	8789
254.502	6688
254.565	9640
254.628	12194
254.690	7171
254.753	3619
254.816	3821
254.878	4548
254.941	10598
255.004	7370
255.067	4890
255.129	3612
255.192	2395
255.255	1841
255.317	3102
255.380	2008
255.443	1886
255.505	1482
255.568	1775
255.631	1889
255.693	3150
255.756	1041
255.819	2883
255.881	1307
255.944	1535
256.006	899
256.069	2260
256.132	2137
256.194	2934
256.257	7621
256.319	6442
256.382	4957
256.444	3587
256.507	1888
256.569	2396
256.632	2181
256.694	3907
256.757	16895
256.819	30310
256.882	9356
256.944	4472
257.007	4721
257.069	3631
257.132	3390
257.194	2715
257.257	2757
257.319	3141
257.381	2932
257.444	11116
257.506	43832
257.569	35188
257.631	18983
257.693	9770
257.756	4959
257.818	4119
257.880	2332
257.943	2974
258.005	1152
258.067	1316
258.130	2299
258.192	3652
258.254	5965
258.317	3374
258.379	2491
258.441	8878
258.503	6460
258.566	12605
258.628	10172
258.690	1902
258.753	3825
258.815	6008
258.877	2965
258.939	2417
259.001	2405
259.064	2189
259.126	3329
259.188	3521
259.250	3692
259.312	4658
259.375	11905
259.437	5497
259.499	2337
259.561	3257
259.623	2307
259.685	2134
259.747	2691
259.809	12970
259.872	15938
259.934	31325
259.996	17498
260.058	4131
260.120	2782
260.182	2469
260.244	1605
260.306	1871
260.368	2139
260.430	1353
260.492	6388
260.554	11103
260.616	6689
260.678	17494
260.740	13656
260.802	4220
260.864	2737
260.926	2231
260.988	2012
261.050	3430
261.112	8070
261.174	22238
261.236	10626
261.298	4219
261.359	10468
261.421	8600
261.483	2615
261.545	2924
261.607	1722
261.669	2220
261.731	6544
261.793	10915
261.854	2915
261.916	3347
261.978	2738
262.040	2411
262.102	2407
262.164	5452
262.225	2913
262.287	2740
262.349	6648
262.411	3694
262.472	2045
262.534	6795
262.596	9502
262.658	2998
262.719	1320
262.781	4597
262.843	9424
262.904	4165
262.966	2990
263.028	3472
263.090	29830
263.151	42894
263.213	12935
263.275	6726
263.336	2437
263.398	3271
263.459	1892
263.521	2403
263.583	5750
263.644	3414
263.706	1676
263.767	1002
263.829	849
263.891	820
263.952	960
264.014	996
264.075	4635
264.137	7754
264.198	2562
264.260	1202
264.321	607
264.383	6853
264.444	10745
264.506	2905
264.567	2439
264.629	6889
264.690	8387
264.752	3521
264.813	2128
264.875	1527
264.936	1401
264.998	1331
265.059	1647
265.120	1463
265.182	2945
265.243	23243
265.305	12248
265.366	3954
265.427	2327
265.489	2415
265.550	606
265.611	2676
265.673	1533
265.734	1504
265.795	831
265.857	1397
265.918	564
265.979	7309
266.040	34722
266.102	15639
266.163	6429
266.224	4545
266.286	1846
266.347	566
266.408	2408
266.469	2163
266.530	818
266.592	1315
266.653	5175
266.714	5100
266.775	1286
266.836	1148
266.898	1724
266.959	3016
267.020	1624
267.081	1761
267.142	1015
267.203	1357
267.264	1010
267.326	2943
267.387	1431
267.448	976
267.509	1390
267.570	1762
267.631	467
267.692	1514
267.753	2679
267.814	1042
267.875	5234
267.936	7582
267.997	4582
268.058	3119
268.119	1517
268.180	2576
268.241	470
268.302	1309
268.363	702
268.424	1314
268.485	2077
268.546	324
268.607	499
268.668	845
268.729	752
268.790	1037
268.851	1835
268.912	5856
268.972	4591
269.033	2339
269.094	1327
269.155	1120
269.216	1226
269.277	1474
269.338	956
269.398	2496
269.459	2009
269.520	2721
269.581	3861
269.642	3901
269.702	2504
269.763	1985
269.824	1200
269.885	2285
269.945	3063
270.006	1615
270.067	734
270.128	739
270.188	164
270.249	745
270.310	746
270.370	1773
270.431	987
270.492	354
270.553	1447
270.613	5104
270.674	6716
270.734	2595
270.795	1471
270.856	3070
270.916	2161
270.977	2097
271.038	2603
271.098	2601
271.159	3735
271.219	2656
271.280	1282
271.340	1510
271.401	2235
271.462	5273
271.522	2579
271.583	1134
271.643	2511
271.704	1248
271.764	2216
271.825	6483
271.885	22088
271.946	18528
272.006	6444
272.066	14287
272.127	14285
272.187	6427
272.248	2632
272.308	3975
272.369	13355
272.429	4741
272.489	6370
272.550	5152
272.610	6517
272.671	4008
272.731	6065
272.791	6666
272.852	3119
272.912	3912
272.972	1942
273.033	2644
273.093	3540
273.153	3407
273.214	2190
273.274	3325
273.334	14739
273.394	17960
273.455	6071
273.515	10676
273.575	16401
273.635	6311
273.696	12682
273.756	16418
273.816	6267
273.876	4786
273.936	14270
273.997	14483
274.057	3841
274.117	2678
274.177	6927
274.237	26888
274.297	15998
274.358	13744
274.418	15832
274.478	9764
274.538	3632
274.598	4620
274.658	17918
274.718	17213
274.778	5166
274.838	3778
274.898	12491
274.958	24773
275.018	18990
275.078	9400
275.138	4152
275.198	2955
275.258	1898
275.318	3585
275.378	5807
275.438	5503
275.498	3086
275.558	17084
275.618	22624
275.678	11132
275.738	9862
275.798	6147
275.858	3560
275.918	1953
275.978	2328
276.038	2774
276.098	1896
276.157	6677
276.217	14186
276.277	5622
276.337	3712
276.397	2526
276.457	2815
276.517	1716
276.576	2502
276.636	1028
276.696	3920
276.756	10128
276.815	5629
276.875	3630
276.935	4065
276.995	3325
277.055	2010
277.114	2114
277.174	5350
277.234	12252
277.293	3205
277.353	3107
277.413	2077
277.472	3260
277.532	2226
277.592	2557
277.651	18285
277.711	19493
277.771	8345
277.830	33033
277.890	15168
277.950	21974
278.009	41122
278.069	11891
278.128	22543
278.188	20277
278.248	10193
278.307	29809
278.367	10994
278.426	4772
278.486	3939
278.545	1759
278.605	2799
278.664	2322
278.724	2097
278.783	11974
278.843	17581
278.902	6433
278.962	4001
279.021	5592
279.081	7306
279.140	6513
279.199	4431
279.259	5010
279.318	4291
279.378	6176
279.437	13541
279.496	52656
279.556	157534
279.615	77799
279.675	23605
279.734	15698
279.793	26876
279.853	28310
279.912	10131
279.971	7154
280.031	4826
280.090	14800
280.149	17215
280.208	22551
280.268	118161
280.327	69344
280.386	18631
280.445	16287
280.505	11173
280.564	6339
280.623	4188
280.682	9702
280.742	10451
280.801	4032
280.860	2676
280.919	3263
280.978	2709
281.037	2617
281.097	2497
281.156	2774
281.215	1949
281.274	4393
281.333	17474
281.392	8504
281.451	2491
281.510	2648
281.569	2289
281.628	2724
281.688	1886
281.747	3115
281.806	1813
281.865	2525
281.924	1421
281.983	2346
282.042	1688
282.101	2183
282.160	2326
282.219	1371
282.278	2337
282.337	10400
282.396	3854
282.454	2924
282.513	4120
282.572	13711
282.631	5442
282.690	3158
282.749	1444
282.808	3825
282.867	2557
282.926	2776
282.985	1750
283.043	1419
283.102	1767
283.161	2478
283.220	9476
283.279	12960
283.338	3633
283.396	2523
283.455	2688
283.514	3638
283.573	5174
283.631	3485
283.690	2311
283.749	2954
283.808	8022
283.866	5696
283.925	2556
283.984	3943
284.043	4533
284.101	4208
284.160	2587
284.219	4319
284.277	2927
284.336	7847
284.395	22747
284.453	12243
284.512	6587
284.570	9184
284.629	7621
284.688	7304
284.746	7594
284.805	9958
284.863	13493
284.922	14964
284.981	17547
285.039	25929
285.098	48135
285.156	106224
285.215	127282
285.273	130004
285.332	88083
285.390	50789
285.449	32106
285.507	20727
285.566	15135
285.624	11553
285.683	9746
285.741	8177
285.799	6890
285.858	6064
285.916	5506
285.975	4390
286.033	3796
286.091	4050
286.150	3097
286.208	3723
286.267	4667
286.325	4247
286.383	6577
286.442	5328
286.500	2797
286.558	3286
286.616	2469
286.675	4828
286.733	3558
286.791	2953
286.850	3740
286.908	5188
286.966	7651
287.024	2937
287.083	2829
287.141	2445
287.199	2817
287.257	3865
287.315	3240
287.374	4319
287.432	8383
287.490	4678
287.548	3285
287.606	2661
287.664	2814
287.723	5028
287.781	4558
287.839	2882
287.897	3765
287.955	3368
288.013	5000
288.071	15331
288.129	94494
288.187	165655
288.245	58514
288.303	23138
288.361	13049
288.419	9967
288.477	6522
288.535	4211
288.593	3829
288.651	3119
288.709	2238
288.767	2663
288.825	1692
288.883	1183
288.941	2532
288.999	1672
289.057	2025
289.115	1513
289.173	2235
289.231	2295
289.289	2786
289.346	2889
289.404	2930
289.462	5310
289.520	4729
289.578	2055
289.636	1690
289.694	1716
289.751	1548
289.809	2247
289.867	2040
289.925	3588
289.983	2629
290.040	1851
290.098	1739
290.156	2372
290.214	2771
290.271	1647
290.329	2160
290.387	1310
290.444	1771
290.502	805
290.560	1931
290.617	1543
290.675	1163
290.733	2171
290.790	1918
290.848	1566
290.906	2354
290.963	1616
291.021	1627
291.078	2542
291.136	2932
291.194	11619
291.251	14550
291.309	3980
291.366	2063
291.424	1940
291.481	1222
291.539	2647
291.596	2066
291.654	1164
291.711	886
291.769	2348
291.826	4899
291.884	2623
291.941	1428
291.999	2429
292.056	2619
292.114	2140
292.171	1659
292.228	2033
292.286	2987
292.343	6383
292.401	6616
292.458	4277
292.515	2838
292.573	2909
292.630	3238
292.687	3601
292.745	2128
292.802	4459
292.859	11670
292.917	18635
292.974	7821
293.031	3841
293.089	2313
293.146	3026
293.203	1848
293.260	1665
293.318	3466
293.375	4671
293.432	2296
293.489	2197
293.546	2113
293.604	3063
293.661	14815
293.718	26209
293.775	12861
293.832	7350
293.889	6027
293.947	5852
294.004	3197
294.061	3234
294.118	11433
294.175	21156
294.232	21864
294.289	8598
294.346	4782
294.403	4424
294.460	4037
294.517	2795
294.574	2038
294.631	2336
294.688	2793
294.745	11584
294.802	36328
294.859	29798
294.916	13206
294.973	7789
295.030	7116
295.087	4450
295.144	3202
295.201	2438
295.258	2613
295.315	3980
295.372	15881
295.429	19294
295.486	8354
295.542	5850
295.599	20882
295.656	23197
295.713	19009
295.770	19152
295.827	7444
295.883	4422
295.940	4358
295.997	7921
296.054	5634
296.111	4148
296.167	2590
296.224	2072
296.281	2132
296.338	1363
296.394	2415
296.451	3537
296.508	12745
296.564	17113
296.621	12047
296.678	30166
296.734	29678
296.791	11464
296.848	5324
296.904	9022
296.961	18867
297.018	27065
297.074	15523
297.131	6284
297.187	4674
297.244	7574
297.301	32250
297.357	35477
297.414	12695
297.470	6189
297.527	4958
297.583	4810
297.640	4421
297.696	3542
297.753	1900
297.809	2155
297.866	1776
297.922	2572
297.979	1071
298.035	3218
298.092	6986
298.148	16275
298.204	11881
298.261	5972
298.317	15879
298.374	30214
298.430	14489
298.486	9486
298.543	6068
298.599	6494
298.656	7123
298.712	15742
298.768	29807
298.824	16958
298.881	6880
298.937	3877
298.993	3998
299.050	5125
299.106	4846
299.162	3879
299.218	3494
299.275	2643
299.331	3438
299.387	9063
299.443	32483
299.500	29195
299.556	13144
299.612	7248
299.668	7425
299.724	13618
299.780	9798
299.837	5252
299.893	9569
299.949	32571
300.005	28615
300.061	32418
300.117	39192
300.173	17227
300.229	9256
300.285	12328
300.341	11699
300.397	6266
300.453	3663
300.510	3518
300.566	3507
300.622	7234
300.678	27158
300.734	33626
300.790	27721
300.845	25060
300.901	23790
300.957	32111
301.013	18600
301.069	9128
301.125	6637
301.181	6042
301.237	4465
301.293	3308
301.349	2991
301.405	3715
301.461	4230
301.516	5499
301.572	6098
301.628	8875
301.684	7363
301.740	14122
301.796	15657
301.851	13364
301.907	19744
301.963	15730
302.019	37857
302.074	80367
302.130	64546
302.186	31757
302.242	14254
302.297	8889
302.353	10374
302.409	18809
302.464	12845
302.520	14332
302.576	33235
302.631	30377
302.687	17154
302.743	8475
302.798	4739
302.854	4226
302.910	4506
302.965	6879
303.021	11230
303.076	10006
303.132	14734
303.187	14794
303.243	8561
303.299	5156
303.354	3338
303.410	3955
303.465	3403
303.521	3298
303.576	3775
303.632	3998
303.687	11230
303.743	26565
303.798	17712
303.853	9007
303.909	4276
303.964	4291
304.020	9012
304.075	10969
304.130	11833
304.186	19785
304.241	19256
304.297	14217
304.352	8263
304.358	7971
304.407	5604
304.449	5478
304.463	5443
304.518	6157
304.539	5521
304.573	4496
304.629	3997
304.630	4076
304.684	7713
304.720	18471
304.739	23981
304.794	24654
304.811	21316
304.850	13182
304.902	7379
304.905	7016
304.960	5659
304.992	5529
305.015	5435
305.071	4830
305.083	4776
305.126	4582
305.173	3155
305.181	2919
305.236	2860
305.264	3405
305.292	3970
305.347	4791
305.354	4844
305.402	5226
305.445	6113
305.457	6348
305.512	7026
305.535	6590
305.567	5985
305.622	5598
305.626	6032
305.678	13752
305.716	25995
305.733	30923
305.788	25913
305.807	23768
305.843	19563
305.897	26220
305.898	26307
305.953	20600
305.988	15926
306.008	13170
306.063	8415
306.078	7423
306.118	5067
306.168	3248
306.173	3116
306.228	2853
306.259	2945
306.283	2915
306.338	2666
306.349	2831
306.393	3649
306.440	4127
306.448	4196
306.503	3761
306.530	4757
306.558	6406
306.613	14368
306.620	15294
306.668	20812
306.711	26214
306.723	27187
306.778	18624
306.801	15259
306.833	10786
306.888	5995
306.892	5752
306.943	3812
306.982	3867
306.997	3883
307.052	3194
307.072	3120
307.107	3213
307.162	4827
307.163	4854
307.217	7457
307.253	9769
307.272	10691
307.327	10115
307.343	9476
307.381	7475
307.434	5972
307.436	6053
307.491	14712
307.524	21250
307.546	24302
307.600	21474
307.614	19549
307.655	11922
307.704	6327
307.710	6067
307.765	6639
307.795	9546
307.819	12612
307.874	19051
307.885	18825
307.929	13822
307.975	9696
307.984	9543
308.038	11169
308.065	14576
308.093	22540
308.148	57701
308.156	65675
308.202	116425
308.246	127714
308.257	122029
308.312	69462
308.336	51050
308.366	39586
308.421	23825
308.426	22759
308.475	14900
308.517	10659
308.530	9698
308.585	7921
308.607	7544
308.639	7459
308.694	7797
308.697	8046
308.748	15274
308.787	21655
308.803	22405
308.857	16815
308.877	15196
308.912	12671
308.967	10363
308.967	10372
309.021	13430
309.058	17162
309.076	20762
309.130	36601
309.148	44553
309.185	75149
309.238	136967
309.239	137661
309.293	162727
309.328	153997
309.348	131232
309.402	66303
309.418	50262
309.457	34470
309.508	21064
309.511	20567
309.566	18248
309.598	19073
309.620	22251
309.674	34681
309.688	37288
309.729	36750
309.778	29452
309.783	28504
309.837	19080
309.868	14855
309.892	14761
309.946	19265
309.959	21239
310.001	30164
310.049	35351
310.055	34244
310.109	21331
310.139	14197
310.163	10854
310.218	6455
310.229	5803
310.272	4901
310.319	4220
310.326	4087
310.381	3373
310.409	3179
310.435	3065
310.489	2769
310.499	2799
310.543	3150
310.589	3329
310.598	3291
310.652	3314
310.679	3147
310.706	2971
310.760	2885
310.769	2860
310.814	2496
310.859	2176
310.868	2195
310.923	2448
310.948	2649
310.977	2874
311.031	3216
311.038	3290
311.085	2827
311.128	2079
311.139	2038
311.193	2090
311.218	2081
311.247	2056
311.301	2198
311.308	2209
311.356	1938
311.398	1777
311.410	1768
311.464	1589
311.488	1628
311.518	1738
311.572	1890
311.578	1919
311.626	2677
311.668	3356
311.680	3381
311.734	3519
311.758	3578
311.788	3470
311.842	3277
311.847	3272
311.896	3490
311.937	3772
311.950	3815
312.004	4021
312.027	4118
312.058	3306
312.112	1908
312.117	1783
312.165	2080
312.207	2363
312.297	3087
312.386	2659
312.476	1703
312.566	4535
312.656	2540
312.745	1784
312.835	1838
312.925	2166
313.015	2324
313.104	2562
313.194	1678
313.284	2209
313.374	3235
313.463	3578
313.553	1687
313.643	2456
313.732	1945
313.822	2075
313.912	2548
314.001	3084
314.091	3158
314.180	4254
314.270	3096
314.360	4074
314.449	3313
314.539	2125
314.628	1980
314.718	2174
314.808	3532
314.897	2425
314.987	2517
315.076	3107
315.166	3729
315.255	3644
315.345	2860
315.434	3453
315.524	3247
315.613	3110
315.703	4940
315.792	7165
315.881	30151
315.971	14008
316.060	5594
316.150	8601
316.239	10275
316.328	4921
316.418	1726
316.507	2692
316.597	2647
316.686	2872
316.775	4050
316.865	10850
316.954	3152
317.043	1664
317.133	1875
317.222	1928
317.311	2216
317.400	1649
317.490	2628
317.579	3339
317.668	2794
317.757	5397
317.847	14750
317.936	53847
318.025	21860
318.114	10717
318.203	6722
318.293	5832
318.382	12748
318.471	10294
318.560	13861
318.649	24571
318.738	6965
318.828	2864
318.917	3297
319.006	3455
319.095	12800
319.184	29503
319.273	19265
319.362	7999
319.451	1941
319.540	2434
319.629	5408
319.718	9790
319.807	3906
319.896	9504
319.985	35996
320.074	16852
320.163	3496
320.252	6553
320.341	5164
320.430	4809
320.519	4986
320.608	3662
320.697	2310
320.786	2872
320.875	3207
320.964	3837
321.053	6093
321.142	9043
321.230	10101
321.319	7824
321.408	17857
321.497	10274
321.586	7026
321.675	9984
321.764	10047
321.852	5365
321.941	8989
322.030	7447
322.119	6541
322.207	18574
322.296	16723
322.385	7956
322.474	8278
322.562	20937
322.651	15290
322.740	8411
322.829	12946
322.917	13998
323.006	8724
323.095	6021
323.183	4511
323.272	6024
323.361	11903
323.449	41894
323.538	17667
323.626	27384
323.715	24102
323.804	6532
323.892	24192
323.981	18173
324.069	4109
324.158	12886
324.246	16875
324.335	4616
324.424	7099
324.512	2441
324.601	2871
324.689	5108
324.778	10840
324.866	9395
324.954	3312
325.043	1758
325.131	4910
325.220	10825
325.308	13513
325.397	8460
325.485	6980
325.574	986
325.662	1615
325.750	1836
325.839	2337
325.927	1226
326.015	2410
326.104	4029
326.192	7041
326.280	2020
326.369	1220
326.457	2781
326.545	5072
326.634	2350
326.722	1406
326.810	1703
326.898	1501
326.987	2481
327.075	4218
327.163	5516
327.251	2552
327.340	3105
327.428	6280
327.516	2136
327.604	1826
327.692	2343
327.781	1862
327.869	4354
327.957	2767
328.045	2639
328.133	1976
328.221	2645
328.309	1966
328.397	1721
328.485	2081
328.574	3845
328.662	11278
328.750	7286
328.838	2912
328.926	1872
329.014	1662
329.102	2736
329.190	6514
329.278	5454
329.366	1461
329.454	601
329.542	1614
329.630	504
329.718	1117
329.806	2473
329.893	1837
329.981	2262
330.069	2199
330.157	9957
330.245	37374
330.333	23342
330.421	3687
330.509	2410
330.597	11306
330.684	9818
330.772	3340
330.860	4665
330.948	6287
331.036	3161
331.123	925
331.211	1317
331.299	2280
331.387	4392
331.475	9907
331.562	2806
331.650	1823
331.738	1452
331.825	3618
331.913	1070
332.001	1483
332.089	2041
332.176	4699
332.264	12120
332.352	12931
332.439	3167
332.527	2115
332.614	1682
332.702	2839
332.790	1910
332.877	4752
332.965	14576
333.052	4619
333.140	3193
333.228	9584
333.315	3090
333.403	2015
333.490	6617
333.578	8346
333.665	10490
333.753	5705
333.840	1926
333.928	2194
334.015	7242
334.103	11584
334.190	41462
334.278	15367
334.365	5551
334.452	5800
334.540	2496
334.627	3343
334.715	4382
334.802	7219
334.889	45256
334.977	70700
335.064	13076
335.151	4645
335.239	3222
335.326	3743
335.413	16118
335.501	32445
335.588	4998
335.675	2707
335.762	3361
335.850	6515
335.937	6020
336.024	12743
336.111	57737
336.199	39858
336.286	8158
336.373	3009
336.460	2430
336.547	2183
336.635	3069
336.722	2564
336.809	2798
336.896	2503
336.983	9110
337.070	25930
337.157	43955
337.245	32664
337.332	30842
337.419	3032
337.506	1832
337.593	1656
337.680	6563
337.767	28328
337.854	8824
337.941	7919
338.028	11535
338.115	4831
338.202	3672
338.289	6929
338.376	33057
338.463	14402
338.550	12689
338.637	20773
338.724	4824
338.811	10977
338.898	2653
338.984	1363
339.071	1623
339.158	2225
339.245	5977
339.332	5222
339.419	4711
339.506	8137
339.593	944
339.679	1305
339.766	923
339.853	1185
339.940	4674
340.027	1986
340.113	1572
340.200	1937
340.287	1095
340.374	2275
340.460	4001
340.547	1275
340.634	2327
340.720	10675
340.807	9349
340.894	1122
340.980	1421
341.067	1373
341.154	1359
341.240	2384
341.327	6153
341.414	2379
341.500	1977
341.587	2109
341.674	1461
341.760	4016
341.847	4992
341.933	2310
342.020	210
342.106	386
342.193	1024
342.279	3008
342.366	2179
342.452	4197
342.539	2347
342.625	3671
342.712	12541
342.798	5952
342.885	2221
342.971	647
343.058	838
343.144	1134
343.230	571
343.317	953
343.403	1022
343.490	65
343.576	611
343.662	262
343.749	936
343.835	1964
343.921	3385
344.008	20165
344.094	67927
344.180	19371
344.267	3746
344.353	13272
344.439	22090
344.525	7257
344.612	1509
344.698	1998
344.784	1577
344.870	1051
344.957	-69
345.043	1284
345.129	1357
345.215	3690
345.301	2323
345.387	1245
345.474	575
345.560	827
345.646	1374
345.732	1310
345.818	1014
345.904	1354
345.990	1856
346.076	1737
346.162	4598
346.249	1830
346.335	1560
346.421	706
346.507	4518
346.593	25677
346.679	8821
346.765	1755
346.851	1900
346.937	1180
347.023	723
347.108	1564
347.194	982
347.280	1235
347.366	1076
347.452	6173
347.538	28860
347.624	22844
347.710	20214
347.796	3995
347.882	1187
347.967	1234
348.053	2059
348.139	709
348.225	960
348.311	1725
348.397	869
348.482	750
348.568	1992
348.654	1098
348.740	3308
348.825	3858
348.911	2561
348.997	10473
349.083	29961
349.168	6791
349.254	1481
349.340	1470
349.425	728
349.511	1585
349.597	2320
349.682	3388
349.768	14822
349.854	10155
349.939	825
350.025	921
350.110	1291
350.196	391
350.282	491
350.367	883
350.453	1962
350.538	2194
350.624	1479
350.709	1627
350.795	716
350.880	702
350.966	1226
351.051	1857
351.137	2253
351.222	532
351.308	3172
351.393	13765
351.479	4431
351.564	1013
351.649	452
351.735	286
351.820	692
351.906	436
351.991	1633
352.076	6159
352.162	15535
352.247	2817
352.332	1356
352.418	2664
352.503	3827
352.588	16542
352.673	19827
352.759	3036
352.844	1940
352.929	1454
353.014	2830
353.100	1795
353.185	3258
353.270	5283
353.355	4586
353.441	1904
353.526	1602
353.611	3090
353.696	5862
353.781	2935
353.866	480
353.952	1048
354.037	2382
354.122	9033
354.207	8762
354.292	3690
354.377	893
354.462	1373
354.547	1582
354.632	2038
354.717	2209
354.802	4506
354.887	1731
354.972	628
355.057	831
355.142	152
355.227	1196
355.312	2285
355.397	5456
355.482	13437
355.567	9209
355.652	3972
355.737	5623
355.822	15891
355.907	20338
355.991	3164
356.076	1749
356.161	1565
356.246	1093
356.331	910
356.416	2929
356.501	25734
356.585	42567
356.670	5783
356.755	2656
356.840	3396
356.924	16402
357.009	77700
357.094	41955
357.179	6109
357.263	4137
357.348	3426
357.433	3735
357.517	3119
357.602	3335
357.687	2081
357.771	4435
357.856	13752
357.941	10899
358.025	12256
358.110	71284
358.195	47664
358.279	5799
358.364	2678
358.448	9254
358.533	33909
358.617	29663
358.702	25768
358.787	11794
358.871	4487
358.956	4760
359.040	1648
359.125	1502
359.209	1304
359.294	6005
359.378	13339
359.462	4976
359.547	2457
359.631	1479
359.716	862
359.800	1225
359.885	1892
359.969	1361
360.053	1506
360.138	968
360.222	2481
360.306	4077
360.391	4499
360.475	5514
360.559	16627
360.644	12428
360.728	11503
360.812	12601
360.896	50895
360.981	24018
361.065	11613
361.149	3130
361.233	2408
361.318	1701
361.402	2135
361.486	2525
361.570	1897
361.654	1939
361.739	5056
361.823	23860
361.907	57782
361.991	13373
362.075	3979
362.159	9380
362.243	8374
362.327	9146
362.411	17099
362.495	9600
362.580	4250
362.664	1773
362.748	2314
362.832	3548
362.916	5847
363.000	20970
363.084	61063
363.168	76365
363.252	21162
363.336	5754
363.420	5925
363.503	20421
363.587	39156
363.671	7344
363.755	3632
363.839	4652
363.923	3156
364.007	4365
364.091	7278
364.175	8686
364.258	43698
364.342	45927
364.426	63053
364.510	45835
364.594	12861
364.677	9175
364.761	37627
364.845	41181
364.929	9256
365.013	8389
365.096	5065
365.180	7306
365.264	7645
365.347	42566
365.431	26363
365.515	5336
365.598	1968
365.682	1933
365.766	2359
365.849	6680
365.933	2801
366.017	2641
366.100	3092
366.184	366
366.267	1994
366.351	1112
366.435	757
366.518	1093
366.602	217
366.685	1271
366.769	1266
366.852	2299
366.936	6357
367.019	3941
367.103	1973
367.186	5754
367.270	2324
367.353	568
367.436	1561
367.520	1043
367.603	1850
367.687	3253
367.770	5397
367.853	3835
367.937	8601
368.020	21442
368.104	6622
368.187	4087
368.270	5956
368.353	5146
368.437	7210
368.520	19967
368.603	14890
368.687	11067
368.770	28395
368.853	8802
368.936	5491
369.020	6288
369.103	2366
369.186	1764
369.269	2108
369.352	2996
369.436	5147
369.519	3997
369.602	1659
369.685	1892
369.768	2101
369.851	1620
369.934	772
370.018	1007
370.101	4029
370.184	4989
370.267	2466
370.350	3914
370.433	7365
370.516	19476
370.599	36891
370.682	13125
370.765	12327
370.848	16028
370.931	34161
371.014	18164
371.097	2851
371.180	1625
371.263	816
371.346	604
371.429	1128
371.511	978
371.594	2463
371.677	4602
371.760	6923
371.843	5063
371.926	19014
372.009	62900
372.091	26996
372.174	10656
372.257	30309
372.340	17179
372.423	7376
372.505	11897
372.588	4858
372.671	7304
372.754	30561
372.836	22826
372.919	9458
373.002	26311
373.085	10635
373.167	5186
373.250	10934
373.332	30097
373.415	36516
373.498	86975
373.580	44240
373.663	38213
373.746	72905
373.828	18594
373.911	5888
373.993	4797
374.076	19760
374.159	28740
374.241	9435
374.324	23437
374.406	24084
374.489	19133
374.571	67509
374.654	39631
374.736	12459
374.819	38861
374.901	59494
374.983	74709
375.066	16974
375.148	5075
375.231	15099
375.313	41716
375.395	19300
375.478	4922
375.560	2083
375.643	3213
375.725	8862
375.807	48571
375.890	54301
375.972	23373
376.054	9429
376.136	16898
376.219	9985
376.301	10647
376.383	45719
376.465	25432
376.548	8663
376.630	11219
376.712	34652
376.794	26389
376.877	3302
376.959	1442
377.041	1627
377.123	3255
377.205	6008
377.287	1958
377.369	1182
377.452	734
377.534	971
377.616	1147
377.698	551
377.780	516
377.862	1531
377.944	1156
378.026	313
378.108	413
378.190	-126
378.272	1144
378.354	191
378.436	1231
378.518	1127
378.600	7995
378.682	8034
378.764	15707
378.846	17915
378.928	4314
379.010	4201
379.091	4090
379.173	1406
379.255	739
379.337	1580
379.419	6336
379.501	24720
379.583	15852
379.664	2927
379.746	4176
379.828	14886
379.910	24333
379.991	25265
380.073	5380
380.155	2367
380.237	1856
380.318	244
380.400	1001
380.482	1762
380.564	5755
380.645	4999
380.727	5823
380.809	3349
380.890	1274
380.972	1835
381.053	1529
381.135	1935
381.217	3399
381.298	17566
381.380	13003
381.461	6788
381.543	29841
381.624	57093
381.706	13779
381.787	4284
381.869	5507
381.951	12655
382.032	59724
382.113	55237
382.195	11081
382.276	6357
382.358	10098
382.439	32755
382.521	38476
382.602	65677
382.684	35446
382.765	42455
382.846	59213
382.928	85020
383.009	65827
383.090	27390
383.172	94387
383.253	209702
383.334	85686
383.416	56613
383.497	40856
383.578	14508
383.659	22379
383.741	75585
383.822	259149
383.903	194307
383.984	47131
384.066	65712
384.147	53104
384.228	13263
384.309	7088
384.390	7160
384.471	4758
384.553	4306
384.634	5785
384.715	5821
384.796	2799
384.877	3466
384.958	13808
385.039	23212
385.120	8965
385.201	3975
385.282	4293
385.363	4417
385.444	4761
385.525	6174
385.606	23620
385.687	29481
385.768	7411
385.849	5864
385.930	22276
386.011	54053
386.092	21083
386.173	4421
386.254	3132
386.335	2791
386.416	2652
386.496	8692
386.577	19468
386.658	9642
386.739	4206
386.820	3864
386.901	3620
386.981	3270
387.062	2294
387.143	4225
387.224	15399
387.304	21164
387.385	8462
387.466	4751
387.547	5752
387.627	5049
387.708	6080
387.789	25991
387.869	45388
387.950	17078
388.031	3248
388.111	1113
388.192	5244
388.273	9193
388.353	5624
388.434	3281
388.514	4999
388.595	25233
388.676	43887
388.756	22803
388.837	14555
388.917	13082
388.998	2996
389.078	2289
389.159	1552
389.239	1351
389.320	3013
389.400	2864
389.480	5722
389.561	17918
389.641	14358
389.722	3461
389.802	4168
389.883	6564
389.963	22195
390.043	19700
390.124	5910
390.204	5214
390.284	17775
390.365	16068
390.445	12569
390.525	37373
390.605	42453
390.686	14374
390.766	5674
390.846	2035
390.927	1607
391.007	1932
391.087	2519
391.167	2545
391.247	1936
391.328	4684
391.408	5519
391.488	4966
391.568	1569
391.648	2909
391.728	4237
391.808	4085
391.888	4349
391.969	8458
392.049	19488
392.129	11205
392.209	8466
392.289	22267
392.369	17594
392.449	12248
392.529	9238
392.609	6485
392.689	8352
392.769	22079
392.849	26419
392.929	16353
393.009	35525
393.089	39024
393.169	36313
393.248	94947
393.328	343456
393.408	500657
393.488	191970
393.568	50049
393.648	23481
393.728	13864
393.807	9646
393.887	8675
393.967	6983
394.047	6878
394.127	7812
394.206	10909
394.286	28202
394.366	128744
394.446	203327
394.525	59216
394.605	12233
394.685	8232
394.764	14509
394.844	27380
394.924	26859
395.003	9063
395.083	5275
395.163	4095
395.242	3900
395.322	3996
395.402	3477
395.481	4327
395.561	8966
395.640	29645
395.720	33272
395.799	33075
395.879	35408
395.958	16227
396.038	40587
396.117	172627
396.197	264067
396.276	92889
396.356	27286
396.435	18120
396.515	14356
396.594	16290
396.673	29894
396.753	91781
396.832	330548
396.912	344497
396.991	96676
397.070	24924
397.150	11765
397.229	8848
397.308	10957
397.388	22331
397.467	13344
397.546	4902
397.625	2928
397.705	4526
397.784	3269
397.863	2878
397.942	1429
398.022	2039
398.101	5760
398.180	26732
398.259	20656
398.338	4877
398.417	1755
398.497	1810
398.576	1717
398.655	716
398.734	1092
398.813	1553
398.892	5717
398.971	26441
399.050	22098
399.129	2635
399.208	1415
399.287	1512
399.366	424
399.445	725
399.524	908
399.603	103
399.682	2220
399.761	5737
399.840	26523
399.919	33008
399.998	5144
400.077	224
400.156	-588
400.235	1685
400.313	827
400.392	304
400.471	6779
400.550	15277
400.629	6056
400.708	1314
400.786	1614
400.865	4431
400.944	7199
401.023	3729
401.102	508
401.180	237
401.259	53
401.338	138
401.416	1638
401.495	1052
401.574	1943
401.652	191
401.731	1062
401.810	1034
401.888	-45
401.967	458
402.046	194
402.124	1287
402.203	1743
402.281	823
402.360	1409
402.438	6142
402.517	6430
402.596	1502
402.674	1124
402.753	688
402.831	1022
402.910	1133
402.988	4375
403.066	23905
403.145	21644
403.223	6862
403.302	18846
403.380	19452
403.459	16503
403.537	8282
403.615	2047
403.694	-353
403.772	223
403.850	-39
403.929	224
404.007	-914
404.085	1957
404.164	3012
404.242	1246
404.320	400
404.398	1385
404.477	4703
404.555	38627
404.633	56528
404.711	10924
404.789	724
404.868	790
404.946	104
405.024	6
405.102	-705
405.180	-470
405.258	-669
405.336	38
405.415	-367
405.493	1984
405.571	2447
405.649	600
405.727	-768
405.805	1617
405.883	891
405.961	1089
406.039	1356
406.117	4
406.195	1206
406.273	6074
406.351	36002
406.429	34582
406.507	4772
406.585	1321
406.663	549
406.740	677
406.818	1252
406.896	-349
406.974	124
407.052	1496
407.130	15502
407.208	36590
407.285	11270
407.363	604
407.441	543
407.519	-29
407.596	592
407.674	2186
407.752	9530
407.830	15334
407.907	6124
407.985	1315
408.063	669
408.141	-565
408.218	1155
408.296	1434
408.373	1250
408.451	710
408.529	250
408.606	-501
408.684	154
408.762	-31
408.839	-148
408.917	-453
408.994	41
409.072	-719
409.149	-4
409.227	1712
409.304	2475
409.382	2314
409.459	2674
409.537	4961
409.614	4779
409.692	2128
409.769	1680
409.846	3630
409.924	7193
410.001	4830
410.079	2442
410.156	1930
410.233	917
410.311	-312
410.388	341
410.465	596
410.543	722
410.620	118
410.697	757
410.775	920
410.852	-788
410.929	1018
411.006	1953
411.083	477
411.161	2399
411.238	4003
411.315	1606
411.392	-247
411.469	1280
411.547	1748
411.624	-322
411.701	-557
411.778	-391
411.855	1546
411.932	878
412.009	-25
412.086	-272
412.163	-56
412.240	475
412.317	700
412.394	808
412.471	-239
412.548	-217
412.625	-774
412.702	188
412.779	1000
412.856	1810
412.933	31
413.010	-76
413.087	139
413.164	4648
413.241	13395
413.318	3856
413.395	1180
413.471	1266
413.548	1175
413.625	96
413.702	-737
413.779	453
413.855	-743
413.932	-877
414.009	-1211
414.086	-307
414.162	-413
414.239	310
414.316	4879
414.393	18316
414.469	11176
414.546	9
414.623	-740
414.699	-327
414.776	-318
414.853	-464
414.929	-208
415.006	196
415.082	-415
415.159	-226
415.236	16
415.312	-111
415.389	1432
415.465	1695
415.542	1162
415.618	-579
415.695	731
415.771	137
415.848	75
415.924	474
416.000	-603
416.077	470
416.153	-1383
416.230	-1603
416.306	-1387
416.383	-700
416.459	-258
416.535	-1157
416.612	-1316
416.688	-545
416.764	-710
416.841	-975
416.917	-481
416.993	41
417.069	59
417.146	262
417.222	1016
417.298	740
417.374	-803
417.451	368
417.527	-391
417.603	-118
417.679	513
417.755	-332
417.831	-1066
417.908	-677
417.984	-732
418.060	-848
418.136	940
418.212	1675
418.288	883
418.364	118
418.440	-448
418.516	286
418.592	967
418.668	3344
418.744	4829
418.820	4058
418.896	494
418.972	-896
419.048	-198
419.124	1063
419.200	1324
419.276	92
419.352	-596
419.428	-408
419.504	-207
419.579	-233
419.655	655
419.731	-593
419.807	2358
419.883	6168
419.959	5222
420.034	1333
420.110	1316
420.186	9112
420.262	12332
420.337	2905
420.413	356
420.489	852
420.565	1143
420.640	340
420.716	331
420.792	-1148
420.867	1329
420.943	441
421.019	1142
421.094	1445
421.170	584
421.245	132
421.321	1392
421.397	1021
421.472	2728
421.548	6174
421.623	7152
421.699	2392
421.774	2493
421.850	1807
421.925	4500
422.001	4652
422.076	3373
422.152	5195
422.227	7427
422.302	11269
422.378	15614
422.453	26692
422.529	59160
422.604	145455
422.679	239409
422.755	201869
422.830	106070
422.905	44667
422.981	23680
423.056	14112
423.131	10425
423.207	7883
423.282	5398
423.357	7341
423.432	6170
423.508	5152
423.583	6789
423.658	7822
423.733	3569
423.808	2630
423.883	3244
423.959	2459
424.034	2548
424.109	3008
424.184	1278
424.259	766
424.334	654
424.409	-4
424.484	838
424.559	747
424.634	246
424.709	893
424.784	1677
424.859	300
424.934	825
425.009	5453
425.084	13638
425.159	8671
425.234	429
425.309	-595
425.384	1796
425.459	6982
425.534	3637
425.609	-21
425.683	509
425.758	-183
425.833	208
425.908	489
425.983	2095
426.058	14075
426.132	10895
426.207	606
426.282	1855
426.357	1716
426.431	735
426.506	-3
426.581	-89
426.655	857
426.730	-537
426.805	-655
426.879	1027
426.954	-222
427.029	1602
427.103	8584
427.178	34225
427.253	27570
427.327	3872
427.402	1747
427.476	6998
427.551	5403
427.625	1447
427.700	1380
427.774	-339
427.849	770
427.923	451
427.998	-130
428.072	102
428.147	3055
428.221	9528
428.296	48575
428.370	48085
428.444	7451
428.519	2781
428.593	4898
428.667	6310
428.742	5570
428.816	8286
428.890	23483
428.965	63601
429.039	29473
429.113	9103
429.188	4784
429.262	1081
429.336	745
429.410	6277
429.485	7016
429.559	4544
429.633	5474
429.707	2365
429.781	4031
429.855	24407
429.930	62880
430.004	34285
430.078	29796
430.152	36555
430.226	56738
430.300	95008
430.374	26334
430.448	4507
430.522	6894
430.596	26286
430.670	28106
430.744	38383
430.818	89830
430.892	33483
430.966	3573
431.040	1162
431.114	-154
431.188	-630
431.262	702
431.336	34
431.410	1922
431.484	6354
431.557	7976
431.631	1523
431.705	766
431.779	5400
431.853	39140
431.927	53859
432.000	9584
432.074	956
432.148	667
432.222	761
432.295	220
432.369	-914
432.443	51
432.516	7816
432.590	36337
432.664	27541
432.737	3542
432.811	-560
432.885	-251
432.958	-33
433.032	-441
433.106	-663
433.179	-563
433.253	-772
433.326	-71
433.400	-303
433.473	-970
433.547	-1430
433.620	-1119
433.694	239
433.767	827
433.841	-200
433.914	-223
433.988	-934
434.061	-765
434.134	-721
434.208	-336
434.281	-577
434.355	-1185
434.428	-204
434.501	-239
434.575	-846
434.648	-732
434.721	-591
434.795	-1547
434.868	-1072
434.941	-803
435.014	-551
435.088	-423
435.161	398
435.234	873
435.307	2332
435.381	1276
435.454	460
435.527	2491
435.600	3572
435.673	2068
435.746	1087
435.819	449
435.892	1219
435.966	-5
436.039	291
436.112	85
436.185	-908
436.258	-575
436.331	-779
436.404	-404
436.477	-1321
436.550	-473
436.623	-815
436.696	-1212
436.769	-244
436.842	-5
436.915	-92
436.987	-175
437.060	-494
437.133	-786
437.206	-1271
437.279	-377
437.352	-1171
437.425	-332
437.498	38
437.570	1269
437.643	2321
437.716	671
437.789	-244
437.861	645
437.934	3891
438.007	5593
438.080	427
438.152	257
438.225	1426
438.298	10346
438.370	55106
438.443	47337
438.516	11103
438.588	2846
438.661	-116
438.734	-231
438.806	-215
438.879	362
438.951	934
439.024	3136
439.096	2482
439.169	41
439.241	-272
439.314	-1138
439.386	746
439.459	1613
439.531	3059
439.604	2650
439.676	753
439.749	-405
439.821	-494
439.893	-116
439.966	106
440.038	216
440.110	640
440.183	161
440.255	-778
440.327	447
440.400	3834
440.472	26679
440.544	41144
440.617	8262
440.689	2165
440.761	2562
440.833	5041
440.905	6817
440.978	1170
441.050	-502
441.122	142
441.194	-383
441.266	-127
441.338	-5
441.411	931
441.483	6376
441.555	20136
441.627	10647
441.699	2303
441.771	2358
441.843	1323
441.915	780
441.987	764
442.059	742
442.131	1660
442.203	1877
442.275	2925
442.347	3927
442.419	4442
442.491	18121
442.563	74481
442.635	66584
442.706	18716
442.778	13470
442.850	4620
442.922	1018
442.994	2275
443.066	2060
443.137	3080
443.209	2585
443.281	3560
443.353	7713
443.425	24431
443.496	104856
443.568	172585
443.640	101528
443.711	25785
443.783	5986
443.855	3764
443.926	2134
443.998	1418
444.070	1265
444.141	2289
444.213	2313
444.285	3860
444.356	2262
444.428	2981
444.499	1155
444.571	1102
444.642	487
444.714	1585
444.785	2229
444.857	2695
444.928	5502
445.000	7629
445.071	4709
445.143	8235
445.214	7110
445.285	8170
445.357	20130
445.428	59427
445.500	183118
445.571	182065
445.642	116224
445.714	49696
445.785	23052
445.856	11154
445.928	5298
445.999	5103
446.070	3528
446.141	3635
446.213	4081
446.284	3027
446.355	1972
446.426	1741
446.497	1562
446.569	933
446.640	3005
446.711	4114
446.782	1576
446.853	896
446.924	1708
446.995	644
447.066	943
447.138	2004
447.209	1882
447.280	-325
447.351	630
447.422	-317
447.493	953
447.564	1400
447.635	2439
447.706	1812
447.777	407
447.847	28
447.918	-44
447.989	443
448.060	2106
448.131	2948
448.202	4927
448.273	4129
448.344	2768
448.414	866
448.485	273
448.556	-231
448.627	-488
448.698	301
448.768	-1581
448.839	-249
448.910	1275
448.981	2738
449.051	627
449.122	521
449.193	197
449.263	-160
449.334	-640
449.405	1118
449.475	2629
449.546	4537
449.616	2775
449.687	3353
449.758	1261
449.828	504
449.899	827
449.969	-190
450.040	363
450.110	1000
450.181	805
450.251	15
450.322	129
450.392	976
450.463	389
450.533	448
450.604	335
450.674	527
450.744	738
450.815	208
450.885	1288
450.955	1018
451.026	656
451.096	250
451.166	282
451.237	1299
451.307	7625
451.377	8306
451.447	1259
451.518	250
451.588	668
451.658	390
451.728	1192
451.799	5167
451.869	13472
451.939	6804
452.009	1317
452.079	-56
452.149	664
452.219	827
452.289	7109
452.360	12650
452.430	4674
452.500	1231
452.570	1815
452.640	3737
452.710	9461
452.780	19934
452.850	16484
452.920	11657
452.990	8221
453.060	2766
453.129	2139
453.199	3426
453.269	6459
453.339	32322
453.409	58227
453.479	37797
453.549	56315
453.619	70223
453.688	52725
453.758	12737
453.828	1982
453.898	1479
453.968	1244
454.037	1249
454.087	828
454.107	628
454.168	1031
454.177	1062
454.247	959
454.249	958
454.316	220
454.330	611
454.386	1947
454.411	2671
454.456	3264
454.492	6599
454.525	9516
454.574	8327
454.595	7882
454.655	2863
454.665	2059
454.734	2789
454.736	2887
454.804	3580
454.817	4717
454.873	7682
454.898	10435
454.943	14901
454.979	12187
455.013	10143
455.060	5236
455.082	3280
455.141	3986
455.152	3950
455.221	7080
455.222	7325
455.291	13146
455.303	12874
455.360	12944
455.384	10152
455.430	5507
455.465	5836
455.499	5629
455.546	8312
455.569	8583
455.627	10139
455.638	10733
455.707	4911
455.708	4918
455.777	1966
455.789	2008
455.846	2026
455.869	1902
455.916	1574
455.950	1659
455.985	1720
456.031	1980
456.054	1999
456.112	2220
456.124	2306
456.193	2514
456.193	2487
456.262	2733
456.274	2906
456.332	3370
456.355	3271
456.401	2539
456.436	2551
456.470	2629
456.516	1852
456.540	1572
456.597	1508
456.609	1448
456.678	2319
456.678	2298
456.747	1692
456.759	1678
456.817	1725
456.840	1846
456.886	1895
456.920	1956
456.955	2273
457.001	3006
457.024	3391
457.082	3995
457.093	4112
457.162	4834
457.163	4881
457.232	5180
457.243	4955
457.301	3855
457.324	3271
457.370	2783
457.405	2815
457.439	2885
457.485	3380
457.508	3624
457.566	4392
457.577	4700
457.646	6633
457.647	6695
457.715	12485
457.727	13698
457.784	22919
457.808	27754
457.853	30717
457.889	36307
457.922	35642
457.969	27973
457.991	31157
458.050	36441
458.060	38038
458.129	57779
458.130	58615
458.198	47864
458.211	43521
458.267	32878
458.292	24062
458.336	17612
458.372	15808
458.405	19778
458.453	28854
458.474	36616
458.533	62501
458.543	63781
458.611	84587
458.614	85643
458.680	54875
458.694	43379
458.749	29091
458.775	21174
458.818	11918
458.855	9178
458.887	7452
458.936	6741
458.955	6361
459.016	5836
459.024	5799
459.093	6040
459.097	6040
459.162	5425
459.177	5447
459.230	6383
459.257	6949
459.299	6941
459.338	7039
459.368	7581
459.418	8349
459.437	7913
459.499	6660
459.505	6648
459.574	6030
459.579	5991
459.643	5370
459.659	5302
459.711	5820
459.740	6044
459.780	5927
459.820	6116
459.849	6283
459.900	6801
459.917	6836
459.981	6111
459.986	6052
460.054	6487
460.061	6456
460.123	6837
460.141	7019
460.191	7883
460.222	8809
460.260	9735
460.302	10519
460.328	9835
460.382	8463
460.397	8485
460.462	8254
460.465	8400
460.534	11435
460.543	11909
460.602	23285
460.623	27608
460.671	45046
460.703	58184
460.739	46623
460.783	35132
460.808	31934
460.864	14722
460.876	13893
460.944	6924
460.945	6840
461.013	6916
461.024	6901
461.081	6713
461.104	6776
461.150	6743
461.184	6662
461.218	6587
461.264	6583
461.286	6728
461.345	6431
461.355	6318
461.423	6481
461.425	6483
461.491	7847
461.505	8097
461.559	13428
461.585	16048
461.628	24573
461.665	32294
461.696	33131
461.745	36338
461.764	31126
461.825	12863
461.832	12974
461.901	9037
461.905	8921
461.969	7128
461.985	7037
462.037	7112
462.065	6975
462.105	8170
462.145	9608
462.173	12640
462.225	18204
462.241	19959
462.305	27268
462.310	26375
462.378	13961
462.385	12343
462.446	10212
462.465	9024
462.514	7572
462.545	7492
462.582	7551
462.625	7685
462.650	7371
462.705	7012
462.718	7472
462.785	9276
462.786	9325
462.854	12196
462.865	12585
462.922	14256
462.945	15252
462.990	11622
463.025	8556
463.058	8261
463.104	7219
463.126	7076
463.184	7333
463.194	7401
463.262	7598
463.264	7611
463.330	7194
463.344	7112
463.398	8729
463.424	9351
463.466	9097
463.504	9038
463.533	9189
463.583	9437
463.601	9709
463.663	10372
463.669	10672
463.737	14223
463.743	14538
463.805	20968
463.823	22831
463.873	33579
463.903	40260
463.940	40256
463.982	40474
464.008	32098
464.062	14464
464.076	13993
464.142	8710
464.144	8680
464.211	8381
464.221	8471
464.279	8799
464.301	8859
464.347	9849
464.381	10771
464.414	12035
464.461	13612
464.482	14080
464.540	15430
464.550	15127
464.617	12608
464.620	12502
464.685	13545
464.699	13774
464.753	15923
464.779	16977
464.820	18493
464.859	19971
464.888	19224
464.938	17818
464.956	17911
465.018	17997
465.023	17793
465.091	14835
465.098	14504
465.158	15149
465.177	15346
465.226	15119
465.257	14881
465.293	14814
465.336	14787
465.361	16063
465.416	18791
465.428	19982
465.495	26321
465.496	26454
465.563	40728
465.575	43116
465.631	49257
465.654	52070
465.698	33353
465.734	17558
465.765	16827
465.813	14732
465.833	14362
465.893	13929
465.900	13914
465.968	13780
465.972	13750
466.035	13903
466.052	13898
466.102	14866
466.131	15410
466.170	14987
466.210	14571
466.237	14924
466.290	15343
466.304	15653
466.369	17033
466.372	17097
466.439	18131
466.449	18244
466.506	20308
466.528	21052
466.573	27946
466.607	33049
466.641	46048
466.687	64047
466.708	68259
466.766	79468
466.775	73755
466.842	30024
466.845	27890
466.909	23412
466.925	22257
466.977	20241
467.004	19289
467.044	20577
467.083	21804
467.111	23818
467.163	27495
467.178	27882
467.242	29214
467.245	29108
467.312	25783
467.321	25295
467.379	25417
467.400	25386
467.446	26296
467.480	26869
467.559	23503
467.638	21732
467.717	21031
467.796	23512
467.875	25195
467.955	23901
468.034	35337
468.113	72470
468.192	99875
468.271	29011
468.350	27777
468.429	33159
468.508	33446
468.588	25289
468.667	22858
468.746	22552
468.825	21531
468.904	17726
468.983	22242
469.062	31652
469.141	34994
469.220	17651
469.299	18019
469.378	20722
469.456	25225
469.535	21584
469.614	21228
469.693	22621
469.772	26654
469.851	35986
469.930	24275
470.009	20137
470.088	21012
470.166	24529
470.245	36180
470.324	41563
470.403	29634
470.482	21279
470.560	20057
470.639	18977
470.718	22781
470.797	19374
470.875	23125
470.954	30254
471.033	30654
471.111	15459
471.190	15925
471.269	14906
471.347	15719
471.426	15959
471.505	20043
471.583	20897
471.662	20407
471.740	16944
471.819	18119
471.898	16691
471.976	17262
472.055	16264
472.133	19406
472.212	23882
472.290	24729
472.369	16884
472.447	17043
472.526	14666
472.604	16747
472.683	17278
472.761	19009
472.839	17213
472.918	17156
472.996	16941
473.075	19303
473.153	18579
473.231	16950
473.310	20007
473.388	18867
473.466	17708
473.545	20863
473.623	24765
473.701	24425
473.780	16882
473.858	17300
473.936	17961
474.014	16970
474.093	19933
474.171	25684
474.249	35954
474.327	22030
474.405	15622
474.484	14756
474.562	16285
474.640	15981
474.718	16247
474.796	17287
474.874	15302
474.952	14762
475.030	15729
475.108	16827
475.187	18987
475.265	20195
475.343	27949
475.421	30452
475.499	15516
475.577	17890
475.655	21859
475.733	39933
475.811	64864
475.889	59890
475.966	34115
476.044	16628
476.122	21591
476.200	27701
476.278	19772
476.356	14832
476.434	16642
476.512	20277
476.590	25790
476.667	20992
476.745	14365
476.823	15822
476.901	14302
476.979	16117
477.056	15453
477.134	16498
477.212	15918
477.290	15244
477.367	13544
477.445	13404
477.523	13195
477.601	14732
477.678	13647
477.756	17885
477.834	17896
477.911	14193
477.989	13653
478.066	14094
478.144	17100
478.222	20806
478.299	32409
478.377	26021
478.454	13197
478.532	13217
478.609	14085
478.687	15333
478.764	12622
478.842	13887
478.919	15696
478.997	14678
479.074	12489
479.152	15969
479.229	20000
479.307	13173
479.384	11192
479.461	12553
479.539	13527
479.616	16119
479.694	12321
479.771	14923
479.848	15896
479.926	21046
480.003	19684
480.080	12912
480.157	12068
480.235	12183
480.312	12189
480.389	15017
480.467	22638
480.544	26653
480.621	14412
480.698	15281
480.775	17225
480.853	16396
480.930	13247
481.007	14291
481.084	15938
481.161	17666
481.238	15163
481.315	12520
481.392	12045
481.470	13723
481.547	14012
481.624	12278
481.701	11730
481.778	13577
481.855	15777
481.932	22458
482.009	37732
482.086	23498
482.163	16744
482.240	24329
482.317	41602
482.393	26902
482.470	14653
482.547	14901
482.624	13421
482.701	14433
482.778	13453
482.855	12504
482.932	11911
483.009	13231
483.085	13868
483.162	18309
483.239	17311
483.316	15966
483.393	15414
483.469	14104
483.546	15742
483.623	15955
483.699	12450
483.776	13236
483.853	14695
483.930	23734
484.006	54103
484.083	92705
484.160	48529
484.236	73640
484.313	52696
484.389	42733
484.466	36331
484.543	37628
484.619	39755
484.696	42817
484.772	40051
484.849	41417
484.925	33477
485.002	32929
485.078	35752
485.155	35954
485.231	31527
485.308	30726
485.384	33049
485.461	39389
485.537	61457
485.614	66345
485.690	31398
485.766	29663
485.843	32276
485.919	42552
485.995	40766
486.072	28613
486.148	27250
486.224	28019
486.301	28605
486.377	32793
486.453	34950
486.530	33099
486.606	43539
486.682	46239
486.758	52490
486.835	59528
486.911	48957
486.987	78603
487.063	75938
487.139	91973
487.215	64584
487.292	34635
487.368	32216
487.444	39215
487.520	48400
487.596	53173
487.672	98158
487.748	260662
487.824	374845
487.900	100892
487.976	44877
488.052	40256
488.128	45408
488.204	35755
488.280	29819
488.356	38024
488.432	69306
488.508	96180
488.584	34173
488.660	27212
488.736	27045
488.812	29215
488.888	37358
488.964	48932
489.039	92304
489.115	129190
489.191	68544
489.267	28712
489.343	27158
489.418	23875
489.494	23761
489.570	22277
489.646	22746
489.722	24236
489.797	25559
489.873	39177
489.949	76000
490.024	56383
490.100	22308
490.176	23906
490.251	27786
490.327	34823
490.403	21842
490.478	22963
490.554	19023
490.629	21336
490.705	19254
490.781	21851
490.856	20197
490.932	24587
491.007	23007
491.083	23092
491.158	21596
491.234	29292
491.309	57220
491.385	52818
491.460	21357
491.536	21426
491.611	19051
491.686	21125
491.762	29874
491.837	58981
491.913	93648
491.988	127688
492.063	146691
492.139	42606
492.214	27669
492.289	17595
492.365	17792
492.440	21531
492.515	19514
492.590	20830
492.666	16675
492.741	24846
492.816	32858
492.891	18292
492.967	15619
493.042	14625
493.117	15112
493.192	15013
493.267	16812
493.342	22277
493.418	20279
493.493	16651
493.568	13420
493.643	16149
493.718	20357
493.793	28841
493.868	30314
493.943	19121
494.018	17311
494.093	15385
494.168	14796
494.243	13831
494.318	12911
494.393	12899
494.468	13787
494.543	13924
494.618	16582
494.693	14012
494.768	14685
494.842	15791
494.917	11896
494.992	13984
495.067	12259
495.142	12464
495.217	14212
495.292	13243
495.366	15229
495.441	19410
495.516	24074
495.591	40369
495.665	119589
495.740	265636
495.815	82212
495.890	20917
495.964	16911
496.039	18664
496.114	16567
496.188	18758
496.263	17776
496.338	16248
496.412	19276
496.487	21860
496.561	22095
496.636	23522
496.710	18549
496.785	21867
496.860	23429
496.934	18159
497.009	18236
497.083	19797
497.158	20278
497.232	24301
497.307	28566
497.381	25657
497.455	28752
497.530	35943
497.604	25300
497.679	27891
497.753	42851
497.827	55998
497.902	49859
497.976	64684
498.050	146621
498.125	486819
498.199	416808
498.273	77893
498.348	60402
498.422	48607
498.496	44678
498.570	39335
498.645	29342
498.719	27925
498.793	32482
498.867	49020
498.941	73774
499.016	198008
499.090	507630
499.164	127708
499.238	21122
499.312	20152
499.386	25361
499.460	22445
499.534	20395
499.609	26046
499.683	37828
499.757	38649
499.831	95803
499.905	341603
499.979	263788
500.053	42636
500.127	41558
500.201	30030
500.275	19490
500.349	19920
500.422	22790
500.496	37019
500.570	81930
500.644	185645
500.718	327875
500.792	54145
500.866	19447
500.940	24615
501.013	19684
501.087	20074
501.161	35668
501.235	51754
501.309	114512
501.382	300531
501.456	218420
501.530	54160
501.603	91832
501.677	27872
501.751	15044
501.825	21591
501.898	43219
501.972	117507
502.046	58031
502.119	22692
502.193	52821
502.266	127744
502.340	50425
502.413	56290
502.487	102723
502.561	55431
502.634	17576
502.708	16784
502.781	14246
502.855	12603
502.928	11243
503.002	11520
503.075	10849
503.149	12559
503.222	11998
503.295	13559
503.369	16203
503.442	28706
503.516	90354
503.589	214130
503.662	119555
503.736	41948
503.809	102365
503.882	79798
503.956	127592
504.029	120350
504.102	140834
504.175	183727
504.249	56077
504.322	28510
504.395	21064
504.468	15230
504.542	13970
504.615	12157
504.688	10645
504.761	11203
504.834	13357
504.907	18075
504.980	25595
505.053	13371
505.127	18852
505.200	19226
505.273	19402
505.346	12179
505.419	9662
505.492	10320
505.565	8123
505.638	8206
505.711	8443
505.784	9270
505.857	7938
505.930	9189
506.003	8338
506.076	10462
506.149	13395
506.221	16944
506.294	17804
506.367	49614
506.440	154173
506.513	64149
506.586	18119
506.659	10397
506.731	9908
506.804	13402
506.877	17622
506.950	12678
507.022	9757
507.095	13739
507.168	15311
507.241	9883
507.313	8514
507.386	10418
507.459	13907
507.531	9575
507.604	8351
507.677	8973
507.749	6649
507.822	13599
507.894	25793
507.967	28830
508.040	16524
508.112	15602
508.185	13692
508.257	14837
508.330	18872
508.402	13702
508.475	13094
508.547	15073
508.620	13640
508.692	22032
508.765	13330
508.837	10169
508.909	9980
508.982	12096
509.054	12279
509.127	11790
509.199	10184
509.271	10351
509.344	9793
509.416	10231
509.488	9889
509.560	10594
509.633	11404
509.705	13518
509.777	11953
509.849	17832
509.922	12133
509.994	10761
510.066	10178
510.138	13382
510.210	24877
510.283	23023
510.355	17430
510.427	15646
510.499	14869
510.571	14543
510.643	16177
510.715	23127
510.787	19327
510.859	15657
510.931	18004
511.003	23512
511.076	18579
511.148	13480
511.219	14068
511.291	22312
511.363	23352
511.435	13545
511.507	12006
511.579	12491
511.651	12705
511.723	12514
511.795	11751
511.867	13150
511.939	16207
512.010	31144
512.082	22279
512.154	13728
512.226	14784
512.298	21313
512.369	30477
512.441	22219
512.513	21894
512.585	17900
512.656	17269
512.728	19131
512.800	14713
512.871	15292
512.943	15461
513.015	13666
513.086	14233
513.158	16414
513.230	16621
513.301	22917
513.373	23997
513.444	16164
513.516	12724
513.588	14114
513.659	14700
513.731	19658
513.802	17629
513.874	33533
513.945	51470
514.016	18010
514.088	13510
514.159	15808
514.231	20173
514.302	27346
514.374	19740
514.445	20480
514.516	35129
514.588	25054
514.659	19906
514.730	33142
514.802	24428
514.873	22327
514.944	19792
515.016	20092
515.087	20094
515.158	26122
515.229	31685
515.301	23433
515.372	27394
515.443	18790
515.514	15801
515.585	13218
515.656	13308
515.728	13507
515.799	12946
515.870	15143
515.941	13995
516.012	16740
516.083	20064
516.154	22449
516.225	25393
516.296	22598
516.367	20195
516.438	23652
516.509	34207
516.580	64125
516.651	185736
516.722	568119
516.793	190510
516.864	38450
516.935	36173
517.006	47088
517.077	78639
517.148	205175
517.219	676893
517.289	910579
517.360	211663
517.431	58882
517.502	24051
517.573	22877
517.643	21786
517.714	24735
517.785	24612
517.856	24093
517.926	27751
517.997	31246
518.068	43636
518.138	69637
518.209	144701
518.280	473143
518.350	1420638
518.421	449483
518.492	54245
518.562	36197
518.633	40810
518.703	49905
518.774	95312
518.845	229061
518.915	196099
518.986	56516
519.056	38411
519.127	57191
519.197	83541
519.268	165141
519.338	90504
519.408	28154
519.479	31875
519.549	23539
519.620	17522
519.690	14875
519.760	14982
519.831	15582
519.901	14920
519.971	13547
520.042	14969
520.112	17910
520.182	17522
520.253	20541
520.323	17084
520.393	27272
520.463	39431
520.534	29683
520.604	56887
520.674	23701
520.744	27218
520.814	68363
520.885	55194
520.955	61166
521.025	185485
521.095	60150
521.165	13967
521.235	14421
521.305	12736
521.375	12425
521.445	13998
521.515	18390
521.585	20470
521.655	17991
521.725	15980
521.795	14963
521.865	12695
521.935	18995
522.005	15681
522.075	11002
522.145	11154
522.215	15429
522.285	20144
522.355	28417
522.424	49488
522.494	40939
522.564	23601
522.634	46001
522.704	114348
522.774	38323
522.843	12595
522.913	13075
522.983	16900
523.053	13807
523.122	13986
523.192	23016
523.262	64717
523.331	55166
523.401	12823
523.471	10894
523.540	11871
523.610	9522
523.680	10468
523.749	12073
523.819	13067
523.888	14176
523.958	9962
524.027	11296
524.097	12759
524.166	11576
524.236	12504
524.305	12347
524.375	10533
524.444	10352
524.514	12034
524.583	13037
524.653	14692
524.722	17145
524.791	11689
524.861	11325
524.930	11198
524.999	11372
525.069	15694
525.138	14382
525.207	16221
525.277	11727
525.346	11366
525.415	12087
525.484	12396
525.554	15434
525.623	15238
525.692	13525
525.761	14247
525.830	17229
525.900	22888
525.969	40999
526.038	78374
526.107	167135
526.176	432711
526.245	319676
526.314	103625
526.383	230986
526.452	313222
526.522	479638
526.591	422874
526.660	82071
526.729	46394
526.797	64990
526.867	147195
526.935	486795
527.004	939212
527.073	476675
527.142	42778
527.211	21010
527.280	20462
527.349	19058
527.418	12004
527.487	11969
527.555	11098
527.624	10560
527.693	9967
527.762	10263
527.831	9423
527.899	10598
527.968	9825
528.037	9820
528.106	12831
528.174	22062
528.243	17969
528.312	25599
528.380	28821
528.449	10552
528.518	9797
528.586	8225
528.655	7868
528.723	8603
528.792	7922
528.861	9755
528.929	7421
528.998	9114
529.066	7301
529.135	8107
529.203	7139
529.272	7686
529.340	8806
529.409	9176
529.477	8759
529.545	11428
529.614	13048
529.682	14854
529.751	16148
529.819	17723
529.887	11806
529.956	9262
530.024	9795
530.092	9581
530.161	11355
530.229	15913
530.297	10006
530.365	9254
530.434	7639
530.502	8383
530.570	8303
530.638	7569
530.707	9636
530.775	11190
530.843	8474
530.911	8590
530.979	8048
531.047	9603
531.115	8903
531.183	9132
531.252	9071
531.320	9440
531.388	8289
531.456	9645
531.524	8271
531.592	9376
531.660	8706
531.728	9139
531.796	8456
531.864	8752
531.932	8889
532.000	8798
532.067	9512
532.135	10047
532.203	11336
532.271	13672
532.339	21212
532.407	48287
532.475	26407
532.542	14412
532.610	18902
532.678	32019
532.746	95703
532.814	208078
532.881	46436
532.949	13299
533.017	10798
533.084	10576
533.152	9506
533.220	9691
533.287	10745
533.355	9437
533.423	8977
533.490	10107
533.558	9369
533.625	10109
533.693	11043
533.761	11475
533.828	10822
533.896	12288
533.963	19900
534.031	23699
534.098	31220
534.166	17551
534.233	11514
534.300	11725
534.368	11402
534.435	12183
534.503	12353
534.570	16159
534.637	14786
534.705	18392
534.772	27498
534.840	58880
534.907	197921
534.974	227367
535.041	25611
535.109	15589
535.176	11517
535.243	11921
535.310	11866
535.378	10768
535.445	10444
535.512	11132
535.579	11091
535.646	10820
535.714	12086
535.781	14228
535.848	12854
535.915	13130
535.982	11325
536.049	11862
536.116	12056
536.183	12062
536.250	11780
536.317	12183
536.384	13636
536.451	19322
536.518	18798
536.585	14463
536.652	18377
536.719	23143
536.786	18542
536.853	17082
536.920	23640
536.987	37745
537.053	39282
537.120	108861
537.187	83893
537.254	14330
537.321	12881
537.388	14003
537.454	11354
537.521	11385
537.588	12843
537.654	14480
537.721	15795
537.788	15844
537.855	13033
537.921	13923
537.988	13750
538.055	12782
538.121	12344
538.188	14580
538.254	19718
538.321	32426
538.388	21360
538.454	14166
538.521	12795
538.587	12674
538.654	11957
538.720	13071
538.787	12527
538.853	15003
538.920	15873
538.986	16035
539.053	12823
539.119	13759
539.185	14223
539.252	16488
539.318	21834
539.385	17151
539.451	17189
539.517	17940
539.583	21650
539.650	38347
539.716	80123
539.782	23983
539.849	12749
539.915	15177
539.981	14124
540.047	16425
540.114	14500
540.180	15343
540.246	15894
540.312	20869
540.378	34381
540.444	36895
540.510	39577
540.576	89883
540.643	28431
540.709	13652
540.775	14030
540.841	14991
540.907	18862
540.973	29889
541.039	23094
541.105	21415
541.171	15116
541.237	14350
541.303	15481
541.369	17315
541.435	20694
541.500	29497
541.566	19204
541.632	13488
541.698	12322
541.764	13496
541.830	12965
541.896	12584
541.961	13651
542.027	13771
542.093	14379
542.159	15616
542.224	16094
542.290	21593
542.356	29563
542.421	33534
542.487	16640
542.553	14568
542.618	16350
542.684	14661
542.750	15523
542.815	19312
542.881	29887
542.947	78983
543.012	53616
543.078	14447
543.143	12234
543.209	14813
543.274	16230
543.340	18819
543.405	34128
543.471	47341
543.536	15006
543.602	14492
543.667	13320
543.732	13893
543.798	13076
543.863	13883
543.928	12910
543.994	12234
544.059	13027
544.124	14102
544.190	12890
544.255	14639
544.320	13913
544.386	15001
544.451	18757
544.516	23153
544.581	23922
544.646	53852
544.712	73390
544.777	19790
544.842	17648
544.907	17072
544.972	15454
545.037	16263
545.102	16404
545.168	16790
545.233	17243
545.298	19966
545.363	22220
545.428	25189
545.493	36117
545.558	66001
545.623	29257
545.688	18721
545.753	16648
545.818	18346
545.883	19405
545.947	19571
546.012	20086
546.077	21120
546.142	20892
546.207	21809
546.272	26063
546.337	25457
546.401	22811
546.466	22200
546.531	21811
546.596	24987
546.661	24521
546.725	25359
546.790	23773
546.855	26767
546.919	28422
546.984	31638
547.049	33823
547.113	38999
547.178	39672
547.243	45534
547.307	52765
547.372	57662
547.436	59801
547.501	57498
547.565	61768
547.630	59092
547.695	58680
547.759	59622
547.823	57161
547.888	55954
547.952	57375
548.017	60541
548.081	64952
548.146	68437
548.210	65321
548.274	64531
548.339	63228
548.403	57400
548.468	54395
548.532	56348
548.596	55115
548.660	56368
548.725	64041
548.789	69001
548.853	67562
548.917	63294
548.982	64643
549.046	60722
549.110	49859
549.174	52445
549.238	58052
549.303	62353
549.367	64604
549.431	61597
549.495	58495
549.559	60255
549.623	68571
549.687	76712
549.751	80876
549.815	87796
549.879	86531
549.943	82605
550.007	88240
550.071	85532
550.135	80928
550.199	74589
550.263	71923
550.327	70728
550.391	76479
550.455	78367
550.519	81964
550.582	87751
550.646	103067
550.710	102785
550.774	97080
550.838	97698
550.901	99831
550.965	108346
551.029	111979
551.093	123908
551.156	139890
551.220	171046
551.284	193610
551.347	138792
551.411	138137
551.475	137006
551.538	106662
551.602	97410
551.666	91944
551.729	87053
551.793	84065
551.856	84603
551.920	82235
551.983	81977
552.047	80149
552.110	81538
552.174	81986
552.237	84604
552.301	77829
552.364	75057
552.428	72236
552.491	75568
552.554	78659
552.618	77872
552.681	82969
552.745	81927
552.808	96346
552.871	112623
552.934	88071
552.998	78890
553.061	76391
553.124	73762
553.187	72248
553.251	75636
553.314	75887
553.377	75349
553.440	80213
553.503	83360
553.567	85282
553.630	80696
553.693	79818
553.756	80120
553.819	79381
553.882	75450
553.945	75049
554.008	76553
554.071	77306
554.134	78233
554.197	72377
554.260	71729
554.323	73525
554.386	75265
554.449	77299
554.512	77148
554.575	73171
554.638	73176
554.701	72824
554.764	72316
554.827	67122
554.889	67084
554.952	61842
555.015	62022
555.078	63113
555.141	65263
555.203	62148
555.266	61871
555.329	62894
555.391	60053
555.454	59827
555.517	59373
555.580	56335
555.642	52906
555.705	51941
555.768	53405
555.830	51061
555.893	49204
555.955	48237
556.018	48020
556.080	47543
556.143	49206
556.206	48611
556.268	47473
556.330	47645
556.393	47029
556.455	45506
556.518	49444
556.580	48553
556.643	41893
556.705	40054
556.767	39140
556.830	40287
556.892	40104
556.955	45515
557.017	41166
557.079	39109
557.142	37737
557.204	38486
557.266	49760
557.328	43389
557.391	31220
557.453	30844
557.515	31980
557.577	34194
557.639	34877
557.701	30520
557.764	29633
557.826	31068
557.888	34606
557.950	36977
558.012	46988
558.074	64485
558.136	118238
558.198	262851
558.260	89687
558.322	33112
558.384	34084
558.446	37204
558.508	43547
558.570	56187
558.632	84896
558.694	136561
558.756	201913
558.818	446781
558.880	1008180
558.942	332643
559.003	264798
559.065	125885
559.127	47876
559.189	53396
559.251	75445
559.312	123139
559.374	233033
559.436	677214
559.498	331076
559.559	55972
559.621	56583
559.683	79901
559.744	134346
559.806	331432
559.868	496434
559.929	96462
559.991	67891
560.052	99577
560.114	260457
560.176	174698
560.237	141800
560.299	234361
560.360	50268
560.422	22892
560.483	21288
560.545	20531
560.606	20389
560.667	19088
560.729	18640
560.790	16844
560.852	18620
560.913	18076
560.974	17880
561.036	17348
561.097	17609
561.158	16694
561.220	17286
561.281	17395
561.342	18694
561.403	21278
561.465	25614
561.526	39774
561.587	50450
561.648	18751
561.709	16641
561.771	15821
561.832	15884
561.893	15688
561.954	16454
562.015	14911
562.076	15728
562.137	15468
562.198	15517
562.259	15577
562.320	16541
562.381	17687
562.442	20942
562.503	18759
562.564	15139
562.625	15095
562.686	15527
562.747	15461
562.808	16312
562.869	14593
562.930	17165
562.991	16548
563.051	16084
563.112	15262
563.173	15264
563.234	14170
563.294	15166
563.355	13664
563.416	15475
563.477	14143
563.537	14835
563.598	15020
563.659	15400
563.720	14981
563.780	15570
563.841	15389
563.901	15157
563.962	14086
564.023	14727
564.083	13799
564.144	15218
564.204	14169
564.265	15637
564.325	17667
564.386	26512
564.446	24322
564.507	14541
564.567	14185
564.628	14629
564.688	14171
564.749	14562
564.809	16294
564.869	17954
564.930	14932
564.990	14708
565.050	13661
565.111	14557
565.171	13510
565.231	14047
565.292	14539
565.352	14399
565.412	14005
565.472	15601
565.532	14997
565.593	14683
565.653	13372
565.713	14998
565.773	16164
565.833	17709
565.893	19860
565.953	15254
566.013	14605
566.074	15536
566.134	18522
566.194	25060
566.254	24797
566.314	17831
566.374	15132
566.434	15268
566.494	15269
566.554	15943
566.614	16093
566.673	15792
566.733	15989
566.793	17497
566.853	18323
566.913	17871
566.973	17618
567.033	19110
567.092	19328
567.152	19524
567.212	18667
567.272	18673
567.331	19313
567.391	20503
567.451	22141
567.511	24996
567.570	25038
567.630	18090
567.690	17515
567.749	17950
567.809	18939
567.868	21356
567.928	23322
567.988	26576
568.047	31067
568.107	39595
568.166	53180
568.226	78131
568.285	106318
568.345	83508
568.404	62594
568.464	51753
568.523	47984
568.582	52438
568.642	62258
568.701	82143
568.761	115871
568.820	179446
568.879	167688
568.939	114118
568.998	79154
569.057	58581
569.116	46256
569.176	36902
569.235	31613
569.294	27512
569.353	24168
569.413	23196
569.472	22037
569.531	19997
569.590	18812
569.649	19043
569.708	17488
569.767	18868
569.827	20715
569.886	18435
569.945	15930
570.004	16818
570.063	16616
570.122	17159
570.181	17852
570.240	18290
570.299	18147
570.358	18722
570.417	15035
570.475	14817
570.534	14547
570.593	16265
570.652	16117
570.711	15536
570.770	15540
570.829	16098
570.887	15173
570.946	17075
571.005	14328
571.064	15157
571.122	15705
571.181	17058
571.240	14217
571.299	13976
571.357	13954
571.416	14230
571.475	15485
571.533	16621
571.592	14427
571.650	15063
571.709	14272
571.768	14817
571.826	14512
571.885	14125
571.943	13377
572.002	13444
572.060	14030
572.119	12864
572.177	12762
572.236	12620
572.294	11761
572.352	13315
572.411	13887
572.469	12865
572.528	12807
572.586	13326
572.644	13873
572.703	18040
572.761	13302
572.819	12352
572.877	11740
572.936	11801
572.994	11890
573.052	12225
573.110	12356
573.169	12498
573.227	11477
573.285	12303
573.343	11950
573.401	12496
573.459	12015
573.517	12239
573.576	11958
573.634	12492
573.692	12824
573.750	12757
573.808	11607
573.866	12650
573.924	14465
573.982	14078
574.040	10927
574.098	12210
574.155	11663
574.213	11940
574.271	10913
574.329	12254
574.387	11220
574.445	11093
574.503	10175
574.560	10116
574.618	10845
574.676	10042
574.734	10653
574.792	11226
574.849	9957
574.907	10536
574.965	9562
575.022	10080
575.080	10220
575.138	10781
575.195	9577
575.253	10886
575.311	9836
575.368	10252
575.426	9020
575.483	10370
575.541	10604
575.598	9792
575.656	10715
575.713	10361
575.771	10980
575.828	10741
575.886	9159
575.943	11342
576.001	10814
576.058	11032
576.115	11292
576.173	13082
576.230	13317
576.287	14430
576.345	12053
576.402	11764
576.459	11540
576.517	11011
576.574	11682
576.631	12840
576.688	10989
576.746	11145
576.803	10603
576.860	11161
576.917	10548
576.974	10714
577.031	10481
577.089	10717
577.146	11149
577.203	10911
577.260	11258
577.317	10802
577.374	11545
577.431	12223
577.488	10468
577.545	10311
577.602	10492
577.659	10084
577.716	9665
577.773	10453
577.830	8959
577.886	9357
577.943	8649
578.000	10290
578.057	10626
578.114	10141
578.171	9760
578.227	10644
578.284	9443
578.341	10652
578.398	11020
578.454	11469
578.511	11228
578.568	13110
578.625	11455
578.681	11412
578.738	9479
578.794	10831
578.851	9822
578.908	11697
578.964	11409
579.021	11900
579.077	9998
579.134	11283
579.190	10875
579.247	10766
579.303	10116
579.360	10537
579.416	10283
579.473	9807
579.529	9385
579.586	10423
579.642	10957
579.698	10769
579.755	10691
579.811	11675
579.867	9883
579.924	10279
579.980	9788
580.036	10999
580.093	9949
580.149	11003
580.205	11339
580.261	11101
580.317	11052
580.374	11239
580.430	12374
580.486	13179
580.542	12286
580.598	11649
580.619	11669
580.654	11717
580.692	11960
580.710	12101
580.765	11855
580.767	11861
580.823	12228
580.838	11940
580.879	11220
580.911	11404
580.935	11561
580.984	10931
580.991	10856
581.047	11755
581.057	11569
581.103	10835
581.130	11112
581.159	11413
581.203	11978
581.215	12137
581.270	10916
581.276	10955
581.326	11417
581.349	11477
581.382	11584
581.422	11806
581.438	11933
581.494	12011
581.494	11995
581.550	11127
581.567	11468
581.606	12217
581.640	11919
581.661	11771
581.713	11977
581.717	12001
581.773	11117
581.786	11375
581.829	12186
581.859	11680
581.885	11300
581.932	11788
581.940	11884
581.996	12722
582.004	12689
582.052	12441
582.077	11700
582.107	10930
582.150	12129
582.163	12495
582.219	11870
582.223	11889
582.274	12171
582.296	11989
582.330	11719
582.368	12569
582.386	12963
582.441	11652
582.441	11653
582.497	11620
582.514	11627
582.552	11865
582.587	11795
582.608	11677
582.659	12205
582.663	12267
582.719	12125
582.732	11990
582.774	11531
582.805	11912
582.830	12202
582.877	12241
582.885	12254
582.941	11906
582.950	12002
582.996	12426
583.023	12474
583.052	12586
583.095	12116
583.107	11993
583.162	12817
583.168	12785
583.218	12333
583.240	12220
583.273	12213
583.313	12315
583.328	12320
583.384	12497
583.385	12494
583.439	12444
583.458	12502
583.494	12477
583.531	12054
583.549	11916
583.603	12498
583.605	12513
583.660	12444
583.676	12403
583.715	12354
583.748	12445
583.770	12521
583.820	12656
583.825	12665
583.881	12641
583.893	12915
583.936	13673
583.965	13113
583.991	12678
584.038	13127
584.046	13213
584.101	12216
584.110	12274
584.156	12616
584.183	12572
584.211	12483
584.255	13513
584.266	13782
584.321	12963
584.328	13040
584.376	13457
584.400	13081
584.431	12791
584.472	12605
584.486	12431
584.541	13586
584.545	13615
584.596	14369
584.617	14155
584.651	13770
584.689	14718
584.706	15108
584.761	14185
584.762	14196
584.816	14898
584.834	14797
584.871	14700
584.906	14646
584.926	14627
584.978	15248
584.980	15269
585.035	16483
585.051	16438
585.090	16507
585.123	17157
585.145	17450
585.195	18439
585.200	18578
585.254	19704
585.267	20222
585.309	21711
585.340	24212
585.364	26234
585.412	30091
585.419	30725
585.473	40293
585.484	42946
585.528	53779
585.556	62639
585.583	74282
585.628	97920
585.637	107078
585.692	204946
585.700	227709
585.747	361753
585.772	322844
585.801	215139
585.845	91634
585.856	69857
585.910	34258
585.917	30736
585.965	25839
585.989	24083
586.019	22880
586.061	22114
586.074	21976
586.128	21767
586.133	21774
586.183	22217
586.205	22427
586.237	22741
586.277	22572
586.292	22386
586.346	22879
586.349	22864
586.401	22498
586.421	23169
586.455	24367
586.493	24597
586.509	25028
586.564	27898
586.565	28069
586.618	37098
586.637	38053
586.672	36655
586.709	32828
586.727	30749
586.781	29541
586.781	29528
586.835	27530
586.853	27182
586.889	26931
586.925	26827
586.944	26440
586.996	25782
586.998	25790
587.052	26640
587.068	27015
587.106	27740
587.140	27945
587.161	27924
587.212	29190
587.215	29273
587.269	30117
587.284	30649
587.323	31625
587.356	32028
587.377	32483
587.427	34291
587.431	34360
587.485	34887
587.499	35378
587.539	36550
587.571	37023
587.593	37838
587.643	39963
587.648	40150
587.702	42089
587.715	42844
587.755	44342
587.786	45468
587.810	46693
587.858	49143
587.864	49457
587.917	53294
587.930	54417
587.971	58527
588.001	61098
588.025	62873
588.073	67861
588.079	68537
588.133	74978
588.145	76528
588.187	82814
588.217	87938
588.241	92491
588.288	102735
588.295	104277
588.348	119776
588.360	123505
588.402	138834
588.431	151499
588.456	162757
588.503	188481
588.510	192535
588.564	232175
588.575	242178
588.617	286977
588.646	323632
588.671	360642
588.718	439029
588.725	454748
588.778	595356
588.789	628806
588.832	810732
588.861	938974
588.886	1050634
588.932	1193228
588.939	1187064
588.993	1058446
589.004	1065166
589.047	1148140
589.075	1151739
589.100	1058998
589.147	826731
589.154	795741
589.207	587251
589.218	551004
589.261	488322
589.290	458113
589.314	457800
589.361	471515
589.368	481172
589.421	587175
589.433	614968
589.475	791958
589.504	913198
589.528	999264
589.576	1088174
589.582	1077210
589.635	1034420
589.647	1010985
589.689	822683
589.718	672056
589.742	557157
589.790	356472
589.795	344340
589.849	250725
589.861	231251
589.902	196623
589.932	172681
589.955	158396
590.004	130749
590.009	128685
590.062	109882
590.075	105680
590.115	96077
590.146	88950
590.168	85169
590.218	77780
590.222	77232
590.275	71394
590.289	69920
590.328	65673
590.360	62414
590.381	60460
590.431	56631
590.435	56422
590.488	53532
590.503	52845
590.541	50736
590.574	48935
590.594	48227
590.645	46899
590.647	46782
590.700	44381
590.716	43775
590.753	43262
590.787	42792
590.806	42112
590.859	40543
590.859	40507
590.912	39717
590.930	39639
590.965	38743
591.001	37769
591.018	37540
591.071	36895
591.072	36912
591.124	36536
591.143	36422
591.177	35481
591.214	34558
591.230	34549
591.283	34658
591.285	34669
591.336	34271
591.356	34377
591.389	34275
591.427	33837
591.442	33513
591.495	32525
591.498	32464
591.547	31409
591.569	31003
591.600	30905
591.640	30771
591.653	30590
591.706	29877
591.711	29833
591.759	30743
591.782	31225
591.811	31311
591.853	31475
591.864	31402
591.917	31007
591.924	30965
591.969	30506
591.995	30276
592.022	29973
592.066	29525
592.075	29595
592.127	30178
592.137	30306
592.180	32418
592.208	33795
592.233	33121
592.279	31741
592.285	31543
592.338	30038
592.350	29697
592.390	29427
592.421	29267
592.443	29330
592.491	29512
592.495	29493
592.548	29396
592.562	29382
592.600	29136
592.633	28948
592.653	28839
592.704	28435
592.705	28590
592.775	28223
592.846	28888
592.916	28691
592.987	29514
593.058	28910
593.128	28832
593.199	29273
593.270	28674
593.341	28135
593.411	28685
593.482	29266
593.553	29293
593.623	28620
593.694	29840
593.764	30516
593.835	30227
593.906	30440
593.976	30028
594.047	31448
594.117	32173
594.188	34832
594.258	31380
594.329	30908
594.399	31570
594.470	31720
594.540	31931
594.611	33052
594.681	32033
594.751	33349
594.822	33854
594.892	35175
594.963	36716
595.033	36000
595.103	37154
595.174	38081
595.244	41466
595.314	48101
595.384	42081
595.455	39186
595.525	40590
595.595	40953
595.665	42103
595.736	40896
595.806	40944
595.876	42197
595.946	42076
596.016	43270
596.087	45327
596.157	44182
596.227	44677
596.297	46316
596.367	48014
596.437	52780
596.507	55049
596.577	57780
596.647	54515
596.717	53993
596.787	55364
596.857	55189
596.927	55206
596.997	55660
597.067	55201
597.137	56722
597.207	58149
597.277	58046
597.347	56265
597.417	55136
597.487	55348
597.557	54668
597.626	56134
597.696	58298
597.766	59871
597.836	61831
597.906	56332
597.975	51933
598.045	51175
598.115	50928
598.185	55451
598.254	60436
598.324	66744
598.394	67926
598.464	66681
598.533	65490
598.603	62102
598.672	58914
598.742	59151
598.812	60503
598.881	61339
598.951	61209
599.020	59938
599.090	63605
599.159	66034
599.229	63068
599.299	60181
599.368	62501
599.437	61972
599.507	60246
599.576	56182
599.646	55418
599.715	54632
599.785	54691
599.854	53568
599.924	53473
599.993	52475
600.062	51624
600.132	53866
600.201	55853
600.270	62521
600.340	68555
600.409	66639
600.478	65930
600.547	66239
600.617	67666
600.686	54045
600.755	48348
600.824	45472
600.894	44011
600.963	43156
601.032	43109
601.101	42567
601.170	40290
601.239	39778
601.308	40885
601.378	41032
601.447	39487
601.516	39104
601.585	40538
601.654	40885
601.723	41578
601.792	40115
601.861	42351
601.930	43790
601.999	45749
602.068	44002
602.137	45495
602.206	46563
602.275	46009
602.343	46888
602.412	47918
602.481	46350
602.550	47629
602.619	46176
602.688	48388
602.756	47777
602.825	49428
602.894	49482
602.963	51483
603.032	50709
603.100	52384
603.169	51458
603.238	52152
603.307	52369
603.375	52484
603.444	52860
603.513	53516
603.581	54065
603.650	55331
603.719	54732
603.787	54267
603.856	57039
603.924	58189
603.993	59417
604.061	62059
604.130	63938
604.198	65752
604.267	65714
604.335	67314
604.404	68298
604.472	69460
604.541	69587
604.609	70988
604.678	70797
604.746	70677
604.815	73425
604.883	74458
604.951	75094
605.020	74659
605.088	75657
605.156	77303
605.225	78986
605.293	79690
605.361	79594
605.429	80809
605.498	81064
605.566	83132
605.634	85149
605.702	90523
605.771	93641
605.839	94766
605.907	91902
605.975	90496
606.043	87375
606.111	87994
606.180	86093
606.248	85984
606.316	83967
606.384	84737
606.452	86691
606.520	89882
606.588	90181
606.656	90261
606.724	90371
606.792	85579
606.860	77935
606.928	70381
606.996	66782
607.064	63632
607.132	66528
607.200	67937
607.267	72767
607.335	73115
607.403	75239
607.471	75563
607.539	71371
607.607	74048
607.674	66715
607.742	64135
607.810	64511
607.878	63964
607.946	63885
608.013	66167
608.081	69618
608.149	70308
608.216	70403
608.284	73186
608.352	72970
608.419	73916
608.487	74009
608.555	72849
608.622	70585
608.690	74231
608.757	81471
608.825	86867
608.893	85666
608.960	83716
609.028	80948
609.095	80989
609.163	79474
609.230	72672
609.298	63775
609.365	64989
609.432	69494
609.500	73868
609.567	81832
609.635	95429
609.702	105168
609.769	105232
609.837	90242
609.904	71553
609.971	70655
610.039	77023
610.106	91817
610.173	150054
610.241	341540
610.308	410870
610.375	159089
610.442	89917
610.509	73809
610.577	72507
610.644	71504
610.711	73786
610.778	74870
610.845	77103
610.912	82398
610.980	85515
611.047	87713
611.114	86883
611.181	83236
611.248	81904
611.315	84785
611.382	88001
611.449	89809
611.516	92719
611.583	92502
611.650	93285
611.717	92293
611.784	96481
611.851	98711
611.918	106217
611.984	117369
612.051	151840
612.118	257609
612.185	604343
612.252	782999
612.319	206851
612.386	127120
612.452	115519
612.519	108950
612.586	108141
612.653	107159
612.719	108853
612.786	107294
612.853	100453
612.919	93601
612.986	97046
613.053	93135
613.120	88750
613.186	82514
613.253	84485
613.319	81834
613.386	83330
613.453	84276
613.519	87477
613.586	86380
613.652	92052
613.719	89597
613.785	89358
613.852	86961
613.918	84610
613.985	84767
614.051	88277
614.118	90058
614.184	89143
614.250	83949
614.317	87664
614.383	85704
614.449	86350
614.516	86308
614.582	87873
614.648	86766
614.715	86282
614.781	85014
614.847	83322
614.914	84489
614.980	83831
615.046	81424
615.112	82306
615.179	84014
615.245	86178
615.311	88461
615.377	93033
615.443	104859
615.509	92048
615.575	89660
615.642	91512
615.708	91600
615.774	95872
615.840	103055
615.906	110231
615.972	129866
616.038	185655
616.104	326968
616.170	678010
616.236	1070405
616.302	323292
616.368	164639
616.434	130187
616.500	108984
616.565	111613
616.631	137537
616.697	131042
616.763	118043
616.829	147057
616.895	260539
616.961	341549
617.026	178911
617.092	101391
617.158	91590
617.224	89680
617.289	84165
617.355	78659
617.421	77758
617.487	78470
617.552	74637
617.618	72942
617.684	74406
617.749	73636
617.815	70997
617.880	69308
617.946	69272
618.012	69594
618.077	72178
618.143	70736
618.208	69586
618.274	73574
618.339	76529
618.405	67534
618.470	62258
618.536	63188
618.601	62983
618.667	61173
618.732	56310
618.798	54889
618.863	54650
618.928	54159
618.994	55630
619.059	56030
619.124	59272
619.190	58955
619.255	55671
619.320	53734
619.386	55198
619.451	54689
619.516	53296
619.581	53302
619.647	53672
619.712	56870
619.777	53331
619.842	52706
619.907	52988
619.972	54883
620.038	56207
620.103	53289
620.168	53336
620.233	54830
620.298	54817
620.363	53685
620.428	55123
620.493	56328
620.558	57281
620.623	56467
620.688	58141
620.753	57090
620.818	57597
620.883	59288
620.948	59492
621.013	58472
621.078	58273
621.143	56646
621.207	60765
621.272	59076
621.337	57912
621.402	56706
621.467	58855
621.532	60959
621.596	59079
621.661	57123
621.726	55522
621.791	55157
621.855	55475
621.920	56527
621.985	56378
622.049	57766
622.114	58119
622.179	58249
622.243	57538
622.308	59329
622.373	63160
622.437	62415
622.502	58825
622.566	57236
622.631	57149
622.695	59381
622.760	57692
622.824	58161
622.889	57931
622.953	59199
623.018	63263
623.082	69260
623.147	61769
623.211	60234
623.276	59002
623.340	58981
623.404	55797
623.469	56441
623.533	56020
623.597	55733
623.662	54498
623.726	52872
623.790	49253
623.854	47331
623.919	47732
623.983	47628
624.047	48826
624.111	49706
624.176	50398
624.240	50392
624.304	53958
624.368	51629
624.432	49570
624.496	50995
624.560	54186
624.625	56125
624.689	53912
624.753	55040
624.817	54883
624.881	52931
624.945	49743
625.009	45896
625.073	46147
625.137	48672
625.201	51828
625.265	54549
625.329	48300
625.393	49141
625.456	49125
625.520	49736
625.584	52466
625.648	54948
625.712	59334
625.776	74805
625.839	90850
625.903	70653
625.967	43617
626.031	47157
626.095	63017
626.158	59322
626.222	42468
626.286	35851
626.349	33845
626.413	33519
626.477	32230
626.540	32779
626.604	32212
626.668	31440
626.731	31148
626.795	31959
626.858	31686
626.922	31254
626.986	31145
627.049	30155
627.113	30698
627.176	31377
627.240	29956
627.303	29335
627.366	30540
627.430	31501
627.493	30384
627.557	29305
627.620	29777
627.684	30726
627.747	31113
627.810	30137
627.874	27277
627.937	25522
628.000	26133
628.064	26424
628.127	24357
628.190	23335
628.253	23520
628.317	23008
628.380	20746
628.443	20819
628.506	21020
628.569	21714
628.632	19327
628.696	19579
628.759	19741
628.822	18917
628.885	18469
628.948	17825
629.011	17554
629.074	17754
629.137	17152
629.200	16786
629.263	17109
629.326	16913
629.389	16512
629.452	16599
629.515	16539
629.578	15776
629.641	16298
629.704	16233
629.767	16723
629.830	15653
629.892	14872
629.955	16048
630.018	15422
630.081	15817
630.144	17007
630.207	17226
630.269	16790
630.332	15360
630.395	15339
630.458	14437
630.520	13529
630.583	14956
630.646	14437
630.708	13785
630.771	13924
630.834	15366
630.896	15154
630.959	14286
631.021	14331
631.084	14788
631.146	14575
631.209	16417
631.272	14169
631.334	14619
631.397	14299
631.459	14653
631.522	14975
631.584	16050
631.646	16195
631.709	17843
631.771	18587
631.834	18493
631.896	15993
631.958	16233
632.021	14606
632.083	14048
632.145	13816
632.208	14287
632.270	14669
632.332	13738
632.395	13033
632.457	14196
632.519	13637
632.581	13260
632.643	13153
632.706	14250
632.768	12512
632.830	13316
632.892	13012
632.954	14123
633.016	14560
633.078	13308
633.141	12947
633.203	13322
633.265	13476
633.327	13448
633.389	12401
633.451	13345
633.513	14429
633.575	14907
633.637	13607
633.698	13908
633.760	14404
633.822	14287
633.884	13795
633.946	14499
634.008	14903
634.070	15043
634.132	14734
634.193	16941
634.255	18220
634.317	18125
634.379	19252
634.441	17638
634.502	16902
634.564	15144
634.626	14204
634.687	13313
634.749	12671
634.811	12565
634.873	11545
634.934	11642
634.996	11690
635.057	13189
635.119	11001
635.181	12842
635.242	12831
635.304	12085
635.365	13492
635.427	12472
635.488	12485
635.550	13246
635.611	12435
635.673	11841
635.734	13257
635.796	13260
635.857	15279
635.918	15656
635.980	17088
636.041	18575
636.102	18739
636.164	19603
636.225	19504
636.286	17499
636.348	16905
636.409	13902
636.470	13593
636.531	11906
636.593	12790
636.654	13528
636.715	12522
636.776	10869
636.838	10184
636.899	10624
636.960	9833
637.021	10758
637.082	10727
637.143	9795
637.204	9546
637.265	9665
637.326	10156
637.387	9434
637.448	9259
637.509	10659
637.570	10273
637.631	10044
637.692	9138
637.753	9584
637.814	9268
637.875	9443
637.936	10504
637.997	9043
638.058	9294
638.119	9455
638.179	9642
638.240	9800
638.301	9118
638.362	9976
638.423	8239
638.483	8512
638.544	8826
638.605	9152
638.666	8517
638.726	9748
638.787	9382
638.848	9757
638.908	9345
638.969	9079
639.030	7939
639.090	8369
639.151	8466
639.211	9231
639.272	9876
639.332	10873
639.393	12609
639.453	9261
639.514	9609
639.574	9216
639.635	7731
639.695	8622
639.756	7087
639.816	9454
639.877	7742
639.937	11337
639.997	12923
640.058	10008
640.118	8110
640.178	7870
640.239	8091
640.299	7525
640.359	7258
640.420	8280
640.480	8669
640.540	9768
640.600	10557
640.661	9739
640.721	8564
640.781	10207
640.841	8528
640.901	8557
640.961	7990
641.021	7989
641.082	8687
641.142	10591
641.202	9984
641.262	7222
641.322	7811
641.382	7090
641.442	7153
641.502	8017
641.562	7479
641.622	6859
641.682	7278
641.742	8629
641.802	8508
641.861	8746
641.921	8419
641.981	8046
642.041	7518
642.101	8038
642.161	7579
642.221	7009
642.280	7067
642.340	6991
642.400	7026
642.460	7449
642.519	6745
642.579	7649
642.639	7872
642.698	6116
642.758	8531
642.818	7376
642.877	6825
642.937	7650
642.997	7491
643.056	8880
643.116	8227
643.175	8432
643.235	7438
643.294	8254
643.354	8600
643.414	9399
643.473	10441
643.532	11925
643.592	15953
643.651	24854
643.711	40867
643.770	76264
643.830	151622
643.889	456205
643.948	332179
644.008	40965
644.067	16942
644.126	12968
644.186	10959
644.245	9809
644.304	7991
644.363	8701
644.423	7613
644.482	7601
644.541	7814
644.600	8169
644.659	9900
644.719	10709
644.778	16223
644.837	25665
644.896	45956
644.955	118911
645.014	115766
645.073	17805
645.132	9798
645.191	8558
645.250	7271
645.309	8571
645.368	8023
645.427	9869
645.486	13736
645.545	29761
645.604	21047
645.663	7788
645.722	7326
645.781	8822
645.840	8607
645.898	10818
645.957	14815
646.016	21943
646.075	38218
646.134	70107
646.192	148467
646.251	413770
646.310	180617
646.369	23681
646.427	14245
646.486	11984
646.545	8976
646.603	8349
646.662	7603
646.721	6996
646.779	6381
646.838	6526
646.896	8526
646.955	10626
647.014	15135
647.072	26935
647.131	65481
647.189	94986
647.248	15443
647.306	7208
647.365	5936
647.423	5152
647.481	6180
647.540	4586
647.598	5366
647.657	4706
647.715	5971
647.773	4689
647.832	5593
647.890	4494
647.948	4743
648.007	5302
648.065	4168
648.123	4537
648.181	5314
648.240	4881
648.298	3421
648.356	4159
648.414	5109
648.472	4645
648.531	4620
648.589	4255
648.647	4176
648.705	4025
648.763	4960
648.821	4850
648.879	4048
648.937	5748
648.995	6323
649.053	7685
649.111	11001
649.169	18777
649.227	31784
649.285	58071
649.343	159582
649.401	234678
649.459	37106
649.516	15805
649.574	8240
649.632	7793
649.690	7614
649.748	9118
649.806	10673
649.863	19866
649.921	41747
649.979	78113
650.037	16515
650.094	4622
650.152	4507
650.210	3794
650.268	3903
650.325	3645
650.383	4231
650.440	3092
650.498	3193
650.556	2958
650.613	2887
650.671	3438
650.728	3119
650.786	3459
650.843	3004
650.901	3815
650.958	3881
651.016	3476
651.073	2686
651.131	3316
651.188	2273
651.246	3612
651.303	2005
651.360	3285
651.418	2768
651.475	2861
651.532	2605
651.590	3476
651.647	1709
651.704	3021
651.762	2766
651.819	3629
651.876	2687
651.933	2609
651.990	2861
652.048	1728
652.105	2042
652.162	3228
652.219	2640
652.276	3032
652.333	2875
652.390	2119
652.448	2227
652.505	2310
652.562	2703
652.619	2200
652.676	2934
652.733	3030
652.790	2528
652.847	1804
652.904	2362
652.961	1746
653.017	2230
653.074	2626
653.131	1812
653.188	1399
653.245	2160
653.302	2537
653.359	1955
653.415	2151
653.472	1896
653.529	2816
653.586	2043
653.642	2171
653.699	2625
653.756	2131
653.813	1708
653.869	2291
653.926	2546
653.983	1631
654.039	2176
654.096	1926
654.152	2220
654.209	1910
654.266	1806
654.322	1396
654.379	2834
654.435	2677
654.492	2046
654.548	3307
654.605	4016
654.661	5071
654.717	1569
654.774	2311
654.830	2516
654.887	2743
654.943	1607
655.000	2706
655.056	1825
655.112	2856
655.168	1415
655.225	2531
655.281	2439
655.337	2604
655.394	3157
655.450	4550
655.506	4110
655.562	3648
655.618	5830
655.675	1903
655.731	2360
655.787	1439
655.843	1909
655.899	1589
655.955	2298
656.011	2517
656.067	1673
656.123	2688
656.179	1932
656.235	2894
656.291	2532
656.347	3353
656.403	2719
656.459	2650
656.515	2637
656.571	2617
656.627	2812
656.683	2469
656.739	2010
656.795	1643
656.850	2154
656.906	2569
656.962	2822
657.018	2137
657.074	2472
657.129	2033
657.185	3757
657.241	7290
657.297	9312
657.352	4234
657.408	2059
657.464	2533
657.519	1600
657.575	835
657.630	1779
657.686	2034
657.742	828
657.797	2064
657.853	1636
657.908	2658
657.964	797
658.019	1793
658.075	2079
658.130	2019
658.186	439
658.241	1557
658.297	1047
658.352	727
658.407	1764
658.463	1798
658.518	1607
658.573	1697
658.629	907
658.684	2085
658.739	1600
658.795	924
658.850	1734
658.905	1190
658.960	2053
659.016	1095
659.071	834
659.126	1786
659.181	889
659.236	2153
659.291	3657
659.346	2308
659.401	1890
659.457	1898
659.512	1508
659.567	2260
659.622	1029
659.677	1577
659.732	1044
659.787	2009
659.842	1995
659.897	1934
659.952	2403
660.007	1327
660.061	1015
660.116	1474
660.171	1183
660.226	1127
660.281	1908
660.336	929
660.391	1530
660.445	1353
660.500	2039
660.555	1459
660.610	-73
660.664	1579
660.719	804
660.774	2070
660.828	1279
660.883	1951
660.938	1458
660.992	364
661.047	1200
661.101	1708
661.156	1178
661.211	1132
661.265	1517
661.320	959
661.374	852
661.429	1782
661.483	904
661.538	812
661.592	701
661.647	975
661.701	1962
661.755	2311
661.810	1528
661.864	1050
661.919	577
661.973	1783
662.027	856
662.081	703
662.136	1146
662.190	1639
662.244	1505
662.299	632
662.353	1372
662.407	1288
662.461	1471
662.515	1675
662.569	1606
662.624	1959
662.678	1167
662.732	1660
662.786	607
662.840	1939
662.894	1582
662.948	1626
663.002	1071
663.056	1236
663.110	660
663.164	1077
663.218	1634
663.272	1374
663.326	843
663.380	1653
663.434	1746
663.488	718
663.542	1511
663.595	1753
663.649	851
663.703	1939
663.757	1238
663.811	114
663.864	702
663.918	1926
663.972	328
664.026	1332
664.079	1068
664.133	2063
664.187	1750
664.240	914
664.294	1702
664.348	1526
664.401	1742
664.455	1536
664.508	816
664.562	1429
664.615	1158
664.669	1499
664.722	1566
664.776	757
664.829	1343
664.883	1512
664.936	593
664.990	1657
665.043	1301
665.097	1610
665.150	1140
665.203	1286
665.257	1772
665.310	2017
665.363	1168
665.417	1730
665.470	1277
665.523	1444
665.576	1410
665.630	1966
665.683	666
665.736	1513
665.789	1568
665.842	1629
665.895	1487
665.949	1741
666.002	1394
666.055	2214
666.108	1888
666.161	1226
666.214	1393
666.267	1629
666.320	2139
666.373	2159
666.426	1098
666.479	1383
666.532	2374
666.585	2110
666.638	2020
666.691	1970
666.744	2424
666.796	1439
666.849	1958
666.902	2133
666.955	1588
667.008	1413
667.060	1142
667.113	977
667.166	1243
667.219	1379
667.271	1557
667.324	2206
667.377	1781
667.430	1985
667.482	1109
667.535	2098
667.587	2071
667.640	2056
667.693	1243
667.745	2874
667.798	3809
667.850	1944
667.903	1954
667.955	1703
668.008	1990
668.060	2001
668.113	1637
668.165	1927
668.218	1289
668.270	1545
668.322	1026
668.375	797
668.427	2354
668.479	1673
668.532	1768
668.584	1426
668.636	1813
668.689	2405
668.741	950
668.793	1713
668.845	937
668.898	2241
668.950	1583
669.002	1245
669.054	1428
669.106	1430
669.158	1706
669.211	2167
669.263	2016
669.315	2163
669.367	1422
669.419	1730
669.471	1861
669.523	1916
669.575	2989
669.627	2533
669.679	2041
669.731	1356
669.783	2510
669.835	1849
669.886	1930
669.938	2180
669.990	1894
670.042	2039
670.094	2416
670.146	2234
670.197	2377
670.249	2395
670.301	3687
670.353	4357
670.404	6390
670.456	8921
670.508	14517
670.560	23032
670.611	38580
670.663	69122
670.715	129055
670.766	324836
670.818	283971
670.869	54439
670.921	15139
670.972	9442
671.024	6762
671.075	5700
671.127	3913
671.178	3163
671.230	2546
671.281	3412
671.333	2928
671.384	2823
671.436	3077
671.487	4688
671.538	5331
671.590	7362
671.641	10480
671.692	17938
671.744	37471
671.795	50675
671.846	19369
671.897	6914
671.949	4137
672.000	3424
672.051	2383
672.102	2755
672.153	1993
672.204	2407
672.256	1971
672.307	1901
672.358	1370
672.409	1757
672.460	1567
672.511	1607
672.562	921
672.613	798
672.664	1406
672.715	1251
672.766	858
672.817	1351
672.868	649
672.919	1573
672.970	1187
673.021	1409
673.071	972
673.122	1773
673.173	695
673.224	1412
673.275	1365
673.326	558
673.376	1170
673.427	456
673.478	841
673.528	1442
673.579	864
673.630	821
673.680	1708
673.731	1205
673.782	1497
673.832	1020
673.883	1276
673.934	323
673.984	1710
674.035	1475
674.085	1052
674.136	1208
674.186	471
674.237	1520
674.287	1794
674.338	2722
674.388	446
674.438	983
674.489	1098
674.539	959
674.589	2381
674.640	1424
674.690	720
674.740	746
674.791	1368
674.841	1507
674.891	1308
674.942	966
674.992	593
675.042	1048
675.092	1026
675.142	1037
675.193	727
675.243	1914
675.293	634
675.343	838
675.393	962
675.443	1135
675.493	424
675.543	709
675.593	658
675.643	1141
675.693	670
675.743	706
675.793	779
675.843	357
675.893	790
675.943	1003
675.993	1256
676.043	1010
676.093	1710
676.142	616
676.192	58
676.242	750
676.292	583
676.341	1010
676.391	1277
676.441	839
676.491	498
676.540	513
676.590	30
676.640	799
676.689	1181
676.739	557
676.789	135
676.838	452
676.888	518
676.937	499
676.987	-24
677.037	1032
677.086	563
677.136	1202
677.185	473
677.235	1060
677.284	444
677.333	314
677.383	165
677.432	556
677.482	279
677.531	1030
677.580	-120
677.630	756
677.679	419
677.728	551
677.778	-252
677.827	773
677.876	-90
677.925	989
677.975	1055
678.024	1004
678.073	750
678.122	888
678.171	730
678.220	980
678.269	295
678.319	1081
678.368	966
678.417	1717
678.466	1059
678.515	1094
678.564	849
678.613	1423
678.662	78
678.711	337
678.760	37
678.809	1123
678.857	588
678.906	710
678.955	493
679.004	867
679.053	480
679.102	104
679.151	311
679.199	523
679.248	736
679.297	342
679.346	179
679.394	835
679.443	282
679.492	814
679.540	-280
679.589	1376
679.638	588
679.686	42
679.735	8
679.784	730
679.832	1434
679.881	619
679.929	-195
679.978	233
680.026	32
680.075	229
680.123	32
680.172	367
680.220	88
680.268	865
680.317	28
680.365	3
680.414	-304
680.462	645
680.510	250
680.559	1097
680.607	587
680.655	856
680.703	332
680.752	344
680.800	188
680.848	24
680.896	-834
680.945	333
680.993	129
681.041	565
681.089	227
681.137	222
681.185	13
681.233	-143
681.258	-87
681.281	-69
681.329	566
681.377	315
681.380	343
681.425	216
681.473	842
681.502	966
681.521	996
681.569	599
681.617	807
681.624	876
681.665	1044
681.713	1523
681.745	1467
681.761	1386
681.809	937
681.857	1383
681.867	1311
681.904	947
681.952	1394
681.989	1387
682.000	1343
682.048	1162
682.096	1733
682.111	1766
682.143	1695
682.191	1510
682.233	1131
682.239	1046
682.286	1322
682.334	1822
682.354	1815
682.382	1692
682.430	1458
682.476	2131
682.477	2118
682.525	1485
682.572	2364
682.598	2361
682.620	2325
682.667	1903
682.715	2722
682.720	2769
682.763	2863
682.810	2594
682.841	2495
682.857	2411
682.905	2145
682.952	2932
682.963	2807
683.000	2201
683.047	2711
683.085	2997
683.095	3040
683.142	3166
683.190	2600
683.206	2654
683.237	2722
683.284	3229
683.328	3029
683.332	2979
683.379	3149
683.426	3182
683.449	3326
683.473	3461
683.521	3770
683.568	3124
683.571	3171
683.615	3457
683.662	3936
683.693	3885
683.709	3802
683.757	3658
683.804	4311
683.814	4114
683.851	3336
683.898	4072
683.936	3809
683.945	3710
683.992	4267
684.039	4219
684.057	4198
684.086	4211
684.133	4439
684.179	4206
684.180	4172
684.227	3681
684.274	4705
684.300	4730
684.321	4772
684.368	4107
684.415	4335
684.422	4440
684.462	4870
684.509	4760
684.543	4888
684.556	4914
684.603	4985
684.649	4696
684.665	4562
684.696	4232
684.743	4997
684.786	5182
684.790	5196
684.837	5302
684.883	5542
684.908	5434
684.930	5274
684.977	6298
685.023	6062
685.029	5965
685.070	4959
685.117	6001
685.150	5571
685.164	5405
685.210	6471
685.257	6000
685.272	6194
685.303	6564
685.350	6170
685.393	6977
685.396	7024
685.443	6859
685.490	6643
685.514	6737
685.536	6874
685.583	7158
685.629	6927
685.636	6967
685.675	6864
685.722	6697
685.757	6823
685.768	6905
685.815	6880
685.861	7358
685.878	7399
685.908	7387
685.954	7096
686.000	7131
686.000	7127
686.047	7436
686.093	7462
686.121	7955
686.139	8264
686.185	8294
686.232	8563
686.242	8588
686.278	8191
686.324	7644
686.363	7987
686.370	8062
686.416	7541
686.463	7379
686.484	7356
686.509	7548
686.555	7759
686.601	7775
686.606	7766
686.647	7339
686.693	7231
686.727	7132
686.739	7135
686.785	7731
686.831	7978
686.848	7867
686.877	7618
686.923	7344
686.969	7412
686.969	7411
687.015	7935
687.061	7740
687.090	7658
687.107	7678
687.153	7874
687.199	7371
687.211	7783
687.245	8673
687.291	7938
687.332	8164
687.336	8230
687.382	8712
687.428	8984
687.453	9183
687.474	9024
687.520	9028
687.565	8480
687.574	8425
687.611	8545
687.657	8770
687.695	8414
687.702	8395
687.748	9161
687.794	9810
687.816	9806
687.839	9547
687.885	9547
687.931	9546
687.937	9503
687.976	9272
688.022	8983
688.058	8694
688.067	8689
688.113	9002
688.158	9421
688.179	9341
688.204	9134
688.249	9498
688.295	9128
688.300	9149
688.340	9627
688.386	9969
688.421	9833
688.431	9772
688.477	9588
688.522	9928
688.542	10085
688.567	10278
688.613	10362
688.658	10121
688.663	10078
688.703	9714
688.749	9962
688.784	9887
688.794	9855
688.839	9420
688.884	9947
688.905	9464
688.930	9016
688.975	9483
689.020	9643
689.026	9643
689.065	9825
689.110	10079
689.146	9888
689.155	9869
689.201	10504
689.246	10519
689.267	10752
689.291	10816
689.336	10198
689.381	10158
689.388	10096
689.426	9985
689.471	9986
689.509	10203
689.516	10267
689.561	9983
689.606	10301
689.630	10208
689.651	10134
689.696	10242
689.741	10155
689.750	10153
689.785	10242
689.830	10350
689.871	10530
689.875	10558
689.920	10255
689.965	10703
689.992	10536
690.010	10326
690.054	9907
690.099	9436
690.112	9420
690.144	9837
690.189	10003
690.233	10156
690.233	10171
690.278	10316
690.323	9743
690.354	9952
690.367	10129
690.412	10056
690.457	10157
690.474	10148
690.501	10140
690.546	10338
690.590	10251
690.595	10241
690.635	10168
690.680	10168
690.716	10177
690.724	10246
690.769	9945
690.813	10329
690.836	10364
690.857	10426
690.902	10391
690.946	10517
690.957	10534
690.991	10721
691.035	11229
691.077	11298
691.080	11317
691.124	11179
691.168	11696
691.198	11601
691.213	11625
691.257	11654
691.301	12117
691.318	12237
691.346	12226
691.390	12035
691.434	11584
691.439	11537
691.478	11382
691.522	11577
691.559	11187
691.567	11213
691.611	11758
691.655	11979
691.680	12016
691.699	11922
691.743	12032
691.787	11885
691.800	11812
691.831	11914
691.875	11949
691.919	12601
691.921	12574
691.964	12445
692.008	12981
692.041	12941
692.052	12927
692.096	12720
692.139	12622
692.162	12765
692.183	12846
692.227	12557
692.271	12369
692.282	12344
692.315	12683
692.359	12432
692.402	12743
692.403	12768
692.447	12704
692.490	12141
692.523	12184
692.534	12373
692.578	12631
692.622	13210
692.643	13216
692.666	13001
692.709	12727
692.753	12382
692.763	12313
692.797	12363
692.840	12177
692.884	12177
692.884	12206
692.928	12429
692.971	12685
693.004	12543
693.015	12555
693.059	13117
693.102	13109
693.124	13232
693.146	13082
693.189	12593
693.233	12072
693.245	12026
693.276	12721
693.320	12958
693.363	13490
693.365	13485
693.407	13405
693.450	13123
693.485	12916
693.493	13025
693.537	13262
693.580	13487
693.605	13806
693.624	13807
693.667	13562
693.710	13067
693.725	12888
693.753	13046
693.797	13204
693.840	13567
693.845	13581
693.883	13647
693.926	13771
693.966	13552
693.970	13548
694.013	13345
694.056	13181
694.086	12918
694.099	12941
694.142	13076
694.185	13178
694.206	13232
694.229	13460
694.272	13760
694.315	14025
694.326	14063
694.358	14226
694.401	14444
694.444	14703
694.446	14678
694.487	14682
694.530	14451
694.566	14506
694.573	14483
694.616	14039
694.659	13512
694.686	13177
694.702	13205
694.745	13303
694.787	12960
694.806	12925
694.830	12966
694.873	13094
694.916	13017
694.926	12964
694.959	13131
695.002	13285
695.044	13541
695.046	13519
695.087	13658
695.130	13624
695.166	13721
695.172	13788
695.215	13766
695.258	13882
695.286	14035
695.301	14113
695.343	14022
695.386	13914
695.406	13849
695.428	13919
695.471	13940
695.514	14117
695.526	14102
695.556	14268
695.599	14467
695.641	14650
695.646	14626
695.684	14703
695.726	14828
695.766	14875
695.769	14909
695.811	14782
695.854	14853
695.886	14785
695.896	14815
695.938	14706
695.981	14646
696.005	14493
696.023	14491
696.065	14650
696.108	14749
696.125	14727
696.150	15156
696.192	15773
696.235	16424
696.245	16531
696.277	16248
696.319	16003
696.361	15671
696.365	15594
696.404	15638
696.446	15605
696.485	15677
696.488	15723
696.530	15751
696.572	15896
696.604	15747
696.614	15830
696.656	16031
696.698	16497
696.724	16622
696.740	16419
696.783	15680
696.825	15278
696.844	14915
696.867	15019
696.909	15237
696.951	15467
696.964	15498
696.992	15630
697.034	15710
697.076	15843
697.083	15813
697.118	15947
697.160	16137
697.202	16222
697.203	16181
697.244	16071
697.286	15901
697.323	15689
697.327	15739
697.369	15758
697.411	15819
697.442	15786
697.453	15880
697.494	16125
697.536	16399
697.562	16561
697.578	16637
697.620	16574
697.661	16516
697.682	16462
697.703	16565
697.744	16720
697.786	16880
697.801	16862
697.828	17304
697.869	18014
697.911	18650
697.921	18757
697.952	18307
697.994	17718
698.035	17064
698.040	16943
698.077	17080
698.118	17130
698.160	17221
698.160	17174
698.201	17118
698.243	17050
698.279	16893
698.284	16943
698.325	17026
698.367	17099
698.399	17113
698.408	17154
698.449	17076
698.491	17011
698.518	16949
698.532	17138
698.573	17551
698.614	17956
698.638	18147
698.656	18210
698.697	18208
698.738	18253
698.757	18210
698.779	18326
698.820	18449
698.862	18586
698.877	18582
698.903	18494
698.944	18273
698.985	18053
698.996	17945
699.026	18259
699.067	18625
699.116	19013
699.235	18356
699.354	18885
699.474	17464
699.593	17362
699.713	18398
699.832	17689
699.951	18448
700.070	18579
700.190	17095
700.309	17212
700.428	17014
700.547	17533
700.667	16592
700.786	16392
700.905	17566
701.024	15468
701.143	16961
701.262	15333
701.381	15229
701.500	16761
701.619	16370
701.738	16523
701.857	16045
701.976	14493
702.095	14872
702.214	15723
702.333	16312
702.452	16238
702.571	15113
702.690	15784
702.809	15399
702.928	15427
703.047	14758
703.165	14179
703.284	14643
703.403	14357
703.522	13688
703.640	15905
703.759	14652
703.878	18772
703.997	17278
704.115	14087
704.234	13886
704.353	14283
704.471	13723
704.590	13074
704.708	12722
704.827	12955
704.946	12904
705.064	14651
705.183	13245
705.301	13699
705.420	18116
705.538	21003
705.656	16839
705.775	14799
705.893	15471
706.012	17646
706.130	16962
706.249	16461
706.367	17142
706.485	16021
706.604	16436
706.722	16730
706.840	16323
706.958	18842
707.077	18641
707.195	15439
707.313	14762
707.431	15989
707.549	13967
707.668	14670
707.786	14851
707.904	14662
708.022	14710
708.140	15063
708.258	13215
708.376	13912
708.494	13521
708.612	14668
708.730	17528
708.848	21401
708.966	19073
709.084	18864
709.202	17658
709.320	16845
709.438	17345
709.556	17439
709.674	17626
709.791	18137
709.909	16759
710.027	16637
710.145	16123
710.263	16769
710.380	16471
710.498	16920
710.616	15021
710.733	15813
710.851	15936
710.969	16097
711.086	15093
711.204	15426
711.322	14699
711.439	16155
711.557	14918
711.674	15339
711.792	15002
711.909	16061
712.027	13820
712.144	14622
712.262	14314
712.379	15357
712.497	17967
712.614	24264
712.732	19947
712.849	18583
712.966	18271
713.084	19820
713.201	20463
713.318	18079
713.436	18151
713.553	18367
713.670	18527
713.787	20115
713.905	21155
714.022	19853
714.139	17837
714.256	19871
714.373	23302
714.490	32216
714.608	56504
714.725	177081
714.842	637566
714.959	168308
715.076	27974
715.193	21119
715.310	19311
715.427	16941
715.544	15862
715.661	15946
715.778	15337
715.895	17309
716.011	16988
716.128	17539
716.245	15221
716.362	17379
716.479	17167
716.596	16237
716.713	14931
716.829	14373
716.946	15204
717.063	13782
717.180	13818
717.296	14482
717.413	13549
717.530	13731
717.646	13810
717.763	13204
717.880	12432
717.996	12944
718.113	13072
718.229	13234
718.346	13405
718.462	12770
718.579	12657
718.695	16887
718.812	19771
718.928	16018
719.045	15801
719.161	12313
719.277	12507
719.394	12735
719.510	12030
719.626	12278
719.743	14956
719.859	18241
719.975	24068
720.092	58990
720.208	245579
720.324	190038
720.440	20806
720.557	14859
720.673	15569
720.789	20921
720.905	28918
721.021	39247
721.137	13062
721.253	11997
721.369	11134
721.486	12324
721.602	14311
721.718	14271
721.834	10814
721.950	10791
722.066	10814
722.181	10936
722.297	9566
722.413	11496
722.529	10013
722.645	10179
722.761	8999
722.877	10297
722.993	9803
723.108	9913
723.224	12064
723.340	10198
723.456	10084
723.571	9045
723.687	9148
723.803	10218
723.918	9110
724.034	9501
724.150	9569
724.265	9458
724.381	11889
724.497	23963
724.612	13182
724.728	8409
724.843	7728
724.959	9009
725.074	10636
725.190	21868
725.305	12722
725.421	9109
725.536	7485
725.651	7935
725.767	8462
725.882	7644
725.997	7228
726.113	8246
726.228	7773
726.343	8517
726.459	7696
726.574	8070
726.689	7578
726.804	7799
726.920	7385
727.035	8141
727.150	8303
727.265	7341
727.380	7902
727.495	7910
727.610	7140
727.725	7289
727.841	6980
727.956	7558
728.071	7548
728.186	8782
728.301	6050
728.416	7484
728.531	6984
728.645	6721
728.760	6178
728.875	8224
728.990	7439
729.105	7946
729.220	6730
729.335	7164
729.449	6654
729.564	7122
729.679	5921
729.794	6527
729.908	6312
730.023	7664
730.138	6522
730.253	6432
730.367	6505
730.482	6283
730.596	5368
730.711	6829
730.826	6937
730.940	6603
731.055	6355
731.169	7100
731.284	6273
731.398	6629
731.513	6859
731.627	7843
731.742	7791
731.856	10182
731.970	9281
732.085	9331
732.199	12144
732.313	17076
732.428	31851
732.542	98596
732.656	215716
732.771	49577
732.885	14128
732.999	11896
733.113	10289
733.227	10101
733.342	8657
733.456	8460
733.570	8587
733.684	8412
733.798	7967
733.912	8415
734.026	7138
734.140	7547
734.254	7375
734.368	8782
734.482	15141
734.596	9905
734.710	7025
734.824	7290
734.938	7589
735.052	7811
735.166	7565
735.280	8121
735.393	6829
735.507	7295
735.621	7803
735.735	10380
735.849	12262
735.962	6798
736.076	7291
736.190	8062
736.303	7152
736.417	10681
736.531	8527
736.644	6487
736.758	6257
736.872	6629
736.985	6167
737.099	6673
737.212	5448
737.326	6974
737.439	5835
737.553	6097
737.666	6316
737.780	6415
737.893	5709
738.007	5683
738.120	5835
738.233	5504
738.347	5488
738.460	5936
738.573	5290
738.687	6209
738.800	6375
738.913	7471
739.026	6542
739.140	5556
739.253	5849
739.366	5311
739.479	5243
739.592	5571
739.705	5122
739.818	6424
739.932	5931
740.045	4822
740.158	5825
740.271	6537
740.384	6083
740.497	5024
740.610	5567
740.723	5896
740.836	5888
740.949	5430
741.062	5825
741.174	7634
741.287	4808
741.400	5524
741.513	5194
741.626	4974
741.739	5201
741.851	4774
741.964	4600
742.077	4879
742.189	4202
742.302	5858
742.415	6157
742.527	5089
742.640	4658
742.753	4577
742.865	3680
742.978	5010
743.090	4887
743.203	5118
743.316	5303
743.428	4528
743.541	4440
743.653	3807
743.766	4367
743.878	5268
743.990	4495
744.103	6359
744.215	5644
744.327	5493
744.440	4985
744.552	6149
744.664	6477
744.777	4881
744.889	3601
745.001	4172
745.113	4817
745.226	4551
745.338	4166
745.450	4461
745.562	3975
745.674	3823
745.786	4296
745.898	4966
746.010	4057
746.122	3951
746.234	3896
746.347	3733
746.459	4195
746.570	5103
746.682	3627
746.794	5355
746.906	4003
747.018	3892
747.130	3883
747.242	4107
747.354	4027
747.466	4310
747.577	3587
747.689	3673
747.801	3813
747.913	3969
748.024	3073
748.136	4350
748.248	4064
748.359	3800
748.471	3899
748.583	3040
748.694	2873
748.806	4279
748.918	3723
749.029	4784
749.141	3197
749.252	4365
749.364	3375
749.475	4742
749.587	7309
749.698	4891
749.809	3386
749.921	3520
750.032	2923
750.144	2841
750.255	3440
750.366	2945
750.478	3089
750.589	3140
750.700	3916
750.811	4530
750.923	3594
751.034	4351
751.145	10538
751.256	5015
751.367	2592
751.479	4512
751.590	3099
751.701	3407
751.812	2764
751.923	3444
752.034	3051
752.145	3527
752.256	2123
752.367	3146
752.478	2845
752.589	3160
752.700	2301
752.811	3521
752.922	2703
753.032	2253
753.143	4466
753.254	3274
753.365	2927
753.476	2912
753.586	3113
753.697	3062
753.808	2452
753.919	2933
754.029	3189
754.140	2914
754.251	2167
754.361	2520
754.472	3341
754.582	3484
754.693	2736
754.804	3066
754.914	2217
755.025	2632
755.135	2412
755.246	3089
755.356	1946
755.466	3139
755.577	2802
755.687	3398
755.798	2555
755.908	3011
756.018	2668
756.129	2212
756.239	2503
756.349	3287
756.460	2782
756.570	3721
756.680	2645
756.790	3096
756.900	2876
757.011	2832
757.121	2513
757.231	2110
757.341	2826
757.451	1675
757.561	1993
757.671	1571
757.781	1881
757.891	2478
758.001	2330
758.111	3025
758.221	2685
758.331	3252
758.441	3051
758.551	3406
758.661	4471
758.771	3456
758.880	3451
758.990	3549
759.100	2773
759.210	3863
759.320	3328
759.429	2696
759.539	3838
759.649	4373
759.758	3335
759.868	4021
759.978	3746
760.087	4692
760.197	3683
760.307	3794
760.416	3568
760.526	3545
760.635	3098
760.745	4051
760.854	4371
760.964	5062
761.073	4630
761.182	5234
761.292	3920
761.401	4919
761.511	3352
761.620	3747
761.729	2712
761.839	3024
761.948	2732
762.057	3274
762.166	2322
762.276	2616
762.385	3142
762.494	2986
762.603	2419
762.712	2841
762.822	2601
762.931	2813
763.040	2881
763.149	2670
763.258	2307
763.367	3291
763.476	3156
763.585	2562
763.694	2501
763.803	2530
763.912	3771
764.021	2872
764.130	2224
764.238	3059
764.347	2840
764.456	3289
764.565	2747
764.674	3037
764.783	2597
764.891	3395
765.000	2648
765.109	2600
765.217	2348
765.326	3049
765.435	3339
765.543	3530
765.652	2971
765.761	3673
765.869	3263
765.978	4466
766.086	5927
766.195	11033
766.303	21548
766.412	68752
766.520	210631
766.629	81285
766.737	11951
766.846	7898
766.954	4577
767.062	4772
767.171	3451
767.279	4309
767.387	3742
767.496	3150
767.604	3250
767.712	2980
767.820	1956
767.928	2915
768.037	2403
768.145	3331
768.253	2958
768.361	2544
768.469	3421
768.577	2213
768.685	3057
768.793	2732
768.901	1935
769.009	3132
769.117	2978
769.225	2914
769.333	3871
769.441	4286
769.549	5480
769.657	10031
769.765	24573
769.873	93952
769.981	130572
770.088	15797
770.196	5007
770.304	5120
770.412	3384
770.519	4270
770.627	3316
770.735	3960
770.842	3021
770.950	3684
771.058	3428
771.165	2818
771.273	3415
771.380	3938
771.488	3067
771.595	4494
771.703	4064
771.810	4785
771.918	3409
772.025	4559
772.133	5080
772.240	4933
772.348	4306
772.455	5675
772.562	4798
772.670	4825
772.777	4084
772.884	4798
772.991	4829
773.099	4255
773.206	3906
773.313	4351
773.420	4607
773.528	4790
773.635	3136
773.742	5081
773.849	4128
773.956	3882
774.063	4049
774.170	3925
774.277	3908
774.384	4194
774.491	3118
774.598	4095
774.705	4016
774.812	4790
774.919	4624
775.026	4164
775.133	3406
775.239	5037
775.346	4059
775.453	4386
775.560	3355
775.667	4075
775.773	4109
775.880	4299
775.987	4156
776.093	3631
776.200	3605
776.307	3443
776.413	3481
776.520	3638
776.627	3771
776.733	3680
776.840	2990
776.946	4062
777.053	4081
777.159	5541
777.266	4916
777.372	5387
777.478	5663
777.585	5372
777.691	3736
777.798	4405
777.904	4589
778.010	4451
778.117	4374
778.223	4107
778.329	2902
778.435	3681
778.542	3909
778.648	4530
778.754	2121
778.860	3478
778.966	3535
779.072	2832
779.178	2923
779.284	3706
779.391	2064
779.497	3494
779.603	3981
779.708	3389
779.815	3179
779.920	3567
780.026	3992
780.132	3823
780.238	2546
780.344	2896
780.450	3452
780.556	3497
780.661	2288
780.767	3080
780.873	2797
780.979	2561
781.085	2761
781.190	3130
781.296	2838
781.402	2618
781.507	2876
781.613	3356
781.719	2491
781.824	3390
781.930	2994
782.035	2626
782.141	3596
782.246	2651
782.352	2674
782.457	1847
782.563	3142
782.668	3253
782.773	2386
782.879	2262
782.984	3051
783.090	3811
783.195	3157
783.300	5118
783.405	3516
783.511	2480
783.616	2638
783.721	2786
783.826	2927
783.932	2651
784.037	2964
784.142	2521
784.247	2433
784.352	2364
784.457	2473
784.562	2654
784.667	2237
784.772	2544
784.877	1844
784.982	3634
785.087	2360
785.192	3065
785.297	3347
785.402	2200
785.507	2322
785.611	2780
785.716	2478
785.821	2522
785.926	1963
786.031	3183
786.135	2012
786.240	2504
786.345	1957
786.450	2205
786.554	2087
786.659	2389
786.763	1549
786.868	2150
786.973	2458
787.077	2170
787.182	1897
787.286	2302
787.391	2777
787.495	2514
787.600	2068
787.704	1067
787.809	2044
787.913	3004
788.017	1827
788.122	2173
788.226	1808
788.330	1458
788.435	1817
788.539	2632
788.643	1319
788.747	1864
788.852	1498
788.956	1981
789.060	1239
789.164	2768
789.268	1376
789.372	2546
789.476	1408
789.580	1941
789.684	1080
789.788	2086
789.892	2355
789.996	1667
790.100	1845
790.204	1529
790.308	1873
790.412	1776
790.516	1015
790.620	1402
790.724	1609
790.828	1733
790.931	1516
791.035	1900
791.139	1437
791.242	1663
791.346	1914
791.450	1991
791.554	2076
791.657	836
791.761	2183
791.864	2358
791.968	1727
792.072	2801
792.175	1569
792.279	2098
792.382	1486
792.486	2383
792.589	1131
792.693	2178
792.796	875
792.899	1972
793.003	1892
793.106	1973
793.209	1051
793.313	2606
793.416	1279
793.519	1910
793.623	1453
793.726	3777
793.829	2930
793.932	1819
794.035	1363
794.138	2041
794.242	1858
794.345	2239
794.448	1838
794.551	2140
794.654	4028
794.757	2665
794.860	1954
794.963	3045
795.066	1673
795.169	2064
795.272	1471
795.375	925
795.477	1324
795.580	1647
795.683	1207
795.786	2108
795.889	892
795.991	1483
796.094	1655
796.197	1417
796.300	2121
796.402	2046
796.505	430
796.608	1277
796.710	702
796.813	1347
796.915	1458
797.018	1636
797.120	1675
797.223	1234
797.326	1381
797.428	1641
797.530	1309
797.633	1687
797.735	1461
797.838	2599
797.940	3047
798.042	1921
798.145	1374
798.247	1475
798.349	1118
798.452	1514
798.554	623
798.656	1124
798.758	2034
798.860	1273
798.962	1621
799.065	1228
799.167	774
799.269	1719
799.371	1163
799.473	1631
799.575	2004
799.677	1661
799.779	2414
799.881	1851
799.983	1877
800.085	2653
800.187	1255
800.289	1505
800.390	1088
800.492	845
800.594	1624
800.696	1525
800.798	1259
800.899	1139
801.001	881
801.103	913
801.205	1364
801.306	1021
801.408	496
801.509	1193
801.611	590
801.713	982
801.814	724
801.916	843
802.017	22
802.119	60
802.220	1567
802.322	1298
802.423	2043
802.525	1341
802.626	926
802.727	765
802.829	1644
802.930	576
803.031	1435
803.133	512
803.234	607
803.335	671
803.436	1002
803.538	647
803.639	1348
803.740	898
803.841	794
803.942	1017
804.043	1092
804.144	696
804.245	641
804.346	1173
804.447	483
804.548	1153
804.649	2370
804.750	1873
804.851	677
804.952	479
805.053	1230
805.154	425
805.255	855
805.355	867
805.456	958
805.557	429
805.658	597
805.758	1483
805.859	842
805.960	999
806.061	938
806.161	712
806.262	661
806.362	713
806.463	785
806.564	1636
806.664	1170
806.765	1367
806.865	1316
806.966	615
807.066	433
807.166	1016
807.267	1330
807.367	775
807.468	775
807.568	462
807.668	552
807.769	1235
807.869	207
807.969	1054
808.069	1314
808.170	211
808.270	528
808.370	1221
808.470	1383
808.570	982
808.670	76
808.770	848
808.870	100
808.970	673
809.070	215
809.170	-78
809.271	927
809.370	1705
809.470	838
809.570	769
809.670	432
809.770	937
809.870	1394
809.970	1065
810.070	1226
810.169	1537
810.269	-520
810.369	1265
810.469	1129
810.568	1138
810.668	213
810.768	667
810.867	976
810.967	844
811.066	527
811.166	558
811.265	590
811.365	199
811.464	219
811.564	1057
811.663	-21
811.763	1481
811.862	342
811.962	974
812.061	372
812.160	462
812.260	780
812.359	658
812.458	1192
812.557	2666
812.657	7095
812.756	7429
812.855	1431
812.954	1627
813.053	1185
813.153	1300
813.252	253
813.351	1113
813.450	577
813.549	809
813.648	1048
813.747	828
813.846	699
813.945	401
814.044	92
814.143	258
814.242	1334
814.341	1105
814.439	1049
814.538	1317
814.637	725
814.736	1629
814.835	1050
814.933	1282
815.032	1088
815.131	1537
815.229	1909
815.328	2990
815.427	2767
815.525	2511
815.624	2916
815.722	2653
815.821	3108
815.919	2918
816.018	2193
816.116	3366
816.215	2283
816.313	3376
816.412	2686
816.510	3184
816.609	3714
816.707	4166
816.805	3993
816.904	4501
817.002	4112
817.100	4022
817.198	4958
817.296	4988
817.395	5292
817.493	6501
817.591	6561
817.689	7755
817.787	9997
817.885	14655
817.983	22348
818.081	40597
818.179	86987
818.277	194169
818.375	364718
818.473	214034
818.571	66919
818.669	33078
818.767	23729
818.865	21669
818.963	22770
819.061	27880
819.158	41195
819.256	74658
819.354	151152
819.452	317511
819.549	451865
819.647	245296
819.745	89088
819.842	43604
819.940	27757
820.038	19079
820.135	14140
820.233	12501
820.330	9257
820.428	8216
820.525	6534
820.623	6786
820.720	5509
820.818	5627
820.915	4594
821.012	4353
821.110	3831
821.207	4560
821.304	2949
821.402	4165
821.499	3479
821.596	3749
821.693	3552
821.791	4255
821.888	3030
821.985	4752
822.082	5122
822.179	3650
822.276	2781
822.373	2461
822.470	2187
822.567	2243
822.664	1922
822.761	1814
822.858	2228
822.955	2350
823.052	1875
823.149	2531
823.246	1985
823.343	2247
823.440	2679
823.536	2365
823.633	1780
823.730	1851
823.827	1864
823.923	2141
824.020	1974
824.117	2329
824.213	1418
824.310	2695
824.407	678
824.503	1104
824.600	1546
824.696	1747
824.793	1686
824.889	1514
824.986	1186
825.082	1011
825.179	1364
825.275	896
825.371	1638
825.468	1595
825.564	541
825.660	693
825.757	1240
825.853	2205
825.949	600
826.045	1150
826.142	656
826.238	1748
826.334	1616
826.430	778
826.526	1182
826.622	271
826.718	876
826.814	1674
826.910	1183
827.006	575
827.102	90
827.198	892
827.294	863
827.390	1503
827.486	1618
827.582	862
827.678	-234
827.774	1880
827.869	666
827.965	1067
828.061	746
828.157	1237
828.252	1196
828.348	379
828.444	1215
828.539	601
828.635	951
828.731	2114
828.826	889
828.922	1359
829.017	441
829.113	1344
829.208	655
829.304	1504
829.399	1459
829.495	1284
829.590	1393
829.685	940
829.781	1144
829.876	921
829.971	1577
830.066	1076
830.162	1001
830.257	260
830.352	1558
830.447	1218
830.543	647
830.638	398
830.733	1793
830.828	1114
830.923	1353
831.018	1777
831.113	1030
831.208	1730
831.303	609
831.398	1168
831.493	916
831.588	1338
831.683	972
831.778	1058
831.873	513
831.967	1127
832.062	706
832.157	951
832.252	1539
832.346	1214
832.441	1107
832.536	1614
832.631	2528
832.725	4399
832.820	1052
832.914	80
833.009	914
833.104	879
833.198	1119
833.293	1014
833.387	1163
833.482	979
833.576	385
833.670	1212
833.765	555
833.859	1947
833.954	1258
834.048	1430
834.142	361
834.237	1043
834.331	861
834.425	849
834.519	133
834.613	1616
834.708	953
834.802	959
834.896	563
834.990	871
835.084	614
835.178	538
835.272	338
835.366	523
835.460	809
835.554	779
835.648	682
835.742	300
835.836	-5
835.930	475
836.024	591
836.117	1006
836.211	647
836.305	1558
836.399	356
836.493	1703
836.586	1045
836.680	106
836.774	505
836.867	1149
836.961	-280
837.055	987
837.148	42
837.242	1032
837.335	-230
837.429	1766
837.522	-204
837.616	400
837.709	822
837.803	2058
837.896	1843
837.989	1110
838.083	1406
838.176	2058
838.269	2719
838.363	2750
838.456	361
838.549	765
838.642	1144
838.735	2305
838.829	4129
838.922	669
839.015	559
839.108	565
839.201	250
839.294	919
839.387	-314
839.480	51
839.573	1029
839.666	611
839.759	1375
839.852	553
839.945	418
840.038	767
840.131	-407
840.223	632
840.316	142
840.409	-19
840.502	278
840.594	1267
840.687	-463
840.780	309
840.873	-265
840.965	720
841.058	141
841.150	1597
841.243	2614
841.336	1491
841.428	216
841.521	278
841.613	73
841.706	826
841.798	627
841.890	511
841.983	-120
842.075	1271
842.167	247
842.260	469
842.352	1162
842.444	1861
842.537	1351
842.629	3226
842.721	2831
842.813	1134
842.905	235
842.997	404
843.090	405
843.182	1417
843.274	1285
843.366	4045
843.458	7700
843.550	12701
843.642	5551
843.734	795
843.826	338
843.918	1693
844.009	867
844.101	261
844.193	1021
844.285	478
844.377	336
844.469	391
844.560	261
844.652	893
844.744	1303
844.835	356
844.927	640
845.019	602
845.110	1336
845.202	413
845.293	30
845.385	643
845.476	60
845.568	301
845.659	561
845.751	106
845.842	428
845.934	453
846.025	13
846.116	734
846.208	323
846.299	882
846.390	256
846.482	323
846.573	-26
846.664	1328
846.755	465
846.846	1194
846.937	60
847.029	24
847.120	-337
847.211	-162
847.302	857
847.393	42
847.484	114
847.575	166
847.666	-213
847.757	-121
847.847	-102
847.938	311
848.029	-62
848.120	227
848.211	-907
848.302	156
848.392	433
848.483	-53
848.574	269
848.664	-211
848.755	207
848.846	395
848.936	465
849.027	474
849.118	-450
849.208	1031
849.299	-20
849.389	2248
849.480	2545
849.570	6540
849.661	11984
849.751	24712
849.841	30035
849.932	7035
850.022	1510
850.112	666
850.203	213
850.293	699
850.383	-683
850.474	-367
850.564	-400
850.654	855
850.744	315
850.834	347
850.924	125
851.014	-220
851.104	-336
851.194	-133
851.284	-81
851.374	997
851.464	853
851.554	1399
851.644	321
851.734	1036
851.824	962
851.914	182
852.004	-223
852.094	-212
852.183	-177
852.273	500
852.363	-350
852.452	-311
852.542	-384
852.632	429
852.721	-107
852.811	-400
852.901	449
852.990	-14
853.080	760
853.169	907
853.259	54
853.348	762
853.438	1255
853.527	1291
853.617	1783
853.706	4186
853.795	7220
853.885	16230
853.974	36246
854.063	62459
854.152	119094
854.242	138996
854.331	36225
854.420	7369
854.509	4023
854.598	2280
854.687	2233
854.777	1579
854.866	921
854.955	440
855.044	749
855.133	797
855.222	53
855.311	903
855.400	-505
855.488	-14
855.577	0
855.666	34
855.755	486
855.844	388
855.933	641
856.021	1272
856.110	431
856.199	675
856.288	445
856.376	412
856.465	-690
856.554	430
856.642	-441
856.731	1141
856.819	478
856.908	1060
856.996	-133
857.085	475
857.173	-164
857.262	-143
857.350	-231
857.438	256
857.527	-106
857.615	418
857.703	713
857.792	701
857.880	158
857.968	57
858.056	-210
858.145	-351
858.233	-538
858.321	-140
858.409	-168
858.497	-178
858.585	50
858.673	856
858.761	-743
858.849	784
858.937	-563
859.025	-106
859.113	253
859.201	-339
859.289	779
859.377	895
859.465	358
859.552	554
859.640	-94
859.728	92
859.816	97
859.903	669
859.991	-598
860.079	456
860.166	-206
860.254	729
860.342	314
860.429	523
860.517	-371
860.604	-455
860.692	644
860.779	-3
860.867	-144
860.954	522
861.042	0
861.129	101
861.216	12
861.304	341
861.391	-688
861.478	920
861.565	-120
861.653	611
861.740	-1522
861.827	-146
861.914	235
862.001	112
862.089	-62
862.176	882
862.263	-541
862.350	314
862.437	-203
862.524	564
862.611	-254
862.698	371
862.785	-192
862.871	239
862.958	360
863.045	276
863.132	299
863.219	906
863.306	-890
863.392	705
863.479	490
863.566	216
863.652	395
863.739	613
863.826	-535
863.912	-1
863.999	-835
864.086	622
864.172	-444
864.259	445
864.345	36
864.432	426
864.518	-247
864.604	-475
864.691	173
864.777	316
864.863	390
864.950	893
865.036	937
865.122	1297
865.209	2763
865.295	3103
865.381	2231
865.467	2177
865.553	2637
865.639	3996
865.726	4510
865.812	10067
865.898	19609
865.984	34046
866.070	47784
866.156	93477
866.242	71739
866.328	16517
866.414	4745
866.499	3112
866.585	2794
866.671	2228
866.757	1928
866.843	2605
866.928	2054
867.014	1872
867.100	1741
867.186	1671
867.271	1559
867.357	2513
867.442	2197
867.528	2724
867.614	1580
867.699	1481
867.785	1034
867.870	2131
867.956	1572
868.041	2179
868.127	2120
868.212	2600
868.297	1685
868.383	1724
868.468	1844
868.553	2158
868.639	3027
868.724	3296
868.809	6207
868.894	3769
868.979	1225
869.065	1214
869.150	704
869.235	1997
869.320	1077
869.405	1438
869.490	498
869.575	1351
869.660	1311
869.745	796
869.830	1260
869.915	1496
870.000	536
870.085	977
870.169	771
870.254	1309
870.339	1305
870.424	438
870.509	702
870.593	835
870.678	1380
870.763	317
870.847	196
870.932	-52
871.016	1454
871.101	1731
871.186	748
871.270	2013
871.355	464
871.439	1313
871.523	560
871.608	1509
871.692	350
871.777	880
871.861	925
871.945	1612
872.030	388
872.114	1250
872.198	657
872.282	612
872.367	470
872.451	481
872.535	941
872.619	1044
872.703	710
872.787	537
872.871	1132
872.955	1522
873.039	149
873.123	414
873.207	512
873.291	352
873.375	68
873.459	1390
873.543	576
873.627	85
873.711	475
873.794	289
873.878	639
873.962	812
874.045	42
874.129	699
874.137	627
874.213	-94
874.245	539
874.296	1563
874.352	1050
874.380	803
874.460	-7
874.464	-41
874.547	264
874.568	354
874.631	629
874.676	692
874.714	734
874.784	1460
874.798	1609
874.881	1091
874.892	1113
874.965	1274
874.999	976
875.048	537
875.107	780
875.131	887
875.215	771
875.215	771
875.298	850
875.323	677
875.381	266
875.430	925
875.465	1416
875.538	1216
875.548	1182
875.631	1105
875.646	937
875.714	129
875.753	312
875.798	481
875.861	234
875.881	169
875.964	1191
875.968	1109
876.047	-309
876.076	45
876.130	744
876.183	789
876.213	794
876.291	703
876.296	695
876.379	581
876.398	612
876.462	624
876.506	134
876.545	-232
876.613	453
876.628	597
876.711	297
876.721	380
876.794	1074
876.828	1058
876.877	991
876.935	1168
876.960	1225
877.043	311
877.043	313
877.125	1046
877.150	929
877.208	642
877.258	1041
877.291	1260
877.365	826
877.374	773
877.456	890
877.472	853
877.539	883
877.579	1275
877.622	1522
877.687	1564
877.704	1612
877.787	871
877.794	850
877.869	711
877.901	795
877.952	834
878.008	797
878.034	764
878.115	544
878.117	541
878.199	829
878.222	813
878.282	923
878.329	876
878.364	718
878.437	1078
878.447	1137
878.529	559
878.544	633
878.611	1065
878.651	741
878.694	419
878.758	883
878.776	973
878.858	1011
878.865	1009
878.941	1004
878.972	1010
879.023	905
879.078	585
879.105	571
879.185	563
879.187	561
879.269	1227
879.292	1021
879.351	468
879.399	628
879.433	658
879.506	397
879.516	379
879.598	249
879.613	243
879.680	271
879.720	387
879.762	536
879.827	506
879.844	493
879.926	601
879.933	583
880.007	301
880.040	399
880.089	794
880.147	742
880.171	644
880.253	1523
880.254	1525
880.335	1905
880.360	2420
880.417	4009
880.467	3843
880.499	4299
880.574	9509
880.580	9740
880.662	8013
880.680	7055
880.744	3233
880.787	1798
880.825	995
880.893	426
880.907	423
880.989	137
881.000	219
881.070	691
881.106	729
881.152	728
881.213	1146
881.233	1197
881.315	201
881.319	207
881.396	981
881.426	945
881.478	655
881.532	879
881.559	1061
881.639	913
881.641	900
881.722	667
881.745	662
881.803	901
881.852	800
881.885	754
881.958	758
881.966	735
882.047	883
882.064	790
882.129	893
882.171	948
882.210	679
882.277	851
882.291	1009
882.372	1688
882.383	1669
882.454	931
882.489	851
882.535	1046
882.596	1085
882.616	973
882.697	543
882.702	498
882.778	497
882.808	875
882.859	915
882.914	212
882.940	98
883.020	623
883.021	629
883.102	603
883.127	536
883.183	404
883.233	604
883.264	803
883.339	913
883.345	890
883.426	614
883.445	549
883.507	616
883.551	836
883.587	969
883.657	1342
883.668	1433
883.749	1335
883.763	1330
883.830	716
883.869	557
883.910	591
883.975	402
883.991	488
884.072	850
884.081	923
884.152	895
884.187	801
884.233	808
884.292	792
884.314	821
884.394	777
884.398	769
884.475	373
884.504	331
884.555	528
884.610	603
884.636	392
884.716	19
884.716	26
884.797	891
884.821	1021
884.877	804
884.927	834
884.958	806
885.033	529
885.038	516
885.118	480
885.139	366
885.199	126
885.244	192
885.279	290
885.350	359
885.359	404
885.439	935
885.456	945
885.520	811
885.561	990
885.600	1044
885.667	835
885.680	755
885.760	294
885.773	246
885.840	491
885.878	543
885.920	533
885.984	525
886.000	572
886.080	974
886.089	975
886.160	494
886.195	407
886.240	972
886.300	1538
886.320	1408
886.400	1187
886.406	1139
886.480	884
886.511	855
886.560	829
886.616	884
886.640	1122
886.720	1822
886.722	1829
886.800	1144
886.827	941
886.879	1076
886.932	1300
886.959	1197
887.038	905
887.039	910
887.119	869
887.143	983
887.198	1081
887.248	906
887.278	923
887.354	1199
887.358	1203
887.437	1175
887.459	1128
887.517	919
887.564	805
887.596	959
887.669	1208
887.676	1156
887.755	486
887.774	329
887.835	531
887.880	696
887.914	660
887.985	494
887.994	554
888.073	1110
888.090	1244
888.153	1244
888.195	1072
888.232	913
888.300	860
888.311	917
888.391	1156
888.405	1217
888.470	1110
888.510	967
888.549	588
888.615	65
888.628	182
888.708	790
888.720	887
888.787	1026
888.825	1069
888.866	770
888.930	379
888.945	450
889.024	773
889.035	817
889.103	789
889.140	745
889.182	833
889.245	1024
889.261	1008
889.340	894
889.349	879
889.419	478
889.454	271
889.498	400
889.559	606
889.577	657
889.656	869
889.664	891
889.735	861
889.768	843
889.814	727
889.873	575
889.978	1393
890.083	496
890.187	576
890.292	2023
890.397	1897
890.501	761
890.606	-400
890.710	1221
890.815	512
890.919	1027
891.024	1128
891.128	814
891.233	1065
891.337	1016
891.442	1338
891.546	1229
891.650	762
891.755	1407
891.859	1566
891.963	632
892.068	1370
892.172	742
892.276	556
892.380	913
892.484	880
892.589	1486
892.693	636
892.797	1467
892.901	476
893.005	280
893.109	1112
893.213	785
893.317	700
893.421	1308
893.525	961
893.629	898
893.733	681
893.837	822
893.941	907
894.045	833
894.148	56
894.252	190
894.356	584
894.460	1912
894.564	1713
894.667	499
894.771	365
894.875	-90
894.978	922
895.082	63
895.186	1129
895.289	790
895.393	830
895.496	811
895.600	829
895.703	1024
895.807	551
895.910	504
896.014	-216
896.117	425
896.221	436
896.324	1202
896.427	1035
896.531	505
896.634	680
896.737	858
896.840	754
896.944	897
897.047	714
897.150	-53
897.253	598
897.356	900
897.460	168
897.563	436
897.666	1438
897.769	632
897.872	630
897.975	600
898.078	43
898.181	351
898.284	291
898.387	572
898.490	1251
898.593	768
898.695	195
898.798	257
898.901	1335
899.004	571
899.107	592
899.209	931
899.312	329
899.415	669
899.518	162
899.620	640
899.723	646
899.826	708
899.928	1085
900.031	1060
900.133	997
900.236	984
900.338	1600
900.441	673
900.543	688
900.646	1461
900.748	917
900.851	267
900.953	720
901.055	452
901.158	-184
901.260	448
901.362	390
901.465	668
901.567	853
901.669	883
901.771	822
901.873	609
901.976	324
902.078	886
902.180	562
902.282	166
902.384	30
902.486	1155
902.588	1045
902.690	1432
902.792	185
902.894	211
902.996	957
903.098	507
903.200	588
903.302	767
903.404	446
903.505	160
903.607	-3
903.709	662
903.811	1006
903.913	573
904.014	1711
904.116	330
904.218	290
904.319	358
904.421	482
904.523	908
904.624	1085
904.726	455
904.827	170
904.929	822
905.030	317
905.132	464
905.233	874
905.335	564
905.436	790
905.537	620
905.639	528
905.740	300
905.841	327
905.943	498
906.044	803
906.145	200
906.247	140
906.348	1022
906.449	544
906.550	705
906.651	559
906.752	2
906.854	678
906.955	-173
907.056	609
907.157	1285
907.258	765
907.359	580
907.460	761
907.561	733
907.662	329
907.762	310
907.863	239
907.964	1084
908.065	792
908.166	744
908.267	672
908.367	69
908.468	41
908.569	803
908.670	457
908.770	829
908.871	1030
908.971	926
909.072	218
909.173	328
909.273	318
909.374	521
909.474	327
909.575	721
909.675	643
909.776	1352
909.876	146
909.977	-99
910.077	821
910.177	483
910.278	1219
910.378	335
910.478	175
910.579	1609
910.679	754
910.779	1097
910.879	859
910.980	898
911.080	412
911.180	555
911.280	256
911.380	766
911.480	657
911.580	589
911.680	562
911.780	1235
911.880	617
911.980	815
912.080	-70
912.180	648
912.280	112
912.380	641
912.480	985
912.580	-114
912.679	-53
912.779	1114
912.879	-382
912.979	944
913.078	621
913.178	152
913.278	470
913.377	1120
913.477	-203
913.577	392
913.676	831
913.776	163
913.875	1061
913.975	1224
914.074	523
914.174	491
914.273	-36
914.373	1087
914.472	476
914.572	173
914.671	496
914.770	246
914.870	427
914.969	829
915.068	61
915.167	727
915.267	66
915.366	300
915.465	99
915.564	-283
915.663	238
915.763	454
915.862	1260
915.961	950
916.060	70
916.159	253
916.258	615
916.357	162
916.456	691
916.555	1066
916.654	244
916.752	483
916.851	772
916.950	966
917.049	391
917.148	-167
917.247	512
917.345	870
917.444	358
917.543	-63
917.642	411
917.740	299
917.839	1161
917.937	1131
918.036	870
918.135	928
918.233	267
918.332	1019
918.430	558
918.529	140
918.627	249
918.726	517
918.824	1087
918.923	398
919.021	517
919.119	64
919.218	809
919.316	831
919.414	335
919.512	309
919.611	1078
919.709	1281
919.807	568
919.905	865
920.003	507
920.102	320
920.200	674
920.298	525
920.396	473
920.494	1013
920.592	393
920.690	731
920.788	-483
920.886	171
920.984	1230
921.082	1141
921.180	1417
921.277	637
921.375	692
921.473	1780
921.571	1222
921.669	1056
921.766	1152
921.864	1026
921.962	1060
922.060	1255
922.157	2199
922.255	1286
922.352	836
922.450	2048
922.548	996
922.645	1143
922.743	1505
922.840	2140
922.938	3981
923.035	4422
923.133	2742
923.230	3244
923.327	4079
923.425	3947
923.522	3598
923.619	3861
923.717	3568
923.814	3338
923.911	3547
924.008	2974
924.106	2037
924.203	2815
924.300	3044
924.397	3276
924.494	3734
924.591	3249
924.688	2465
924.786	3447
924.883	3736
924.979	2972
925.077	3363
925.173	4133
925.270	2441
925.367	2981
925.464	3130
925.561	3525
925.658	3395
925.755	3552
925.852	4106
925.948	4152
926.045	2699
926.142	2902
926.239	3022
926.335	3580
926.432	3341
926.529	3029
926.625	3616
926.722	2913
926.818	1570
926.915	3475
927.011	3248
927.108	2817
927.204	3121
927.301	2585
927.397	2220
927.494	3584
927.590	2446
927.687	2634
927.783	2701
927.879	3498
927.976	2418
928.072	2937
928.168	1954
928.264	2442
928.361	2617
928.457	3087
928.553	3030
928.649	2397
928.745	3255
928.841	2678
928.937	2524
929.033	3225
929.129	1934
929.225	3453
929.321	2405
929.417	2045
929.513	2436
929.609	2655
929.705	1920
929.801	2158
929.897	3064
929.993	1902
930.089	2221
930.184	3328
930.280	2007
930.376	2380
930.471	3025
930.567	2375
930.663	2739
930.758	2374
930.854	1909
930.950	2658
931.045	2136
931.141	2460
931.236	2969
931.332	2715
931.427	2121
931.523	1961
931.618	2538
931.714	2422
931.809	1770
931.905	1878
932.000	2224
932.095	918
932.191	1680
932.286	2620
932.381	2520
932.476	2735
932.572	2480
932.667	2420
932.762	1602
932.857	2113
932.952	2491
933.047	2449
933.142	1649
933.237	1951
933.332	1778
933.427	2345
933.522	1924
933.617	2168
933.712	2290
933.807	2535
933.902	2632
933.997	3398
934.092	2557
934.187	1422
934.282	1987
934.376	1506
934.471	3149
934.566	2627
934.661	1565
934.755	1560
934.850	1786
934.945	2259
935.039	2454
935.134	1799
935.228	715
935.323	2422
935.417	2306
935.512	1824
935.606	1756
935.701	1282
935.795	1452
935.890	2171
935.984	1791
936.079	2108
936.173	1509
936.267	2160
936.362	710
936.456	1551
936.550	2266
936.644	2034
936.738	536
936.833	1451
936.927	776
937.021	1140
937.115	1647
937.209	1915
937.303	2541
937.397	1324
937.491	1198
937.585	1397
937.679	1823
937.773	1872
937.867	1199
937.961	1013
938.055	1816
938.149	2692
938.243	2107
938.337	1311
938.430	2091
938.524	1788
938.618	1785
938.712	1876
938.805	1768
938.899	1735
938.993	2855
939.086	2018
939.180	1497
939.274	1687
939.367	2142
939.461	2179
939.554	1744
939.648	1612
939.741	1932
939.835	1244
939.928	1641
940.022	1536
940.115	1767
940.208	2119
940.302	2275
940.395	2107
940.488	1560
940.582	1759
940.675	1035
940.768	757
940.861	2183
940.954	2740
941.048	1970
941.141	1134
941.234	1573
941.327	2130
941.420	1527
941.513	2628
941.606	1406
941.699	1238
941.792	2102
941.885	2098
941.978	822
942.071	1902
942.164	698
942.257	1612
942.349	1084
942.442	1984
942.535	1104
942.628	1252
942.721	1537
942.813	1397
942.906	1345
942.999	1181
943.091	1986
943.184	815
943.277	642
943.369	1402
943.462	1242
943.554	1275
943.647	1837
943.739	2321
943.832	709
943.924	1188
944.017	327
944.109	720
944.201	1623
944.294	1090
944.386	775
944.478	1482
944.571	1259
944.663	1044
944.755	1088
944.847	1281
944.940	802
945.032	424
945.124	388
945.216	1114
945.308	1072
945.400	1036
945.492	1234
945.584	913
945.676	1984
945.768	1965
945.860	1441
945.952	1013
946.044	2059
946.136	677
946.228	974
946.320	1085
946.412	1058
946.503	2243
946.595	1870
946.687	941
946.779	699
946.870	944
946.962	899
947.054	670
947.145	496
947.237	1342
947.329	727
947.420	506
947.512	1273
947.603	1299
947.695	817
947.786	773
947.878	647
947.969	1099
948.061	1193
948.152	1692
948.243	744
948.335	502
948.426	432
948.517	1049
948.609	970
948.700	1215
948.791	1173
948.882	960
948.973	707
949.065	415
949.156	1619
949.247	649
949.338	616
949.429	244
949.520	590
949.611	874
949.702	1278
949.793	1128
949.884	963
949.975	686
950.066	657
950.157	679
950.247	240
950.338	779
950.429	473
950.520	1095
950.611	537
950.701	1017
950.792	333
950.883	1198
950.973	1033
951.064	530
951.155	478
951.245	1246
951.336	150
951.427	495
951.517	1028
951.608	1750
951.698	1217
951.788	486
951.879	-460
951.969	420
952.060	926
952.150	438
952.240	191
952.331	32
952.421	2157
952.511	421
952.602	511
952.692	-576
952.782	647
952.872	197
952.962	371
953.052	551
953.143	323
953.233	453
953.323	235
953.413	367
953.503	435
953.593	726
953.683	693
953.773	566
953.863	-375
953.953	55
954.042	199
954.132	-244
954.222	232
954.312	518
954.402	268
954.492	896
954.581	566
954.671	759
954.761	447
954.850	380
954.940	-10
955.030	-152
955.119	-783
955.209	246
955.298	257
955.388	956
955.477	559
955.567	-51
955.656	-25
955.746	111
955.835	316
955.925	230
956.014	408
956.103	575
956.193	-122
956.282	667
956.371	509
956.461	20
956.550	-955
956.639	405
956.728	128
956.817	-496
956.906	252
956.995	385
957.085	800
957.174	290
957.263	-202
957.352	631
957.441	204
957.530	676
957.619	-70
957.708	-172
957.796	214
957.885	237
957.974	-126
958.063	-125
958.152	-101
958.241	-497
958.329	-773
958.418	596
958.507	63
958.596	432
958.684	-337
958.773	43
958.861	210
958.950	67
959.039	-441
959.127	128
959.216	-400
959.304	377
959.393	-435
959.481	144
959.570	-934
959.658	-1074
959.746	-181
959.835	179
959.923	1045
960.011	499
960.100	-519
960.188	507
960.276	-123
960.365	-269
960.453	211
960.541	-457
960.629	-976
960.717	-320
960.805	145
960.893	616
960.981	-531
961.069	300
961.158	286
961.245	398
961.333	770
961.421	-150
961.509	370
961.597	749
961.685	-288
961.773	155
961.861	-814
961.949	124
962.036	-703
962.124	-384
962.212	-173
962.299	24
962.387	-359
962.475	-218
962.562	-568
962.650	-645
962.738	87
962.825	-22
962.913	120
963.000	-305
963.088	-61
963.175	291
963.263	-625
963.350	-134
963.438	-365
963.525	319
963.612	-303
963.700	1051
963.787	2782
963.874	5426
963.962	1471
964.049	-52
964.136	-298
964.223	-425
964.310	-732
964.398	-253
964.485	-129
964.572	-460
964.659	24
964.746	264
964.833	212
964.920	-592
965.007	-16
965.094	47
965.181	71
965.268	-481
965.355	449
965.441	-48
965.528	-1196
965.615	-182
965.702	-618
965.789	-623
965.875	-69
965.962	-150
966.049	-571
966.136	-90
966.222	-75
966.309	187
966.395	-187
966.482	892
966.569	362
966.655	-305
966.742	-427
966.828	-276
966.915	-681
967.001	-1013
967.087	-800
967.174	-505
967.260	-869
967.347	-185
967.433	844
967.519	1887
967.605	2795
967.692	111
967.778	-544
967.864	46
967.950	-19
968.036	-149
968.123	156
968.209	-550
968.295	188
968.381	-581
968.467	-500
968.553	-614
968.639	-936
968.725	-136
968.811	391
968.897	1138
968.983	469
969.069	104
969.154	-183
969.240	-919
969.326	-1032
969.412	-700
969.497	-1187
969.583	-657
969.669	160
969.755	-349
969.840	-379
969.926	-441
970.012	111
970.097	283
970.183	464
970.268	561
970.354	-465
970.439	94
970.525	1232
970.610	1342
970.696	-156
970.781	-380
970.866	-726
970.952	-137
971.037	-604
971.122	-728
971.208	-37
971.293	-93
971.378	5
971.463	-191
971.549	-103
971.634	474
971.719	-279
971.804	195
971.889	-793
971.974	-714
972.059	-652
972.144	-512
972.229	-769
972.314	-128
972.399	-686
972.484	-369
972.569	-295
972.654	-562
972.739	-219
972.824	521
972.908	165
972.993	-1034
973.078	-629
973.163	-557
973.247	112
973.332	-1288
973.417	263
973.501	-1059
973.586	-185
973.671	-456
973.755	530
973.840	51
973.924	-90
974.009	667
974.093	-286
974.178	62
974.262	9
974.346	614
974.431	600
974.515	-416
974.600	-405
974.684	244
974.768	-912
974.852	101
974.937	-179
975.021	-414
975.105	-533
975.189	-745
975.273	-443
975.358	-561
975.442	-454
975.526	-179
975.610	-708
975.694	102
975.778	-385
975.862	-155
975.946	-1094
976.030	180
976.114	-275
976.198	-1044
976.281	-897
976.365	169
976.449	-606
976.533	-576
976.617	-1031
976.700	-492
976.784	-92
976.868	-294
976.951	-601
977.035	-204
977.119	-156
977.202	-544
977.286	-392
977.369	-210
977.453	116
977.536	-130
977.620	-127
977.703	-21
977.787	-825
977.870	-275
977.953	515
978.037	-726
978.120	-54
978.203	-412
978.287	163
978.370	943
978.453	-293
978.536	-1180
978.620	-81
978.703	-455
978.786	110
978.869	464
978.952	-1193
979.035	-211
979.118	-147
979.201	-292
979.284	-83
979.367	-436
979.450	-222
979.533	-585
979.616	198
979.699	-370
979.782	-379
979.865	-271
979.948	-420
980.030	-73
980.113	-752
980.196	-501
980.279	-196
980.361	-359
980.444	-395
980.526	-1034
980.609	-23
980.692	-235
980.774	487
980.857	185
980.939	154
981.022	-867
981.104	-147
981.187	-193
981.269	59
981.352	-614
981.434	-1473
981.516	-130
981.599	-201
981.681	-5
981.763	-783
981.846	508
981.928	-838
982.010	-235
982.092	-496
982.174	-335
982.256	-317
982.339	280
982.421	-385
982.503	-1044
982.585	-404
982.667	-644
982.749	176
982.831	-564
982.913	-331
982.995	191
983.077	69
983.158	15
983.240	-513
983.322	-267
983.404	1192
983.486	60
983.568	-384
983.649	-565
983.731	136
983.813	84
983.894	161
983.976	-45
984.058	-797
984.139	620
984.221	-493
984.302	49
984.384	-273
984.465	-865
984.547	-451
984.628	-496
984.710	724
984.791	383
984.872	-278
984.954	-402
985.035	-751
985.116	-464
985.198	-508
985.279	235
985.360	-62
985.441	-17
985.522	-363
985.604	-932
985.685	-1327
985.766	617
985.847	134
985.928	-637
986.009	-323
986.090	784
986.171	-102
986.252	-608
986.333	-295
986.414	77
986.495	350
986.576	220
986.656	353
986.737	436
986.818	237
986.899	-68
986.980	-113
987.060	-176
987.141	-763
987.222	263
987.302	393
987.383	716
987.464	11
987.544	242
987.625	9
987.705	1184
987.786	-405
987.866	460
987.947	412
988.027	491
988.108	166
988.188	399
988.268	591
988.349	-417
988.429	639
988.509	460
988.589	48
988.670	-251
988.750	516
988.830	175
988.910	-50
988.990	258
989.070	512
989.151	285
989.231	-503
989.311	-515
989.391	96
989.471	-29
989.551	-512
989.631	371
989.711	-155
989.791	-300
989.870	-261
989.950	555
990.030	-19
990.110	93
990.190	295
990.269	-277
990.349	-634
990.429	-332
990.509	657
990.588	31
990.668	16
990.747	-548
990.827	-86
990.907	-303
990.986	300
991.066	289
991.145	-672
991.225	-272
991.304	-236
991.383	-581
991.463	-755
991.542	542
991.622	-119
991.701	112
991.780	-1276
991.859	-150
991.939	-335
992.018	-84
992.097	-360
992.176	337
992.256	-277
992.335	-643
992.414	17
992.493	-585
992.572	-506
992.651	-181
992.730	-319
992.809	-31
992.888	-308
992.967	-176
993.046	-704
993.125	-1099
993.203	124
993.282	-748
993.361	-359
993.440	101
993.519	-285
993.597	69
993.676	-614
993.755	-82
993.834	-517
993.912	-672
993.991	568
994.069	-399
994.148	-521
994.226	-380
994.305	-420
994.384	-878
994.462	-209
994.540	-227
994.619	-972
994.697	-93
994.776	-780
994.854	-99
994.932	-319
995.011	180
995.089	-33
995.167	-755
995.245	-364
995.324	-190
995.402	-266
995.480	-9
995.558	-341
995.636	-1584
995.714	-619
995.792	330
995.870	-446
995.948	-588
996.026	-902
996.104	-359
996.182	-470
996.260	-79
996.338	-615
996.416	-568
996.494	-510
996.572	351
996.649	-249
996.727	-880
996.805	-639
996.883	-524
996.960	-723
997.038	169
997.116	-300
997.193	-1479
997.271	462
997.348	-962
997.426	-571
997.504	-1065
997.581	-125
997.658	-171
997.736	-837
997.813	-659
997.891	-103
997.968	-1323
998.046	-473
998.123	-914
998.200	-308
998.277	-546
998.355	-188
998.432	-676
998.509	-857
998.586	299
998.663	-80
998.741	-662
998.818	-877
998.895	-542
998.972	-916
999.049	-296
999.126	-1063
999.203	-383
999.280	-812
999.357	-1250
999.434	-1155
999.511	-510
999.587	-1213
999.664	-1196
999.741	-137
999.818	-117
999.895	40
999.971	-1621
1000.048	3
1000.125	-626
1000.202	-1206
1000.278	-345
1000.355	-525
1000.431	-1067
1000.508	-1175
1000.584	-1030
1000.661	-1041
1000.738	-1061
1000.814	-688
1000.890	-921
1000.967	-597
1001.043	-155
1001.120	-537
1001.196	-780
1001.272	-736
1001.349	-1031
1001.425	-842
1001.501	-1254
1001.577	-711
1001.654	-1106
1001.730	-1265
1001.806	-864
1001.882	-890
1001.958	-664
1002.034	-604
1002.110	-291
1002.186	-707
1002.262	-1359
1002.338	-1455
1002.414	-122
1002.490	-403
1002.566	-1170
1002.642	-1281
1002.718	-817
1002.794	-1031
1002.870	-719
1002.945	-1296
1003.021	-524
1003.097	-1033
1003.173	-178
1003.248	-1231
1003.324	-890
1003.400	-532
1003.475	-353
1003.551	-771
1003.626	-753
1003.702	-1479
1003.777	-593
1003.853	-1004
1003.928	-1017
1004.004	-1165
1004.079	-351
1004.155	-1519
1004.230	-1401
1004.305	-622
1004.381	-800
1004.456	-1274
1004.531	-628
1004.607	-874
1004.682	-1199
1004.757	-895
1004.832	-1020
1004.907	-504
1004.982	-261
1005.057	-845
1005.133	-604
1005.208	-1316
1005.283	-1057
1005.358	-535
1005.433	-1248
1005.508	-1684
1005.583	-1640
1005.657	-579
1005.732	-1081
1005.807	-793
1005.882	-538
1005.957	-948
1006.032	-509
1006.106	-1070
1006.181	-716
1006.256	-1233
1006.331	-1337
1006.405	-1042
1006.480	-14
1006.554	-1138
1006.629	-540
1006.704	-842
1006.778	-222
1006.853	-1332
1006.927	-1002
1007.002	-1186
1007.076	-1176
1007.150	-874
1007.225	-289
1007.299	-930
1007.373	-1141
1007.448	-1330
1007.522	-1265
1007.596	-1604
1007.671	-1116
1007.745	-891
1007.819	-1438
1007.893	-1633
1007.967	-1535
1008.041	-1115
1008.115	-885
1008.190	-1322
1008.264	-1500
1008.338	-1941
1008.412	-502
1008.486	-1179
1008.560	-1644
1008.633	-1647
1008.707	-526
1008.781	-789
1008.855	-1295
1008.929	-1567
1009.003	-1693
1009.076	-1852
1009.150	-411
1009.224	-1204
1009.298	-1124
1009.371	-1663
1009.445	-1384
1009.519	-1436
1009.592	-1030
1009.666	-1578
1009.739	-808
1009.813	-2086
1009.886	-663
1009.960	-1275
1010.033	-1670
1010.107	-1496
1010.180	-1859
1010.253	-1376
1010.327	-1721
1010.400	-1872
1010.473	-1700
1010.547	-1906
1010.620	-1698
1010.693	-1596
1010.766	-1196
1010.840	-1090
1010.913	-1102
1010.986	-1169
1011.059	-1486
1011.132	-1601
1011.205	-409
1011.278	-1891
1011.351	-1378
1011.424	-1571
1011.497	-1705
1011.570	-1084
1011.643	-1360
1011.716	-1570
1011.789	-1320
1011.862	-1481
1011.934	-1157
1012.007	-1102
1012.080	-424
1012.153	-1746
1012.225	-594
1012.298	-1447
1012.371	-1664
1012.443	-683
1012.516	-1760
1012.588	-1108
1012.661	-830
1012.733	-1538
1012.806	-1158
1012.879	-1368
1012.951	-1255
1013.023	-1651
1013.096	-1186
1013.168	-1547
1013.241	-1135
1013.313	-1098
1013.385	-1356
1013.458	-1114
1013.530	-1295
1013.602	-2241
1013.674	-1845
1013.746	-1526
1013.819	-1466
1013.891	-1240
1013.963	-1596
1014.035	-1372
1014.107	-1855
1014.179	-963
1014.251	-2393
1014.323	-1227
1014.395	-1328
1014.467	-1603
1014.539	-1595
1014.611	-1476
1014.683	-1232
1014.754	-2027
1014.826	-1308
1014.898	-985
1014.970	-1865
1015.042	-1630
1015.113	-1691
1015.185	-1234
1015.257	-1851
1015.328	-928
1015.400	-1237
1015.471	-1538
1015.543	-2330
1015.615	-1481
1015.686	-1259
1015.757	-1264
1015.829	-1251
1015.901	-1487
1015.972	-1747
1016.043	-1881
1016.115	-1062
1016.186	-1601
1016.257	-1765
1016.328	-245
1016.400	-826
1016.471	-2058
1016.542	-800
1016.613	-1763
1016.685	-1232
1016.756	-1598
1016.827	-1325
1016.898	-1834
1016.969	-1143
1017.040	-1326
1017.111	-2232
1017.182	-1979
1017.253	-931
1017.324	-1605
1017.395	-1278
1017.466	-877
1017.537	-1137
1017.608	-1423
1017.678	-2095
1017.749	-1821
1017.820	-2010
1017.891	-2264
1017.961	-2029
1018.032	-1094
1018.103	-581
1018.173	-2018
1018.244	-1922
1018.315	-2215
1018.385	-1508
1018.456	-2225
1018.526	-1681
1018.597	-1036
1018.667	-1670
1018.738	-1385
1018.808	-1849
1018.878	-2450
1018.949	-1791
1019.019	-1625
1019.089	-1876
1019.160	-1764
1019.230	-2344
1019.300	-1749
1019.371	-1705
1019.441	-1296
1019.511	-1424
1019.581	-2083
1019.651	-1159
1019.721	-1470
1019.791	-1068
1019.861	-701
1019.931	-1532
1020.001	-2068
1020.071	-1818
1020.141	-2091
1020.211	-1585
1020.281	-2147
1020.351	-1191
1020.421	-1317
1020.491	-1194
1020.560	-2105
1020.630	-1768
1020.700	-1988
1020.770	-1759
1020.839	-1336
1020.909	-1943
1020.979	-1669
1021.048	-1385
1021.118	-2429
1021.187	-1053
1021.257	-2117
1021.326	-1825
1021.396	-2005
1021.465	-1328
1021.535	-2117
1021.604	-1623
1021.674	-1670
1021.743	-1749
1021.812	-1760
1021.882	-2286
1021.951	-1985
1022.020	-1997
1022.089	-1629
1022.159	-1715
1022.228	-1525
1022.297	-2412
1022.366	-2127
1022.435	-2957
1022.504	-2027
1022.573	-2183
1022.642	-1435
1022.711	-2668
1022.781	-2327
1022.849	-1356
1022.918	-2061
1022.987	-2049
1023.056	-2907
1023.125	-1674
1023.194	-1857
1023.263	-1542
1023.331	-2194
1023.400	-2272
1023.469	-1799
1023.538	-1419
1023.606	-1858
1023.675	-1638
1023.744	-2105
1023.812	-1947
1023.881	-1671
1023.949	-1508
1024.018	-1862
1024.086	-1880
1024.155	-2801
1024.223	-2391
1024.292	-1587
1024.360	-1425
1024.429	-2614
1024.497	-2478
1024.565	-1650
1024.634	-1489
1024.702	-1903
1024.770	-2351
1024.838	-2699
1024.907	-1517
1024.975	-1650
1025.043	-1529
1025.111	-2101
1025.179	-1133
1025.247	-1531
1025.315	-2675
1025.383	-2016
1025.451	-1903
1025.519	-1576
1025.587	-2495
1025.655	-1722
1025.723	-1277
1025.791	-1796
1025.859	-2688
1025.927	-1590
1025.995	-2275
1026.062	-2302
1026.130	-1787
1026.198	-1328
1026.266	-2413
1026.333	-1669
1026.401	-1408
1026.469	-1472
1026.536	-2442
1026.604	-2055
1026.671	-1809
1026.739	-1441
1026.806	-1020
1026.874	-2022
1026.941	-1328
1027.009	-1768
1027.076	-1833
1027.144	-2572
1027.211	-2165
1027.278	-2112
1027.345	-2410
1027.413	-1954
1027.480	-1585
1027.547	-2929
1027.614	-1255
1027.682	-1686
1027.749	-1481
1027.816	-2047
1027.883	-2016
1027.950	-840
1028.017	-2221
1028.084	-2058
1028.151	-1905
1028.218	-1756
1028.285	-1899
1028.352	-2342
1028.419	-1831
1028.486	-1951
1028.553	-2539
1028.619	-1937
1028.686	-1523
1028.753	-2354
1028.820	-1808
1028.886	-2046
1028.953	-1201
1029.020	-1678
1029.086	-2029
1029.153	-1988
1029.220	-2558
1029.286	-1387
1029.353	-1792
1029.419	-3476
1029.486	-1654
1029.552	-1975
1029.619	-1613
1029.685	-2278
1029.751	-1989
1029.818	-2152
1029.884	-2151
1029.951	-1923
1030.017	-2009
1030.083	-1907
1030.149	-2326
1030.216	-2266
1030.282	-2169
1030.348	-1452
1030.414	-1659
1030.480	-2009
1030.546	-1887
1030.612	-1950
1030.678	-2118
1030.744	-1943
1030.810	-1652
1030.876	-2139
1030.942	-2403
1031.008	-2460
1031.074	-2807
1031.140	-2567
1031.206	-1862
1031.272	-2824
1031.337	-1441
1031.403	-1571
1031.469	-1831
1031.534	-2389
1031.600	-1557
1031.666	-2642
1031.731	-1534
1031.797	-1559
1031.863	-2563
1031.928	-1441
1031.994	-1849
1032.059	-3044
1032.125	-2101
1032.190	-1601
1032.256	-2206
1032.321	-2654
1032.386	-2010
1032.452	-1871
1032.517	-2174
1032.582	-2545
1032.647	-1820
1032.713	-2222
1032.778	-1188
1032.843	-1996
1032.908	-2179
1032.974	-1631
1033.039	-2120
1033.104	-1516
1033.169	-2305
1033.234	-1943
1033.299	-1913
1033.364	-1226
1033.429	-1386
1033.494	-1582
1033.559	-2100
1033.624	-1957
1033.688	-1106
1033.753	-2510
1033.818	-2309
1033.883	-2496
1033.948	-1444
1034.013	-1614
1034.077	-1493
1034.142	-1809
1034.207	-1605
1034.271	-843
1034.336	-717
1034.400	218
1034.465	-268
1034.530	-766
1034.594	-1308
1034.658	-2186
1034.723	-1543
1034.787	-1622
1034.852	-2505
1034.916	-2240
1034.981	-1814
1035.045	-1286
1035.109	-2104
1035.173	-1875
1035.238	-2266
1035.302	-1953
1035.366	-2054
1035.430	-2006
1035.495	-1911
1035.559	-2364
1035.623	-1551
1035.687	-2893
1035.751	-2900
1035.815	-2530
1035.879	-1655
1035.943	-2482
1036.007	-1492
1036.071	-2773
1036.135	-889
1036.198	-2131
1036.262	-2419
1036.326	-2040
1036.390	-1784
1036.454	-2004
1036.517	-1562
1036.581	-2062
1036.645	-2060
1036.709	-1590
1036.772	-1963
1036.836	-895
1036.900	-1662
1036.963	-2123
1037.026	-1925
1037.090	-3239
1037.154	-1816
1037.217	-2220
1037.280	-1650
1037.344	-1769
1037.407	-2236
1037.471	-1199
1037.534	-1815
1037.597	-1616
1037.661	-1658
1037.724	-1648
1037.787	-2185
1037.850	-2122
1037.913	-1862
1037.977	-1267
1038.040	-2544
1038.103	-1751
1038.166	-2713
1038.229	-2036
1038.292	-1774
1038.355	-1823
1038.418	-2478
1038.481	-1722
1038.544	-2373
1038.607	-1974
1038.670	-1697
1038.732	-1612
1038.795	-2408
1038.858	-2154
1038.921	-2290
1038.984	-1463
1039.046	-2351
1039.109	-1576
1039.172	-2387
1039.234	-1651
1039.297	-2404
1039.360	-1575
1039.422	-1672
1039.485	-1402
1039.547	-1972
1039.610	-2251
1039.672	-1523
1039.734	-1743
1039.797	-2270
1039.859	-1273
1039.922	-2410
1039.984	-2395
1040.046	-1517
1040.109	-2422
1040.171	-1294
1040.233	-2288
1040.295	-2022
1040.358	-1514
1040.420	-1995
1040.482	-1781
1040.544	-1888
1040.606	-2427
1040.668	-2140
1040.730	-2065
1040.792	-1745
1040.854	-2389
1040.916	-2259
1040.978	-2522
1041.040	-2097
1041.102	-2248
1041.164	-1645
1041.225	-2073
1041.287	-1859
1041.349	-1698
1041.411	-1948
1041.472	-1693
1041.534	-2097
1041.596	-2128
1041.657	-1212
1041.719	-1841
1041.781	-2167
1041.842	-1662
1041.904	-2170
1041.965	-1987
1042.027	-2035
1042.088	-1588
1042.150	-1624
1042.211	-1768
1042.272	-1612
1042.334	-1172
1042.395	-1922
1042.456	-2554
1042.518	-2085
1042.579	-1673
1042.640	-1683
1042.701	-1622
1042.763	-2319
1042.824	-2621
1042.885	-2193
1042.946	-1833
1043.007	-1765
1043.068	-2169
1043.129	-2591
1043.190	-1781
1043.251	-1569
1043.312	-1549
1043.373	-1945
1043.434	-1877
1043.495	-1921
1043.556	-2176
1043.616	-2158
1043.677	-1953
1043.738	-2158
1043.799	-1871
1043.859	-1237
1043.920	-2194
1043.981	-1725
1044.041	-1870
1044.102	-2914
1044.162	-2219
1044.223	-2089
1044.284	-1633
1044.344	-2250
1044.405	-2007
1044.465	-1536
1044.525	-2309
1044.586	-1876
1044.646	-2265
1044.707	-1396
1044.767	-1531
1044.827	-2400
1044.887	-2192
1044.948	-1443
1045.008	-1769
1045.068	-2498
1045.128	-1828
1045.188	-1350
1045.249	-1935
1045.309	-1906
1045.369	-1834
1045.429	-1966
1045.489	-2031
1045.549	-1477
1045.609	-1334
1045.669	-2253
1045.729	-1885
1045.789	-1621
1045.848	-2154
1045.908	-1145
1045.968	-1958
1046.028	-1355
1046.088	-844
1046.147	-853
1046.207	-1739
1046.267	-1632
1046.326	-600
1046.386	-1376
1046.446	-1616
1046.505	-1307
1046.565	-1338
1046.624	-940
1046.684	-635
1046.743	-917
1046.803	-518
1046.862	-233
1046.922	0
