'Start Wavelength	183.907
'End Wavelength	1046.922
'Gate Delay	5.000
'Gate Width (ms)	1.050
'Laser Output Level	0.000
'X Position	0.000
'Y Position	0.000
'Z Position	0.000
'Grid Point Number	1.000
'Shot Number	100.000
183.907	313.000
183.977	529.000
184.047	611
184.116	217
184.186	171
184.256	258
184.325	329
184.395	392
184.465	185
184.534	-342
184.604	-55
184.674	-3
184.743	-384
184.813	530
184.883	-187
184.952	-98
185.022	448
185.092	-166
185.161	-31
185.231	324
185.301	642
185.370	765
185.440	68
185.509	-148
185.579	386
185.649	570
185.718	578
185.788	-41
185.857	184
185.927	-301
185.996	-165
186.066	-345
186.136	31
186.205	326
186.275	646
186.344	329
186.414	354
186.483	-238
186.553	382
186.622	73
186.692	-449
186.761	-114
186.831	236
186.900	820
186.970	186
187.039	66
187.109	-207
187.178	298
187.248	510
187.317	415
187.387	1022
187.456	-63
187.526	-140
187.595	329
187.664	252
187.734	309
187.803	177
187.873	-692
187.942	654
188.012	126
188.081	-171
188.150	275
188.220	367
188.289	192
188.358	359
188.428	193
188.497	264
188.567	388
188.636	113
188.705	-66
188.775	-300
188.844	-228
188.913	-304
188.983	125
189.052	347
189.121	-195
189.191	-503
189.260	121
189.329	490
189.399	74
189.468	331
189.537	-179
189.606	541
189.676	353
189.745	305
189.814	481
189.883	-122
189.953	-40
190.022	816
190.091	269
190.161	818
190.230	230
190.299	404
190.368	-245
190.437	334
190.507	79
190.576	-213
190.645	-25
190.714	112
190.783	-34
190.853	349
190.922	249
190.991	1116
191.060	187
191.129	355
191.198	66
191.268	-416
191.337	34
191.406	389
191.475	-85
191.544	-531
191.613	-279
191.682	-416
191.752	22
191.821	317
191.890	-139
191.959	234
192.028	105
192.097	258
192.166	167
192.235	-753
192.304	-127
192.373	156
192.442	-307
192.511	408
192.580	-98
192.650	226
192.719	522
192.788	333
192.857	-81
192.926	59
192.995	-189
193.064	689
193.133	70
193.202	371
193.271	201
193.340	-86
193.409	389
193.478	572
193.547	498
193.615	517
193.684	745
193.753	54
193.822	59
193.891	223
193.960	-138
194.029	-453
194.098	4
194.167	-599
194.236	278
194.305	175
194.374	-175
194.443	147
194.512	160
194.580	176
194.649	555
194.718	36
194.787	1014
194.856	-368
194.925	720
194.994	867
195.062	266
195.131	286
195.200	441
195.269	900
195.338	-284
195.407	694
195.475	600
195.544	502
195.613	115
195.682	851
195.751	367
195.819	-181
195.888	104
195.957	917
196.026	659
196.094	575
196.163	226
196.232	640
196.301	484
196.369	379
196.438	618
196.507	-225
196.576	-446
196.644	-46
196.713	632
196.782	318
196.850	114
196.919	447
196.988	132
197.056	16
197.125	521
197.194	-403
197.262	-321
197.331	-142
197.400	43
197.468	62
197.537	-294
197.606	-1
197.674	-81
197.743	459
197.812	247
197.880	165
197.949	106
198.017	903
198.086	431
198.155	248
198.223	351
198.292	512
198.360	502
198.429	-145
198.497	166
198.566	806
198.635	-194
198.703	119
198.772	809
198.840	971
198.909	522
198.977	675
199.046	666
199.114	732
199.183	365
199.251	197
199.320	-70
199.388	146
199.457	11
199.525	76
199.594	-362
199.662	-318
199.731	-272
199.799	-95
199.867	272
199.936	450
200.004	74
200.073	-104
200.141	91
200.210	-593
200.278	287
200.346	-305
200.415	411
200.483	-76
200.552	589
200.620	-800
200.688	-118
200.757	383
200.825	352
200.893	121
200.962	34
201.030	-240
201.098	56
201.167	-261
201.235	402
201.303	873
201.372	78
201.440	188
201.508	-463
201.577	-44
201.645	605
201.713	297
201.781	501
201.850	608
201.918	300
201.986	193
202.055	20
202.123	481
202.191	-222
202.259	1004
202.327	256
202.396	421
202.464	233
202.532	980
202.600	1865
202.669	285
202.737	-294
202.805	41
202.873	711
202.941	120
203.009	-434
203.078	330
203.146	103
203.214	-644
203.282	-35
203.350	-365
203.418	347
203.487	-44
203.555	636
203.623	31
203.691	463
203.759	542
203.827	-207
203.895	271
203.963	201
204.031	-48
204.099	266
204.168	-564
204.236	910
204.304	416
204.372	-190
204.440	-58
204.508	-293
204.576	355
204.644	497
204.712	44
204.780	-227
204.848	302
204.916	165
204.984	-71
205.052	281
205.120	592
205.188	611
205.256	226
205.324	386
205.392	192
205.460	505
205.528	-153
205.596	-429
205.664	85
205.732	-4
205.799	780
205.867	570
205.935	-790
206.003	59
206.071	655
206.139	-241
206.207	-345
206.275	288
206.343	543
206.411	431
206.478	146
206.546	209
206.614	-27
206.682	428
206.750	85
206.818	-316
206.885	-45
206.953	-191
207.021	593
207.089	679
207.157	-554
207.225	787
207.292	117
207.360	-75
207.428	-90
207.496	155
207.563	-465
207.631	211
207.699	554
207.767	45
207.834	-560
207.902	154
207.970	450
208.038	82
208.105	-228
208.173	-228
208.241	-184
208.309	345
208.376	329
208.444	594
208.512	-247
208.579	-100
208.647	645
208.715	290
208.782	-366
208.850	347
208.918	19
208.985	-78
209.053	374
209.120	161
209.188	409
209.256	194
209.323	945
209.391	336
209.459	819
209.526	902
209.594	-242
209.661	-164
209.729	212
209.796	279
209.864	-139
209.932	-38
209.999	880
210.067	47
210.134	535
210.202	299
210.269	836
210.337	-18
210.404	-241
210.472	252
210.539	1
210.607	-18
210.674	127
210.742	194
210.809	150
210.877	519
210.944	577
211.012	343
211.079	1594
211.146	-49
211.214	562
211.281	303
211.349	171
211.416	914
211.484	627
211.551	-274
211.618	-297
211.686	-171
211.753	-653
211.821	967
211.888	22
211.955	304
212.023	1011
212.090	-11
212.157	401
212.225	407
212.292	238
212.359	1844
212.427	3341
212.494	643
212.561	445
212.629	180
212.696	333
212.763	247
212.831	78
212.898	272
212.965	402
213.032	-87
213.100	91
213.167	158
213.234	659
213.301	516
213.369	99
213.436	445
213.503	-272
213.570	-31
213.638	-189
213.705	22
213.772	225
213.839	727
213.906	376
213.973	335
214.041	749
214.108	205
214.175	350
214.242	362
214.309	624
214.376	1115
214.444	-751
214.511	395
214.578	545
214.645	358
214.712	124
214.779	193
214.846	237
214.913	456
214.980	1152
215.048	844
215.115	736
215.182	-100
215.249	440
215.316	390
215.383	330
215.450	80
215.517	256
215.584	333
215.651	881
215.718	281
215.785	187
215.852	31
215.919	505
215.986	735
216.053	666
216.120	-395
216.187	763
216.254	526
216.321	-11
216.388	568
216.455	841
216.522	919
216.589	606
216.656	1500
216.722	1270
216.789	680
216.856	1134
216.923	410
216.990	692
217.057	587
217.124	881
217.191	937
217.258	876
217.324	1356
217.391	1652
217.458	576
217.525	489
217.592	884
217.659	648
217.725	244
217.792	998
217.859	457
217.926	393
217.993	98
218.059	426
218.126	561
218.193	-107
218.260	174
218.327	-402
218.393	120
218.460	366
218.527	-311
218.594	163
218.660	835
218.727	1289
218.794	1
218.860	67
218.927	-134
218.994	61
219.061	-588
219.127	270
219.194	1253
219.261	648
219.327	123
219.394	651
219.461	-218
219.527	365
219.594	674
219.661	487
219.727	70
219.794	607
219.860	-309
219.927	-96
219.994	831
220.060	1145
220.127	393
220.193	50
220.260	-168
220.326	1058
220.393	1929
220.460	2204
220.526	1659
220.593	432
220.659	1098
220.726	686
220.792	1969
220.859	1504
220.925	3070
220.992	3746
221.058	3101
221.125	2041
221.191	627
221.258	487
221.324	1022
221.391	666
221.457	36
221.524	832
221.590	229
221.657	2321
221.723	1423
221.789	1287
221.856	955
221.922	4
221.989	495
222.055	233
222.121	-112
222.188	705
222.254	705
222.321	530
222.387	-134
222.453	161
222.520	389
222.586	367
222.652	-433
222.719	-32
222.785	469
222.851	-165
222.918	99
222.984	476
223.050	-161
223.116	-251
223.183	-223
223.249	-346
223.315	-182
223.382	367
223.448	-30
223.514	-26
223.580	-88
223.647	348
223.713	214
223.779	-198
223.845	213
223.911	-376
223.978	-583
224.044	731
224.110	-252
224.176	129
224.242	-58
224.309	-160
224.375	609
224.441	-39
224.507	256
224.573	172
224.639	-35
224.705	-751
224.772	495
224.838	-716
224.904	528
224.970	-200
225.036	-247
225.102	314
225.168	264
225.234	30
225.300	-385
225.366	-26
225.432	-283
225.499	430
225.565	388
225.631	116
225.697	-397
225.763	612
225.829	-22
225.895	1357
225.961	930
226.027	709
226.093	748
226.159	711
226.225	1173
226.291	4375
226.357	6289
226.423	2283
226.489	1245
226.554	986
226.620	804
226.686	1565
226.752	1819
226.818	2792
226.884	9137
226.950	5649
227.016	1626
227.082	1153
227.148	989
227.214	-64
227.279	592
227.345	1552
227.411	74
227.477	197
227.543	1315
227.609	1855
227.674	624
227.740	929
227.806	-138
227.872	470
227.938	-178
228.003	427
228.069	-93
228.135	332
228.201	-81
228.267	-18
228.332	702
228.398	470
228.464	564
228.530	-128
228.595	-50
228.661	-110
228.727	1575
228.792	825
228.858	2
228.924	-99
228.990	389
229.055	-243
229.121	919
229.187	664
229.252	237
229.318	624
229.384	355
229.449	253
229.515	-471
229.581	-940
229.646	648
229.712	239
229.777	1628
229.843	1135
229.909	1280
229.974	1104
230.040	400
230.105	192
230.171	81
230.236	773
230.302	1226
230.368	1388
230.433	-832
230.499	833
230.564	370
230.630	177
230.695	318
230.761	583
230.826	-401
230.892	1094
230.957	183
231.023	219
231.088	-345
231.154	-774
231.219	42
231.284	659
231.350	61
231.415	-290
231.481	97
231.546	326
231.612	-107
231.677	141
231.742	-474
231.808	1093
231.873	-257
231.939	137
232.004	1412
232.069	1209
232.135	211
232.200	147
232.265	326
232.331	-634
232.396	-382
232.461	552
232.527	-21
232.592	-363
232.657	-137
232.723	410
232.788	-189
232.853	342
232.918	-194
232.984	-139
233.049	-635
233.114	-268
233.179	226
233.245	1648
233.310	368
233.375	13
233.440	-235
233.506	-562
233.571	-468
233.636	-209
233.701	829
233.766	379
233.832	719
233.897	190
233.962	131
234.027	-51
234.092	233
234.157	-377
234.222	-14
234.288	137
234.353	2510
234.418	1694
234.483	1363
234.548	322
234.613	137
234.678	-345
234.743	394
234.808	3109
234.873	963
234.938	136
235.004	773
235.069	294
235.134	229
235.199	477
235.264	252
235.329	-431
235.394	244
235.459	546
235.524	-15
235.589	310
235.654	203
235.719	-186
235.784	319
235.849	344
235.913	854
235.978	1456
236.043	933
236.108	406
236.173	646
236.238	242
236.303	676
236.368	568
236.433	1388
236.498	1591
236.563	727
236.627	2906
236.692	10226
236.757	4822
236.822	2003
236.887	1760
236.952	826
237.017	378
237.081	1075
237.146	1795
237.211	4779
237.276	12011
237.341	14536
237.405	5045
237.470	1979
237.535	1304
237.600	878
237.664	799
237.729	104
237.794	930
237.859	2024
237.923	1059
237.988	603
238.053	1256
238.118	897
238.182	4157
238.247	2661
238.312	1008
238.376	1070
238.441	-449
238.506	551
238.570	-149
238.635	433
238.700	712
238.764	225
238.829	2364
238.893	862
238.958	1170
239.023	909
239.087	242
239.152	622
239.216	432
239.281	607
239.346	67
239.410	3
239.475	298
239.539	4274
239.604	1414
239.668	1071
239.733	237
239.797	1045
239.862	2792
239.926	2997
239.991	387
240.055	1020
240.120	247
240.184	-10
240.249	-499
240.313	242
240.378	353
240.442	2515
240.507	3476
240.571	740
240.635	1611
240.700	1543
240.764	669
240.829	447
240.893	171
240.957	545
241.022	2549
241.086	3159
241.151	961
241.215	173
241.279	671
241.344	1574
241.408	4
241.472	-498
241.537	1166
241.601	-107
241.665	-41
241.730	-303
241.794	727
241.858	386
241.922	670
241.987	407
242.051	182
242.115	-315
242.179	279
242.244	-838
242.308	-56
242.372	-44
242.436	46
242.501	430
242.565	622
242.629	-494
242.693	366
242.757	-321
242.822	129
242.886	705
242.950	1056
243.014	49
243.078	1055
243.142	-151
243.206	-372
243.271	823
243.335	163
243.399	1138
243.463	5266
243.527	9247
243.591	1534
243.655	938
243.719	643
243.783	437
243.847	1292
243.911	2232
243.975	2764
244.040	1052
244.104	1584
244.168	235
244.232	1599
244.296	1841
244.360	1779
244.424	1072
244.488	288
244.552	905
244.615	131
244.679	458
244.743	894
244.807	486
244.871	187
244.935	-626
244.999	-22
245.063	298
245.127	778
245.191	1155
245.255	858
245.319	641
245.383	-501
245.446	1784
245.510	-190
245.574	237
245.638	751
245.702	513
245.766	3006
245.829	721
245.893	-47
245.957	318
246.021	605
246.085	460
246.149	1783
246.212	4207
246.276	4247
246.340	2094
246.404	444
246.467	2209
246.531	1228
246.595	2225
246.659	1234
246.722	829
246.786	2200
246.850	1122
246.913	1759
246.977	10
247.041	883
247.104	663
247.168	923
247.232	4194
247.295	6226
247.359	2612
247.423	1176
247.486	3113
247.550	979
247.614	1134
247.677	1593
247.741	975
247.804	91
247.868	1100
247.932	4074
247.995	6085
248.059	1917
248.122	-109
248.186	1977
248.249	3710
248.313	13564
248.376	11092
248.440	6439
248.503	1156
248.567	2479
248.630	3473
248.694	3973
248.757	7641
248.821	12444
248.884	6251
248.948	6835
249.011	9780
249.075	15954
249.138	10024
249.202	3923
249.265	2235
249.328	2701
249.392	1558
249.455	943
249.519	841
249.582	2200
249.645	3921
249.709	1359
249.772	1085
249.835	1633
249.899	858
249.962	2113
250.025	410
250.089	5583
250.152	4902
250.215	2279
250.279	1224
250.342	1756
250.405	1052
250.468	1261
250.532	2165
250.595	3651
250.658	13223
250.721	13405
250.785	5579
250.848	3876
250.911	1696
250.974	2666
251.038	3828
251.101	6266
251.164	2969
251.227	3408
251.290	1837
251.354	4144
251.417	17773
251.480	10169
251.543	11137
251.606	29611
251.669	14003
251.732	7264
251.795	8629
251.859	9041
251.922	16957
251.985	6837
252.048	3552
252.111	3002
252.174	2488
252.237	8359
252.300	13623
252.363	15801
252.426	21878
252.489	8302
252.552	4565
252.615	3024
252.678	3687
252.741	11555
252.804	13307
252.867	22028
252.930	13777
252.993	6998
253.056	5564
253.119	2861
253.182	3292
253.245	3332
253.308	3551
253.371	3728
253.434	2795
253.497	3501
253.559	6841
253.622	3873
253.685	6289
253.748	4745
253.811	2323
253.874	2793
253.937	2138
254.000	1786
254.062	5401
254.125	6546
254.188	8027
254.251	4355
254.314	1844
254.376	4785
254.439	5078
254.502	4254
254.565	5798
254.628	8168
254.690	3656
254.753	1784
254.816	1189
254.878	1582
254.941	6075
255.004	3720
255.067	2420
255.129	2014
255.192	784
255.255	960
255.317	2209
255.380	507
255.443	800
255.505	488
255.568	-29
255.631	638
255.693	1022
255.756	-466
255.819	493
255.881	442
255.944	-369
256.006	162
256.069	566
256.132	-190
256.194	1661
256.257	2450
256.319	2017
256.382	1641
256.444	1068
256.507	429
256.569	324
256.632	588
256.694	1027
256.757	7159
256.819	13174
256.882	4277
256.944	1690
257.007	1302
257.069	1726
257.132	1021
257.194	1449
257.257	674
257.319	331
257.381	-113
257.444	4630
257.506	20455
257.569	15579
257.631	8930
257.693	3565
257.756	2112
257.818	870
257.880	-40
257.943	1147
258.005	-110
258.067	468
258.130	869
258.192	1902
258.254	3056
258.317	841
258.379	1494
258.441	4981
258.503	2461
258.566	4887
258.628	3642
258.690	272
258.753	1652
258.815	2800
258.877	236
258.939	694
259.001	854
259.064	782
259.126	339
259.188	788
259.250	1557
259.312	1451
259.375	4960
259.437	1460
259.499	1078
259.561	560
259.623	1720
259.685	252
259.747	808
259.809	5049
259.872	5510
259.934	13235
259.996	8759
260.058	1725
260.120	993
260.182	1124
260.244	402
260.306	1128
260.368	690
260.430	-38
260.492	2873
260.554	5186
260.616	2387
260.678	8220
260.740	5312
260.802	1279
260.864	1237
260.926	964
260.988	842
261.050	602
261.112	4610
261.174	10421
261.236	4010
261.298	781
261.359	3228
261.421	4119
261.483	178
261.545	791
261.607	-297
261.669	935
261.731	2378
261.793	5454
261.854	1135
261.916	2168
261.978	1417
262.040	681
262.102	826
262.164	1348
262.225	1865
262.287	1224
262.349	3697
262.411	1973
262.472	480
262.534	2425
262.596	3380
262.658	1045
262.719	689
262.781	1559
262.843	3203
262.904	1827
262.966	1462
263.028	713
263.090	11277
263.151	16543
263.213	5282
263.275	3300
263.336	953
263.398	994
263.459	-246
263.521	567
263.583	3454
263.644	1090
263.706	57
263.767	188
263.829	298
263.891	-150
263.952	-193
264.014	109
264.075	2398
264.137	4491
264.198	1738
264.260	604
264.321	369
264.383	4098
264.444	7174
264.506	1421
264.567	389
264.629	4047
264.690	5122
264.752	1446
264.813	694
264.875	114
264.936	354
264.998	150
265.059	-104
265.120	22
265.182	908
265.243	9597
265.305	4503
265.366	895
265.427	758
265.489	978
265.550	-745
265.611	-402
265.673	292
265.734	112
265.795	138
265.857	-500
265.918	-415
265.979	2939
266.040	15485
266.102	5725
266.163	2797
266.224	1714
266.286	1082
266.347	164
266.408	686
266.469	308
266.530	-346
266.592	251
266.653	1867
266.714	2437
266.775	827
266.836	-59
266.898	102
266.959	862
267.020	674
267.081	753
267.142	-160
267.203	434
267.264	-529
267.326	791
267.387	-321
267.448	-596
267.509	112
267.570	-559
267.631	479
267.692	-173
267.753	268
267.814	-628
267.875	2352
267.936	3921
267.997	2379
268.058	1265
268.119	564
268.180	708
268.241	29
268.302	181
268.363	-679
268.424	807
268.485	422
268.546	-506
268.607	-272
268.668	-313
268.729	-391
268.790	121
268.851	493
268.912	3554
268.972	2723
269.033	969
269.094	-521
269.155	1033
269.216	-111
269.277	-415
269.338	165
269.398	431
269.459	-329
269.520	833
269.581	1120
269.642	1789
269.702	63
269.763	440
269.824	749
269.885	997
269.945	2307
270.006	83
270.067	-291
270.128	-583
270.188	608
270.249	-87
270.310	-794
270.370	-142
270.431	-549
270.492	-754
270.553	688
270.613	1864
270.674	4382
270.734	232
270.795	-194
270.856	1100
270.916	89
270.977	24
271.038	1156
271.098	220
271.159	2688
271.219	520
271.280	-209
271.340	112
271.401	612
271.462	1936
271.522	937
271.583	598
271.643	153
271.704	100
271.764	920
271.825	3774
271.885	15006
271.946	11419
272.006	3788
272.066	8950
272.127	9490
272.187	1762
272.248	331
272.308	2358
272.369	8136
272.429	2093
272.489	4090
272.550	2146
272.610	3357
272.671	866
272.731	2922
272.791	3607
272.852	971
272.912	1614
272.972	449
273.033	747
273.093	786
273.153	1635
273.214	406
273.274	741
273.334	9684
273.394	10654
273.455	4207
273.515	7382
273.575	10191
273.635	3534
273.696	7196
273.756	10506
273.816	2752
273.876	2338
273.936	5340
273.997	7312
274.057	1294
274.117	1470
274.177	4479
274.237	18622
274.297	9480
274.358	6616
274.418	9800
274.478	5150
274.538	1839
274.598	1123
274.658	7519
274.718	6636
274.778	2520
274.838	642
274.898	5075
274.958	10669
275.018	11726
275.078	4993
275.138	2440
275.198	1124
275.258	416
275.318	1102
275.378	3064
275.438	3148
275.498	1985
275.558	7004
275.618	12078
275.678	6041
275.738	5154
275.798	3898
275.858	1289
275.918	85
275.978	1359
276.038	715
276.098	1055
276.157	4291
276.217	8653
276.277	3365
276.337	1954
276.397	1398
276.457	1803
276.517	514
276.576	-27
276.636	-104
276.696	1474
276.756	5850
276.815	1923
276.875	1724
276.935	1856
276.995	1494
277.055	204
277.114	456
277.174	2630
277.234	7009
277.293	1533
277.353	1954
277.413	670
277.472	844
277.532	1714
277.592	1520
277.651	10405
277.711	10045
277.771	4658
277.830	19580
277.890	8757
277.950	12025
278.009	21822
278.069	5635
278.128	12177
278.188	10726
278.248	5398
278.307	15357
278.367	6528
278.426	2296
278.486	1574
278.545	445
278.605	701
278.664	854
278.724	657
278.783	7805
278.843	10276
278.902	1998
278.962	1721
279.021	2001
279.081	3414
279.140	2439
279.199	2172
279.259	2169
279.318	2072
279.378	2706
279.437	6802
279.496	26720
279.556	66093
279.615	33766
279.675	10250
279.734	6992
279.793	12747
279.853	16197
279.912	4643
279.971	3348
280.031	2298
280.090	9856
280.149	9924
280.208	10739
280.268	50628
280.327	30139
280.386	8692
280.445	8572
280.505	5365
280.564	2881
280.623	2193
280.682	5894
280.742	4679
280.801	1654
280.860	993
280.919	744
280.978	1126
281.037	819
281.097	565
281.156	877
281.215	739
281.274	1895
281.333	11383
281.392	3473
281.451	638
281.510	195
281.569	1242
281.628	605
281.688	329
281.747	1302
281.806	556
281.865	-67
281.924	279
281.983	141
282.042	290
282.101	79
282.160	543
282.219	349
282.278	872
282.337	5254
282.396	1657
282.454	573
282.513	1960
282.572	9120
282.631	3104
282.690	874
282.749	459
282.808	2036
282.867	1165
282.926	243
282.985	118
283.043	-402
283.102	397
283.161	110
283.220	6137
283.279	6947
283.338	1189
283.396	1162
283.455	1074
283.514	1607
283.573	2331
283.631	1541
283.690	1688
283.749	637
283.808	3942
283.866	2973
283.925	995
283.984	516
284.043	1937
284.101	1304
284.160	957
284.219	1840
284.277	1398
284.336	3395
284.395	12786
284.453	6418
284.512	2063
284.570	4410
284.629	3827
284.688	3551
284.746	3571
284.805	5048
284.863	7425
284.922	7573
284.981	9493
285.039	14114
285.098	26793
285.156	62601
285.215	81708
285.273	81246
285.332	49078
285.390	27727
285.449	16475
285.507	11085
285.566	7864
285.624	4772
285.683	3912
285.741	2780
285.799	2320
285.858	1896
285.916	2767
285.975	1852
286.033	1621
286.091	1381
286.150	510
286.208	1152
286.267	1797
286.325	2071
286.383	3430
286.442	1804
286.500	564
286.558	841
286.616	985
286.675	1571
286.733	277
286.791	795
286.850	1145
286.908	2477
286.966	3391
287.024	654
287.083	1408
287.141	-74
287.199	1253
287.257	2048
287.315	1011
287.374	1882
287.432	5432
287.490	1273
287.548	1548
287.606	405
287.664	816
287.723	2277
287.781	2005
287.839	1007
287.897	1167
287.955	1107
288.013	946
288.071	4046
288.129	37790
288.187	69874
288.245	22088
288.303	6431
288.361	3885
288.419	3453
288.477	2415
288.535	942
288.593	665
288.651	809
288.709	392
288.767	838
288.825	498
288.883	-73
288.941	1147
288.999	373
289.057	-256
289.115	-555
289.173	216
289.231	1256
289.289	-69
289.346	279
289.404	257
289.462	2556
289.520	976
289.578	635
289.636	-377
289.694	7
289.751	-196
289.809	69
289.867	130
289.925	1002
289.983	630
290.040	227
290.098	283
290.156	215
290.214	1195
290.271	-7
290.329	647
290.387	-308
290.444	277
290.502	-114
290.560	154
290.617	-301
290.675	185
290.733	-293
290.790	535
290.848	-54
290.906	465
290.963	-363
291.021	933
291.078	150
291.136	-37
291.194	6834
291.251	8511
291.309	2023
291.366	757
291.424	107
291.481	432
291.539	-94
291.596	292
291.654	-395
291.711	-172
291.769	781
291.826	2116
291.884	560
291.941	-187
291.999	663
292.056	1228
292.114	231
292.171	692
292.228	28
292.286	673
292.343	3053
292.401	3082
292.458	2081
292.515	319
292.573	1230
292.630	627
292.687	1206
292.745	37
292.802	1653
292.859	6675
292.917	10399
292.974	4018
293.031	647
293.089	527
293.146	652
293.203	394
293.260	-55
293.318	896
293.375	1902
293.432	95
293.489	426
293.546	-712
293.604	1527
293.661	9724
293.718	16852
293.775	6344
293.832	3274
293.889	2176
293.947	2361
294.004	1737
294.061	902
294.118	5603
294.175	12108
294.232	11185
294.289	2876
294.346	2284
294.403	1230
294.460	985
294.517	1124
294.574	744
294.631	262
294.688	538
294.745	6512
294.802	22620
294.859	16276
294.916	6424
294.973	3972
295.030	3189
295.087	2054
295.144	1224
295.201	1035
295.258	581
295.315	2104
295.372	9814
295.429	11239
295.486	4397
295.542	3109
295.599	11628
295.656	12335
295.713	11725
295.770	11354
295.827	3274
295.883	1581
295.940	2346
295.997	4642
296.054	2322
296.111	1260
296.167	-58
296.224	520
296.281	339
296.338	154
296.394	668
296.451	1042
296.508	7997
296.564	9034
296.621	6881
296.678	19572
296.734	17359
296.791	6117
296.848	3473
296.904	4628
296.961	10182
297.018	16904
297.074	8685
297.131	2894
297.187	1764
297.244	3738
297.301	21297
297.357	22934
297.414	7276
297.470	3100
297.527	1443
297.583	1308
297.640	856
297.696	653
297.753	1079
297.809	180
297.866	143
297.922	103
297.979	801
298.035	268
298.092	2765
298.148	10113
298.204	6291
298.261	2733
298.317	10441
298.374	19380
298.430	8422
298.486	4271
298.543	2713
298.599	2232
298.656	1878
298.712	6353
298.768	11561
298.824	5660
298.881	1764
298.937	918
298.993	1535
299.050	1368
299.106	1624
299.162	1374
299.218	1125
299.275	427
299.331	1272
299.387	5292
299.443	20299
299.500	12978
299.556	5332
299.612	2163
299.668	2327
299.724	3342
299.780	2049
299.837	1102
299.893	3765
299.949	16386
300.005	13139
300.061	17974
300.117	21213
300.173	8523
300.229	4775
300.285	7004
300.341	6014
300.397	2225
300.453	1581
300.510	633
300.566	384
300.622	1491
300.678	8998
300.734	14064
300.790	15414
300.845	14606
300.901	10565
300.957	15338
301.013	8654
301.069	3967
301.125	1879
301.181	2785
301.237	2685
301.293	743
301.349	1337
301.405	366
301.461	925
301.516	1431
301.572	1719
301.628	3384
301.684	3077
301.740	7649
301.796	8569
301.851	6534
301.907	10231
301.963	7826
302.019	23717
302.074	52562
302.130	40621
302.186	16160
302.242	7034
302.297	4462
302.353	5803
302.409	10303
302.464	5808
302.520	7462
302.576	20256
302.631	17939
302.687	9016
302.743	4050
302.798	1757
302.854	1669
302.910	1570
302.965	2416
303.021	4959
303.076	3763
303.132	7020
303.187	6895
303.243	3449
303.299	1891
303.354	1297
303.410	1077
303.465	672
303.521	1053
303.576	1691
303.632	1031
303.687	6768
303.743	17051
303.798	10723
303.853	4229
303.909	2550
303.964	1832
304.020	4562
304.075	5661
304.130	6006
304.186	10531
304.241	10426
304.297	7561
304.352	3058
304.358	2989
304.407	2423
304.449	1964
304.463	1809
304.518	2040
304.539	1741
304.573	1271
304.629	2311
304.630	2347
304.684	4035
304.720	12050
304.739	16127
304.794	15653
304.811	13410
304.850	7815
304.902	3888
304.905	3652
304.960	2107
304.992	2342
305.015	2504
305.071	1831
305.083	1711
305.126	1280
305.173	845
305.181	772
305.236	788
305.264	965
305.292	1164
305.347	1355
305.354	1399
305.402	1688
305.445	2088
305.457	2196
305.512	2851
305.535	2806
305.567	2765
305.622	3239
305.626	3459
305.678	8092
305.716	16160
305.733	19180
305.788	16061
305.807	14899
305.843	12709
305.897	19121
305.898	19206
305.953	14007
305.988	10174
306.008	7958
306.063	4925
306.078	4099
306.118	2365
306.168	1551
306.173	1484
306.228	1414
306.259	1332
306.283	1313
306.338	1044
306.349	1108
306.393	1399
306.440	1923
306.448	2030
306.503	1665
306.530	2464
306.558	3952
306.613	9376
306.620	10021
306.668	14067
306.711	18494
306.723	19032
306.778	12521
306.801	10088
306.833	6994
306.888	2992
306.892	2853
306.943	2462
306.982	2160
306.997	2089
307.052	1772
307.072	1755
307.107	2074
307.162	3788
307.163	3801
307.217	5305
307.253	6805
307.272	7199
307.327	6208
307.343	5552
307.381	4435
307.434	4332
307.436	4462
307.491	10703
307.524	15248
307.546	16962
307.600	15964
307.614	14608
307.655	8504
307.704	3617
307.710	3526
307.765	4979
307.795	7126
307.819	8560
307.874	11225
307.885	10873
307.929	8117
307.975	5980
307.984	6009
308.038	7139
308.065	9012
308.093	15692
308.148	38260
308.156	43307
308.202	77475
308.246	89252
308.257	84142
308.312	46595
308.336	32674
308.366	26012
308.421	15961
308.426	15134
308.475	9410
308.517	6060
308.530	5832
308.585	5248
308.607	5037
308.639	4837
308.694	5332
308.697	5477
308.748	10337
308.787	14187
308.803	14273
308.857	10080
308.877	8712
308.912	8023
308.967	8710
308.967	8709
309.021	11606
309.058	14617
309.076	18462
309.130	32265
309.148	37741
309.185	61541
309.238	108943
309.239	109633
309.293	128213
309.328	125061
309.348	106217
309.402	52741
309.418	39071
309.457	27781
309.508	16502
309.511	16348
309.566	15923
309.598	16945
309.620	21654
309.674	36193
309.688	39241
309.729	38182
309.778	33733
309.783	32792
309.837	20365
309.868	14508
309.892	16290
309.946	23095
309.959	25095
310.001	33313
310.049	39751
310.055	38284
310.109	21902
310.139	13248
310.163	10491
310.218	6079
310.229	5256
310.272	4373
310.319	3634
310.326	3547
310.381	3016
310.409	2769
310.435	2916
310.489	3291
310.499	3372
310.543	3517
310.589	3582
310.598	3523
310.652	3326
310.679	2998
310.706	2810
310.760	2785
310.769	2737
310.814	2150
310.859	1689
310.868	1751
310.923	2118
310.948	2248
310.977	2383
311.031	2882
311.038	2923
311.085	2734
311.128	2525
311.139	2535
311.193	2483
311.218	2469
311.247	2323
311.301	2131
311.308	2093
311.356	2020
311.398	2067
311.410	2171
311.464	2500
311.488	2627
311.518	2605
311.572	2673
311.578	2677
311.626	3882
311.668	4866
311.680	4853
311.734	4712
311.758	4659
311.788	4683
311.842	4640
311.847	4629
311.896	5527
311.937	6343
311.950	6176
312.004	5322
312.027	4941
312.058	4229
312.112	2967
312.117	2838
312.165	3132
312.207	3382
312.297	4777
312.386	3400
312.476	3910
312.566	7193
312.656	4037
312.745	2361
312.835	3363
312.925	3091
313.015	2908
313.104	2971
313.194	2885
313.284	3469
313.374	4028
313.463	4248
313.553	2223
313.643	2169
313.732	2071
313.822	2835
313.912	3235
314.001	3431
314.091	4355
314.180	4718
314.270	4959
314.360	4751
314.449	3785
314.539	3272
314.628	2582
314.718	4195
314.808	4013
314.897	3110
314.987	2716
315.076	4262
315.166	5029
315.255	4605
315.345	4498
315.434	4415
315.524	3887
315.613	4729
315.703	5272
315.792	5906
315.881	10287
315.971	6140
316.060	8927
316.150	11965
316.239	9953
316.328	3518
316.418	2872
316.507	2739
316.597	3650
316.686	3744
316.775	7578
316.865	9172
316.954	2802
317.043	2447
317.133	2532
317.222	2711
317.311	2487
317.400	2792
317.490	4269
317.579	4771
317.668	2422
317.757	4127
317.847	8111
317.936	18812
318.025	13292
318.114	7236
318.203	5974
318.293	10737
318.382	18510
318.471	15226
318.560	19679
318.649	26624
318.738	5926
318.828	4170
318.917	4305
319.006	6009
319.095	15603
319.184	34641
319.273	22121
319.362	12522
319.451	3331
319.540	3802
319.629	9335
319.718	15722
319.807	6011
319.896	15372
319.985	42318
320.074	18949
320.163	6215
320.252	7591
320.341	7527
320.430	5706
320.519	7633
320.608	5684
320.697	4171
320.786	4917
320.875	5030
320.964	6183
321.053	9668
321.142	15232
321.230	15807
321.319	12381
321.408	28823
321.497	11827
321.586	10190
321.675	13685
321.764	11016
321.852	8093
321.941	14775
322.030	10402
322.119	11618
322.207	29369
322.296	18455
322.385	8653
322.474	10699
322.562	33667
322.651	19006
322.740	11308
322.829	19775
322.917	15384
323.006	9108
323.095	8522
323.183	6721
323.272	8305
323.361	16724
323.449	32806
323.538	14440
323.626	28308
323.715	15248
323.804	8831
323.892	25097
323.981	14344
324.069	5386
324.158	15816
324.246	11212
324.335	7077
324.424	10225
324.512	4968
324.601	4696
324.689	5881
324.778	11037
324.866	11130
324.954	3411
325.043	3683
325.131	9142
325.220	13059
325.308	11957
325.397	10923
325.485	5286
325.574	3552
325.662	2957
325.750	2641
325.839	3342
325.927	2518
326.015	3090
326.104	7079
326.192	6299
326.280	2673
326.369	1960
326.457	5540
326.545	8182
326.634	4162
326.722	1522
326.810	3522
326.898	2415
326.987	3432
327.075	7489
327.163	8666
327.251	2917
327.340	3815
327.428	5130
327.516	2797
327.604	2355
327.692	3255
327.781	3787
327.869	5761
327.957	3248
328.045	2929
328.133	2778
328.221	3451
328.309	2016
328.397	2927
328.485	3070
328.574	5630
328.662	17853
328.750	10656
328.838	3610
328.926	2218
329.014	1442
329.102	4463
329.190	12380
329.278	7438
329.366	2419
329.454	1860
329.542	1509
329.630	1749
329.718	2175
329.806	2986
329.893	3556
329.981	2122
330.069	3140
330.157	10133
330.245	38818
330.333	28329
330.421	4356
330.509	5846
330.597	20307
330.684	15090
330.772	6353
330.860	8575
330.948	10257
331.036	3937
331.123	2587
331.211	1896
331.299	3045
331.387	10790
331.475	13250
331.562	4978
331.650	1736
331.738	3767
331.825	4544
331.913	2101
332.001	1347
332.089	3797
332.176	7387
332.264	16409
332.352	9348
332.439	4254
332.527	3375
332.614	3212
332.702	3986
332.790	2434
332.877	9056
332.965	12946
333.052	6169
333.140	4643
333.228	15113
333.315	5263
333.403	2881
333.490	11421
333.578	7313
333.665	18107
333.753	10765
333.840	3459
333.928	4055
334.015	11009
334.103	15141
334.190	42326
334.278	11964
334.365	5307
334.452	4657
334.540	3272
334.627	4693
334.715	5037
334.802	10149
334.889	46102
334.977	38464
335.064	7939
335.151	4268
335.239	4682
335.326	5859
335.413	25344
335.501	30381
335.588	5764
335.675	2929
335.762	6096
335.850	8697
335.937	5256
336.024	15429
336.111	50975
336.199	23574
336.286	6130
336.373	3560
336.460	2782
336.547	2797
336.635	3938
336.722	3654
336.809	2959
336.896	4898
336.983	16538
337.070	35551
337.157	48026
337.245	31875
337.332	17442
337.419	3258
337.506	3733
337.593	2920
337.680	15783
337.767	34572
337.854	12213
337.941	13520
338.028	13928
338.115	4989
338.202	6153
338.289	11136
338.376	28542
338.463	10476
338.550	23398
338.637	19379
338.724	9230
338.811	10925
338.898	3276
338.984	2141
339.071	3762
339.158	4494
339.245	11717
339.332	7405
339.419	10506
339.506	6693
339.593	1743
339.679	2440
339.766	2141
339.853	3456
339.940	8058
340.027	3427
340.113	3015
340.200	4401
340.287	3663
340.374	3642
340.460	7390
340.547	3816
340.634	5272
340.720	20044
340.807	13751
340.894	2006
340.980	2483
341.067	2247
341.154	3330
341.240	5116
341.327	11058
341.414	4597
341.500	4184
341.587	2961
341.674	1862
341.760	6072
341.847	8396
341.933	2849
342.020	1125
342.106	1384
342.193	2356
342.279	4862
342.366	4445
342.452	6822
342.539	4384
342.625	9023
342.712	23707
342.798	10853
342.885	3857
342.971	2149
343.058	1820
343.144	1474
343.230	2501
343.317	2454
343.403	2204
343.490	2342
343.576	1427
343.662	2119
343.749	1971
343.835	2906
343.921	5563
344.008	32127
344.094	84319
344.180	22482
344.267	8121
344.353	25059
344.439	29814
344.525	11411
344.612	5435
344.698	3744
344.784	3452
344.870	1953
344.957	2607
345.043	3918
345.129	3486
345.215	7179
345.301	4146
345.387	3202
345.474	1651
345.560	1680
345.646	2163
345.732	2590
345.818	2898
345.904	2725
345.990	2951
346.076	3682
346.162	6228
346.249	2483
346.335	1490
346.421	2463
346.507	8792
346.593	35051
346.679	11349
346.765	2521
346.851	2893
346.937	2555
347.023	2049
347.108	3121
347.194	2704
347.280	1885
347.366	2900
347.452	8763
347.538	39391
347.624	33448
347.710	30220
347.796	4605
347.882	3183
347.967	2561
348.053	4711
348.139	2573
348.225	2128
348.311	1830
348.397	2211
348.482	2616
348.568	4150
348.654	1358
348.740	2958
348.825	2443
348.911	4078
348.997	17403
349.083	40539
349.168	8375
349.254	2457
349.340	2760
349.425	2196
349.511	3145
349.597	3823
349.682	7385
349.768	25751
349.854	15986
349.939	2980
350.025	1427
350.110	1937
350.196	1334
350.282	1582
350.367	1879
350.453	4872
350.538	3932
350.624	3596
350.709	2444
350.795	1626
350.880	1992
350.966	3098
351.051	3930
351.137	2820
351.222	2152
351.308	7637
351.393	24525
351.479	7435
351.564	2494
351.649	2418
351.735	1760
351.820	1323
351.906	1935
351.991	3647
352.076	13569
352.162	25027
352.247	5827
352.332	2618
352.418	5645
352.503	8921
352.588	33109
352.673	32460
352.759	7087
352.844	3318
352.929	3145
353.014	5030
353.100	3625
353.185	6477
353.270	8910
353.355	8907
353.441	2726
353.526	3597
353.611	6780
353.696	8801
353.781	4522
353.866	3141
353.952	2005
354.037	7212
354.122	16125
354.207	15049
354.292	6515
354.377	2326
354.462	2164
354.547	2987
354.632	3971
354.717	4935
354.802	8146
354.887	3265
354.972	2040
355.057	1970
355.142	1991
355.227	2366
355.312	3788
355.397	11133
355.482	25220
355.567	15853
355.652	7766
355.737	9805
355.822	27419
355.907	28020
355.991	4539
356.076	1900
356.161	1738
356.246	1833
356.331	2452
356.416	5464
356.501	36562
356.585	51393
356.670	7912
356.755	4314
356.840	5986
356.924	27888
357.009	102749
357.094	49800
357.179	9985
357.263	5874
357.348	5621
357.433	6127
357.517	5580
357.602	4443
357.687	3313
357.771	4820
357.856	6549
357.941	6059
358.025	19167
358.110	92214
358.195	56571
358.279	8830
358.364	4504
358.448	19011
358.533	56759
358.617	46696
358.702	41772
358.787	17734
358.871	8552
358.956	7598
359.040	2702
359.125	1629
359.209	2278
359.294	2296
359.378	3693
359.462	5498
359.547	4575
359.631	3328
359.716	1705
359.800	3072
359.885	4612
359.969	2465
360.053	2123
360.138	2085
360.222	3693
360.306	7316
360.391	6268
360.475	5770
360.559	15716
360.644	19213
360.728	16907
360.812	20860
360.896	65811
360.981	34611
361.065	16559
361.149	4648
361.233	4203
361.318	3128
361.402	3384
361.486	3919
361.570	1950
361.654	3361
361.739	8307
361.823	36482
361.907	67644
361.991	15723
362.075	5791
362.159	15685
362.243	12234
362.327	9465
362.411	12897
362.495	8057
362.580	4218
362.664	2200
362.748	1693
362.832	3316
362.916	4914
363.000	15703
363.084	53997
363.168	82175
363.252	23591
363.336	7726
363.420	10895
363.503	35055
363.587	40359
363.671	7498
363.755	5404
363.839	7888
363.923	4238
364.007	8371
364.091	9938
364.175	13892
364.258	51973
364.342	36679
364.426	40954
364.510	29999
364.594	13505
364.677	12122
364.761	50387
364.845	48172
364.929	15016
365.013	12665
365.096	9049
365.180	12551
365.264	15275
365.347	54142
365.431	27424
365.515	6569
365.598	3076
365.682	3255
365.766	8359
365.849	9017
365.933	4469
366.017	6686
366.100	4685
366.184	1821
366.267	1905
366.351	1442
366.435	965
366.518	1372
366.602	1991
366.685	2675
366.769	2281
366.852	6938
366.936	9880
367.019	6573
367.103	6541
367.186	10761
367.270	2790
367.353	900
367.436	1767
367.520	1943
367.603	2353
367.687	4995
367.770	9159
367.853	5833
367.937	15637
368.020	33716
368.104	9630
368.187	6273
368.270	10879
368.353	10651
368.437	12840
368.520	23918
368.603	14680
368.687	20089
368.770	44508
368.853	13580
368.936	11234
369.020	10913
369.103	3260
369.186	3121
369.269	2733
369.352	6683
369.436	10358
369.519	6240
369.602	2781
369.685	3440
369.768	3925
369.851	3253
369.934	2146
370.018	3332
370.101	7394
370.184	7317
370.267	5176
370.350	9831
370.433	13758
370.516	28511
370.599	40497
370.682	12760
370.765	22916
370.848	29643
370.931	50515
371.014	25677
371.097	4479
371.180	3035
371.263	2004
371.346	2319
371.429	2427
371.511	3538
371.594	5558
371.677	11414
371.760	12063
371.843	8165
371.926	30680
372.009	86845
372.091	37267
372.174	19629
372.257	45232
372.340	24287
372.423	18231
372.505	20294
372.588	8180
372.671	14744
372.754	48034
372.836	32607
372.919	19897
373.002	34246
373.085	12420
373.167	8574
373.250	20379
373.332	46172
373.415	54296
373.498	111137
373.580	53098
373.663	44385
373.746	74599
373.828	23176
373.911	9195
373.993	9985
374.076	32770
374.159	31850
374.241	13491
374.324	40090
374.406	33650
374.489	29665
374.571	91419
374.654	51313
374.736	18414
374.819	54292
374.901	77836
374.983	89163
375.066	20158
375.148	7596
375.231	25721
375.313	51502
375.395	22219
375.478	5761
375.560	3281
375.643	4826
375.725	15673
375.807	65614
375.890	67677
375.972	22953
376.054	14431
376.136	21634
376.219	7665
376.301	17456
376.383	61840
376.465	31203
376.548	14384
376.630	18111
376.712	51960
376.794	32909
376.877	3685
376.959	2622
377.041	3507
377.123	10024
377.205	9610
377.287	1742
377.369	1516
377.452	2421
377.534	1547
377.616	2479
377.698	2000
377.780	1958
377.862	2438
377.944	1963
378.026	555
378.108	1821
378.190	1209
378.272	1652
378.354	1289
378.436	1281
378.518	6128
378.600	18131
378.682	13247
378.764	27680
378.846	28939
378.928	8627
379.010	10087
379.091	6165
379.173	2521
379.255	2175
379.337	3446
379.419	11803
379.501	42292
379.583	22861
379.664	4816
379.746	10363
379.828	29388
379.910	43235
379.991	40509
380.073	9175
380.155	3731
380.237	3208
380.318	2401
380.400	2100
380.482	5825
380.564	10250
380.645	9867
380.727	11430
380.809	5644
380.890	4172
380.972	3833
381.053	3514
381.135	4358
381.217	9794
381.298	33136
381.380	20629
381.461	12408
381.543	46205
381.624	72470
381.706	18215
381.787	8925
381.869	8339
381.951	20047
382.032	78861
382.113	67195
382.195	17015
382.276	9556
382.358	18321
382.439	50190
382.521	54961
382.602	84375
382.684	46309
382.765	69408
382.846	86588
382.928	135069
383.009	107603
383.090	47055
383.172	135025
383.253	282465
383.334	131385
383.416	84884
383.497	54177
383.578	24051
383.659	38249
383.741	108871
383.822	324182
383.903	248939
383.984	79596
384.066	104192
384.147	74714
384.228	19726
384.309	11605
384.390	10041
384.471	8215
384.553	7744
384.634	9577
384.715	10197
384.796	6609
384.877	7390
384.958	25152
385.039	40199
385.120	16834
385.201	7324
385.282	9770
385.363	9677
385.444	7639
385.525	12351
385.606	37281
385.687	40037
385.768	12153
385.849	12035
385.930	34431
386.011	73069
386.092	26873
386.173	6636
386.254	5369
386.335	4252
386.416	5508
386.496	17987
386.577	35457
386.658	15890
386.739	8295
386.820	7583
386.901	6154
386.981	5385
387.062	2919
387.143	6692
387.224	26983
387.304	34376
387.385	11776
387.466	8863
387.547	10212
387.627	6401
387.708	11068
387.789	46145
387.869	68738
387.950	21780
388.031	4624
388.111	2956
388.192	14694
388.273	20233
388.353	8741
388.434	4401
388.514	8680
388.595	37977
388.676	63724
388.756	36889
388.837	29118
388.917	20793
388.998	4570
389.078	3778
389.159	2698
389.239	1729
389.320	4970
389.400	5024
389.480	11861
389.561	31770
389.641	20713
389.722	6233
389.802	8727
389.883	12773
389.963	35128
390.043	30430
390.124	10729
390.204	10680
390.284	33149
390.365	26567
390.445	22879
390.525	35292
390.605	38035
390.686	20652
390.766	7753
390.846	3325
390.927	2297
391.007	2788
391.087	3884
391.167	3379
391.247	3494
391.328	6941
391.408	11307
391.488	6931
391.568	1953
391.648	3221
391.728	6493
391.808	6174
391.888	6466
391.969	14489
392.049	33277
392.129	17653
392.209	12829
392.289	35534
392.369	26592
392.449	20058
392.529	9857
392.609	7571
392.689	9393
392.769	30926
392.849	34837
392.929	22177
393.009	47866
393.089	39302
393.169	21276
393.248	52630
393.328	210902
393.408	298067
393.488	100306
393.568	23284
393.648	12217
393.728	7513
393.807	6229
393.887	5358
393.967	5464
394.047	5688
394.127	7105
394.206	9376
394.286	26757
394.366	128956
394.446	204649
394.525	62486
394.605	13612
394.685	11745
394.764	26700
394.844	39884
394.924	27205
395.003	8767
395.083	6256
395.163	4588
395.242	4246
395.322	4949
395.402	2976
395.481	5134
395.561	16015
395.640	42662
395.720	34187
395.799	45164
395.879	34899
395.958	15715
396.038	39253
396.117	170378
396.197	267601
396.276	104046
396.356	32236
396.435	22885
396.515	13648
396.594	13007
396.673	19464
396.753	57908
396.832	210126
396.912	217886
396.991	66825
397.070	15858
397.150	8012
397.229	6251
397.308	7372
397.388	13413
397.467	8649
397.546	3260
397.625	2045
397.705	5081
397.784	5165
397.863	2448
397.942	2116
398.022	3798
398.101	13140
398.180	41439
398.259	24684
398.338	4862
398.417	3615
398.497	2937
398.576	2535
398.655	1659
398.734	1613
398.813	2081
398.892	11820
398.971	40951
399.050	22988
399.129	2460
399.208	884
399.287	1467
399.366	1016
399.445	753
399.524	1023
399.603	608
399.682	4285
399.761	13298
399.840	43142
399.919	36442
399.998	6090
400.077	1625
400.156	1026
400.235	2504
400.313	1575
400.392	1827
400.471	13822
400.550	28827
400.629	9165
400.708	3095
400.786	4013
400.865	12133
400.944	12057
401.023	5324
401.102	348
401.180	1310
401.259	1614
401.338	2055
401.416	2746
401.495	2538
401.574	2714
401.652	1882
401.731	3480
401.810	3116
401.888	1438
401.967	519
402.046	946
402.124	2982
402.203	4464
402.281	2487
402.360	4918
402.438	15426
402.517	10412
402.596	3549
402.674	3408
402.753	1560
402.831	1893
402.910	1950
402.988	11200
403.066	42960
403.145	33974
403.223	13001
403.302	36731
403.380	34109
403.459	31320
403.537	15725
403.615	4352
403.694	-12
403.772	550
403.850	-377
403.929	225
404.007	1334
404.085	3646
404.164	5989
404.242	2443
404.320	2076
404.398	4762
404.477	12975
404.555	57896
404.633	69723
404.711	13962
404.789	2382
404.868	2456
404.946	1132
405.024	413
405.102	20
405.180	-375
405.258	-605
405.336	591
405.415	793
405.493	5503
405.571	4900
405.649	589
405.727	199
405.805	2775
405.883	2589
405.961	3335
406.039	5177
406.117	461
406.195	2399
406.273	11964
406.351	56784
406.429	48801
406.507	9069
406.585	2093
406.663	1489
406.740	2489
406.818	1999
406.896	1337
406.974	1793
407.052	4027
407.130	29553
407.208	56962
407.285	14662
407.363	1382
407.441	1557
407.519	1529
407.596	1573
407.674	4070
407.752	7719
407.830	15340
407.907	7793
407.985	2309
408.063	744
408.141	542
408.218	3604
408.296	4037
408.373	1925
408.451	1946
408.529	1469
408.606	598
408.684	223
408.762	28
408.839	-137
408.917	-475
408.994	24
409.072	189
409.149	-4
409.227	1811
409.304	2638
409.382	1615
409.459	1707
409.537	3193
409.614	2898
409.692	1182
409.769	1039
409.846	3839
409.924	5428
410.001	4969
410.079	2392
410.156	1928
410.233	641
410.311	451
410.388	592
410.465	1743
410.543	2516
410.620	1282
410.697	717
410.775	2222
410.852	214
410.929	2335
411.006	3528
411.083	2733
411.161	7477
411.238	8663
411.315	3542
411.392	1251
411.469	2767
411.547	3961
411.624	277
411.701	1232
411.778	1350
411.855	4050
411.932	2339
412.009	945
412.086	523
412.163	2304
412.240	1976
412.317	3750
412.394	3433
412.471	274
412.548	-41
412.625	484
412.702	2283
412.779	5013
412.856	3445
412.933	713
413.010	300
413.087	2202
413.164	13179
413.241	26267
413.318	7061
413.395	3569
413.471	4408
413.548	2313
413.625	898
413.702	1965
413.779	828
413.855	63
413.932	-1622
414.009	-441
414.086	-434
414.162	604
414.239	2158
414.316	12299
414.393	34642
414.469	17524
414.546	1314
414.623	414
414.699	-418
414.776	1037
414.853	561
414.929	495
415.006	602
415.082	2042
415.159	566
415.236	1016
415.312	1242
415.389	2443
415.465	4510
415.542	2219
415.618	-436
415.695	1921
415.771	1766
415.848	1282
415.924	1914
416.000	1253
416.077	351
416.153	-720
416.230	-968
416.306	-132
416.383	473
416.459	1135
416.535	-594
416.612	-281
416.688	66
416.764	-47
416.841	-410
416.917	-94
416.993	257
417.069	1237
417.146	1085
417.222	1937
417.298	1312
417.374	481
417.451	934
417.527	1256
417.603	1208
417.679	1089
417.755	360
417.831	176
417.908	-290
417.984	-373
418.060	64
418.136	1965
418.212	5149
418.288	2204
418.364	314
418.440	17
418.516	2328
418.592	5236
418.668	6427
418.744	10035
418.820	8150
418.896	2180
418.972	-766
419.048	786
419.124	3298
419.200	3864
419.276	130
419.352	-65
419.428	-173
419.504	810
419.579	1470
419.655	297
419.731	763
419.807	5703
419.883	11615
419.959	8916
420.034	2610
420.110	3910
420.186	18829
420.262	21244
420.337	4367
420.413	1753
420.489	1025
420.565	343
420.640	126
420.716	1482
420.792	-105
420.867	904
420.943	405
421.019	2585
421.094	1890
421.170	1162
421.245	-348
421.321	926
421.397	418
421.472	2131
421.548	3965
421.623	5249
421.699	2924
421.774	2509
421.850	1400
421.925	3598
422.001	5016
422.076	2498
422.152	3440
422.227	6352
422.302	7592
422.378	9291
422.453	17921
422.529	41392
422.604	118052
422.679	233530
422.755	196699
422.830	80757
422.905	28132
422.981	14574
423.056	9281
423.131	6249
423.207	4540
423.282	4593
423.357	7402
423.432	7428
423.508	4630
423.583	11202
423.658	10300
423.733	3164
423.808	3757
423.883	3702
423.959	3557
424.034	2245
424.109	2722
424.184	992
424.259	786
424.334	989
424.409	-592
424.484	435
424.559	1611
424.634	23
424.709	2015
424.784	2277
424.859	1279
424.934	2672
425.009	12446
425.084	26232
425.159	13540
425.234	2254
425.309	-225
425.384	276
425.459	48
425.534	1188
425.609	1160
425.683	704
425.758	523
425.833	1737
425.908	1444
425.983	7023
426.058	25031
426.132	15595
426.207	2655
426.282	5677
426.357	5321
426.431	1224
426.506	1459
426.581	1303
426.655	1344
426.730	699
426.805	523
426.879	1358
426.954	1762
427.029	3048
427.103	18105
427.178	55569
427.253	37357
427.327	5530
427.402	3426
427.476	6641
427.551	2759
427.625	2450
427.700	2867
427.774	701
427.849	1981
427.923	1084
427.998	771
428.072	1351
428.147	4657
428.221	13314
428.296	43131
428.370	36776
428.444	6185
428.519	7426
428.593	13924
428.667	11919
428.742	14244
428.816	11691
428.890	27028
428.965	51673
429.039	25050
429.113	16728
429.188	5526
429.262	1606
429.336	3047
429.410	12842
429.485	11518
429.559	11563
429.633	9273
429.707	2804
429.781	6198
429.855	32831
429.930	62873
430.004	42205
430.078	51658
430.152	41159
430.226	44739
430.300	73578
430.374	19221
430.448	4429
430.522	13780
430.596	43895
430.670	28198
430.744	40776
430.818	92554
430.892	33008
430.966	4100
431.040	2032
431.114	1007
431.188	964
431.262	534
431.336	1360
431.410	5406
431.484	17288
431.557	11942
431.631	1597
431.705	620
431.779	5462
431.853	31759
431.927	39366
432.000	7045
432.074	1636
432.148	2829
432.222	2704
432.295	1032
432.369	848
432.443	2192
432.516	16324
432.590	56119
432.664	34762
432.737	3882
432.811	676
432.885	-71
432.958	963
433.032	349
433.106	72
433.179	147
433.253	-25
433.326	21
433.400	538
433.473	571
433.547	-926
433.620	480
433.694	1799
433.767	3612
433.841	813
433.914	145
433.988	-821
434.061	263
434.134	1002
434.208	-422
434.281	-46
434.355	-533
434.428	517
434.501	130
434.575	-13
434.648	656
434.721	-145
434.795	-205
434.868	-446
434.941	-808
435.014	61
435.088	-545
435.161	829
435.234	2131
435.307	4240
435.381	1677
435.454	1247
435.527	2261
435.600	1967
435.673	1663
435.746	945
435.819	288
435.892	49
435.966	-734
436.039	-93
436.112	1179
436.185	-326
436.258	-732
436.331	-17
436.404	-331
436.477	-362
436.550	-158
436.623	-386
436.696	-420
436.769	753
436.842	67
436.915	411
436.987	1161
437.060	812
437.133	-204
437.206	-210
437.279	735
437.352	-490
437.425	-594
437.498	594
437.570	2402
437.643	4333
437.716	603
437.789	596
437.861	2548
437.934	12076
438.007	5710
438.080	388
438.152	1736
438.225	2691
438.298	17291
438.370	72573
438.443	51910
438.516	14303
438.588	2985
438.661	227
438.734	1062
438.806	953
438.879	1640
438.951	1700
439.024	6185
439.096	1159
439.169	267
439.241	-133
439.314	-110
439.386	2058
439.459	4702
439.531	7421
439.604	2645
439.676	618
439.749	-189
439.821	379
439.893	452
439.966	205
440.038	998
440.110	1784
440.183	579
440.255	309
440.327	1236
440.400	8684
440.472	44432
440.544	48822
440.617	9409
440.689	4827
440.761	4678
440.833	9372
440.905	6882
440.978	999
441.050	-370
441.122	869
441.194	-236
441.266	232
441.338	123
441.411	2170
441.483	11719
441.555	29586
441.627	11074
441.699	4554
441.771	3817
441.843	859
441.915	303
441.987	839
442.059	550
442.131	2350
442.203	3238
442.275	2785
442.347	2867
442.419	2453
442.491	10114
442.563	44367
442.635	37015
442.706	17381
442.778	13970
442.850	2956
442.922	1087
442.994	1856
443.066	3172
443.137	2729
443.209	1181
443.281	2743
443.353	4892
443.425	16893
443.496	67210
443.568	101890
443.640	50248
443.711	10529
443.783	3618
443.855	2437
443.926	598
443.998	1495
444.070	3462
444.141	2150
444.213	2371
444.285	4381
444.356	3080
444.428	3685
444.499	1079
444.571	362
444.642	223
444.714	1084
444.785	2798
444.857	4701
444.928	11176
445.000	7384
445.071	6900
445.143	9238
445.214	4924
445.285	6683
445.357	20677
445.428	38797
445.500	125006
445.571	116663
445.642	58144
445.714	27386
445.785	21347
445.856	6419
445.928	5067
445.999	5366
446.070	4093
446.141	2682
446.213	4979
446.284	3555
446.355	2975
446.426	1550
446.497	1681
446.569	3498
446.640	4712
446.711	4118
446.782	1047
446.853	2057
446.924	2180
446.995	1253
447.066	1968
447.138	3944
447.209	2406
447.280	456
447.351	41
447.422	-161
447.493	1576
447.564	1285
447.635	1621
447.706	1685
447.777	-386
447.847	-416
447.918	-150
447.989	1207
448.060	2731
448.131	7607
448.202	6355
448.273	4525
448.344	1844
448.414	853
448.485	-327
448.556	532
448.627	-418
448.698	-58
448.768	-206
448.839	546
448.910	3440
448.981	3291
449.051	493
449.122	870
449.193	-561
449.263	543
449.334	-502
449.405	517
449.475	3848
449.546	4749
449.616	4696
449.687	3595
449.758	361
449.828	260
449.899	262
449.969	102
450.040	-289
450.110	1072
450.181	1348
450.251	131
450.322	693
450.392	618
450.463	-47
450.533	-379
450.604	146
450.674	492
450.744	-127
450.815	-518
450.885	-33
450.955	294
451.026	92
451.096	521
451.166	552
451.237	3443
451.307	12313
451.377	5310
451.447	510
451.518	-1023
451.588	720
451.658	226
451.728	1263
451.799	11282
451.869	15370
451.939	3474
452.009	-209
452.079	130
452.149	-157
452.219	2045
452.289	13621
452.360	11416
452.430	1914
452.500	415
452.570	1041
452.640	2338
452.710	8965
452.780	17103
452.850	9539
452.920	10080
452.990	5468
453.060	644
453.129	1601
453.199	3300
453.269	9679
453.339	29931
453.409	50223
453.479	44579
453.549	66434
453.619	81934
453.688	37596
453.758	7274
453.828	714
453.898	1011
453.968	650
454.037	-78
454.087	495
454.107	718
454.168	276
454.177	201
454.247	-72
454.249	-58
454.316	-157
454.330	100
454.386	1046
454.411	3088
454.456	6205
454.492	9064
454.525	11599
454.574	6117
454.595	3781
454.655	848
454.665	379
454.734	1049
454.736	1146
454.804	3418
454.817	5322
454.873	12280
454.898	13798
454.943	16108
454.979	10995
455.013	6555
455.060	2788
455.082	1291
455.141	2545
455.152	2718
455.221	7943
455.222	8161
455.291	17629
455.303	15709
455.360	7821
455.384	7194
455.430	5878
455.465	6857
455.499	7741
455.546	12124
455.569	13533
455.627	9418
455.638	8857
455.707	1699
455.708	1703
455.777	616
455.789	705
455.846	1135
455.869	800
455.916	125
455.950	356
455.985	497
456.031	815
456.054	973
456.112	867
456.124	864
456.193	429
456.193	412
456.262	1314
456.274	1482
456.332	2271
456.355	2691
456.401	2788
456.436	1820
456.470	1011
456.516	657
456.540	554
456.597	-290
456.609	-460
456.678	-296
456.678	-307
456.747	359
456.759	326
456.817	81
456.840	187
456.886	480
456.920	369
456.955	336
457.001	472
457.024	545
457.082	1315
457.093	1585
457.162	3655
457.163	3690
457.232	3857
457.243	3383
457.301	1207
457.324	788
457.370	548
457.405	549
457.439	485
457.485	594
457.508	692
457.566	621
457.577	636
457.646	1178
457.647	1200
457.715	2727
457.727	2913
457.784	4058
457.808	4808
457.853	5500
457.889	7543
457.922	8749
457.969	6869
457.991	6928
458.050	7204
458.060	7271
458.129	10146
458.130	10325
458.198	11644
458.211	10736
458.267	8641
458.292	6308
458.336	3410
458.372	3080
458.405	3731
458.453	4906
458.474	5778
458.533	10507
458.543	10945
458.611	18576
458.614	18852
458.680	16572
458.694	13542
458.749	7028
458.775	5148
458.818	2293
458.855	1734
458.887	1657
458.936	1572
458.955	1433
459.016	1542
459.024	1568
459.093	2329
459.097	2294
459.162	1376
459.177	1455
459.230	2139
459.257	2638
459.299	2910
459.338	2853
459.368	3186
459.418	4014
459.437	3765
459.499	2631
459.505	2638
459.574	2039
459.579	2005
459.643	1429
459.659	1413
459.711	1623
459.740	1849
459.780	2156
459.820	2538
459.849	2670
459.900	2687
459.917	2654
459.981	2699
459.986	2703
460.054	2634
460.061	2602
460.123	2533
460.141	2525
460.191	3007
460.222	3670
460.260	4076
460.302	4577
460.328	4333
460.382	3614
460.397	3587
460.462	2784
460.465	2810
460.534	3723
460.543	3861
460.602	7362
460.623	8729
460.671	14029
460.703	18829
460.739	16531
460.783	15258
460.808	15232
460.864	7179
460.876	6243
460.944	2127
460.945	2087
461.013	2556
461.024	2505
461.081	2459
461.104	2735
461.150	2571
461.184	2462
461.218	2496
461.264	2121
461.286	2078
461.345	2140
461.355	2147
461.423	2391
461.425	2395
461.491	3548
461.505	3811
461.559	6638
461.585	7917
461.628	13930
461.665	19939
461.696	21521
461.745	26778
461.764	23734
461.825	7317
461.832	7050
461.901	4136
461.905	4087
461.969	2604
461.985	2503
462.037	3160
462.065	3304
462.105	4097
462.145	4861
462.173	6652
462.225	9820
462.241	11138
462.305	18621
462.310	18047
462.378	8144
462.385	6707
462.446	4037
462.465	3488
462.514	2968
462.545	3022
462.582	3025
462.625	2905
462.650	2826
462.705	3024
462.718	3184
462.785	3323
462.786	3359
462.854	5993
462.865	6460
462.922	8641
462.945	9557
462.990	6712
463.025	3783
463.058	3279
463.104	2825
463.126	2597
463.184	2231
463.194	2376
463.262	3319
463.264	3363
463.330	3578
463.344	3580
463.398	4040
463.424	4152
463.466	3882
463.504	3942
463.533	4245
463.583	4306
463.601	4313
463.663	4455
463.669	4703
463.737	7554
463.743	7854
463.805	12678
463.823	13967
463.873	22186
463.903	27479
463.940	27670
463.982	28645
464.008	23015
464.062	8634
464.076	7855
464.142	3463
464.144	3447
464.211	4011
464.221	4115
464.279	3713
464.301	3756
464.347	4681
464.381	5242
464.414	5940
464.461	6717
464.482	6855
464.540	7775
464.550	7468
464.617	4495
464.620	4388
464.685	5450
464.699	5738
464.753	5855
464.779	5909
464.820	6343
464.859	6730
464.888	6890
464.938	7114
464.956	7340
465.018	8021
465.023	7821
465.091	5163
465.098	4859
465.158	4481
465.177	4446
465.226	4630
465.257	4673
465.293	5448
465.336	6252
465.361	6926
465.416	8595
465.428	9408
465.495	13797
465.496	13884
465.563	24092
465.575	25843
465.631	29973
465.654	32027
465.698	19457
465.734	8007
465.765	6990
465.813	5521
465.833	5245
465.893	4884
465.900	4864
465.968	4826
465.972	4800
466.035	4458
466.052	4402
466.102	4936
466.131	5258
466.170	4722
466.210	4068
466.237	4447
466.290	5204
466.304	5208
466.369	5144
466.372	5190
466.439	6326
466.449	6472
466.506	7097
466.528	7343
466.573	12039
466.607	15499
466.641	23898
466.687	35602
466.708	38913
466.766	48067
466.775	44008
466.842	12903
466.845	11397
466.909	8699
466.925	8116
466.977	7231
467.004	6823
467.044	6961
467.083	7101
467.111	7453
467.163	8078
467.178	8303
467.242	9186
467.245	9187
467.312	8914
467.321	8865
467.379	8936
467.400	8938
467.446	9828
467.480	10447
467.559	9384
467.638	8031
467.717	7592
467.796	9118
467.875	10118
467.955	10189
468.034	17100
468.113	39732
468.192	59869
468.271	11349
468.350	9025
468.429	8171
468.508	9122
468.588	7750
468.667	7563
468.746	7255
468.825	7873
468.904	5953
468.983	9120
469.062	16036
469.141	18089
469.220	6987
469.299	7235
469.378	7105
469.456	8140
469.535	7030
469.614	7272
469.693	8467
469.772	12313
469.851	20070
469.930	10741
470.009	7307
470.088	7120
470.166	9998
470.245	16186
470.324	19033
470.403	11643
470.482	6697
470.560	7278
470.639	8280
470.718	9706
470.797	7103
470.875	10243
470.954	14579
471.033	15852
471.111	6264
471.190	6186
471.269	4463
471.347	5336
471.426	7077
471.505	6994
471.583	7176
471.662	6401
471.740	5684
471.819	6749
471.898	5535
471.976	6086
472.055	5841
472.133	6742
472.212	10669
472.290	12584
472.369	6217
472.447	5384
472.526	5797
472.604	7298
472.683	6611
472.761	7422
472.839	6109
472.918	5792
472.996	6777
473.075	8807
473.153	6967
473.231	6504
473.310	8374
473.388	7787
473.466	6520
473.545	8104
473.623	9286
473.701	10213
473.780	6866
473.858	6020
473.936	7187
474.014	6370
474.093	7755
474.171	13164
474.249	20663
474.327	9766
474.405	4575
474.484	5712
474.562	6353
474.640	5788
474.718	6701
474.796	5491
474.874	5783
474.952	5102
475.030	3991
475.108	5043
475.187	5440
475.265	6869
475.343	10689
475.421	11924
475.499	5336
475.577	6783
475.655	9946
475.733	24095
475.811	43619
475.889	39628
475.966	20757
476.044	7096
476.122	10573
476.200	12868
476.278	8469
476.356	6072
476.434	6597
476.512	10453
476.590	11635
476.667	9920
476.745	6362
476.823	7751
476.901	6516
476.979	7945
477.056	6166
477.134	6701
477.212	7291
477.290	6745
477.367	5208
477.445	6068
477.523	5332
477.601	6477
477.678	6430
477.756	8304
477.834	10471
477.911	6556
477.989	6171
478.066	6454
478.144	8549
478.222	9269
478.299	14843
478.377	12636
478.454	5659
478.532	6305
478.609	6320
478.687	7054
478.764	4523
478.842	6844
478.919	6282
478.997	7080
479.074	6067
479.152	8782
479.229	11589
479.307	5526
479.384	3792
479.461	6115
479.539	6366
479.616	8379
479.694	7309
479.771	8632
479.848	8009
479.926	11849
480.003	12205
480.080	6562
480.157	5320
480.235	5933
480.312	5518
480.389	7974
480.467	13874
480.544	18415
480.621	8152
480.698	7968
480.775	8483
480.853	8715
480.930	6159
481.007	7180
481.084	9024
481.161	9195
481.238	8220
481.315	6060
481.392	5720
481.470	6077
481.547	5614
481.624	6637
481.701	5871
481.778	6934
481.855	7495
481.932	13349
482.009	25312
482.086	13713
482.163	7395
482.240	10558
482.317	19742
482.393	12757
482.470	6830
482.547	7014
482.624	6135
482.701	8068
482.778	6711
482.855	5247
482.932	5444
483.009	6187
483.085	5987
483.162	8718
483.239	6632
483.316	5784
483.393	6012
483.469	6675
483.546	7570
483.623	8473
483.699	5096
483.776	6009
483.853	7664
483.930	12839
484.006	34283
484.083	60451
484.160	16772
484.236	21659
484.313	15634
484.389	14097
484.466	11367
484.543	11663
484.619	12066
484.696	12865
484.772	14878
484.849	16249
484.925	11037
485.002	12048
485.078	13028
485.155	13864
485.231	9646
485.308	10298
485.384	11875
485.461	16400
485.537	33965
485.614	39914
485.690	11524
485.766	11028
485.843	11187
485.919	18175
485.995	18193
486.072	9634
486.148	9544
486.224	10098
486.301	10855
486.377	14627
486.453	14541
486.530	11532
486.606	13662
486.682	16285
486.758	24487
486.835	32220
486.911	21692
486.987	45455
487.063	39873
487.139	48067
487.215	30407
487.292	12342
487.368	11188
487.444	12308
487.520	16869
487.596	15108
487.672	19695
487.748	47314
487.824	68019
487.900	19498
487.976	11865
488.052	15336
488.128	18937
488.204	14820
488.280	11491
488.356	16671
488.432	39249
488.508	65537
488.584	13893
488.660	10991
488.736	9493
488.812	10104
488.888	14254
488.964	20304
489.039	48243
489.115	73456
489.191	35117
489.267	12077
489.343	9401
489.418	8838
489.494	7489
489.570	7566
489.646	8599
489.722	8782
489.797	10945
489.873	19918
489.949	49271
490.024	34321
490.100	8585
490.176	9915
490.251	12264
490.327	16977
490.403	8462
490.478	8158
490.554	7225
490.629	7484
490.705	6425
490.781	9055
490.856	8797
490.932	9299
491.007	9599
491.083	9234
491.158	9288
491.234	14764
491.309	36425
491.385	34154
491.460	9081
491.536	10224
491.611	7149
491.686	9059
491.762	13003
491.837	32273
491.913	53291
491.988	78795
492.063	88369
492.139	26479
492.214	13888
492.289	7421
492.365	7091
492.440	9689
492.515	10903
492.590	10559
492.666	6978
492.741	12768
492.816	21347
492.891	9202
492.967	5819
493.042	6217
493.117	6225
493.192	6908
493.267	8889
493.342	18469
493.418	19929
493.493	7079
493.568	4940
493.643	6539
493.718	9740
493.793	17793
493.868	15877
493.943	9495
494.018	6936
494.093	7344
494.168	7036
494.243	6365
494.318	4803
494.393	6046
494.468	4904
494.543	5247
494.618	7191
494.693	5985
494.768	6201
494.842	6066
494.917	5912
494.992	5761
495.067	4829
495.142	4575
495.217	5709
495.292	5549
495.366	6355
495.441	9158
495.516	12616
495.591	21194
495.665	70087
495.740	165416
495.815	47967
495.890	10622
495.964	7885
496.039	9729
496.114	8041
496.188	8673
496.263	9101
496.338	8772
496.412	9938
496.487	11650
496.561	11847
496.636	12455
496.710	9113
496.785	10776
496.860	14288
496.934	9615
497.009	7778
497.083	9054
497.158	9417
497.232	12102
497.307	14641
497.381	10515
497.455	13723
497.530	20970
497.604	10169
497.679	12627
497.753	21241
497.827	27599
497.902	18868
497.976	27290
498.050	75533
498.125	282310
498.199	250187
498.273	33748
498.348	23865
498.422	17834
498.496	17409
498.570	16581
498.645	11406
498.719	11975
498.793	15436
498.867	29255
498.941	42851
499.016	115161
499.090	319113
499.164	78480
499.238	10188
499.312	9719
499.386	12323
499.460	10513
499.534	9661
499.609	13538
499.683	22008
499.757	22575
499.831	54069
499.905	212342
499.979	172681
500.053	31292
500.127	28185
500.201	16975
500.275	10038
500.349	9877
500.422	12289
500.496	21644
500.570	48036
500.644	111828
500.718	220892
500.792	33948
500.866	10687
500.940	16057
501.013	12411
501.087	11520
501.161	20820
501.235	32522
501.309	77913
501.382	203185
501.456	151357
501.530	34799
501.603	69922
501.677	19520
501.751	9553
501.825	13547
501.898	27166
501.972	86763
502.046	42980
502.119	13003
502.193	35379
502.266	93656
502.340	35988
502.413	39043
502.487	79419
502.561	44574
502.634	10857
502.708	9308
502.781	8407
502.855	6380
502.928	5731
503.002	5962
503.075	5709
503.149	6361
503.222	6127
503.295	7214
503.369	9978
503.442	17976
503.516	61084
503.589	160683
503.662	89251
503.736	26980
503.809	73162
503.882	52021
503.956	79237
504.029	64717
504.102	33509
504.175	38443
504.249	11784
504.322	12144
504.395	9625
504.468	6864
504.542	6909
504.615	5396
504.688	5023
504.761	6181
504.834	7587
504.907	9630
504.980	15255
505.053	8286
505.127	9478
505.200	12268
505.273	13887
505.346	7253
505.419	5953
505.492	4745
505.565	3563
505.638	3968
505.711	3914
505.784	5521
505.857	3473
505.930	5736
506.003	3930
506.076	6325
506.149	7681
506.221	11676
506.294	11223
506.367	32071
506.440	107197
506.513	44222
506.586	12372
506.659	5800
506.731	5570
506.804	7824
506.877	10837
506.950	7304
507.022	4601
507.095	8781
507.168	10834
507.241	6166
507.313	4069
507.386	6079
507.459	8053
507.531	5403
507.604	4177
507.677	4507
507.749	3281
507.822	5991
507.894	11996
507.967	11267
508.040	6001
508.112	5852
508.185	5473
508.257	5548
508.330	9116
508.402	5901
508.475	5731
508.547	7079
508.620	7047
508.692	13335
508.765	6442
508.837	4300
508.909	4812
508.982	5572
509.054	5539
509.127	5009
509.199	3964
509.271	4301
509.344	2910
509.416	4085
509.488	3879
509.560	4115
509.633	5418
509.705	6931
509.777	5918
509.849	8306
509.922	5166
509.994	3933
510.066	3993
510.138	4870
510.210	8266
510.283	7937
510.355	6727
510.427	5862
510.499	5261
510.571	5093
510.643	5359
510.715	11182
510.787	8272
510.859	6615
510.931	8395
511.003	10728
511.076	8900
511.148	5320
511.219	6065
511.291	13139
511.363	14179
511.435	5281
511.507	4467
511.579	4510
511.651	4337
511.723	4155
511.795	3969
511.867	5757
511.939	7891
512.010	19903
512.082	12778
512.154	6333
512.226	5829
512.298	7428
512.369	11013
512.441	9611
512.513	8991
512.585	6611
512.656	7045
512.728	8822
512.800	5585
512.871	5436
512.943	6129
513.015	4663
513.086	5634
513.158	7180
513.230	6622
513.301	12101
513.373	12421
513.444	6057
513.516	5002
513.588	5437
513.659	6561
513.731	9089
513.802	8382
513.874	17177
513.945	29944
514.016	8313
514.088	4973
514.159	6489
514.231	9068
514.302	10304
514.374	7466
514.445	8414
514.516	22273
514.588	13613
514.659	9248
514.730	19426
514.802	11765
514.873	7528
514.944	7307
515.016	6952
515.087	8261
515.158	14141
515.229	18314
515.301	7912
515.372	8939
515.443	6509
515.514	4955
515.585	5754
515.656	4838
515.728	4392
515.799	4885
515.870	5188
515.941	5341
516.012	6589
516.083	7001
516.154	8842
516.225	12568
516.296	10592
516.367	8372
516.438	11055
516.509	15141
516.580	30852
516.651	94325
516.722	303579
516.793	104212
516.864	19272
516.935	19184
517.006	23588
517.077	39397
517.148	107946
517.219	348287
517.289	484016
517.360	131043
517.431	35849
517.502	11405
517.573	11081
517.643	9523
517.714	11618
517.785	11299
517.856	11262
517.926	12718
517.997	15138
518.068	20425
518.138	33883
518.209	71400
518.280	241133
518.350	758434
518.421	230430
518.492	24505
518.562	15303
518.633	15809
518.703	13483
518.774	20381
518.845	43364
518.915	38645
518.986	15767
519.056	15025
519.127	29509
519.197	47408
519.268	107390
519.338	62176
519.408	15874
519.479	16494
519.549	12528
519.620	7679
519.690	6890
519.760	6900
519.831	8049
519.901	8265
519.971	5685
520.042	7002
520.112	9548
520.182	9189
520.253	9993
520.323	6146
520.393	7000
520.463	7362
520.534	6711
520.604	11421
520.674	7219
520.744	8101
520.814	13280
520.885	17581
520.955	36375
521.025	124042
521.095	39677
521.165	7335
521.235	7849
521.305	5824
521.375	5877
521.445	7423
521.515	9418
521.585	9859
521.655	10294
521.725	8298
521.795	8102
521.865	5784
521.935	11158
522.005	9159
522.075	4928
522.145	6395
522.215	8756
522.285	12926
522.355	19028
522.424	37256
522.494	28991
522.564	14506
522.634	25863
522.704	68338
522.774	21386
522.843	6073
522.913	6903
522.983	8430
523.053	6369
523.122	7776
523.192	12364
523.262	38770
523.331	32894
523.401	6386
523.471	4553
523.540	5413
523.610	3449
523.680	4795
523.749	5130
523.819	7078
523.888	6716
523.958	5354
524.027	5418
524.097	5734
524.166	5306
524.236	4753
524.305	7105
524.375	5022
524.444	5286
524.514	5784
524.583	6271
524.653	7619
524.722	9089
524.791	5607
524.861	4345
524.930	4124
524.999	6280
525.069	7939
525.138	7400
525.207	8402
525.277	6540
525.346	4885
525.415	5336
525.484	5324
525.554	8085
525.623	6506
525.692	5149
525.761	5051
525.830	5826
525.900	5730
525.969	10108
526.038	15335
526.107	28276
526.176	71585
526.245	55974
526.314	23206
526.383	42105
526.452	53957
526.522	88160
526.591	91078
526.660	34635
526.729	15066
526.797	23328
526.867	54277
526.935	192723
527.004	238868
527.073	110373
527.142	9888
527.211	8158
527.280	7342
527.349	7449
527.418	3839
527.487	4064
527.555	3681
527.624	3993
527.693	3545
527.762	4974
527.831	2736
527.899	3821
527.968	4129
528.037	4699
528.106	5981
528.174	12833
528.243	10482
528.312	15547
528.380	17476
528.449	5132
528.518	3878
528.586	3107
528.655	3359
528.723	3847
528.792	3141
528.861	4712
528.929	4013
528.998	4463
529.066	3532
529.135	3287
529.203	3063
529.272	2378
529.340	4065
529.409	4349
529.477	3253
529.545	5372
529.614	7632
529.682	6915
529.751	8487
529.819	8535
529.887	4667
529.956	3519
530.024	4213
530.092	3640
530.161	4673
530.229	8210
530.297	3946
530.365	3696
530.434	2966
530.502	2791
530.570	2688
530.638	3191
530.707	3730
530.775	5329
530.843	2210
530.911	2925
530.979	3179
531.047	3132
531.115	3837
531.183	3671
531.252	3401
531.320	3840
531.388	2566
531.456	4199
531.524	2438
531.592	3250
531.660	3986
531.728	3558
531.796	2794
531.864	3108
531.932	3476
532.000	3312
532.067	3822
532.135	3748
532.203	3545
532.271	5840
532.339	10125
532.407	28468
532.475	13702
532.542	6559
532.610	8216
532.678	15859
532.746	51205
532.814	118330
532.881	24805
532.949	5235
533.017	3896
533.084	4195
533.152	3145
533.220	4371
533.287	3174
533.355	2935
533.423	2932
533.490	2687
533.558	3162
533.625	3913
533.693	3453
533.761	4563
533.828	4799
533.896	4862
533.963	9474
534.031	11877
534.098	15114
534.166	6974
534.233	2810
534.300	4681
534.368	4316
534.435	3699
534.503	3712
534.570	3697
534.637	3120
534.705	4096
534.772	6139
534.840	9799
534.907	32151
534.974	39636
535.041	6919
535.109	6838
535.176	4028
535.243	3640
535.310	3214
535.378	3302
535.445	2877
535.512	4103
535.579	3608
535.646	3247
535.714	3949
535.781	3834
535.848	3704
535.915	4582
535.982	4301
536.049	4038
536.116	4637
536.183	4253
536.250	4144
536.317	4826
536.384	6375
536.451	8940
536.518	9386
536.585	5324
536.652	8106
536.719	11912
536.786	8794
536.853	6497
536.920	10847
536.987	20478
537.053	19130
537.120	59785
537.187	48644
537.254	5901
537.321	3863
537.388	5896
537.454	3701
537.521	3789
537.588	4217
537.654	5281
537.721	4862
537.788	5668
537.855	4210
537.921	4027
537.988	5126
538.055	5492
538.121	4486
538.188	5605
538.254	9072
538.321	18050
538.388	10019
538.454	5629
538.521	3849
538.587	3917
538.654	3634
538.720	4292
538.787	4802
538.853	4565
538.920	6004
538.986	7043
539.053	5699
539.119	5529
539.185	5533
539.252	6572
539.318	9613
539.385	7300
539.451	5170
539.517	6819
539.583	9789
539.650	18166
539.716	44284
539.782	12137
539.849	5026
539.915	5094
539.981	4497
540.047	7165
540.114	5671
540.180	5420
540.246	6131
540.312	9162
540.378	18092
540.444	19586
540.510	17538
540.576	48880
540.643	13892
540.709	4772
540.775	4796
540.841	5780
540.907	7326
540.973	10661
541.039	8535
541.105	10471
541.171	5089
541.237	3647
541.303	5972
541.369	6939
541.435	8154
541.500	15992
541.566	8939
541.632	5080
541.698	4152
541.764	4756
541.830	3308
541.896	4478
541.961	4000
542.027	5177
542.093	3744
542.159	4935
542.224	5396
542.290	8979
542.356	14574
542.421	19022
542.487	6347
542.553	5890
542.618	6366
542.684	6411
542.750	5109
542.815	8337
542.881	15089
542.947	41085
543.012	30390
543.078	5483
543.143	4076
543.209	5954
543.274	5238
543.340	7737
543.405	15506
543.471	24906
543.536	6108
543.602	5044
543.667	3745
543.732	5274
543.798	3775
543.863	5611
543.928	3570
543.994	4647
544.059	3698
544.124	4483
544.190	3555
544.255	5524
544.320	4356
544.386	4717
544.451	7195
544.516	9769
544.581	10531
544.646	26483
544.712	40077
544.777	8804
544.842	6002
544.907	7433
544.972	5981
545.037	6031
545.102	6483
545.168	7011
545.233	6569
545.298	8075
545.363	9138
545.428	11611
545.493	17163
545.558	34960
545.623	14478
545.688	7757
545.753	6891
545.818	7093
545.883	6779
545.947	7044
546.012	7890
546.077	8189
546.142	7324
546.207	7584
546.272	9691
546.337	10227
546.401	8907
546.466	7288
546.531	6022
546.596	8203
546.661	8072
546.725	7619
546.790	7077
546.855	8041
546.919	7308
546.984	9487
547.049	8629
547.113	11677
547.178	9931
547.243	12120
547.307	12962
547.372	15572
547.436	15939
547.501	12287
547.565	13516
547.630	15317
547.695	14636
547.759	17370
547.823	14045
547.888	12806
547.952	12033
548.017	14435
548.081	15242
548.146	18678
548.210	16304
548.274	13396
548.339	12631
548.403	12521
548.468	10310
548.532	12376
548.596	12080
548.660	12946
548.725	14819
548.789	17344
548.853	17173
548.917	15236
548.982	17476
549.046	17529
549.110	11189
549.174	11901
549.238	12428
549.303	13131
549.367	14463
549.431	13113
549.495	12448
549.559	13216
549.623	13093
549.687	16829
549.751	19879
549.815	18514
549.879	17740
549.943	15364
550.007	17939
550.071	18623
550.135	19391
550.199	16887
550.263	16305
550.327	17058
550.391	20848
550.455	17507
550.519	17551
550.582	19132
550.646	21695
550.710	23657
550.774	20506
550.838	19298
550.901	20001
550.965	21192
551.029	21814
551.093	25802
551.156	29511
551.220	46594
551.284	51211
551.347	32860
551.411	47497
551.475	50622
551.538	22517
551.602	20425
551.666	18854
551.729	16646
551.793	16987
551.856	17899
551.920	17029
551.983	16843
552.047	15596
552.110	16827
552.174	16824
552.237	16854
552.301	15408
552.364	16271
552.428	16288
552.491	16208
552.554	17397
552.618	17623
552.681	19277
552.745	19368
552.808	26255
552.871	34472
552.934	20311
552.998	17983
553.061	16754
553.124	16550
553.187	15272
553.251	16618
553.314	17065
553.377	16263
553.440	18617
553.503	20769
553.567	23905
553.630	17551
553.693	16011
553.756	17206
553.819	16358
553.882	16605
553.945	15254
554.008	16742
554.071	15119
554.134	16190
554.197	14928
554.260	15144
554.323	16199
554.386	16135
554.449	16106
554.512	17306
554.575	15191
554.638	15959
554.701	15317
554.764	15700
554.827	14889
554.889	14207
554.952	12844
555.015	13131
555.078	13674
555.141	15154
555.203	13507
555.266	13671
555.329	13854
555.391	13865
555.454	13846
555.517	13931
555.580	12092
555.642	12834
555.705	11465
555.768	12930
555.830	12880
555.893	11660
555.955	11382
556.018	11756
556.080	10847
556.143	11802
556.206	10788
556.268	11153
556.330	11752
556.393	11249
556.455	12205
556.518	15115
556.580	14336
556.643	10382
556.705	10736
556.767	8391
556.830	11165
556.892	10620
556.955	14749
557.017	13179
557.079	10458
557.142	9833
557.204	11112
557.266	18570
557.328	15304
557.391	8493
557.453	8637
557.515	9887
557.577	10880
557.639	10187
557.701	9126
557.764	7394
557.826	9168
557.888	10108
557.950	9479
558.012	10866
558.074	14819
558.136	22620
558.198	49213
558.260	21863
558.322	9304
558.384	10195
558.446	11660
558.508	12859
558.570	16775
558.632	26815
558.694	43211
558.756	50086
558.818	100695
558.880	248478
558.942	78275
559.003	50275
559.065	26883
559.127	12529
559.189	12747
559.251	18349
559.312	27599
559.374	49367
559.436	148069
559.498	78520
559.559	12751
559.621	13743
559.683	19162
559.744	30839
559.806	69503
559.868	109548
559.929	23406
559.991	17586
560.052	21808
560.114	50514
560.176	36834
560.237	29614
560.299	47619
560.360	14977
560.422	8645
560.483	8943
560.545	7622
560.606	7283
560.667	7294
560.729	7425
560.790	7424
560.852	7642
560.913	8630
560.974	6759
561.036	6854
561.097	7871
561.158	6826
561.220	8331
561.281	7179
561.342	8372
561.403	10412
561.465	12577
561.526	21882
561.587	29383
561.648	9227
561.709	8306
561.771	6575
561.832	7351
561.893	6947
561.954	8277
562.015	6999
562.076	7548
562.137	7069
562.198	7109
562.259	7901
562.320	8570
562.381	8106
562.442	10624
562.503	8849
562.564	7018
562.625	7040
562.686	8409
562.747	7869
562.808	8461
562.869	7758
562.930	9668
562.991	8790
563.051	8299
563.112	7678
563.173	7419
563.234	6119
563.294	6923
563.355	6870
563.416	7818
563.477	7124
563.537	7865
563.598	7871
563.659	7566
563.720	7507
563.780	7994
563.841	8609
563.901	8919
563.962	7402
564.023	6621
564.083	8071
564.144	8388
564.204	7389
564.265	8482
564.325	9289
564.386	16762
564.446	15688
564.507	7686
564.567	7040
564.628	6938
564.688	7389
564.749	7956
564.809	7701
564.869	10940
564.930	7317
564.990	7813
565.050	7672
565.111	7234
565.171	6789
565.231	6671
565.292	7224
565.352	7497
565.412	7574
565.472	7111
565.532	7174
565.593	6908
565.653	6711
565.713	7752
565.773	8704
565.833	9536
565.893	10556
565.953	7707
566.013	7943
566.074	8409
566.134	10663
566.194	17214
566.254	15675
566.314	10585
566.374	7914
566.434	7482
566.494	7732
566.554	7908
566.614	7512
566.673	8161
566.733	8463
566.793	8306
566.853	8805
566.913	8523
566.973	9092
567.033	10231
567.092	9562
567.152	8816
567.212	9510
567.272	9756
567.331	8701
567.391	10106
567.451	10018
567.511	13800
567.570	12754
567.630	9415
567.690	8042
567.749	8846
567.809	8221
567.868	10445
567.928	9784
567.988	11582
568.047	12389
568.107	15225
568.166	18998
568.226	26071
568.285	34884
568.345	28123
568.404	21163
568.464	18467
568.523	17027
568.582	19099
568.642	21541
568.701	28259
568.761	37356
568.820	57262
568.879	53910
568.939	39594
568.998	26004
569.057	19833
569.116	15634
569.176	13330
569.235	11092
569.294	11262
569.353	10442
569.413	10746
569.472	10396
569.531	8947
569.590	8809
569.649	8076
569.708	8798
569.767	9816
569.827	9912
569.886	10467
569.945	7208
570.004	8487
570.063	8151
570.122	8290
570.181	9341
570.240	10007
570.299	10362
570.358	10386
570.417	7470
570.475	8049
570.534	8067
570.593	9251
570.652	8294
570.711	9325
570.770	8342
570.829	8874
570.887	7005
570.946	9517
571.005	7643
571.064	8044
571.122	7770
571.181	9516
571.240	6908
571.299	7356
571.357	8572
571.416	8965
571.475	9790
571.533	9537
571.592	8202
571.650	8964
571.709	7003
571.768	7590
571.826	6389
571.885	7110
571.943	7525
572.002	7047
572.060	7379
572.119	6813
572.177	6862
572.236	7192
572.294	5921
572.352	7012
572.411	7375
572.469	7032
572.528	6924
572.586	7017
572.644	7390
572.703	10202
572.761	7604
572.819	7266
572.877	5635
572.936	6401
572.994	6298
573.052	6523
573.110	6509
573.169	7002
573.227	5737
573.285	6385
573.343	6215
573.401	6677
573.459	6819
573.517	6354
573.576	6296
573.634	6869
573.692	6783
573.750	8000
573.808	6908
573.866	6997
573.924	8880
573.982	8697
574.040	5753
574.098	7629
574.155	5829
574.213	6200
574.271	6122
574.329	7199
574.387	5766
574.445	6653
574.503	5052
574.560	5949
574.618	6309
574.676	5673
574.734	5512
574.792	5854
574.849	5207
574.907	5923
574.965	5237
575.022	5789
575.080	6085
575.138	6669
575.195	5838
575.253	6688
575.311	6742
575.368	5936
575.426	4884
575.483	6956
575.541	5545
575.598	5743
575.656	5480
575.713	5518
575.771	6227
575.828	6100
575.886	5332
575.943	6932
576.001	6617
576.058	6568
576.115	6592
576.173	8176
576.230	7895
576.287	9695
576.345	7372
576.402	7443
576.459	6425
576.517	6644
576.574	7169
576.631	8211
576.688	7010
576.746	6975
576.803	5967
576.860	6506
576.917	5986
576.974	6356
577.031	6584
577.089	6427
577.146	6122
577.203	7378
577.260	7087
577.317	7057
577.374	8194
577.431	8486
577.488	7027
577.545	6516
577.602	6812
577.659	6941
577.716	6090
577.773	6541
577.830	5834
577.886	7149
577.943	5976
578.000	5735
578.057	6284
578.114	7361
578.171	6213
578.227	6544
578.284	5856
578.341	6168
578.398	6758
578.454	8033
578.511	7960
578.568	8838
578.625	7860
578.681	6604
578.738	6298
578.794	6311
578.851	6474
578.908	7283
578.964	6390
579.021	7148
579.077	6595
579.134	7178
579.190	6421
579.247	6706
579.303	6753
579.360	6240
579.416	6502
579.473	5811
579.529	5747
579.586	6608
579.642	5954
579.698	6772
579.755	6856
579.811	6537
579.867	6043
579.924	6723
579.980	5720
580.036	6900
580.093	6204
580.149	7606
580.205	6927
580.261	8075
580.317	7030
580.374	8307
580.430	9147
580.486	9028
580.542	7037
580.598	7268
580.619	7083
580.654	6761
580.692	6767
580.710	6773
580.765	7376
580.767	7393
580.823	7547
580.838	7496
580.879	7357
580.911	7450
580.935	7516
580.984	6802
580.991	6699
581.047	7002
581.057	6995
581.103	6998
581.130	7464
581.159	7924
581.203	7583
581.215	7501
581.270	8098
581.276	8110
581.326	8205
581.349	7956
581.382	7575
581.422	7926
581.438	8050
581.494	8121
581.494	8120
581.550	7740
581.567	8095
581.606	8867
581.640	8537
581.661	8294
581.713	8778
581.717	8818
581.773	8426
581.786	8431
581.829	8428
581.859	8475
581.885	8555
581.932	9411
581.940	9545
581.996	8720
582.004	8827
582.052	9345
582.077	8898
582.107	8465
582.150	8644
582.163	8661
582.219	8367
582.223	8410
582.274	8900
582.296	8947
582.330	9048
582.368	9979
582.386	10344
582.441	8692
582.441	8686
582.497	9612
582.514	9522
582.552	9283
582.587	9447
582.608	9564
582.659	9362
582.663	9331
582.719	9815
582.732	9664
582.774	9262
582.805	9881
582.830	10464
582.877	10325
582.885	10248
582.941	10461
582.950	10277
582.996	9499
583.023	10134
583.052	10854
583.095	10298
583.107	10182
583.162	10915
583.168	10972
583.218	11175
583.240	11261
583.273	11407
583.313	10918
583.328	10748
583.384	11338
583.385	11331
583.439	11017
583.458	10996
583.494	11080
583.531	10777
583.549	10607
583.603	11550
583.605	11585
583.660	11421
583.676	11589
583.715	11833
583.748	11771
583.770	11784
583.820	11892
583.825	11926
583.881	12702
583.893	12703
583.936	12529
583.965	12222
583.991	11853
584.038	11999
584.046	12112
584.101	12584
584.110	12707
584.156	13110
584.183	12856
584.211	12811
584.255	13525
584.266	13586
584.321	12918
584.328	12908
584.376	13107
584.400	13072
584.431	13212
584.472	13616
584.486	13718
584.541	14032
584.545	14055
584.596	14702
584.617	14684
584.651	14572
584.689	15348
584.706	15842
584.761	15948
584.762	15937
584.816	15961
584.834	16002
584.871	16260
584.906	16520
584.926	16584
584.978	16348
584.980	16369
585.035	17242
585.051	17407
585.090	17942
585.123	18656
585.145	19271
585.195	19478
585.200	19511
585.254	20793
585.267	20883
585.309	21975
585.340	23569
585.364	24727
585.412	26182
585.419	26435
585.473	29983
585.484	30635
585.528	34764
585.556	38819
585.583	46351
585.628	58063
585.637	66056
585.692	125883
585.700	137167
585.747	220901
585.772	239931
585.801	179007
585.845	88992
585.856	76767
585.910	37891
585.917	33181
585.965	29024
585.989	27550
586.019	27270
586.061	26484
586.074	26461
586.128	26933
586.133	26866
586.183	27143
586.205	27389
586.237	27999
586.277	28384
586.292	28450
586.346	29003
586.349	28954
586.401	29011
586.421	29186
586.455	29956
586.493	30636
586.509	31444
586.564	34132
586.565	34215
586.618	43191
586.637	44941
586.672	44705
586.709	40335
586.727	38201
586.781	36741
586.781	36822
586.835	36642
586.853	36606
586.889	36490
586.925	35776
586.944	35749
586.996	36798
586.998	36931
587.052	37598
587.068	37841
587.106	38829
587.140	39418
587.161	39838
587.212	41021
587.215	41213
587.269	42930
587.284	43442
587.323	45211
587.356	45993
587.377	46716
587.427	48226
587.431	48476
587.485	50730
587.499	51187
587.539	53151
587.571	54200
587.593	55407
587.643	58518
587.648	58956
587.702	61830
587.715	62355
587.755	65601
587.786	67668
587.810	69076
587.858	71566
587.864	72307
587.917	77953
587.930	79202
587.971	85513
588.001	89608
588.025	93619
588.073	100860
588.079	102208
588.133	111888
588.145	113899
588.187	125376
588.217	133009
588.241	140732
588.288	155604
588.295	158732
588.348	181417
588.360	186139
588.402	210679
588.431	226730
588.456	243922
588.503	277824
588.510	285353
588.564	343218
588.575	355262
588.617	424772
588.646	473020
588.671	537635
588.718	661796
588.725	695033
588.778	947820
588.789	999210
588.832	1330238
588.861	1555768
588.886	1716920
588.932	1997046
588.939	1974848
588.993	1685364
589.004	1627291
589.047	1828436
589.075	1936414
589.100	1814420
589.147	1552818
589.154	1502865
589.207	1087677
589.218	1001268
589.261	874605
589.290	788831
589.314	791716
589.361	796619
589.368	820545
589.421	1007092
589.433	1046334
589.475	1374592
589.504	1604036
589.528	1721141
589.576	1899491
589.582	1896911
589.635	1794063
589.647	1760195
589.689	1530275
589.718	1356532
589.742	1143272
589.790	716370
589.795	696797
589.849	495911
589.861	448654
589.902	381074
589.932	328672
589.955	304372
590.004	250052
590.009	247548
590.062	211995
590.075	202735
590.115	185874
590.146	171684
590.168	165879
590.218	150994
590.222	150648
590.275	139362
590.289	136052
590.328	129968
590.360	123679
590.381	120320
590.431	111368
590.435	111495
590.488	106837
590.503	105224
590.541	102222
590.574	98788
590.594	97521
590.645	93081
590.647	93260
590.700	89135
590.716	87444
590.753	86042
590.787	84337
590.806	83950
590.859	81811
590.859	82073
590.912	79362
590.930	78244
590.965	77488
591.001	76143
591.018	75947
591.071	74502
591.072	74209
591.124	74230
591.143	73956
591.177	73738
591.214	72872
591.230	72776
591.283	71467
591.285	71144
591.336	71016
591.356	70679
591.389	70542
591.427	69478
591.442	69125
591.495	67101
591.498	66694
591.547	65856
591.569	65139
591.600	64828
591.640	63721
591.653	64084
591.706	64707
591.711	64525
591.759	64918
591.782	64786
591.811	65390
591.853	65661
591.864	65697
591.917	64479
591.924	64054
591.969	63533
591.995	62925
592.022	63315
592.066	63255
592.075	63458
592.127	63247
592.137	62981
592.180	65837
592.208	67270
592.233	66622
592.279	64545
592.285	64621
592.338	63243
592.350	62691
592.390	62435
592.421	61792
592.443	62027
592.491	61796
592.495	61992
592.548	61387
592.562	60980
592.600	61644
592.633	61789
592.653	61785
592.704	60805
592.705	61145
592.775	60547
592.846	61121
592.916	61682
592.987	63036
593.058	61928
593.128	59127
593.199	59160
593.270	58792
593.341	58076
593.411	58953
593.482	61132
593.553	60942
593.623	60047
593.694	59993
593.764	61712
593.835	60571
593.906	59423
593.976	60160
594.047	60582
594.117	61852
594.188	63684
594.258	61611
594.329	59781
594.399	60033
594.470	60094
594.540	61647
594.611	62352
594.681	61827
594.751	61931
594.822	62964
594.892	64930
594.963	64879
595.033	65411
595.103	66870
595.174	68047
595.244	70069
595.314	79071
595.384	71774
595.455	69693
595.525	70582
595.595	72044
595.665	73085
595.736	70397
595.806	71801
595.876	72140
595.946	71927
596.016	71262
596.087	75048
596.157	75908
596.227	74569
596.297	76347
596.367	80262
596.437	84076
596.507	87532
596.577	91576
596.647	89278
596.717	86497
596.787	89478
596.857	89974
596.927	88269
596.997	89315
597.067	88745
597.137	91191
597.207	91624
597.277	93398
597.347	91459
597.417	90186
597.487	88062
597.557	91210
597.626	90604
597.696	93552
597.766	93883
597.836	96208
597.906	90228
597.975	82444
598.045	82179
598.115	84307
598.185	86868
598.254	94234
598.324	103198
598.394	106503
598.464	105704
598.533	101306
598.603	98529
598.672	95303
598.742	94601
598.812	94236
598.881	96450
598.951	97011
599.020	96064
599.090	98086
599.159	100218
599.229	98331
599.299	93993
599.368	96649
599.437	97790
599.507	91686
599.576	87301
599.646	87460
599.715	86790
599.785	85350
599.854	84293
599.924	83472
599.993	82530
600.062	81221
600.132	84526
600.201	85320
600.270	95299
600.340	105664
600.409	103359
600.478	102025
600.547	102076
600.617	103125
600.686	86009
600.755	77416
600.824	74221
600.894	71488
600.963	70863
601.032	68244
601.101	68196
601.170	66903
601.239	64778
601.308	65590
601.378	66991
601.447	63715
601.516	64184
601.585	66687
601.654	69726
601.723	68443
601.792	66412
601.861	68883
601.930	70925
601.999	73547
602.068	70974
602.137	73705
602.206	78098
602.275	73161
602.343	76560
602.412	78912
602.481	74511
602.550	72784
602.619	73962
602.688	76211
602.756	76290
602.825	76221
602.894	75802
602.963	77924
603.032	78508
603.100	79099
603.169	78987
603.238	79152
603.307	80301
603.375	80730
603.444	81392
603.513	82792
603.581	84137
603.650	86145
603.719	84319
603.787	83732
603.856	86205
603.924	88287
603.993	92286
604.061	92609
604.130	96632
604.198	98403
604.267	100528
604.335	102106
604.404	102985
604.472	104277
604.541	103709
604.609	105510
604.678	105781
604.746	107067
604.815	108130
604.883	112100
604.951	111470
605.020	112834
605.088	113309
605.156	115314
605.225	116145
605.293	119148
605.361	117244
605.429	118995
605.498	120364
605.566	124221
605.634	128069
605.702	131994
605.771	137395
605.839	138445
605.907	135622
605.975	131486
606.043	128579
606.111	129128
606.180	128630
606.248	127983
606.316	126482
606.384	126276
606.452	130131
606.520	135017
606.588	139075
606.656	134901
606.724	133853
606.792	126920
606.860	116188
606.928	105399
606.996	99546
607.064	96644
607.132	97594
607.200	102181
607.267	109300
607.335	109321
607.403	112316
607.471	109836
607.539	106022
607.607	109015
607.674	98984
607.742	94365
607.810	94912
607.878	95999
607.946	95428
608.013	98238
608.081	102975
608.149	104459
608.216	104748
608.284	109458
608.352	109825
608.419	111489
608.487	110256
608.555	107497
608.622	105783
608.690	110026
608.757	120808
608.825	129998
608.893	125613
608.960	123201
609.028	120939
609.095	118058
609.163	117356
609.230	108752
609.298	95835
609.365	96878
609.432	104493
609.500	112309
609.567	124958
609.635	142372
609.702	156156
609.769	156630
609.837	137220
609.904	107062
609.971	106552
610.039	116343
610.106	137764
610.173	220973
610.241	501515
610.308	713202
610.375	386453
610.442	172290
610.509	119899
610.577	109378
610.644	109167
610.711	109042
610.778	113177
610.845	115319
610.912	121603
610.980	127861
611.047	130744
611.114	127072
611.181	124403
611.248	120791
611.315	123608
611.382	128595
611.449	134114
611.516	135808
611.583	136182
611.650	135418
611.717	136468
611.784	137813
611.851	142238
611.918	152198
611.984	167595
612.051	212132
612.118	355279
612.185	857830
612.252	1237101
612.319	321427
612.386	185625
612.452	170493
612.519	161045
612.586	155830
612.653	157976
612.719	157716
612.786	158438
612.853	147803
612.919	137881
612.986	142409
613.053	137441
613.120	128493
613.186	121356
613.253	121850
613.319	120210
613.386	122371
613.453	125350
613.519	128445
613.586	128395
613.652	144954
613.719	140667
613.785	139511
613.852	128735
613.918	127153
613.985	124354
614.051	132006
614.118	133887
614.184	135148
614.250	124088
614.317	126834
614.383	125205
614.449	127836
614.516	126560
614.582	129275
614.648	127631
614.715	124208
614.781	124325
614.847	121178
614.914	124556
614.980	121872
615.046	119296
615.112	120339
615.179	123148
615.245	126317
615.311	128603
615.377	141393
615.443	163743
615.509	142756
615.575	132930
615.642	133323
615.708	130878
615.774	139790
615.840	147895
615.906	159735
615.972	185674
616.038	270637
616.104	483375
616.170	996903
616.236	1725920
616.302	527458
616.368	239862
616.434	190728
616.500	157356
616.565	158350
616.631	188028
616.697	187300
616.763	166000
616.829	197550
616.895	332628
616.961	457398
617.026	266391
617.092	148937
617.158	132300
617.224	131059
617.289	124162
617.355	116672
617.421	114610
617.487	115693
617.552	109804
617.618	108158
617.684	108695
617.749	109970
617.815	104333
617.880	102103
617.946	101088
618.012	104239
618.077	107088
618.143	103969
618.208	101384
618.274	106291
618.339	115252
618.405	102093
618.470	93725
618.536	95308
618.601	94446
618.667	93573
618.732	85445
618.798	84491
618.863	83549
618.928	81148
618.994	83606
619.059	84803
619.124	93692
619.190	95831
619.255	83431
619.320	82295
619.386	81590
619.451	81137
619.516	80339
619.581	80046
619.647	81881
619.712	84630
619.777	80051
619.842	79816
619.907	82224
619.972	80689
620.038	84313
620.103	79881
620.168	79441
620.233	80620
620.298	80320
620.363	81368
620.428	82837
620.493	84369
620.558	85124
620.623	85774
620.688	88076
620.753	84870
620.818	86321
620.883	87029
620.948	88250
621.013	87267
621.078	87538
621.143	85492
621.207	89353
621.272	86904
621.337	87056
621.402	85457
621.467	87353
621.532	91064
621.596	87928
621.661	85578
621.726	81825
621.791	82422
621.855	85075
621.920	88098
621.985	85408
622.049	87352
622.114	86969
622.179	87897
622.243	89107
622.308	91666
622.373	93428
622.437	96625
622.502	90519
622.566	87379
622.631	88172
622.695	88837
622.760	89070
622.824	88551
622.889	89715
622.953	91007
623.018	102013
623.082	120408
623.147	97277
623.211	92923
623.276	92387
623.340	90266
623.404	86118
623.469	85082
623.533	85175
623.597	85406
623.662	84475
623.726	82686
623.790	76725
623.854	74697
623.919	74621
623.983	74708
624.047	77829
624.111	77321
624.176	77763
624.240	79238
624.304	84670
624.368	81764
624.432	77396
624.496	80146
624.560	82950
624.625	90113
624.689	85729
624.753	84188
624.817	85791
624.881	80428
624.945	76697
625.009	72657
625.073	72355
625.137	76338
625.201	83277
625.265	91493
625.329	79021
625.393	77318
625.456	78514
625.520	77677
625.584	81291
625.648	84568
625.712	89409
625.776	106940
625.839	127660
625.903	103895
625.967	68508
626.031	72446
626.095	91563
626.158	89695
626.222	66970
626.286	57614
626.349	57057
626.413	54645
626.477	54809
626.540	54966
626.604	53622
626.668	52459
626.731	51155
626.795	52538
626.858	53847
626.922	52419
626.986	51085
627.049	50985
627.113	52424
627.176	51300
627.240	50032
627.303	50355
627.366	49672
627.430	51083
627.493	50984
627.557	51174
627.620	50100
627.684	50298
627.747	50852
627.810	48738
627.874	46111
627.937	42744
628.000	45449
628.064	45959
628.127	42329
628.190	39943
628.253	39860
628.317	40621
628.380	38093
628.443	36687
628.506	37827
628.569	37418
628.632	35123
628.696	34878
628.759	34756
628.822	34856
628.885	33219
628.948	33329
629.011	33839
629.074	32927
629.137	32480
629.200	30725
629.263	33385
629.326	31593
629.389	31033
629.452	30489
629.515	30097
629.578	30349
629.641	31833
629.704	31511
629.767	32270
629.830	31098
629.892	29382
629.955	29620
630.018	31056
630.081	31706
630.144	36206
630.207	34070
630.269	32431
630.332	30126
630.395	29375
630.458	27617
630.520	27199
630.583	28329
630.646	26612
630.708	27688
630.771	27042
630.834	28501
630.896	27928
630.959	27565
631.021	27204
631.084	28513
631.146	27851
631.209	29676
631.272	27647
631.334	27811
631.397	27326
631.459	28003
631.522	28772
631.584	29727
631.646	29959
631.709	30355
631.771	33703
631.834	33671
631.896	29937
631.958	27877
632.021	27631
632.083	26726
632.145	27431
632.208	27786
632.270	27538
632.332	24614
632.395	26063
632.457	27254
632.519	26252
632.581	26029
632.643	25174
632.706	25585
632.768	24308
632.830	25239
632.892	25555
632.954	25686
633.016	26436
633.078	25260
633.141	25544
633.203	25545
633.265	24816
633.327	24795
633.389	25346
633.451	26054
633.513	29134
633.575	29082
633.637	27984
633.698	29984
633.760	27099
633.822	25501
633.884	26546
633.946	25785
634.008	25712
634.070	27240
634.132	28429
634.193	29706
634.255	30154
634.317	30667
634.379	30729
634.441	29858
634.502	28460
634.564	27576
634.626	26044
634.687	24706
634.749	24187
634.811	24055
634.873	22979
634.934	23015
634.996	22902
635.057	24337
635.119	24063
635.181	23738
635.242	24086
635.304	22909
635.365	24871
635.427	24311
635.488	24134
635.550	23603
635.611	23158
635.673	22549
635.734	23891
635.796	24815
635.857	26069
635.918	27010
635.980	28142
636.041	29097
636.102	29505
636.164	30590
636.225	29593
636.286	28111
636.348	26965
636.409	24311
636.470	23166
636.531	23003
636.593	22353
636.654	23237
636.715	21149
636.776	20798
636.838	20651
636.899	20741
636.960	20337
637.021	20450
637.082	20198
637.143	19654
637.204	19714
637.265	19486
637.326	19819
637.387	19639
637.448	20021
637.509	19453
637.570	20106
637.631	19533
637.692	19013
637.753	18893
637.814	18337
637.875	18261
637.936	19636
637.997	18174
638.058	19566
638.119	19438
638.179	18774
638.240	18421
638.301	18887
638.362	17666
638.423	18005
638.483	18222
638.544	17458
638.605	17519
638.666	17195
638.726	17700
638.787	18007
638.848	17099
638.908	17469
638.969	17167
639.030	16760
639.090	16172
639.151	16846
639.211	18789
639.272	20161
639.332	26256
639.393	27517
639.453	18145
639.514	17962
639.574	17692
639.635	16255
639.695	16307
639.756	15672
639.816	17498
639.877	17802
639.937	21599
639.997	30565
640.058	23329
640.118	16058
640.178	15967
640.239	15155
640.299	15155
640.359	15109
640.420	16040
640.480	16427
640.540	17956
640.600	18329
640.661	18127
640.721	16642
640.781	19223
640.841	18176
640.901	16560
640.961	14960
641.021	15860
641.082	17734
641.142	20602
641.202	21445
641.262	14790
641.322	15177
641.382	14704
641.442	14963
641.502	13955
641.562	14328
641.622	14242
641.682	15074
641.742	16024
641.802	17058
641.861	14934
641.921	15319
641.981	15753
642.041	15444
642.101	17783
642.161	18393
642.221	13513
642.280	14127
642.340	13291
642.400	13498
642.460	14783
642.519	13777
642.579	14149
642.639	14881
642.698	13098
642.758	15247
642.818	13773
642.877	14168
642.937	15458
642.997	15729
643.056	20199
643.116	19744
643.175	14981
643.235	14665
643.294	15188
643.354	14956
643.414	15397
643.473	18442
643.532	20544
643.592	24576
643.651	36013
643.711	57945
643.770	106901
643.830	217184
643.889	665000
643.948	537966
644.008	62456
644.067	28274
644.126	22419
644.186	18490
644.245	17006
644.304	14996
644.363	15054
644.423	14368
644.482	13667
644.541	13874
644.600	14653
644.659	17145
644.719	19409
644.778	24512
644.837	35919
644.896	62605
644.955	157864
645.014	168149
645.073	28696
645.132	17353
645.191	15482
645.250	14753
645.309	14445
645.368	15104
645.427	17076
645.486	21452
645.545	42121
645.604	31307
645.663	14413
645.722	13536
645.781	14592
645.840	14498
645.898	17780
645.957	22578
646.016	32134
646.075	54207
646.134	98123
646.192	207192
646.251	613443
646.310	286444
646.369	37976
646.427	22145
646.486	19666
646.545	16181
646.603	15077
646.662	13442
646.721	12572
646.779	13009
646.838	11764
646.896	14451
646.955	18404
647.014	22771
647.072	37892
647.131	86021
647.189	134161
647.248	24138
647.306	13181
647.365	11827
647.423	10748
647.481	11068
647.540	9933
647.598	10751
647.657	10987
647.715	10082
647.773	9961
647.832	9973
647.890	9213
647.948	9646
648.007	10428
648.065	9770
648.123	9085
648.181	11037
648.240	9170
648.298	9977
648.356	9394
648.414	10151
648.472	9535
648.531	9940
648.589	9317
648.647	9210
648.705	8767
648.763	8883
648.821	9345
648.879	9363
648.937	10360
648.995	11777
649.053	13293
649.111	17352
649.169	26854
649.227	44403
649.285	82558
649.343	219761
649.401	358008
649.459	62315
649.516	39359
649.574	16520
649.632	14732
649.690	16507
649.748	16249
649.806	17826
649.863	28823
649.921	55673
649.979	108342
650.037	25456
650.094	10032
650.152	9676
650.210	8388
650.268	8280
650.325	9069
650.383	7204
650.440	8026
650.498	7900
650.556	7755
650.613	7551
650.671	8074
650.728	7993
650.786	7819
650.843	8350
650.901	9464
650.958	7366
651.016	7818
651.073	6952
651.131	6975
651.188	6204
651.246	7715
651.303	6403
651.360	6682
651.418	6476
651.475	7295
651.532	5948
651.590	7096
651.647	5986
651.704	7309
651.762	6685
651.819	7042
651.876	6081
651.933	7445
651.990	6594
652.048	6323
652.105	6504
652.162	6276
652.219	6115
652.276	6445
652.333	6996
652.390	5724
652.448	6062
652.505	5872
652.562	6346
652.619	5633
652.676	6423
652.733	7855
652.790	6590
652.847	4945
652.904	6161
652.961	5494
653.017	6021
653.074	6373
653.131	6358
653.188	5071
653.245	5466
653.302	6303
653.359	5925
653.415	6511
653.472	5372
653.529	6328
653.586	5810
653.642	5410
653.699	6153
653.756	4947
653.813	5930
653.869	5932
653.926	5659
653.983	5164
654.039	5735
654.096	5229
654.152	6582
654.209	5299
654.266	5874
654.322	5023
654.379	6124
654.435	6639
654.492	6499
654.548	7318
654.605	11124
654.661	10884
654.717	6015
654.774	5832
654.830	5723
654.887	5657
654.943	5509
655.000	6082
655.056	6088
655.112	5352
655.168	5754
655.225	6279
655.281	6045
655.337	6373
655.394	8660
655.450	8717
655.506	6821
655.562	7414
655.618	9329
655.675	5930
655.731	5614
655.787	4829
655.843	4927
655.899	4496
655.955	5771
656.011	5637
656.067	5185
656.123	5143
656.179	5477
656.235	5818
656.291	4705
656.347	5820
656.403	5254
656.459	6240
656.515	5653
656.571	6320
656.627	6357
656.683	4889
656.739	5992
656.795	5475
656.850	5262
656.906	7058
656.962	6476
657.018	5253
657.074	5265
657.129	6199
657.185	8038
657.241	11855
657.297	16287
657.352	7567
657.408	5310
657.464	6376
657.519	5986
657.575	4930
657.630	4756
657.686	5772
657.742	4591
657.797	5565
657.853	4329
657.908	6727
657.964	5492
658.019	5579
658.075	5455
658.130	5131
658.186	5021
658.241	5138
658.297	4301
658.352	4628
658.407	5885
658.463	4969
658.518	5778
658.573	5682
658.629	4467
658.684	4648
658.739	4795
658.795	4589
658.850	5980
658.905	4925
658.960	5269
659.016	4590
659.071	4969
659.126	5541
659.181	5043
659.236	7131
659.291	11086
659.346	7608
659.401	6220
659.457	5944
659.512	5262
659.567	6254
659.622	4931
659.677	5135
659.732	5194
659.787	5196
659.842	5586
659.897	5867
659.952	6189
660.007	5445
660.061	4810
660.116	4583
660.171	4688
660.226	5003
660.281	5286
660.336	4199
660.391	4563
660.445	4837
660.500	4765
660.555	4832
660.610	4275
660.664	5391
660.719	3774
660.774	5129
660.828	4983
660.883	5306
660.938	5092
660.992	4410
661.047	5105
661.101	4580
661.156	5361
661.211	4046
661.265	4453
661.320	4789
661.374	4797
661.429	4548
661.483	4467
661.538	4566
661.592	4794
661.647	5564
661.701	5336
661.755	4466
661.810	5700
661.864	3873
661.919	3854
661.973	5401
662.027	4330
662.081	4141
662.136	3803
662.190	4762
662.244	5099
662.299	4937
662.353	4565
662.407	5026
662.461	4987
662.515	5287
662.569	4789
662.624	5382
662.678	4356
662.732	3956
662.786	3864
662.840	4662
662.894	3988
662.948	4287
663.002	4592
663.056	5086
663.110	3962
663.164	4706
663.218	4675
663.272	3944
663.326	5174
663.380	4747
663.434	4870
663.488	4177
663.542	4395
663.595	4850
663.649	3088
663.703	4663
663.757	4523
663.811	3940
663.864	4351
663.918	5462
663.972	4532
664.026	4223
664.079	4200
664.133	4916
664.187	4132
664.240	4147
664.294	4857
664.348	5213
664.401	3941
664.455	4647
664.508	4136
664.562	4417
664.615	4474
664.669	3994
664.722	4322
664.776	3625
664.829	4489
664.883	4499
664.936	4535
664.990	4487
665.043	4818
665.097	4750
665.150	5604
665.203	4537
665.257	5400
665.310	5577
665.363	4569
665.417	4336
665.470	5111
665.523	4342
665.576	5032
665.630	4725
665.683	4735
665.736	4867
665.789	5615
665.842	4789
665.895	4843
665.949	5698
666.002	4263
666.055	4080
666.108	5072
666.161	5117
666.214	5467
666.267	4802
666.320	6079
666.373	6016
666.426	4560
666.479	4498
666.532	4542
666.585	5007
666.638	5726
666.691	4974
666.744	5390
666.796	4961
666.849	5569
666.902	5316
666.955	5198
667.008	4995
667.060	3856
667.113	3286
667.166	4032
667.219	4426
667.271	4218
667.324	4521
667.377	4593
667.430	5713
667.482	4260
667.535	4828
667.587	4620
667.640	5720
667.693	5934
667.745	7202
667.798	10762
667.850	6239
667.903	4835
667.955	5716
668.008	4785
668.060	4813
668.113	4405
668.165	5599
668.218	5178
668.270	5183
668.322	4365
668.375	4485
668.427	4682
668.479	4676
668.532	4967
668.584	4376
668.636	4413
668.689	5276
668.741	4939
668.793	4799
668.845	4474
668.898	4761
668.950	4116
669.002	4880
669.054	4287
669.106	5169
669.158	5684
669.211	4433
669.263	4375
669.315	5041
669.367	5575
669.419	5379
669.471	6416
669.523	5806
669.575	6397
669.627	7220
669.679	6384
669.731	5927
669.783	6061
669.835	5682
669.886	6441
669.938	5761
669.990	6258
670.042	5593
670.094	6553
670.146	6937
670.197	7886
670.249	9278
670.301	10124
670.353	12379
670.404	16832
670.456	23762
670.508	38724
670.560	64057
670.611	108431
670.663	188066
670.715	350094
670.766	754013
670.818	661250
670.869	157863
670.921	48927
670.972	29549
671.024	21316
671.075	14715
671.127	12364
671.178	9823
671.230	9348
671.281	9024
671.333	7365
671.384	7388
671.436	8151
671.487	9174
671.538	9156
671.590	11577
671.641	15721
671.692	22342
671.744	43573
671.795	60711
671.846	26481
671.897	11611
671.949	8796
672.000	7306
672.051	6226
672.102	5886
672.153	5345
672.204	5663
672.256	5429
672.307	4192
672.358	5095
672.409	5181
672.460	4822
672.511	4953
672.562	4923
672.613	5410
672.664	4694
672.715	4717
672.766	4873
672.817	3981
672.868	3676
672.919	3849
672.970	3567
673.021	3591
673.071	3809
673.122	4382
673.173	4599
673.224	4171
673.275	4735
673.326	4460
673.376	3385
673.427	3458
673.478	3378
673.528	4429
673.579	3528
673.630	4179
673.680	4230
673.731	3711
673.782	3865
673.832	3795
673.883	3729
673.934	3938
673.984	3975
674.035	4023
674.085	3388
674.136	4020
674.186	3332
674.237	4324
674.287	5362
674.338	5111
674.388	4561
674.438	3520
674.489	4300
674.539	3622
674.589	3748
674.640	4041
674.690	3648
674.740	3856
674.791	3745
674.841	3798
674.891	3930
674.942	4242
674.992	4012
675.042	3964
675.092	2734
675.142	3371
675.193	2964
675.243	2958
675.293	3463
675.343	3429
675.393	3896
675.443	4218
675.493	3297
675.543	2989
675.593	3559
675.643	4418
675.693	3068
675.743	4006
675.793	3516
675.843	2075
675.893	4034
675.943	3685
675.993	2704
676.043	3776
676.093	3848
676.142	3129
676.192	3112
676.242	2986
676.292	3198
676.341	3539
676.391	3454
676.441	3350
676.491	2724
676.540	3040
676.590	2882
676.640	3218
676.689	3427
676.739	2862
676.789	3105
676.838	3730
676.888	2812
676.937	2554
676.987	3450
677.037	3100
677.086	2001
677.136	2755
677.185	2669
677.235	3228
677.284	2190
677.333	2429
677.383	3103
677.432	2562
677.482	2728
677.531	2507
677.580	2521
677.630	3103
677.679	2592
677.728	2417
677.778	2307
677.827	2071
677.876	2643
677.925	2550
677.975	2666
678.024	3356
678.073	2336
678.122	2909
678.171	3217
678.220	3502
678.269	3585
678.319	3346
678.368	3543
678.417	2987
678.466	2893
678.515	3183
678.564	2709
678.613	2461
678.662	3303
678.711	3298
678.760	2905
678.809	2765
678.857	3138
678.906	2486
678.955	2938
679.004	2692
679.053	2723
679.102	2588
679.151	2776
679.199	2334
679.248	2457
679.297	2753
679.346	2432
679.394	3166
679.443	3167
679.492	2881
679.540	1823
679.589	3135
679.638	2520
679.686	2871
679.735	2272
679.784	3314
679.832	2306
679.881	2665
679.929	3048
679.978	2564
680.026	2095
680.075	2581
680.123	2089
680.172	2671
680.220	1548
680.268	2222
680.317	2107
680.365	2492
680.414	1672
680.462	2096
680.510	2884
680.559	2348
680.607	1529
680.655	1955
680.703	1971
680.752	2427
680.800	2479
680.848	1645
680.896	2489
680.945	2502
680.993	2504
681.041	2897
681.089	2170
681.137	2220
681.185	1699
681.233	2885
681.258	2130
681.281	1383
681.329	2296
681.377	1957
681.380	2014
681.425	2394
681.473	2755
681.502	2888
681.521	2922
681.569	2773
681.617	3203
681.624	3227
681.665	3108
681.713	2599
681.745	3216
681.761	3457
681.809	3361
681.857	3704
681.867	3488
681.904	2607
681.952	3034
681.989	3215
682.000	3216
682.048	3220
682.096	2804
682.111	2940
682.143	3163
682.191	3748
682.233	3346
682.239	3244
682.286	3416
682.334	3773
682.354	3505
682.382	3079
682.430	3312
682.476	4228
682.477	4216
682.525	4430
682.572	2965
682.598	3393
682.620	3712
682.667	3950
682.715	3663
682.720	3754
682.763	4309
682.810	4397
682.841	4365
682.857	4298
682.905	3741
682.952	4665
682.963	4525
683.000	3920
683.047	4774
683.085	5340
683.095	5451
683.142	4708
683.190	4235
683.206	4254
683.237	4250
683.284	5200
683.328	5356
683.332	5339
683.379	5072
683.426	5279
683.449	5100
683.473	4872
683.521	5456
683.568	5036
683.571	5063
683.615	5132
683.662	5740
683.693	5328
683.709	5040
683.757	5571
683.804	5788
683.814	5779
683.851	5684
683.898	6251
683.936	5698
683.945	5523
683.992	6439
684.039	6285
684.057	6174
684.086	6005
684.133	5904
684.179	5809
684.180	5781
684.227	6436
684.274	6805
684.300	6688
684.321	6577
684.368	6735
684.415	6923
684.422	6966
684.462	7025
684.509	6538
684.543	6703
684.556	6768
684.603	6715
684.649	7031
684.665	7120
684.696	7181
684.743	6645
684.786	6375
684.790	6343
684.837	6832
684.883	7519
684.908	7506
684.930	7497
684.977	8240
685.023	7456
685.029	7583
685.070	8241
685.117	7813
685.150	8155
685.164	8286
685.210	8011
685.257	8402
685.272	8472
685.303	8582
685.350	8100
685.393	8244
685.396	8239
685.443	7998
685.490	8755
685.514	8781
685.536	8788
685.583	8940
685.629	8547
685.636	8591
685.675	8676
685.722	9006
685.757	8439
685.768	8264
685.815	8812
685.861	9218
685.878	8975
685.908	8603
685.954	8771
686.000	9193
686.000	9190
686.047	9371
686.093	9689
686.121	10022
686.139	10245
686.185	9863
686.232	10285
686.242	10245
686.278	9839
686.324	9884
686.363	9359
686.370	9269
686.416	9176
686.463	9654
686.484	9752
686.509	9921
686.555	9728
686.601	9947
686.606	9971
686.647	10015
686.693	10085
686.727	9677
686.739	9565
686.785	9916
686.831	9891
686.848	9838
686.877	9696
686.923	10140
686.969	10192
686.969	10190
687.015	9833
687.061	10363
687.090	10477
687.107	10555
687.153	10314
687.199	10720
687.211	10591
687.245	10131
687.291	10299
687.332	10647
687.336	10709
687.382	10475
687.428	10844
687.453	11017
687.474	10982
687.520	10660
687.565	10797
687.574	10713
687.611	10600
687.657	10685
687.695	10845
687.702	10878
687.748	11154
687.794	11305
687.816	11341
687.839	11348
687.885	11435
687.931	11138
687.937	11152
687.976	11075
688.022	11256
688.058	10960
688.067	10980
688.113	11264
688.158	11684
688.179	11846
688.204	11839
688.249	11000
688.295	11390
688.300	11366
688.340	11534
688.386	11933
688.421	11786
688.431	11714
688.477	11490
688.522	11828
688.542	11847
688.567	11895
688.613	12099
688.658	12250
688.663	12197
688.703	11924
688.749	11933
688.784	12346
688.794	12465
688.839	12293
688.884	12429
688.905	12254
688.930	12017
688.975	12177
689.020	12373
689.026	12414
689.065	12782
689.110	12308
689.146	12497
689.155	12569
689.201	12595
689.246	12064
689.267	12016
689.291	12039
689.336	12621
689.381	12483
689.388	12494
689.426	12594
689.471	12372
689.509	12753
689.516	12821
689.561	12829
689.606	12719
689.630	12533
689.651	12395
689.696	12490
689.741	12628
689.750	12567
689.785	12569
689.830	12838
689.871	12873
689.875	12865
689.920	12700
689.965	12818
689.992	12321
690.010	12101
690.054	12679
690.099	12550
690.112	12564
690.144	12702
690.189	12486
690.233	12721
690.233	12739
690.278	12626
690.323	12795
690.354	12768
690.367	12798
690.412	12877
690.457	12672
690.474	12769
690.501	12950
690.546	12620
690.590	13183
690.595	13111
690.635	12839
690.680	13088
690.716	13225
690.724	13257
690.769	13594
690.813	13822
690.836	13857
690.857	14058
690.902	14122
690.946	14567
690.957	14654
690.991	15324
691.035	16234
691.077	16934
691.080	17041
691.124	18872
691.168	20024
691.198	21022
691.213	20500
691.257	18680
691.301	17263
691.318	16587
691.346	16236
691.390	15406
691.434	14957
691.439	14844
691.478	14723
691.522	14904
691.559	14608
691.567	14614
691.611	15264
691.655	15256
691.680	15335
691.699	15304
691.743	15341
691.787	15065
691.800	14972
691.831	14948
691.875	14844
691.919	15218
691.921	15193
691.964	15498
692.008	15877
692.041	15748
692.052	15634
692.096	15725
692.139	15253
692.162	15137
692.183	15205
692.227	15385
692.271	15452
692.282	15379
692.315	15239
692.359	15284
692.402	15443
692.403	15475
692.447	15474
692.490	15758
692.523	16006
692.534	16044
692.578	15733
692.622	15601
692.643	15584
692.666	15751
692.709	15727
692.753	15993
692.763	15980
692.797	15986
692.840	16063
692.884	16058
692.884	16090
692.928	16171
692.971	16099
693.004	15776
693.015	15706
693.059	15797
693.102	15821
693.124	15777
693.146	15838
693.189	15674
693.233	15815
693.245	15719
693.276	15860
693.320	16499
693.363	16559
693.365	16546
693.407	17002
693.450	17085
693.485	17131
693.493	17147
693.537	17173
693.580	17173
693.605	17153
693.624	17388
693.667	17830
693.710	18255
693.725	18339
693.753	19691
693.797	21973
693.840	24295
693.845	24501
693.883	27730
693.926	31253
693.966	34557
693.970	34163
694.013	29206
694.056	24306
694.086	20917
694.099	20604
694.142	19313
694.185	18220
694.206	17495
694.229	17355
694.272	17338
694.315	17423
694.326	17371
694.358	17541
694.401	17539
694.444	17735
694.446	17700
694.487	17863
694.530	17919
694.566	17967
694.573	17957
694.616	17674
694.659	17327
694.686	17172
694.702	17140
694.745	17036
694.787	16389
694.806	16301
694.830	16453
694.873	16520
694.916	16520
694.926	16485
694.959	16505
695.002	16525
695.044	16272
695.046	16237
695.087	16849
695.130	17372
695.166	17579
695.172	17593
695.215	17687
695.258	17592
695.286	17392
695.301	17441
695.343	17623
695.386	17973
695.406	17993
695.428	17918
695.471	17709
695.514	17513
695.526	17450
695.556	17753
695.599	18146
695.641	18342
695.646	18335
695.684	18681
695.726	18979
695.766	18936
695.769	18937
695.811	18698
695.854	18332
695.886	17917
695.896	17959
695.938	18033
695.981	18159
696.005	18059
696.023	18013
696.065	18062
696.108	18024
696.125	17954
696.150	18335
696.192	18920
696.235	19446
696.245	19526
696.277	19695
696.319	20074
696.361	20176
696.365	20141
696.404	20017
696.446	19875
696.485	19654
696.488	19691
696.530	19608
696.572	19353
696.604	19190
696.614	19310
696.656	19653
696.698	19957
696.724	19998
696.740	19792
696.783	19188
696.825	18814
696.844	18498
696.867	18693
696.909	18906
696.951	19271
696.964	19354
696.992	19440
697.034	19296
697.076	19306
697.083	19225
697.118	19231
697.160	19428
697.202	19531
697.203	19483
697.244	19609
697.286	19676
697.323	19688
697.327	19711
697.369	19496
697.411	19262
697.442	19028
697.453	19047
697.494	18895
697.536	18767
697.562	18680
697.578	18915
697.620	19315
697.661	19728
697.682	19889
697.703	19981
697.744	20049
697.786	20224
697.801	20175
697.828	20696
697.869	21480
697.911	22295
697.921	22429
697.952	21625
697.994	20525
698.035	19379
698.040	19191
698.077	19494
698.118	19777
698.160	20059
698.160	20007
698.201	20113
698.243	20209
698.279	20258
698.284	20324
698.325	20372
698.367	20482
698.399	20444
698.408	20533
698.449	20724
698.491	20930
698.518	21010
698.532	20949
698.573	20564
698.614	20189
698.638	19920
698.656	20234
698.697	20847
698.738	21453
698.757	21674
698.779	21564
698.820	21254
698.862	20955
698.877	20785
698.903	21198
698.944	21765
698.985	22341
698.996	22441
699.026	22128
699.067	21614
699.116	20944
699.235	20680
699.354	21019
699.474	21070
699.593	20014
699.713	21278
699.832	20203
699.951	21210
700.070	21284
700.190	20048
700.309	20081
700.428	19812
700.547	19316
700.667	19719
700.786	19753
700.905	19650
701.024	19280
701.143	19595
701.262	19397
701.381	19128
701.500	18944
701.619	20981
701.738	19041
701.857	18411
701.976	19572
702.095	18708
702.214	19054
702.333	18695
702.452	19479
702.571	19096
702.690	19022
702.809	18773
702.928	19447
703.047	18114
703.165	18622
703.284	18558
703.403	17335
703.522	17236
703.640	18795
703.759	18204
703.878	19769
703.997	19548
704.115	17575
704.234	17844
704.353	17671
704.471	17835
704.590	16871
704.708	16771
704.827	16683
704.946	16953
705.064	17191
705.183	17100
705.301	17587
705.420	20340
705.538	22741
705.656	19902
705.775	19253
705.893	19497
706.012	22649
706.130	20264
706.249	19215
706.367	18985
706.485	20651
706.604	19993
706.722	18945
706.840	19989
706.958	20135
707.077	20664
707.195	18821
707.313	18188
707.431	17274
707.549	17532
707.668	18584
707.786	17733
707.904	18058
708.022	17709
708.140	17355
708.258	16783
708.376	17841
708.494	16740
708.612	17609
708.730	19711
708.848	24284
708.966	20796
709.084	19937
709.202	19588
709.320	19742
709.438	20344
709.556	19442
709.674	20375
709.791	19584
709.909	18765
710.027	19032
710.145	19853
710.263	18908
710.380	19327
710.498	19050
710.616	18907
710.733	18824
710.851	18341
710.969	17916
711.086	18451
711.204	18552
711.322	17084
711.439	18332
711.557	17991
711.674	17014
711.792	16814
711.909	17292
712.027	17817
712.144	16950
712.262	16701
712.379	17652
712.497	19665
712.614	25249
712.732	22349
712.849	20341
712.966	18517
713.084	20379
713.201	22145
713.318	20061
713.436	21669
713.553	20079
713.670	19799
713.787	20789
713.905	20956
714.022	19427
714.139	18873
714.256	21030
714.373	21556
714.490	25565
714.608	36137
714.725	93352
714.842	332665
714.959	102569
715.076	22833
715.193	20108
715.310	19327
715.427	18130
715.544	17914
715.661	17654
715.778	17996
715.895	17292
716.011	17952
716.128	18382
716.245	17606
716.362	17756
716.479	18531
716.596	16858
716.713	17108
716.829	16494
716.946	16981
717.063	16492
717.180	16291
717.296	15898
717.413	16520
717.530	16558
717.646	16047
717.763	15123
717.880	15732
717.996	14941
718.113	15356
718.229	14485
718.346	15974
718.462	14378
718.579	15124
718.695	16842
718.812	19968
718.928	16324
719.045	15815
719.161	13150
719.277	14694
719.394	14159
719.510	14203
719.626	14290
719.743	16031
719.859	17301
719.975	19342
720.092	33625
720.208	112961
720.324	101353
720.440	18694
720.557	15474
720.673	15833
720.789	18109
720.905	21089
721.021	23832
721.137	14951
721.253	13610
721.369	13130
721.486	13470
721.602	13741
721.718	14772
721.834	12470
721.950	12550
722.066	12369
722.181	12212
722.297	12450
722.413	12098
722.529	12828
722.645	12722
722.761	11740
722.877	12163
722.993	12209
723.108	12345
723.224	13082
723.340	12685
723.456	12237
723.571	11285
723.687	11200
723.803	11871
723.918	12208
724.034	12143
724.150	11687
724.265	11098
724.381	12174
724.497	15957
724.612	12389
724.728	11440
724.843	10492
724.959	11599
725.074	11526
725.190	16396
725.305	12812
725.421	11605
725.536	11537
725.651	11245
725.767	10467
725.882	10704
725.997	10030
726.113	10955
726.228	10509
726.343	10242
726.459	9821
726.574	10673
726.689	11082
726.804	10148
726.920	10287
727.035	10966
727.150	10683
727.265	10570
727.380	9629
727.495	10534
727.610	10584
727.725	10120
727.841	10291
727.956	9413
728.071	11123
728.186	11107
728.301	9668
728.416	9315
728.531	9863
728.645	9726
728.760	9099
728.875	10160
728.990	8890
729.105	9350
729.220	8930
729.335	10255
729.449	9736
729.564	8914
729.679	8319
729.794	9185
729.908	11055
730.023	9503
730.138	9070
730.253	9055
730.367	9085
730.482	8333
730.596	8061
730.711	9196
730.826	10289
730.940	9778
731.055	8756
731.169	9222
731.284	8806
731.398	8657
731.513	9416
731.627	8701
731.742	9750
731.856	9965
731.970	9400
732.085	9092
732.199	10724
732.313	11925
732.428	17381
732.542	39644
732.656	87471
732.771	25764
732.885	11844
732.999	10343
733.113	11432
733.227	11013
733.342	10432
733.456	10679
733.570	10360
733.684	9335
733.798	9928
733.912	9665
734.026	9450
734.140	9505
734.254	10041
734.368	9853
734.482	12773
734.596	10222
734.710	9043
734.824	9563
734.938	9349
735.052	8800
735.166	9224
735.280	9379
735.393	8868
735.507	9764
735.621	9488
735.735	10323
735.849	11415
735.962	8727
736.076	8575
736.190	9273
736.303	9429
736.417	10733
736.531	9915
736.644	8701
736.758	8660
736.872	8597
736.985	8746
737.099	8319
737.212	8414
737.326	8460
737.439	6819
737.553	8905
737.666	7867
737.780	7930
737.893	7546
738.007	7764
738.120	8455
738.233	9045
738.347	7849
738.460	8539
738.573	8296
738.687	7750
738.800	8032
738.913	7642
739.026	8646
739.140	8046
739.253	6201
739.366	7432
739.479	7983
739.592	7469
739.705	7303
739.818	7726
739.932	7838
740.045	7533
740.158	8159
740.271	7657
740.384	8145
740.497	7273
740.610	7433
740.723	7179
740.836	7659
740.949	7818
741.062	8181
741.174	8993
741.287	7383
741.400	7124
741.513	7506
741.626	7292
741.739	7887
741.851	7462
741.964	7851
742.077	7630
742.189	6861
742.302	7317
742.415	8013
742.527	6440
742.640	7307
742.753	6835
742.865	6522
742.978	7304
743.090	6496
743.203	6164
743.316	7216
743.428	6219
743.541	6548
743.653	6752
743.766	6515
743.878	7131
743.990	7155
744.103	7741
744.215	7211
744.327	6174
744.440	6817
744.552	7565
744.664	7279
744.777	6620
744.889	6489
745.001	6349
745.113	6290
745.226	6832
745.338	6424
745.450	5871
745.562	6135
745.674	6770
745.786	6494
745.898	6455
746.010	5354
746.122	6020
746.234	6154
746.347	6155
746.459	6351
746.570	5804
746.682	5968
746.794	5761
746.906	6108
747.018	5934
747.130	6201
747.242	5931
747.354	5868
747.466	6214
747.577	5734
747.689	6581
747.801	5597
747.913	5009
748.024	5637
748.136	5496
748.248	5481
748.359	6016
748.471	5960
748.583	4948
748.694	4557
748.806	6165
748.918	5379
749.029	5626
749.141	6675
749.252	6524
749.364	5592
749.475	6588
749.587	7724
749.698	5787
749.809	4734
749.921	5627
750.032	4259
750.144	5497
750.255	5587
750.366	4899
750.478	5548
750.589	5245
750.700	5222
750.811	5917
750.923	4876
751.034	6211
751.145	9257
751.256	7153
751.367	4965
751.479	4873
751.590	4412
751.701	5129
751.812	4574
751.923	4629
752.034	5398
752.145	4905
752.256	5206
752.367	4943
752.478	5096
752.589	5405
752.700	5034
752.811	4950
752.922	4625
753.032	4932
753.143	5907
753.254	5179
753.365	5841
753.476	5103
753.586	4302
753.697	5089
753.808	4774
753.919	4060
754.029	4741
754.140	4386
754.251	4373
754.361	4569
754.472	4403
754.582	5141
754.693	4195
754.804	4449
754.914	4553
755.025	5091
755.135	4149
755.246	5102
755.356	4338
755.466	4232
755.577	5065
755.687	4846
755.798	4243
755.908	4538
756.018	4075
756.129	4614
756.239	4549
756.349	4644
756.460	4144
756.570	5076
756.680	4493
756.790	5386
756.900	5505
757.011	4990
757.121	5084
757.231	4224
757.341	3996
757.451	4738
757.561	3964
757.671	4405
757.781	5063
757.891	4797
758.001	3807
758.111	4470
758.221	4719
758.331	5049
758.441	5643
758.551	4525
758.661	5569
758.771	5015
758.880	4372
758.990	4503
759.100	5175
759.210	3906
759.320	5171
759.429	4229
759.539	5076
759.649	4273
759.758	4670
759.868	4690
759.978	4462
760.087	5483
760.197	4427
760.307	5091
760.416	4548
760.526	4267
760.635	4806
760.745	5026
760.854	5219
760.964	4348
761.073	5256
761.182	5650
761.292	4843
761.401	5392
761.511	4956
761.620	5438
761.729	4824
761.839	5312
761.948	4954
762.057	4460
762.166	5507
762.276	4136
762.385	5439
762.494	5285
762.603	4899
762.712	4459
762.822	5411
762.931	5182
763.040	4601
763.149	5276
763.258	5508
763.367	5646
763.476	4990
763.585	5175
763.694	5825
763.803	5568
763.912	5560
764.021	5849
764.130	5132
764.238	6310
764.347	6180
764.456	5362
764.565	6403
764.674	7132
764.783	7215
764.891	6424
765.000	7243
765.109	8222
765.217	8198
765.326	8419
765.435	10164
765.543	12009
765.652	12622
765.761	15057
765.869	19646
765.978	27557
766.086	41863
766.195	74344
766.303	153097
766.412	384318
766.520	671340
766.629	448626
766.737	149205
766.846	66660
766.954	40331
767.062	29562
767.171	22255
767.279	18061
767.387	14135
767.496	11501
767.604	10642
767.712	9508
767.820	8646
767.928	9641
768.037	9007
768.145	8557
768.253	7889
768.361	7293
768.469	7478
768.577	7844
768.685	8000
768.793	8169
768.901	8150
769.009	8973
769.117	9513
769.225	10606
769.333	13371
769.441	19427
769.549	30971
769.657	57610
769.765	142265
769.873	412316
769.981	489117
770.088	156117
770.196	49773
770.304	27541
770.412	19319
770.519	15105
770.627	12476
770.735	10694
770.842	9697
770.950	7869
771.058	7791
771.165	6883
771.273	7172
771.380	7007
771.488	6938
771.595	7342
771.703	6808
771.810	6776
771.918	6127
772.025	6147
772.133	7040
772.240	6327
772.348	6481
772.455	6468
772.562	6319
772.670	6286
772.777	6534
772.884	6064
772.991	6477
773.099	5243
773.206	6144
773.313	5779
773.420	5247
773.528	5470
773.635	5445
773.742	5988
773.849	6013
773.956	5132
774.063	4903
774.170	5340
774.277	4627
774.384	5713
774.491	5502
774.598	5966
774.705	5056
774.812	5232
774.919	6772
775.026	5149
775.133	5404
775.239	5281
775.346	5223
775.453	4945
775.560	4952
775.667	4304
775.773	4700
775.880	4834
775.987	4656
776.093	4553
776.200	5339
776.307	4447
776.413	4323
776.520	4405
776.627	5139
776.733	3366
776.840	3852
776.946	4453
777.053	4631
777.159	4398
777.266	4510
777.372	4583
777.478	4946
777.585	5119
777.691	4188
777.798	5269
777.904	4961
778.010	5083
778.117	5789
778.223	4778
778.329	4774
778.435	4229
778.542	4725
778.648	4685
778.754	3738
778.860	4326
778.966	4304
779.072	4437
779.178	3697
779.284	4076
779.391	3639
779.497	4042
779.603	5411
779.708	4534
779.815	5796
779.920	8871
780.026	26381
780.132	26395
780.238	4852
780.344	4837
780.450	4746
780.556	5163
780.661	4233
780.767	4482
780.873	4329
780.979	4137
781.085	4019
781.190	4095
781.296	3459
781.402	3515
781.507	3937
781.613	3432
781.719	3056
781.824	3405
781.930	3509
782.035	3767
782.141	4004
782.246	3642
782.352	3455
782.457	3821
782.563	3261
782.668	3758
782.773	3677
782.879	3161
782.984	3880
783.090	4082
783.195	4922
783.300	4924
783.405	3539
783.511	2848
783.616	3292
783.721	4230
783.826	3448
783.932	3125
784.037	4131
784.142	3552
784.247	3477
784.352	4237
784.457	3299
784.562	3275
784.667	3974
784.772	4171
784.877	3015
784.982	3635
785.087	4162
785.192	3338
785.297	3112
785.402	3199
785.507	3377
785.611	3590
785.716	3605
785.821	3306
785.926	3588
786.031	3195
786.135	2968
786.240	3071
786.345	3179
786.450	2746
786.554	3096
786.659	3004
786.763	2905
786.868	3368
786.973	3277
787.077	2934
787.182	3488
787.286	3181
787.391	2913
787.495	2933
787.600	2747
787.704	2281
787.809	3885
787.913	3148
788.017	3636
788.122	2929
788.226	2994
788.330	2154
788.435	2630
788.539	2283
788.643	3038
788.747	2638
788.852	3057
788.956	2947
789.060	2641
789.164	3408
789.268	2725
789.372	3217
789.476	1768
789.580	2562
789.684	3091
789.788	2261
789.892	3026
789.996	3452
790.100	2906
790.204	2917
790.308	2067
790.412	2802
790.516	3256
790.620	2082
790.724	2663
790.828	3309
790.931	2996
791.035	2850
791.139	2860
791.242	2285
791.346	2867
791.450	2401
791.554	3074
791.657	2644
791.761	2848
791.864	2975
791.968	3118
792.072	2669
792.175	2938
792.279	2773
792.382	2917
792.486	2365
792.589	2439
792.693	2810
792.796	2601
792.899	3013
793.003	2815
793.106	3339
793.209	2624
793.313	3119
793.416	1801
793.519	2451
793.623	3217
793.726	2985
793.829	3557
793.932	2579
794.035	1443
794.138	2715
794.242	2336
794.345	2671
794.448	3041
794.551	3895
794.654	5486
794.757	11651
794.860	14320
794.963	3675
795.066	2668
795.169	2760
795.272	2295
795.375	2312
795.477	2569
795.580	2562
795.683	2536
795.786	2447
795.889	2508
795.991	3898
796.094	2498
796.197	2382
796.300	2290
796.402	1902
796.505	2667
796.608	2234
796.710	2716
796.813	1997
796.915	2135
797.018	2582
797.120	2153
797.223	2335
797.326	2347
797.428	1652
797.530	2972
797.633	2838
797.735	2677
797.838	2005
797.940	3380
798.042	2502
798.145	1928
798.247	1706
798.349	2023
798.452	2574
798.554	1480
798.656	1932
798.758	2473
798.860	1570
798.962	2070
799.065	2114
799.167	2033
799.269	2238
799.371	2560
799.473	2150
799.575	1709
799.677	2015
799.779	2205
799.881	1821
799.983	3293
800.085	2409
800.187	1850
800.289	1819
800.390	1011
800.492	1636
800.594	1845
800.696	1844
800.798	1966
800.899	1201
801.001	1743
801.103	1396
801.205	1820
801.306	1735
801.408	2225
801.509	2186
801.611	1314
801.713	1515
801.814	1281
801.916	1921
802.017	1815
802.119	1214
802.220	1556
802.322	1654
802.423	1997
802.525	1904
802.626	1670
802.727	982
802.829	1920
802.930	967
803.031	2202
803.133	1632
803.234	719
803.335	1410
803.436	1661
803.538	1190
803.639	1081
803.740	1966
803.841	1049
803.942	824
804.043	1861
804.144	1549
804.245	1922
804.346	1459
804.447	1181
804.548	1579
804.649	2327
804.750	2026
804.851	1676
804.952	1499
805.053	1246
805.154	1123
805.255	2426
805.355	1458
805.456	1364
805.557	1844
805.658	1109
805.758	2271
805.859	1491
805.960	895
806.061	1557
806.161	2029
806.262	1271
806.362	1008
806.463	1642
806.564	1956
806.664	1060
806.765	1219
806.865	2164
806.966	1253
807.066	1469
807.166	1816
807.267	1596
807.367	1245
807.468	1897
807.568	1204
807.668	1807
807.769	1428
807.869	1913
807.969	1221
808.069	1461
808.170	1478
808.270	1744
808.370	976
808.470	1420
808.570	641
808.670	839
808.770	1177
808.870	586
808.970	1029
809.070	1426
809.170	1223
809.271	1832
809.370	948
809.470	1281
809.570	1344
809.670	1775
809.770	1876
809.870	1070
809.970	1793
810.070	683
810.169	1414
810.269	285
810.369	2323
810.469	1245
810.568	1267
810.668	870
810.768	1629
810.867	1855
810.967	1217
811.066	1465
811.166	1168
811.265	1103
811.365	1325
811.464	1555
811.564	1094
811.663	1982
811.763	1430
811.862	1753
811.962	1489
812.061	1366
812.160	1432
812.260	683
812.359	1056
812.458	1812
812.557	3878
812.657	9647
812.756	8356
812.855	2337
812.954	1594
813.053	1150
813.153	1049
813.252	1814
813.351	1147
813.450	1398
813.549	1710
813.648	1405
813.747	1317
813.846	841
813.945	1953
814.044	1759
814.143	1849
814.242	1250
814.341	1559
814.439	2028
814.538	1388
814.637	1150
814.736	833
814.835	2017
814.933	1458
815.032	1705
815.131	2019
815.229	2028
815.328	2408
815.427	2902
815.525	1929
815.624	2777
815.722	1460
815.821	2422
815.919	2763
816.018	2953
816.116	2904
816.215	2664
816.313	3198
816.412	2509
816.510	2668
816.609	3649
816.707	3660
816.805	3073
816.904	2811
817.002	3931
817.100	4028
817.198	4420
817.296	4174
817.395	4478
817.493	4353
817.591	5075
817.689	6557
817.787	7157
817.885	9170
817.983	15955
818.081	29058
818.179	63069
818.277	152216
818.375	313021
818.473	174723
818.571	46757
818.669	22812
818.767	16755
818.865	14063
818.963	15869
819.061	19280
819.158	30947
819.256	54735
819.354	115961
819.452	261211
819.549	409590
819.647	199909
819.745	63963
819.842	30013
819.940	19810
820.038	13619
820.135	11008
820.233	9297
820.330	6473
820.428	5715
820.525	6187
820.623	4968
820.720	4145
820.818	3699
820.915	4286
821.012	3724
821.110	3621
821.207	3161
821.304	2934
821.402	2740
821.499	3825
821.596	2570
821.693	2549
821.791	3308
821.888	2626
821.985	3327
822.082	4627
822.179	2756
822.276	2559
822.373	3099
822.470	2206
822.567	1921
822.664	1758
822.761	1837
822.858	1752
822.955	1734
823.052	2168
823.149	2101
823.246	1570
823.343	2607
823.440	1350
823.536	1261
823.633	2570
823.730	1770
823.827	1313
823.923	1627
824.020	2338
824.117	1748
824.213	843
824.310	2618
824.407	1902
824.503	1010
824.600	2488
824.696	1390
824.793	2079
824.889	1813
824.986	1341
825.082	882
825.179	1405
825.275	1413
825.371	1890
825.468	1445
825.564	1163
825.660	2021
825.757	1797
825.853	2084
825.949	1440
826.045	1047
826.142	1052
826.238	1257
826.334	1668
826.430	1274
826.526	1446
826.622	1215
826.718	1078
826.814	1256
826.910	1857
827.006	863
827.102	633
827.198	1561
827.294	912
827.390	1814
827.486	2004
827.582	1058
827.678	960
827.774	1513
827.869	1506
827.965	1559
828.061	1275
828.157	1404
828.252	766
828.348	715
828.444	737
828.539	916
828.635	869
828.731	1577
828.826	1198
828.922	1596
829.017	1222
829.113	997
829.208	1051
829.304	502
829.399	1729
829.495	1169
829.590	1517
829.685	278
829.781	1094
829.876	967
829.971	1142
830.066	1053
830.162	1018
830.257	454
830.352	1049
830.447	1720
830.543	417
830.638	918
830.733	1496
830.828	1160
830.923	1006
831.018	457
831.113	675
831.208	1409
831.303	1013
831.398	762
831.493	694
831.588	1784
831.683	833
831.778	697
831.873	215
831.967	1384
832.062	1034
832.157	615
832.252	773
832.346	1078
832.441	488
832.536	982
832.631	2139
832.725	3729
832.820	2078
832.914	627
833.009	790
833.104	995
833.198	1557
833.293	693
833.387	710
833.482	705
833.576	601
833.670	777
833.765	865
833.859	1153
833.954	1259
834.048	1409
834.142	1195
834.237	704
834.331	707
834.425	458
834.519	881
834.613	1629
834.708	633
834.802	433
834.896	302
834.990	72
835.084	1899
835.178	237
835.272	654
835.366	215
835.460	1045
835.554	1212
835.648	678
835.742	431
835.836	428
835.930	-160
836.024	522
836.117	608
836.211	984
836.305	1271
836.399	2296
836.493	549
836.586	1511
836.680	974
836.774	709
836.867	428
836.961	265
837.055	929
837.148	640
837.242	1005
837.335	856
837.429	902
837.522	1336
837.616	134
837.709	563
837.803	2190
837.896	1138
837.989	518
838.083	1805
838.176	940
838.269	2590
838.363	1441
838.456	260
838.549	1247
838.642	1604
838.735	2216
838.829	4210
838.922	2131
839.015	835
839.108	166
839.201	630
839.294	966
839.387	885
839.480	120
839.573	85
839.666	640
839.759	985
839.852	342
839.945	644
840.038	1333
840.131	711
840.223	592
840.316	1786
840.409	704
840.502	-12
840.594	1055
840.687	-27
840.780	966
840.873	147
840.965	1261
841.058	993
841.150	1400
841.243	1991
841.336	521
841.428	345
841.521	-46
841.613	957
841.706	169
841.798	363
841.890	691
841.983	366
842.075	1000
842.167	673
842.260	686
842.352	1229
842.444	991
842.537	1464
842.629	3863
842.721	2179
842.813	396
842.905	348
842.997	720
843.090	875
843.182	1181
843.274	554
843.366	3636
843.458	5619
843.550	9383
843.642	3756
843.734	-20
843.826	649
843.918	1122
844.009	651
844.101	673
844.193	742
844.285	124
844.377	519
844.469	984
844.560	604
844.652	-36
844.744	582
844.835	654
844.927	515
845.019	351
845.110	1271
845.202	265
845.293	842
845.385	581
845.476	372
845.568	659
845.659	844
845.751	381
845.842	266
845.934	462
846.025	103
846.116	106
846.208	550
846.299	1011
846.390	702
846.482	668
846.573	706
846.664	1063
846.755	934
846.846	2000
846.937	725
847.029	483
847.120	-529
847.211	134
847.302	113
847.393	404
847.484	759
847.575	739
847.666	-323
847.757	-513
847.847	-189
847.938	466
848.029	956
848.120	532
848.211	424
848.302	-414
848.392	-688
848.483	282
848.574	287
848.664	-199
848.755	396
848.846	390
848.936	504
849.027	-317
849.118	9
849.208	-163
849.299	86
849.389	607
849.480	1011
849.570	1370
849.661	3249
849.751	7586
849.841	8462
849.932	1903
850.022	331
850.112	563
850.203	396
850.293	-112
850.383	-14
850.474	-612
850.564	585
850.654	341
850.744	2
850.834	-65
850.924	-343
851.014	99
851.104	-357
851.194	133
851.284	1019
851.374	768
851.464	616
851.554	606
851.644	272
851.734	1259
851.824	1734
851.914	1644
852.004	2163
852.094	4445
852.183	2785
852.273	641
852.363	-79
852.452	-500
852.542	53
852.632	5
852.721	594
852.811	-302
852.901	844
852.990	569
853.080	314
853.169	-306
853.259	506
853.348	365
853.438	565
853.527	1067
853.617	734
853.706	1839
853.795	2234
853.885	5882
853.974	13502
854.063	22819
854.152	44665
854.242	52572
854.331	12408
854.420	2041
854.509	560
854.598	762
854.687	1278
854.777	311
854.866	909
854.955	493
855.044	228
855.133	314
855.222	205
855.311	603
855.400	1623
855.488	-51
855.577	-1011
855.666	780
855.755	653
855.844	934
855.933	-161
856.021	621
856.110	837
856.199	260
856.288	821
856.376	30
856.465	-402
856.554	24
856.642	897
856.731	1177
856.819	369
856.908	507
856.996	153
857.085	-479
857.173	182
857.262	303
857.350	505
857.438	108
857.527	-82
857.615	239
857.703	-66
857.792	-225
857.880	27
857.968	948
858.056	-117
858.145	1177
858.233	222
858.321	443
858.409	402
858.497	-135
858.585	91
858.673	133
858.761	-213
858.849	-546
858.937	440
859.025	-50
859.113	259
859.201	468
859.289	838
859.377	562
859.465	177
859.552	544
859.640	112
859.728	27
859.816	586
859.903	432
859.991	56
860.079	-48
860.166	514
860.254	304
860.342	543
860.429	199
860.517	22
860.604	-317
860.692	180
860.779	67
860.867	521
860.954	-109
861.042	-75
861.129	298
861.216	636
861.304	279
861.391	929
861.478	362
861.565	1216
861.653	-62
861.740	14
861.827	208
861.914	87
862.001	-62
862.089	502
862.176	-80
862.263	305
862.350	-191
862.437	-612
862.524	352
862.611	799
862.698	245
862.785	782
862.871	209
862.958	574
863.045	-207
863.132	443
863.219	-228
863.306	241
863.392	836
863.479	17
863.566	-347
863.652	302
863.739	114
863.826	395
863.912	600
863.999	-12
864.086	-343
864.172	893
864.259	357
864.345	-256
864.432	569
864.518	630
864.604	343
864.691	364
864.777	356
864.863	469
864.950	733
865.036	360
865.122	398
865.209	1256
865.295	1287
865.381	1115
865.467	1968
865.553	1614
865.639	1805
865.726	2240
865.812	3860
865.898	8162
865.984	12794
866.070	16965
866.156	33585
866.242	26153
866.328	5170
866.414	2535
866.499	1561
866.585	1487
866.671	1168
866.757	1248
866.843	1503
866.928	1510
867.014	1071
867.100	1701
867.186	1059
867.271	2569
867.357	1594
867.442	1207
867.528	1578
867.614	1488
867.699	490
867.785	901
867.870	1222
867.956	1517
868.041	1649
868.127	527
868.212	1917
868.297	1688
868.383	1528
868.468	1415
868.553	1541
868.639	2367
868.724	3032
868.809	6180
868.894	4349
868.979	1236
869.065	591
869.150	424
869.235	477
869.320	1070
869.405	983
869.490	530
869.575	1247
869.660	351
869.745	1276
869.830	309
869.915	582
870.000	605
870.085	-10
870.169	541
870.254	643
870.339	542
870.424	59
870.509	657
870.593	739
870.678	1011
870.763	512
870.847	904
870.932	-71
871.016	927
871.101	79
871.186	575
871.270	1651
871.355	289
871.439	977
871.523	422
871.608	524
871.692	966
871.777	635
871.861	989
871.945	379
872.030	791
872.114	314
872.198	60
872.282	290
872.367	668
872.451	179
872.535	1182
872.619	167
872.703	707
872.787	110
872.871	339
872.955	179
873.039	14
873.123	558
873.207	1154
873.291	646
873.375	153
873.459	457
873.543	113
873.627	-383
873.711	-847
873.794	1059
873.878	-606
873.962	-317
874.045	-43
874.129	-113
874.137	-117
874.213	-162
874.245	116
874.296	563
874.352	344
874.380	240
874.460	282
874.464	282
874.547	-827
874.568	-654
874.631	-124
874.676	206
874.714	480
874.784	412
874.798	397
874.881	460
874.892	386
874.965	-99
874.999	4
875.048	90
875.107	468
875.131	643
875.215	-3
875.215	-4
875.298	-349
875.323	-176
875.381	171
875.430	515
875.465	779
875.538	892
875.548	901
875.631	218
875.646	165
875.714	-93
875.753	-6
875.798	163
875.861	149
875.881	106
875.964	342
875.968	339
876.047	373
876.076	367
876.130	323
876.183	275
876.213	261
876.291	670
876.296	696
876.379	-15
876.398	48
876.462	271
876.506	154
876.545	71
876.613	405
876.628	444
876.711	722
876.721	641
876.794	274
876.828	278
876.877	156
876.935	211
876.960	253
877.043	114
877.043	115
877.125	282
877.150	453
877.208	725
877.258	584
877.291	581
877.365	509
877.374	476
877.456	17
877.472	98
877.539	593
877.579	481
877.622	324
877.687	996
877.704	1147
877.787	385
877.794	366
877.869	491
877.901	487
877.952	210
878.008	416
878.034	630
878.115	21
878.117	1
878.199	338
878.222	182
878.282	150
878.329	353
878.364	414
878.437	968
878.447	1038
878.529	46
878.544	98
878.611	313
878.651	391
878.694	608
878.758	327
878.776	201
878.858	-26
878.865	6
878.941	197
878.972	102
879.023	78
879.078	83
879.105	157
879.185	741
879.187	752
879.269	676
879.292	675
879.351	483
879.399	166
879.433	24
879.506	556
879.516	622
879.598	504
879.613	404
879.680	31
879.720	203
879.762	255
879.827	485
879.844	608
879.926	358
879.933	396
880.007	416
880.040	296
880.089	249
880.147	530
880.171	777
880.253	1523
880.254	1524
880.335	1301
880.360	1401
880.417	2051
880.467	2629
880.499	3301
880.574	6864
880.580	7022
880.662	5507
880.680	4744
880.744	1624
880.787	689
880.825	486
880.893	433
880.907	381
880.989	-177
881.000	-209
881.070	-92
881.106	120
881.152	403
881.213	351
881.233	202
881.315	-233
881.319	-237
881.396	197
881.426	287
881.478	505
881.532	716
881.559	627
881.639	204
881.641	204
881.722	260
881.745	280
881.803	630
881.852	709
881.885	472
881.958	492
881.966	530
882.047	836
882.064	841
882.129	856
882.171	887
882.210	990
882.277	1400
882.291	1435
882.372	1974
882.383	1811
882.454	708
882.489	711
882.535	801
882.596	716
882.616	657
882.697	307
882.702	311
882.778	779
882.808	944
882.859	989
882.914	895
882.940	882
883.020	505
883.021	504
883.102	158
883.127	227
883.183	831
883.233	1178
883.264	1123
883.339	538
883.345	470
883.426	-169
883.445	-237
883.507	46
883.551	-96
883.587	-115
883.657	248
883.668	262
883.749	518
883.763	520
883.830	621
883.869	784
883.910	835
883.975	366
883.991	260
884.072	209
884.081	168
884.152	293
884.187	567
884.233	764
884.292	769
884.314	710
884.394	231
884.398	231
884.475	580
884.504	614
884.555	617
884.610	458
884.636	374
884.716	745
884.716	749
884.797	673
884.821	563
884.877	394
884.927	354
884.958	381
885.033	391
885.038	412
885.118	569
885.139	683
885.199	622
885.244	535
885.279	503
885.350	351
885.359	340
885.439	337
885.456	325
885.520	619
885.561	860
885.600	813
885.667	407
885.680	377
885.760	237
885.773	305
885.840	844
885.878	857
885.920	652
885.984	525
886.000	527
886.080	443
886.089	428
886.160	154
886.195	101
886.240	366
886.300	696
886.320	745
886.400	705
886.406	714
886.480	919
886.511	930
886.560	565
886.616	288
886.640	464
886.720	895
886.722	902
886.800	322
886.827	182
886.879	432
886.932	572
886.959	619
887.038	848
887.039	849
887.119	751
887.143	769
887.198	1024
887.248	1205
887.278	963
887.354	291
887.358	306
887.437	538
887.459	674
887.517	636
887.564	434
887.596	508
887.669	649
887.676	652
887.755	815
887.774	815
887.835	735
887.880	746
887.914	845
887.985	936
887.994	874
888.073	372
888.090	257
888.153	714
888.195	983
888.232	922
888.300	858
888.311	921
888.391	1364
888.405	1430
888.470	1066
888.510	832
888.549	660
888.615	374
888.628	430
888.708	758
888.720	812
888.787	876
888.825	873
888.866	787
888.930	673
888.945	670
889.024	617
889.035	617
889.103	758
889.140	779
889.182	415
889.245	-68
889.261	105
889.340	915
889.349	1004
889.419	721
889.454	593
889.498	747
889.559	952
889.577	987
889.656	1127
889.664	1140
889.735	504
889.768	201
889.814	160
889.873	109
889.978	584
890.083	1112
890.187	503
890.292	638
890.397	712
890.501	772
890.606	507
890.710	402
890.815	602
890.919	439
891.024	760
891.128	344
891.233	-223
891.337	1125
891.442	110
891.546	-255
891.650	755
891.755	33
891.859	1523
891.963	636
892.068	1122
892.172	641
892.276	1082
892.380	-167
892.484	1515
892.589	412
892.693	703
892.797	323
892.901	990
893.005	788
893.109	927
893.213	1952
893.317	1357
893.421	380
893.525	431
893.629	-357
893.733	447
893.837	860
893.941	925
894.045	959
894.148	1203
894.252	993
894.356	1618
894.460	1312
894.564	829
894.667	1205
894.771	359
894.875	70
894.978	-13
895.082	932
895.186	931
895.289	1103
895.393	371
895.496	214
895.600	320
895.703	713
895.807	120
895.910	932
896.014	522
896.117	805
896.221	1539
896.324	1042
896.427	710
896.531	1070
896.634	1004
896.737	1299
896.840	217
896.944	201
897.047	624
897.150	-225
897.253	457
897.356	957
897.460	412
897.563	-138
897.666	276
897.769	411
897.872	542
897.975	442
898.078	793
898.181	728
898.284	258
898.387	369
898.490	858
898.593	-250
898.695	1156
898.798	317
898.901	1381
899.004	145
899.107	732
899.209	43
899.312	960
899.415	180
899.518	89
899.620	9
899.723	762
899.826	953
899.928	854
900.031	763
900.133	951
900.236	460
900.338	153
900.441	-194
900.543	-583
900.646	114
900.748	901
900.851	600
900.953	1016
901.055	119
901.158	1246
901.260	-317
901.362	860
901.465	480
901.567	228
901.669	702
901.771	379
901.873	1307
901.976	163
902.078	964
902.180	824
902.282	625
902.384	979
902.486	272
902.588	161
902.690	1931
902.792	666
902.894	435
902.996	146
903.098	789
903.200	531
903.302	822
903.404	445
903.505	-289
903.607	1366
903.709	696
903.811	574
903.913	-548
904.014	748
904.116	321
904.218	346
904.319	961
904.421	250
904.523	234
904.624	44
904.726	1150
904.827	213
904.929	-254
905.030	339
905.132	398
905.233	1008
905.335	495
905.436	219
905.537	710
905.639	729
905.740	82
905.841	525
905.943	287
906.044	354
906.145	278
906.247	-13
906.348	-37
906.449	-267
906.550	291
906.651	1094
906.752	324
906.854	-354
906.955	394
907.056	904
907.157	330
907.258	690
907.359	-65
907.460	681
907.561	808
907.662	184
907.762	530
907.863	495
907.964	927
908.065	174
908.166	394
908.267	571
908.367	-299
908.468	243
908.569	675
908.670	848
908.770	664
908.871	1334
908.971	1183
909.072	1744
909.173	374
909.273	109
909.374	806
909.474	243
909.575	131
909.675	1034
909.776	352
909.876	424
909.977	757
910.077	1000
910.177	363
910.278	861
910.378	25
910.478	277
910.579	663
910.679	306
910.779	-76
910.879	1124
910.980	325
911.080	234
911.180	-441
911.280	1107
911.380	428
911.480	-257
911.580	-122
911.680	408
911.780	594
911.880	915
911.980	41
912.080	144
912.180	579
912.280	65
912.380	783
912.480	163
912.580	837
912.679	81
912.779	200
912.879	272
912.979	-203
913.078	840
913.178	873
913.278	967
913.377	-319
913.477	469
913.577	-162
913.676	747
913.776	-637
913.875	-19
913.975	1083
914.074	-68
914.174	385
914.273	335
914.373	782
914.472	459
914.572	-561
914.671	961
914.770	352
914.870	893
914.969	-303
915.068	174
915.167	-526
915.267	-359
915.366	-17
915.465	-723
915.564	845
915.663	89
915.763	273
915.862	889
915.961	624
916.060	-26
916.159	-78
916.258	132
916.357	-64
916.456	615
916.555	912
916.654	515
916.752	492
916.851	-222
916.950	469
917.049	313
917.148	628
917.247	409
917.345	481
917.444	821
917.543	1063
917.642	118
917.740	90
917.839	237
917.937	76
918.036	1009
918.135	889
918.233	90
918.332	531
918.430	-171
918.529	-128
918.627	932
918.726	206
918.824	450
918.923	513
919.021	833
919.119	88
919.218	-138
919.316	126
919.414	841
919.512	-134
919.611	822
919.709	-18
919.807	286
919.905	195
920.003	773
920.102	376
920.200	444
920.298	220
920.396	-431
920.494	-118
920.592	429
920.690	622
920.788	542
920.886	837
920.984	399
921.082	-161
921.180	132
921.277	1078
921.375	440
921.473	1351
921.571	388
921.669	276
921.766	1113
921.864	801
921.962	759
922.060	379
922.157	1066
922.255	448
922.352	602
922.450	545
922.548	362
922.645	220
922.743	90
922.840	1165
922.938	1561
923.035	344
923.133	842
923.230	879
923.327	1404
923.425	1107
923.522	1860
923.619	1591
923.717	1929
923.814	1370
923.911	1651
924.008	1355
924.106	484
924.203	1286
924.300	1398
924.397	1355
924.494	346
924.591	1315
924.688	1759
924.786	330
924.883	1164
924.979	1107
925.077	1042
925.173	314
925.270	170
925.367	556
925.464	1265
925.561	859
925.658	1428
925.755	995
925.852	1417
925.948	704
926.045	999
926.142	888
926.239	525
926.335	1401
926.432	944
926.529	227
926.625	835
926.722	709
926.818	1045
926.915	660
927.011	690
927.108	502
927.204	1047
927.301	1032
927.397	922
927.494	396
927.590	488
927.687	931
927.783	2117
927.879	-48
927.976	409
928.072	162
928.168	471
928.264	477
928.361	496
928.457	960
928.553	1255
928.649	878
928.745	1519
928.841	429
928.937	1123
929.033	331
929.129	1146
929.225	1669
929.321	870
929.417	894
929.513	1237
929.609	397
929.705	1047
929.801	1245
929.897	836
929.993	1216
930.089	781
930.184	731
930.280	790
930.376	1028
930.471	279
930.567	157
930.663	755
930.758	-78
930.854	744
930.950	346
931.045	704
931.141	850
931.236	1296
931.332	968
931.427	854
931.523	658
931.618	1337
931.714	951
931.809	1302
931.905	276
932.000	494
932.095	-25
932.191	837
932.286	369
932.381	609
932.476	-275
932.572	731
932.667	-61
932.762	492
932.857	595
932.952	726
933.047	985
933.142	161
933.237	466
933.332	1035
933.427	274
933.522	807
933.617	226
933.712	28
933.807	985
933.902	835
933.997	1159
934.092	554
934.187	709
934.282	-58
934.376	625
934.471	13
934.566	-260
934.661	887
934.755	562
934.850	972
934.945	-130
935.039	656
935.134	139
935.228	287
935.323	500
935.417	629
935.512	-233
935.606	-318
935.701	65
935.795	601
935.890	962
935.984	840
936.079	1227
936.173	-370
936.267	714
936.362	636
936.456	877
936.550	407
936.644	312
936.738	833
936.833	561
936.927	255
937.021	-23
937.115	-15
937.209	369
937.303	580
937.397	674
937.491	95
937.585	964
937.679	631
937.773	314
937.867	-269
937.961	226
938.055	-218
938.149	370
938.243	723
938.337	206
938.430	762
938.524	471
938.618	622
938.712	836
938.805	-35
938.899	-122
938.993	1458
939.086	1290
939.180	-123
939.274	-12
939.367	-6
939.461	965
939.554	69
939.648	-260
939.741	40
939.835	881
939.928	320
940.022	541
940.115	665
940.208	-375
940.302	160
940.395	434
940.488	43
940.582	66
940.675	297
940.768	128
940.861	447
940.954	312
941.048	437
941.141	-9
941.234	126
941.327	516
941.420	199
941.513	62
941.606	1130
941.699	146
941.792	508
941.885	86
941.978	733
942.071	587
942.164	627
942.257	513
942.349	274
942.442	193
942.535	359
942.628	-98
942.721	514
942.813	-53
942.906	-220
942.999	633
943.091	324
943.184	554
943.277	53
943.369	399
943.462	177
943.554	250
943.647	-407
943.739	399
943.832	843
943.924	392
944.017	972
944.109	325
944.201	312
944.294	414
944.386	1010
944.478	352
944.571	215
944.663	442
944.755	558
944.847	-386
944.940	-159
945.032	-167
945.124	452
945.216	1074
945.308	67
945.400	-77
945.492	134
945.584	419
945.676	755
945.768	318
945.860	130
945.952	795
946.044	-276
946.136	1338
946.228	133
946.320	2
946.412	530
946.503	136
946.595	1066
946.687	84
946.779	275
946.870	483
946.962	-122
947.054	511
947.145	213
947.237	329
947.329	655
947.420	155
947.512	503
947.603	908
947.695	279
947.786	-498
947.878	260
947.969	-116
948.061	-231
948.152	90
948.243	127
948.335	-140
948.426	683
948.517	29
948.609	203
948.700	-772
948.791	196
948.882	-439
948.973	-573
949.065	-14
949.156	759
949.247	-11
949.338	179
949.429	-312
949.520	347
949.611	611
949.702	487
949.793	569
949.884	-151
949.975	251
950.066	110
950.157	-896
950.247	-60
950.338	15
950.429	92
950.520	-344
950.611	-220
950.701	525
950.792	568
950.883	700
950.973	204
951.064	-164
951.155	371
951.245	1226
951.336	944
951.427	-351
951.517	967
951.608	538
951.698	-126
951.788	-130
951.879	-1071
951.969	316
952.060	558
952.150	305
952.240	114
952.331	-917
952.421	267
952.511	180
952.602	38
952.692	-913
952.782	-563
952.872	-760
952.962	386
953.052	870
953.143	170
953.233	370
953.323	169
953.413	-266
953.503	540
953.593	38
953.683	240
953.773	-95
953.863	360
953.953	-74
954.042	237
954.132	-66
954.222	375
954.312	141
954.402	699
954.492	448
954.581	1210
954.671	1286
954.761	-276
954.850	594
954.940	-252
955.030	-313
955.119	165
955.209	-256
955.298	276
955.388	190
955.477	-7
955.567	395
955.656	-111
955.746	9
955.835	-603
955.925	-264
956.014	239
956.103	-992
956.193	280
956.282	370
956.371	-328
956.461	-45
956.550	290
956.639	-559
956.728	-477
956.817	-420
956.906	15
956.995	-187
957.085	10
957.174	346
957.263	466
957.352	-229
957.441	-328
957.530	533
957.619	-416
957.708	-76
957.796	-575
957.885	-21
957.974	-17
958.063	-1
958.152	-65
958.241	391
958.329	-715
958.418	-463
958.507	-403
958.596	-349
958.684	-919
958.773	172
958.861	-185
958.950	42
959.039	49
959.127	-743
959.216	42
959.304	-105
959.393	-19
959.481	669
959.570	-406
959.658	116
959.746	-229
959.835	893
959.923	1568
960.011	2130
960.100	-177
960.188	-40
960.276	-85
960.365	-94
960.453	-141
960.541	-152
960.629	-351
960.717	-9
960.805	-409
960.893	-137
960.981	186
961.069	-174
961.158	393
961.245	326
961.333	69
961.421	-381
961.509	-338
961.597	-289
961.685	-17
961.773	-129
961.861	-83
961.949	207
962.036	259
962.124	-108
962.212	174
962.299	-1101
962.387	-296
962.475	-769
962.562	206
962.650	-30
962.738	-58
962.825	-366
962.913	-358
963.000	-601
963.088	119
963.175	76
963.263	-222
963.350	-286
963.438	91
963.525	536
963.612	201
963.700	2599
963.787	9435
963.874	9766
963.962	2411
964.049	-69
964.136	-486
964.223	-158
964.310	-667
964.398	7
964.485	358
964.572	-902
964.659	748
964.746	2366
964.833	907
964.920	-1043
965.007	-106
965.094	-1002
965.181	-490
965.268	-575
965.355	-20
965.441	-246
965.528	-346
965.615	-266
965.702	-822
965.789	-89
965.875	161
965.962	-332
966.049	-541
966.136	-315
966.222	-35
966.309	-785
966.395	-521
966.482	-73
966.569	-716
966.655	-114
966.742	96
966.828	589
966.915	-323
967.001	-613
967.087	-830
967.174	67
967.260	155
967.347	780
967.433	2356
967.519	6422
967.605	6533
967.692	1675
967.778	-510
967.864	-520
967.950	-727
968.036	-430
968.123	-476
968.209	-534
968.295	-773
968.381	-286
968.467	-48
968.553	-495
968.639	-68
968.725	-623
968.811	602
968.897	685
968.983	-708
969.069	-1392
969.154	-357
969.240	-484
969.326	-1080
969.412	-759
969.497	-254
969.583	-979
969.669	-525
969.755	-993
969.840	-1197
969.926	-730
970.012	-745
970.097	-3
970.183	10
970.268	20
970.354	385
970.439	434
970.525	3723
970.610	3527
970.696	374
970.781	-181
970.866	140
970.952	-562
971.037	-455
971.122	-894
971.208	-747
971.293	-524
971.378	-317
971.463	-1641
971.549	-783
971.634	-129
971.719	-327
971.804	-21
971.889	657
971.974	-660
972.059	-415
972.144	-1113
972.229	-783
972.314	-664
972.399	-164
972.484	-622
972.569	-361
972.654	-662
972.739	1094
972.824	2482
972.908	1189
972.993	-564
973.078	-774
973.163	-563
973.247	-412
973.332	-1264
973.417	-322
973.501	-734
973.586	-729
973.671	-970
973.755	-319
973.840	-517
973.924	-629
974.009	412
974.093	444
974.178	-151
974.262	1016
974.346	2067
974.431	1254
974.515	-566
974.600	-571
974.684	-751
974.768	-688
974.852	-692
974.937	-1677
975.021	-558
975.105	-883
975.189	-1120
975.273	-72
975.358	-712
975.442	-578
975.526	-318
975.610	-952
975.694	-1360
975.778	-230
975.862	-1277
975.946	-854
976.030	-732
976.114	-1203
976.198	-335
976.281	-1454
976.365	-1376
976.449	-359
976.533	-787
976.617	-961
976.700	-471
976.784	-443
976.868	60
976.951	242
977.035	801
977.119	-267
977.202	-553
977.286	-407
977.369	-974
977.453	-807
977.536	-804
977.620	-823
977.703	-135
977.787	-1395
977.870	-490
977.953	-403
978.037	-505
978.120	145
978.203	-293
978.287	1645
978.370	1533
978.453	-326
978.536	-1170
978.620	-287
978.703	419
978.786	558
978.869	-740
978.952	-1050
979.035	-669
979.118	-451
979.201	-453
979.284	-839
979.367	333
979.450	-580
979.533	-1144
979.616	-466
979.699	-1537
979.782	-637
979.865	-844
979.948	-1426
980.030	-892
980.113	-741
980.196	-1254
980.279	-522
980.361	-771
980.444	67
980.526	-1339
980.609	-605
980.692	-859
980.774	-526
980.857	-473
980.939	-466
981.022	-685
981.104	-545
981.187	-786
981.269	-130
981.352	-213
981.434	-794
981.516	-1217
981.599	386
981.681	-1318
981.763	-754
981.846	-1391
981.928	-1128
982.010	-1014
982.092	-769
982.174	-832
982.256	-880
982.339	-1283
982.421	-1305
982.503	-1128
982.585	-614
982.667	-540
982.749	102
982.831	-937
982.913	-1347
982.995	-592
983.077	-520
983.158	-778
983.240	-1051
983.322	-683
983.404	-134
983.486	-912
983.568	-216
983.649	-1815
983.731	-423
983.813	-1098
983.894	-833
983.976	-1322
984.058	-1167
984.139	-830
984.221	-958
984.302	-1206
984.384	-274
984.465	-917
984.547	-237
984.628	-457
984.710	-792
984.791	-1646
984.872	-170
984.954	-693
985.035	-790
985.116	-311
985.198	93
985.279	-913
985.360	-236
985.441	-871
985.522	364
985.604	-870
985.685	-947
985.766	-61
985.847	-150
985.928	-1113
986.009	-395
986.090	-235
986.171	-51
986.252	-1119
986.333	-650
986.414	-921
986.495	140
986.576	-1317
986.656	-808
986.737	-935
986.818	-369
986.899	-727
986.980	-479
987.060	-853
987.141	-638
987.222	-1404
987.302	-546
987.383	-274
987.464	-613
987.544	-137
987.625	-435
987.705	-482
987.786	-1079
987.866	-645
987.947	-783
988.027	-812
988.108	-1044
988.188	-646
988.268	-1158
988.349	-505
988.429	-702
988.509	-763
988.589	-409
988.670	-1181
988.750	-161
988.830	-320
988.910	-164
988.990	-1541
989.070	-988
989.151	-556
989.231	-676
989.311	-965
989.391	-914
989.471	-917
989.551	-1175
989.631	-810
989.711	-450
989.791	-1237
989.870	-918
989.950	-597
990.030	-173
990.110	-753
990.190	-757
990.269	-591
990.349	-487
990.429	-467
990.509	-635
990.588	-1509
990.668	-562
990.747	-742
990.827	-949
990.907	-410
990.986	-1152
991.066	-201
991.145	-1191
991.225	-769
991.304	-1183
991.383	-898
991.463	-1600
991.542	-560
991.622	-813
991.701	-629
991.780	-1779
991.859	-859
991.939	-735
992.018	-1358
992.097	-1151
992.176	-734
992.256	-705
992.335	-1076
992.414	278
992.493	-145
992.572	-1385
992.651	-338
992.730	-283
992.809	-884
992.888	-74
992.967	-1065
993.046	-497
993.125	-633
993.203	-390
993.282	-963
993.361	-924
993.440	-105
993.519	-1012
993.597	-188
993.676	-1091
993.755	-1029
993.834	-507
993.912	-1197
993.991	-38
994.069	-181
994.148	-983
994.226	-966
994.305	-638
994.384	-838
994.462	-575
994.540	-743
994.619	-1263
994.697	-1388
994.776	-1742
994.854	-911
994.932	-676
995.011	-878
995.089	-1060
995.167	-1225
995.245	-458
995.324	-944
995.402	-947
995.480	-1129
995.558	-1532
995.636	-1060
995.714	-1692
995.792	38
995.870	-763
995.948	-1398
996.026	-794
996.104	-857
996.182	-618
996.260	-1229
996.338	-198
996.416	-1475
996.494	-616
996.572	-1072
996.649	-899
996.727	-1324
996.805	-1098
996.883	-653
996.960	-1069
997.038	-738
997.116	-499
997.193	-1389
997.271	-579
997.348	-683
997.426	-800
997.504	-1606
997.581	-916
997.658	-260
997.736	-1033
997.813	-1326
997.891	-113
997.968	-557
998.046	-100
998.123	-201
998.200	-354
998.277	-2010
998.355	-167
998.432	-1058
998.509	-917
998.586	-1176
998.663	-566
998.741	-1038
998.818	-1035
998.895	-894
998.972	-868
999.049	-874
999.126	-574
999.203	-811
999.280	-1190
999.357	-860
999.434	-1636
999.511	-558
999.587	-968
999.664	-1566
999.741	-663
999.818	-1168
999.895	-1452
999.971	-1188
1000.048	-1423
1000.125	-484
1000.202	-1242
1000.278	-1417
1000.355	-1045
1000.431	-877
1000.508	-1626
1000.584	-846
1000.661	-1515
1000.738	-1995
1000.814	-1353
1000.890	-1283
1000.967	-1341
1001.043	-1576
1001.120	-1704
1001.196	-1342
1001.272	-2103
1001.349	-938
1001.425	-758
1001.501	-980
1001.577	-1483
1001.654	-1345
1001.730	-788
1001.806	-818
1001.882	-1735
1001.958	-818
1002.034	-1430
1002.110	-1461
1002.186	-1038
1002.262	-1421
1002.338	-455
1002.414	-487
1002.490	-1014
1002.566	-1806
1002.642	-1171
1002.718	-839
1002.794	-1408
1002.870	-1595
1002.945	-1312
1003.021	-968
1003.097	-1195
1003.173	-1497
1003.248	-1114
1003.324	-1485
1003.400	-1095
1003.475	-1203
1003.551	-531
1003.626	-1750
1003.702	-1895
1003.777	-860
1003.853	-1403
1003.928	-2251
1004.004	-1799
1004.079	-1031
1004.155	-1242
1004.230	-1679
1004.305	-2067
1004.381	-1351
1004.456	-1805
1004.531	-2046
1004.607	-1522
1004.682	-1478
1004.757	-1693
1004.832	-809
1004.907	-833
1004.982	-878
1005.057	-939
1005.133	-1831
1005.208	-1195
1005.283	-1423
1005.358	-403
1005.433	-1145
1005.508	-1220
1005.583	-1380
1005.657	-2208
1005.732	-934
1005.807	-1210
1005.882	-1246
1005.957	-937
1006.032	-1903
1006.106	-1323
1006.181	-1219
1006.256	-1150
1006.331	-1681
1006.405	-1022
1006.480	-769
1006.554	-1194
1006.629	-1813
1006.704	-1293
1006.778	-1114
1006.853	-818
1006.927	-1582
1007.002	-1677
1007.076	-660
1007.150	-1948
1007.225	-1989
1007.299	-1524
1007.373	-2122
1007.448	-1199
1007.522	-640
1007.596	-1488
1007.671	-1575
1007.745	-772
1007.819	-1742
1007.893	-1082
1007.967	-1314
1008.041	-1252
1008.115	-1409
1008.190	-1606
1008.264	-1925
1008.338	-1761
1008.412	-1234
1008.486	-1324
1008.560	-1957
1008.633	-2498
1008.707	-1236
1008.781	-883
1008.855	-1820
1008.929	-1499
1009.003	-2684
1009.076	-2769
1009.150	-1910
1009.224	-1373
1009.298	-1690
1009.371	-1683
1009.445	-1754
1009.519	-1696
1009.592	-1694
1009.666	-879
1009.739	-969
1009.813	-1823
1009.886	-1021
1009.960	-2341
1010.033	-1894
1010.107	-1350
1010.180	-2356
1010.253	-1143
1010.327	-1800
1010.400	-1593
1010.473	-2208
1010.547	-1550
1010.620	-2185
1010.693	-1570
1010.766	-1791
1010.840	-870
1010.913	-1163
1010.986	-1112
1011.059	-1479
1011.132	-1823
1011.205	-1377
1011.278	-1538
1011.351	-1611
1011.424	-1632
1011.497	-2400
1011.570	-1305
1011.643	-1177
1011.716	-1146
1011.789	-1523
1011.862	-2164
1011.934	-844
1012.007	-2516
1012.080	-2175
1012.153	-1775
1012.225	-1638
1012.298	-2021
1012.371	-1485
1012.443	-1188
1012.516	-1711
1012.588	-1620
1012.661	-1615
1012.733	-2753
1012.806	-1343
1012.879	-1788
1012.951	-1824
1013.023	-1390
1013.096	-2238
1013.168	-1785
1013.241	-1889
1013.313	-1609
1013.385	-1550
1013.458	-756
1013.530	-2086
1013.602	-1658
1013.674	-1571
1013.746	-1506
1013.819	-2420
1013.891	-1235
1013.963	-2332
1014.035	-1613
1014.107	-1216
1014.179	-694
1014.251	-2465
1014.323	-1353
1014.395	-1923
1014.467	-2208
1014.539	-1457
1014.611	-2060
1014.683	-866
1014.754	-1294
1014.826	-1973
1014.898	-1814
1014.970	-2105
1015.042	-1952
1015.113	-2015
1015.185	-1699
1015.257	-2775
1015.328	-2065
1015.400	-2212
1015.471	-2271
1015.543	-2196
1015.615	-1986
1015.686	-1947
1015.757	-2421
1015.829	-1618
1015.901	-1374
1015.972	-1299
1016.043	-1638
1016.115	-2780
1016.186	-1854
1016.257	-2038
1016.328	-1004
1016.400	-1103
1016.471	-877
1016.542	-1105
1016.613	-2086
1016.685	-1523
1016.756	-1029
1016.827	-2085
1016.898	-2089
1016.969	-1627
1017.040	-1441
1017.111	-1403
1017.182	-2165
1017.253	-1962
1017.324	-1856
1017.395	-1934
1017.466	-2308
1017.537	-2364
1017.608	-2589
1017.678	-2064
1017.749	-1998
1017.820	-2076
1017.891	-2283
1017.961	-2277
1018.032	-1806
1018.103	-1141
1018.173	-1690
1018.244	-1542
1018.315	-1927
1018.385	-1515
1018.456	-2243
1018.526	-2314
1018.597	-2197
1018.667	-1860
1018.738	-2451
1018.808	-1507
1018.878	-2038
1018.949	-1957
1019.019	-1489
1019.089	-1602
1019.160	-1842
1019.230	-1702
1019.300	-1567
1019.371	-2203
1019.441	-1406
1019.511	-2053
1019.581	-1723
1019.651	-1946
1019.721	-1604
1019.791	-2190
1019.861	-1657
1019.931	-1945
1020.001	-1370
1020.071	-1797
1020.141	-1819
1020.211	-2091
1020.281	-1802
1020.351	-2230
1020.421	-1147
1020.491	-1962
1020.560	-1607
1020.630	-2572
1020.700	-1676
1020.770	-2213
1020.839	-1658
1020.909	-2307
1020.979	-2123
1021.048	-2180
1021.118	-1955
1021.187	-2664
1021.257	-1850
1021.326	-1949
1021.396	-1434
1021.465	-1701
1021.535	-1769
1021.604	-2358
1021.674	-1175
1021.743	-1153
1021.812	-1558
1021.882	-1795
1021.951	-2343
1022.020	-1682
1022.089	-1944
1022.159	-2317
1022.228	-1959
1022.297	-1352
1022.366	-1803
1022.435	-3181
1022.504	-1769
1022.573	-2582
1022.642	-2291
1022.711	-2491
1022.781	-2389
1022.849	-1906
1022.918	-1691
1022.987	-2523
1023.056	-2119
1023.125	-1834
1023.194	-2091
1023.263	-1930
1023.331	-1333
1023.400	-2032
1023.469	-2263
1023.538	-2068
1023.606	-2550
1023.675	-2142
1023.744	-1590
1023.812	-2342
1023.881	-1563
1023.949	-2112
1024.018	-1848
1024.086	-1665
1024.155	-889
1024.223	-2578
1024.292	-2538
1024.360	-2181
1024.429	-1973
1024.497	-2876
1024.565	-1642
1024.634	-2597
1024.702	-2295
1024.770	-2303
1024.838	-1912
1024.907	-2135
1024.975	-2046
1025.043	-1583
1025.111	-1803
1025.179	-1913
1025.247	-1553
1025.315	-1804
1025.383	-2392
1025.451	-2548
1025.519	-1855
1025.587	-2528
1025.655	-2196
1025.723	-2040
1025.791	-1880
1025.859	-2186
1025.927	-1596
1025.995	-1660
1026.062	-1588
1026.130	-1532
1026.198	-2566
1026.266	-1877
1026.333	-2410
1026.401	-2228
1026.469	-1942
1026.536	-2107
1026.604	-1255
1026.671	-2083
1026.739	-1755
1026.806	-1759
1026.874	-2332
1026.941	-1949
1027.009	-1494
1027.076	-2120
1027.144	-1337
1027.211	-2027
1027.278	-2033
1027.345	-2500
1027.413	-2311
1027.480	-1988
1027.547	-1819
1027.614	-1620
1027.682	-881
1027.749	-1417
1027.816	-2623
1027.883	-1488
1027.950	-1920
1028.017	-1993
1028.084	-1804
1028.151	-2419
1028.218	-2039
1028.285	-1676
1028.352	-2574
1028.419	-3056
1028.486	-1848
1028.553	-1724
1028.619	-1775
1028.686	-2031
1028.753	-1816
1028.820	-2169
1028.886	-1673
1028.953	-1541
1029.020	-1944
1029.086	-2367
1029.153	-2272
1029.220	-1902
1029.286	-1814
1029.353	-2879
1029.419	-1424
1029.486	-1744
1029.552	-2619
1029.619	-1875
1029.685	-2185
1029.751	-1842
1029.818	-1552
1029.884	-2847
1029.951	-1705
1030.017	-1746
1030.083	-2708
1030.149	-2093
1030.216	-1155
1030.282	-2036
1030.348	-2297
1030.414	-2827
1030.480	-2160
1030.546	-2276
1030.612	-1626
1030.678	-2108
1030.744	-1984
1030.810	-1745
1030.876	-1205
1030.942	-2756
1031.008	-1683
1031.074	-2093
1031.140	-1824
1031.206	-2619
1031.272	-2604
1031.337	-2256
1031.403	-2300
1031.469	-1720
1031.534	-2180
1031.600	-2288
1031.666	-2226
1031.731	-2608
1031.797	-2591
1031.863	-2296
1031.928	-2109
1031.994	-2507
1032.059	-1612
1032.125	-2318
1032.190	-1977
1032.256	-1357
1032.321	-2396
1032.386	-2408
1032.452	-2323
1032.517	-1692
1032.582	-1681
1032.647	-2432
1032.713	-1940
1032.778	-1614
1032.843	-1994
1032.908	-1936
1032.974	-1979
1033.039	-2530
1033.104	-1801
1033.169	-2142
1033.234	-1582
1033.299	-1608
1033.364	-1586
1033.429	-2308
1033.494	-1789
1033.559	-2487
1033.624	-1393
1033.688	-1917
1033.753	-1861
1033.818	-2759
1033.883	-2229
1033.948	-2062
1034.013	-1936
1034.077	-2555
1034.142	-1865
1034.207	-2371
1034.271	-1587
1034.336	-2424
1034.400	-1392
1034.465	-1806
1034.530	-1828
1034.594	-1135
1034.658	-1633
1034.723	-1993
1034.787	-2469
1034.852	-2086
1034.916	-1860
1034.981	-2281
1035.045	-1762
1035.109	-2856
1035.173	-1831
1035.238	-2820
1035.302	-1991
1035.366	-2541
1035.430	-2334
1035.495	-2446
1035.559	-1698
1035.623	-1895
1035.687	-2695
1035.751	-1993
1035.815	-2174
1035.879	-2075
1035.943	-1523
1036.007	-1633
1036.071	-2352
1036.135	-2321
1036.198	-1633
1036.262	-2723
1036.326	-912
1036.390	-2440
1036.454	-2047
1036.517	-2576
1036.581	-2313
1036.645	-2762
1036.709	-1654
1036.772	-2228
1036.836	-1941
1036.900	-1951
1036.963	-2010
1037.026	-2331
1037.090	-2516
1037.154	-1709
1037.217	-2742
1037.280	-1852
1037.344	-2259
1037.407	-1963
1037.471	-2156
1037.534	-2632
1037.597	-2117
1037.661	-2875
1037.724	-1482
1037.787	-2203
1037.850	-2065
1037.913	-2442
1037.977	-1604
1038.040	-1263
1038.103	-1965
1038.166	-2233
1038.229	-1872
1038.292	-2353
1038.355	-1929
1038.418	-2218
1038.481	-1574
1038.544	-1875
1038.607	-1972
1038.670	-2618
1038.732	-1575
1038.795	-2279
1038.858	-2275
1038.921	-2181
1038.984	-1977
1039.046	-2881
1039.109	-2259
1039.172	-1752
1039.234	-2045
1039.297	-2196
1039.360	-2144
1039.422	-2376
1039.485	-2514
1039.547	-2479
1039.610	-2066
1039.672	-1520
1039.734	-2013
1039.797	-1754
1039.859	-1748
1039.922	-2812
1039.984	-2289
1040.046	-2830
1040.109	-1545
1040.171	-3015
1040.233	-2270
1040.295	-2438
1040.358	-1999
1040.420	-2652
1040.482	-2195
1040.544	-2571
1040.606	-2663
1040.668	-1337
1040.730	-2833
1040.792	-2565
1040.854	-1733
1040.916	-1467
1040.978	-1929
1041.040	-980
1041.102	-2823
1041.164	-2752
1041.225	-1853
1041.287	-2599
1041.349	-2104
1041.411	-1756
1041.472	-1832
1041.534	-1818
1041.596	-2477
1041.657	-2129
1041.719	-1927
1041.781	-1976
1041.842	-2520
1041.904	-2802
1041.965	-2406
1042.027	-2220
1042.088	-2265
1042.150	-2300
1042.211	-2645
1042.272	-1872
1042.334	-2227
1042.395	-2277
1042.456	-2141
1042.518	-2759
1042.579	-2708
1042.640	-1854
1042.701	-2095
1042.763	-1885
1042.824	-2612
1042.885	-2522
1042.946	-2308
1043.007	-1795
1043.068	-2668
1043.129	-2211
1043.190	-2302
1043.251	-1771
1043.312	-2545
1043.373	-2246
1043.434	-1418
1043.495	-2452
1043.556	-2100
1043.616	-2153
1043.677	-2640
1043.738	-1930
1043.799	-2120
1043.859	-1848
1043.920	-2120
1043.981	-2263
1044.041	-1819
1044.102	-2199
1044.162	-2125
1044.223	-2927
1044.284	-2068
1044.344	-2585
1044.405	-2175
1044.465	-1543
1044.525	-1954
1044.586	-2667
1044.646	-1795
1044.707	-1978
1044.767	-2722
1044.827	-3017
1044.887	-1749
1044.948	-2361
1045.008	-2499
1045.068	-2542
1045.128	-2034
1045.188	-2564
1045.249	-1357
1045.309	-1353
1045.369	-1702
1045.429	-1989
1045.489	-1745
1045.549	-1586
1045.609	-2158
1045.669	-2200
1045.729	-2023
1045.789	-1691
1045.848	-2036
1045.908	-1490
1045.968	-1615
1046.028	-1378
1046.088	-2238
1046.147	-1718
1046.207	-1956
1046.267	-1483
1046.326	-1955
1046.386	-1963
1046.446	-1252
1046.505	-1487
1046.565	-1752
1046.624	-1121
1046.684	-1407
1046.743	-1026
1046.803	-909
1046.862	-988
1046.922	0
