'Start Wavelength	183.907
'End Wavelength	1046.922
'Gate Delay	5.000
'Gate Width (ms)	1.050
'Laser Output Level	0.000
'X Position	0.000
'Y Position	0.000
'Z Position	0.000
'Grid Point Number	1.000
'Shot Number	100.000
183.907	1045.000
183.977	89.000
184.047	371
184.116	-556
184.186	362
184.256	-190
184.325	234
184.395	935
184.465	467
184.534	36
184.604	304
184.674	-318
184.743	493
184.813	346
184.883	20
184.952	-92
185.022	132
185.092	223
185.161	345
185.231	273
185.301	-29
185.370	499
185.440	292
185.509	-5
185.579	193
185.649	701
185.718	-247
185.788	297
185.857	476
185.927	761
185.996	571
186.066	-78
186.136	301
186.205	403
186.275	437
186.344	102
186.414	434
186.483	3
186.553	1698
186.622	1547
186.692	1087
186.761	165
186.831	190
186.900	466
186.970	535
187.039	568
187.109	1170
187.178	787
187.248	698
187.317	192
187.387	1491
187.456	938
187.526	638
187.595	258
187.664	990
187.734	1090
187.803	1035
187.873	1467
187.942	1421
188.012	1326
188.081	1046
188.150	431
188.220	2006
188.289	1773
188.358	927
188.428	1327
188.497	1516
188.567	1594
188.636	730
188.705	-138
188.775	468
188.844	984
188.913	1010
188.983	998
189.052	422
189.121	137
189.191	584
189.260	678
189.329	1163
189.399	223
189.468	487
189.537	481
189.606	1033
189.676	404
189.745	1568
189.814	1203
189.883	880
189.953	745
190.022	1685
190.091	3145
190.161	3219
190.230	1060
190.299	928
190.368	528
190.437	564
190.507	108
190.576	1210
190.645	-13
190.714	486
190.783	488
190.853	1096
190.922	1437
190.991	1101
191.060	1208
191.129	828
191.198	881
191.268	893
191.337	628
191.406	1200
191.475	661
191.544	64
191.613	819
191.682	762
191.752	497
191.821	1225
191.890	1187
191.959	1060
192.028	1316
192.097	1392
192.166	909
192.235	1292
192.304	1516
192.373	497
192.442	455
192.511	1103
192.580	882
192.650	781
192.719	1414
192.788	997
192.857	1100
192.926	1203
192.995	1520
193.064	2076
193.133	2581
193.202	2935
193.271	2225
193.340	3216
193.409	3087
193.478	2941
193.547	4051
193.615	4759
193.684	3915
193.753	2842
193.822	1872
193.891	1456
193.960	971
194.029	2311
194.098	781
194.167	1758
194.236	1003
194.305	1475
194.374	1045
194.443	893
194.512	1323
194.580	2418
194.649	2758
194.718	2171
194.787	1213
194.856	1453
194.925	1944
194.994	3388
195.062	1841
195.131	2540
195.200	2100
195.269	2321
195.338	2077
195.407	1971
195.475	1599
195.544	2933
195.613	1515
195.682	2153
195.751	3162
195.819	2414
195.888	2125
195.957	3156
196.026	2168
196.094	1889
196.163	2201
196.232	2738
196.301	2313
196.369	2609
196.438	2155
196.507	2151
196.576	1606
196.644	1278
196.713	1356
196.782	1876
196.850	1587
196.919	1477
196.988	1082
197.056	1872
197.125	1084
197.194	1846
197.262	1181
197.331	1883
197.400	1508
197.468	942
197.537	1666
197.606	1880
197.674	3071
197.743	2946
197.812	2270
197.880	4764
197.949	2441
198.017	3922
198.086	2273
198.155	1207
198.223	3045
198.292	4872
198.360	2057
198.429	1805
198.497	1654
198.566	4593
198.635	3145
198.703	1858
198.772	3031
198.840	6751
198.909	3366
198.977	2379
199.046	1695
199.114	1822
199.183	1489
199.251	2352
199.320	1630
199.388	2381
199.457	1605
199.525	2084
199.594	1893
199.662	2082
199.731	1949
199.799	2667
199.867	2108
199.936	1906
200.004	1286
200.073	1732
200.141	1868
200.210	1918
200.278	812
200.346	2494
200.415	3250
200.483	3032
200.552	2554
200.620	2724
200.688	1524
200.757	2489
200.825	1822
200.893	2926
200.962	1379
201.030	2350
201.098	2552
201.167	2681
201.235	2603
201.303	2482
201.372	2428
201.440	2363
201.508	3013
201.577	3258
201.645	2566
201.713	2194
201.781	3094
201.850	3754
201.918	1586
201.986	2796
202.055	2590
202.123	1876
202.191	2362
202.259	2715
202.327	1610
202.396	2286
202.464	2290
202.532	4848
202.600	8406
202.669	4804
202.737	2619
202.805	2806
202.873	1767
202.941	2976
203.009	2473
203.078	2216
203.146	2193
203.214	2365
203.282	1686
203.350	1952
203.418	2374
203.487	2214
203.555	2510
203.623	2450
203.691	1776
203.759	2319
203.827	2146
203.895	3240
203.963	2145
204.031	3388
204.099	2358
204.168	2032
204.236	2451
204.304	3330
204.372	2509
204.440	2903
204.508	1285
204.576	2483
204.644	2305
204.712	2340
204.780	2886
204.848	3483
204.916	1935
204.984	2940
205.052	2022
205.120	2686
205.188	3284
205.256	2717
205.324	2124
205.392	2940
205.460	1640
205.528	3044
205.596	2550
205.664	2613
205.732	2955
205.799	8710
205.867	6627
205.935	4036
206.003	2951
206.071	3074
206.139	3010
206.207	2959
206.275	1831
206.343	2826
206.411	2545
206.478	3388
206.546	2597
206.614	3067
206.682	2366
206.750	3025
206.818	4230
206.885	2776
206.953	2241
207.021	2786
207.089	2458
207.157	2329
207.225	2807
207.292	2816
207.360	3760
207.428	3343
207.496	2773
207.563	3093
207.631	2244
207.699	3058
207.767	2683
207.834	3542
207.902	3412
207.970	3161
208.038	2835
208.105	3386
208.173	3750
208.241	4392
208.309	4539
208.376	4568
208.444	5688
208.512	3848
208.579	3532
208.647	4186
208.715	4035
208.782	4146
208.850	3879
208.918	3902
208.985	3115
209.053	4135
209.120	3859
209.188	3749
209.256	3256
209.323	4172
209.391	4664
209.459	3946
209.526	3195
209.594	3832
209.661	3401
209.729	3609
209.796	3895
209.864	4866
209.932	3136
209.999	4229
210.067	4512
210.134	4660
210.202	4915
210.269	5728
210.337	5295
210.404	3519
210.472	4035
210.539	4300
210.607	5105
210.674	4664
210.742	4033
210.809	4039
210.877	4631
210.944	5122
211.012	4719
211.079	4522
211.146	3251
211.214	4324
211.281	5815
211.349	4361
211.416	4615
211.484	5786
211.551	4882
211.618	3790
211.686	4572
211.753	4230
211.821	4097
211.888	4720
211.955	4661
212.023	4633
212.090	4266
212.157	4211
212.225	4751
212.292	8912
212.359	15549
212.427	20467
212.494	9364
212.561	6589
212.629	5431
212.696	5713
212.763	4977
212.831	5552
212.898	4585
212.965	4447
213.032	4561
213.100	5365
213.167	4534
213.234	5382
213.301	4413
213.369	5282
213.436	3857
213.503	4846
213.570	4984
213.638	5246
213.705	3598
213.772	4682
213.839	5016
213.906	4776
213.973	5230
214.041	4406
214.108	4750
214.175	5111
214.242	4716
214.309	4725
214.376	4390
214.444	5832
214.511	5633
214.578	5214
214.645	5493
214.712	5995
214.779	5792
214.846	5714
214.913	5675
214.980	6939
215.048	8042
215.115	7011
215.182	6478
215.249	6476
215.316	4584
215.383	5382
215.450	5128
215.517	5156
215.584	4796
215.651	4775
215.718	4080
215.785	6395
215.852	6791
215.919	6340
215.986	5510
216.053	5236
216.120	4377
216.187	6272
216.254	5610
216.321	5833
216.388	5500
216.455	6589
216.522	6466
216.589	8362
216.656	11753
216.722	9494
216.789	7419
216.856	7832
216.923	6540
216.990	6626
217.057	7564
217.124	8417
217.191	8242
217.258	9481
217.324	11400
217.391	9724
217.458	8649
217.525	6507
217.592	6281
217.659	6312
217.725	7100
217.792	9170
217.859	6082
217.926	5463
217.993	5499
218.059	5128
218.126	4632
218.193	5584
218.260	3901
218.327	4457
218.393	4974
218.460	4371
218.527	4438
218.594	6491
218.660	8472
218.727	7575
218.794	4583
218.860	4140
218.927	3530
218.994	3645
219.061	4737
219.127	7015
219.194	7373
219.261	4417
219.327	3502
219.394	4425
219.461	3085
219.527	4564
219.594	5417
219.661	5183
219.727	4007
219.794	4489
219.860	4086
219.927	5454
219.994	9161
220.060	12687
220.127	7321
220.193	7653
220.260	7172
220.326	10564
220.393	15761
220.460	15676
220.526	10459
220.593	8613
220.659	8188
220.726	11358
220.792	17001
220.859	18058
220.925	24408
220.992	22748
221.058	22828
221.125	18494
221.191	13011
221.258	7472
221.324	6265
221.391	6145
221.457	5362
221.524	5845
221.590	9519
221.657	18778
221.723	10159
221.789	12243
221.856	9022
221.922	7036
221.989	4883
222.055	5874
222.121	6030
222.188	7319
222.254	4888
222.321	4646
222.387	4244
222.453	3957
222.520	4292
222.586	4336
222.652	3745
222.719	5214
222.785	4483
222.851	4782
222.918	4108
222.984	4648
223.050	4550
223.116	5302
223.183	3356
223.249	3852
223.315	3238
223.382	3113
223.448	3618
223.514	3532
223.580	2956
223.647	3378
223.713	3112
223.779	3320
223.845	3769
223.911	3615
223.978	3622
224.044	3940
224.110	3592
224.176	3640
224.242	3553
224.309	3173
224.375	2738
224.441	3411
224.507	2906
224.573	4648
224.639	3074
224.705	3504
224.772	2922
224.838	4117
224.904	4462
224.970	4156
225.036	3865
225.102	4878
225.168	4456
225.234	3762
225.300	3723
225.366	3419
225.432	3502
225.499	4279
225.565	4851
225.631	5430
225.697	5637
225.763	6113
225.829	6474
225.895	7414
225.961	9031
226.027	7752
226.093	8831
226.159	10674
226.225	16852
226.291	35343
226.357	34034
226.423	19958
226.489	13106
226.554	10082
226.620	9886
226.686	14869
226.752	19553
226.818	34335
226.884	49500
226.950	34536
227.016	18290
227.082	12596
227.148	10552
227.214	10808
227.279	8648
227.345	7303
227.411	7406
227.477	10884
227.543	19943
227.609	14367
227.674	9014
227.740	7716
227.806	6854
227.872	5232
227.938	6641
228.003	8408
228.069	4514
228.135	4389
228.201	3791
228.267	5909
228.332	6611
228.398	7979
228.464	4857
228.530	4358
228.595	4104
228.661	6056
228.727	8674
228.792	4775
228.858	6222
228.924	6354
228.990	5786
229.055	7323
229.121	6300
229.187	5779
229.252	5121
229.318	3610
229.384	5619
229.449	5508
229.515	3736
229.581	3020
229.646	4835
229.712	5827
229.777	12620
229.843	9332
229.909	8996
229.974	10063
230.040	7989
230.105	7645
230.171	7292
230.236	9913
230.302	11636
230.368	9568
230.433	7451
230.499	6745
230.564	6386
230.630	5607
230.695	4692
230.761	5158
230.826	5310
230.892	8723
230.957	5532
231.023	5465
231.088	5159
231.154	5083
231.219	5578
231.284	8195
231.350	7461
231.415	5797
231.481	3911
231.546	4203
231.612	3971
231.677	4058
231.742	4677
231.808	4810
231.873	3526
231.939	5839
232.004	10116
232.069	6638
232.135	6097
232.200	4584
232.265	4947
232.331	3201
232.396	3218
232.461	4457
232.527	4160
232.592	5351
232.657	4483
232.723	7714
232.788	4830
232.853	4585
232.918	3334
232.984	4180
233.049	4530
233.114	6875
233.179	5122
233.245	9599
233.310	6636
233.375	4758
233.440	4448
233.506	4412
233.571	3510
233.636	4100
233.701	3901
233.766	8818
233.832	6062
233.897	5808
233.962	6173
234.027	6213
234.092	4926
234.157	5640
234.222	5675
234.288	10530
234.353	16416
234.418	13872
234.483	9881
234.548	9295
234.613	7904
234.678	7719
234.743	9691
234.808	17798
234.873	10361
234.938	7376
235.004	6284
235.069	6702
235.134	6027
235.199	6450
235.264	5258
235.329	5721
235.394	5327
235.459	7411
235.524	6516
235.589	6329
235.654	5566
235.719	5270
235.784	5068
235.849	7673
235.913	10319
235.978	12763
236.043	9710
236.108	6126
236.173	7506
236.238	6440
236.303	5758
236.368	6051
236.433	11204
236.498	12349
236.563	12163
236.627	32906
236.692	67118
236.757	39712
236.822	21273
236.887	16717
236.952	12981
237.017	12104
237.081	13049
237.146	20922
237.211	38537
237.276	74603
237.341	75861
237.405	38203
237.470	20341
237.535	14051
237.600	9927
237.664	9202
237.729	9156
237.794	16557
237.859	19222
237.923	13103
237.988	8456
238.053	11602
238.118	12121
238.182	25387
238.247	14157
238.312	11773
238.376	8753
238.441	7409
238.506	6368
238.570	4453
238.635	5163
238.700	5224
238.764	6127
238.829	13448
238.893	10030
238.958	10180
239.023	7910
239.087	6819
239.152	6593
239.216	6306
239.281	5980
239.346	5649
239.410	5547
239.475	8940
239.539	22604
239.604	11383
239.668	6651
239.733	7334
239.797	16344
239.862	29016
239.926	19053
239.991	8600
240.055	5634
240.120	7236
240.184	5956
240.249	6293
240.313	4666
240.378	6943
240.442	17174
240.507	13893
240.571	7039
240.635	12840
240.700	10605
240.764	7218
240.829	4673
240.893	4340
240.957	4987
241.022	16460
241.086	16821
241.151	9264
241.215	5769
241.279	10145
241.344	10937
241.408	8046
241.472	8302
241.537	8535
241.601	8236
241.665	7765
241.730	7524
241.794	7739
241.858	7055
241.922	7753
241.987	7434
242.051	7454
242.115	6974
242.179	6773
242.244	6191
242.308	7151
242.372	7207
242.436	8691
242.501	7021
242.565	6843
242.629	5903
242.693	6300
242.757	5777
242.822	6139
242.886	6447
242.950	7336
243.014	6902
243.078	9261
243.142	8355
243.206	7551
243.271	7730
243.335	8815
243.399	13493
243.463	54965
243.527	59443
243.591	20761
243.655	11947
243.719	8303
243.783	10952
243.847	17488
243.911	17172
243.975	24722
244.040	12852
244.104	8275
244.168	7980
244.232	16770
244.296	17271
244.360	15635
244.424	8555
244.488	8224
244.552	7105
244.615	6419
244.679	5887
244.743	11080
244.807	7620
244.871	6731
244.935	5814
244.999	6674
245.063	6776
245.127	9088
245.191	15347
245.255	10511
245.319	13399
245.383	8974
245.446	7264
245.510	6891
245.574	7816
245.638	6520
245.702	11206
245.766	16895
245.829	10229
245.893	9027
245.957	8320
246.021	8878
246.085	8901
246.149	12981
246.212	30615
246.276	29528
246.340	15562
246.404	11314
246.467	16631
246.531	15210
246.595	9695
246.659	10839
246.722	11663
246.786	13569
246.850	16739
246.913	14306
246.977	8246
247.041	9272
247.104	8961
247.168	12389
247.232	31509
247.295	41037
247.359	16209
247.423	15677
247.486	18938
247.550	11911
247.614	12257
247.677	14443
247.741	7955
247.804	9003
247.868	10667
247.932	34994
247.995	33515
248.059	14638
248.122	10389
248.186	13710
248.249	33670
248.313	76235
248.376	62005
248.440	36989
248.503	17603
248.567	17737
248.630	26385
248.694	33586
248.757	50510
248.821	67080
248.884	38645
248.948	49640
249.011	61156
249.075	86309
249.138	52828
249.202	27162
249.265	20572
249.328	19119
249.392	17780
249.455	13229
249.519	14079
249.582	19085
249.645	25762
249.709	16076
249.772	14181
249.835	12707
249.899	12956
249.962	12648
250.025	13576
250.089	39421
250.152	31603
250.215	18111
250.279	14881
250.342	14780
250.405	14352
250.468	14376
250.532	18962
250.595	32188
250.658	104561
250.721	87123
250.785	40356
250.848	23649
250.911	16270
250.974	16791
251.038	33151
251.101	37963
251.164	22398
251.227	24701
251.290	22404
251.354	44937
251.417	118477
251.480	76659
251.543	102417
251.606	168165
251.669	98072
251.732	56851
251.795	62603
251.859	72567
251.922	111008
251.985	49134
252.048	27143
252.111	23723
252.174	25792
252.237	61470
252.300	78497
252.363	111341
252.426	119772
252.489	54071
252.552	31213
252.615	24700
252.678	36385
252.741	67427
252.804	103674
252.867	135337
252.930	80908
252.993	46214
253.056	32399
253.119	22064
253.182	23582
253.245	32537
253.308	22577
253.371	26719
253.434	20448
253.497	26507
253.559	40384
253.622	28133
253.685	44966
253.748	31159
253.811	19188
253.874	23472
253.937	19098
254.000	18656
254.062	41040
254.125	36432
254.188	45104
254.251	25002
254.314	19793
254.376	37924
254.439	32488
254.502	27854
254.565	42738
254.628	46272
254.690	28265
254.753	18565
254.816	16149
254.878	18554
254.941	38791
255.004	22377
255.067	16045
255.129	14735
255.192	10119
255.255	11986
255.317	11311
255.380	7796
255.443	7474
255.505	8260
255.568	7834
255.631	8254
255.693	9129
255.756	7364
255.819	7672
255.881	7425
255.944	7170
256.006	7222
256.069	6865
256.132	8481
256.194	13127
256.257	18727
256.319	14450
256.382	12422
256.444	11443
256.507	10304
256.569	8906
256.632	9929
256.694	16582
256.757	63049
256.819	85930
256.882	31857
256.944	17794
257.007	16734
257.069	15105
257.132	10602
257.194	10112
257.257	11686
257.319	10788
257.381	14148
257.444	44182
257.506	139275
257.569	100317
257.631	52820
257.693	27715
257.756	16691
257.818	13122
257.880	10096
257.943	9602
258.005	10326
258.067	9410
258.130	9177
258.192	15541
258.254	20981
258.317	10317
258.379	12902
258.441	31044
258.503	16768
258.566	31212
258.628	19159
258.690	9742
258.753	15422
258.815	21772
258.877	12063
258.939	9499
259.001	8886
259.064	9190
259.126	12878
259.188	11604
259.250	10791
259.312	16959
259.375	30750
259.437	14630
259.499	9571
259.561	11145
259.623	9909
259.685	8320
259.747	9907
259.809	31221
259.872	33537
259.934	68498
259.996	37137
260.058	14696
260.120	9590
260.182	7653
260.244	8753
260.306	7123
260.368	7860
260.430	8585
260.492	21619
260.554	30682
260.616	19257
260.678	47329
260.740	27270
260.802	12333
260.864	13072
260.926	10023
260.988	9965
261.050	11331
261.112	30176
261.174	46276
261.236	21281
261.298	13397
261.359	26144
261.421	17999
261.483	9364
261.545	9558
261.607	8349
261.669	7195
261.731	20265
261.793	29544
261.854	14576
261.916	10926
261.978	12212
262.040	9484
262.102	8876
262.164	13678
262.225	8399
262.287	11801
262.349	27628
262.411	13299
262.472	8927
262.534	20699
262.596	18932
262.658	8641
262.719	7708
262.781	14940
262.843	21225
262.904	10154
262.966	10332
263.028	12933
263.090	85299
263.151	84103
263.213	36589
263.275	20793
263.336	10480
263.398	8096
263.459	7224
263.521	10426
263.583	24639
263.644	11433
263.706	7424
263.767	6096
263.829	5196
263.891	5007
263.952	6151
264.014	6120
264.075	17967
264.137	20784
264.198	9626
264.260	5788
264.321	7114
264.383	30834
264.444	29385
264.506	10427
264.567	8846
264.629	24508
264.690	25227
264.752	12303
264.813	9195
264.875	7208
264.936	7619
264.998	6491
265.059	7086
265.120	7103
265.182	18815
265.243	74931
265.305	35055
265.366	13236
265.427	8808
265.489	6849
265.550	6910
265.611	10125
265.673	8834
265.734	6404
265.795	6497
265.857	6163
265.918	7538
265.979	29965
266.040	107570
266.102	44431
266.163	21847
266.224	16813
266.286	10220
266.347	7610
266.408	8964
266.469	7496
266.530	5874
266.592	8013
266.653	22464
266.714	19913
266.775	9317
266.836	6640
266.898	9216
266.959	12491
267.020	8495
267.081	6366
267.142	6934
267.203	6589
267.264	7642
267.326	8374
267.387	6537
267.448	5965
267.509	7602
267.570	7091
267.631	6685
267.692	6319
267.753	6813
267.814	5916
267.875	22944
267.936	23265
267.997	17374
268.058	13683
268.119	9400
268.180	8434
268.241	7601
268.302	6140
268.363	6249
268.424	7710
268.485	6923
268.546	4858
268.607	5656
268.668	5416
268.729	6348
268.790	6205
268.851	9272
268.912	26606
268.972	19900
269.033	10635
269.094	6754
269.155	6771
269.216	6523
269.277	5816
269.338	5644
269.398	7807
269.459	8957
269.520	13250
269.581	17856
269.642	16290
269.702	12377
269.763	8827
269.824	8469
269.885	15853
269.945	12854
270.006	7037
270.067	6194
270.128	5519
270.188	6620
270.249	6880
270.310	5593
270.370	6383
270.431	5168
270.492	5337
270.553	8930
270.613	22268
270.674	27195
270.734	10896
270.795	8181
270.856	13812
270.916	8487
270.977	8043
271.038	10611
271.098	9773
271.159	20369
271.219	9370
271.280	7039
271.340	6960
271.401	11479
271.462	15357
271.522	9609
271.583	7792
271.643	8478
271.704	7237
271.764	12428
271.825	33732
271.885	92275
271.946	63590
272.006	28262
272.066	62940
272.127	50937
272.187	19653
272.248	12575
272.308	23336
272.369	45963
272.429	18368
272.489	26752
272.550	20169
272.610	27254
272.671	14045
272.731	18373
272.791	21762
272.852	15307
272.912	13255
272.972	8625
273.033	10620
273.093	15522
273.153	12528
273.214	9658
273.274	13696
273.334	57714
273.394	54425
273.455	26761
273.515	45363
273.575	52135
273.635	22131
273.696	49584
273.756	54541
273.816	22602
273.876	16856
273.936	39194
273.997	29877
274.057	13272
274.117	13464
274.177	33076
274.237	95810
274.297	45835
274.358	43305
274.418	56773
274.478	30613
274.538	14648
274.598	15568
274.658	41578
274.718	35199
274.778	15521
274.838	11107
274.898	36110
274.958	54242
275.018	64685
275.078	30996
275.138	15099
275.198	10014
275.258	8799
275.318	13733
275.378	27316
275.438	20818
275.498	14729
275.558	42400
275.618	61515
275.678	33745
275.738	33537
275.798	18882
275.858	11333
275.918	8217
275.978	13835
276.038	9571
276.098	9367
276.157	33201
276.217	44945
276.277	21039
276.337	16218
276.397	12056
276.457	14109
276.517	8297
276.576	8697
276.636	9296
276.696	18336
276.756	36105
276.815	16464
276.875	12276
276.935	15947
276.995	10712
277.055	9345
277.114	8813
277.174	24782
277.234	37214
277.293	15897
277.353	10580
277.413	9506
277.472	11372
277.532	9856
277.592	13838
277.651	64817
277.711	45557
277.771	34698
277.830	99841
277.890	41667
277.950	78367
278.009	100177
278.069	35658
278.128	73666
278.188	51896
278.248	43016
278.307	86992
278.367	29397
278.426	15660
278.486	12034
278.545	9529
278.605	9332
278.664	9984
278.724	11996
278.783	47323
278.843	47572
278.902	16340
278.962	16593
279.021	15371
279.081	20196
279.140	18188
279.199	17004
279.259	17599
279.318	16980
279.378	22775
279.437	53917
279.496	167137
279.556	307424
279.615	145340
279.675	57985
279.734	43508
279.793	80618
279.853	72118
279.912	28320
279.971	21494
280.031	20431
280.090	55025
280.149	48558
280.208	73708
280.268	243248
280.327	122411
280.386	45156
280.445	51037
280.505	29067
280.564	18591
280.623	15730
280.682	35491
280.742	26956
280.801	13759
280.860	11533
280.919	10305
280.978	10366
281.037	9692
281.097	8780
281.156	9137
281.215	9184
281.274	17370
281.333	54625
281.392	19817
281.451	9984
281.510	9229
281.569	8865
281.628	7209
281.688	8808
281.747	11385
281.806	9282
281.865	7669
281.924	9523
281.983	7866
282.042	6663
282.101	7013
282.160	7076
282.219	6709
282.278	13873
282.337	33479
282.396	13731
282.454	9209
282.513	21204
282.572	46368
282.631	17318
282.690	10329
282.749	9716
282.808	11290
282.867	12956
282.926	9167
282.985	7791
283.043	7322
283.102	8439
283.161	9975
283.220	35894
283.279	33982
283.338	13630
283.396	11026
283.455	11094
283.514	15316
283.573	18946
283.631	12527
283.690	9984
283.749	11986
283.808	30011
283.866	18043
283.925	11435
283.984	12993
284.043	19060
284.101	14400
284.160	13477
284.219	14865
284.277	15051
284.336	33546
284.395	71120
284.453	35078
284.512	25880
284.570	35139
284.629	27913
284.688	30866
284.746	34798
284.805	42760
284.863	56366
284.922	66025
284.981	82878
285.039	124982
285.098	225164
285.156	349789
285.215	279269
285.273	361952
285.332	288851
285.390	182755
285.449	122938
285.507	85741
285.566	64139
285.624	48877
285.683	38865
285.741	31979
285.799	28308
285.858	25551
285.916	23825
285.975	19692
286.033	16825
286.091	15605
286.150	14114
286.208	14185
286.267	15772
286.325	18046
286.383	25413
286.442	15995
286.500	12279
286.558	11596
286.616	12284
286.675	15952
286.733	13526
286.791	12200
286.850	13980
286.908	23347
286.966	23522
287.024	11632
287.083	10099
287.141	8276
287.199	12376
287.257	14196
287.315	10814
287.374	17146
287.432	30092
287.490	14814
287.548	12089
287.606	9382
287.664	9744
287.723	17563
287.781	14101
287.839	10815
287.897	13837
287.955	13883
288.013	20376
288.071	57526
288.129	261506
288.187	338431
288.245	125546
288.303	54384
288.361	35478
288.419	24244
288.477	17646
288.535	12325
288.593	11780
288.651	9358
288.709	8012
288.767	8670
288.825	8819
288.883	7042
288.941	7964
288.999	7320
289.057	6743
289.115	6805
289.173	7536
289.231	9078
289.289	7581
289.346	8347
289.404	11691
289.462	19419
289.520	14294
289.578	7300
289.636	6353
289.694	5764
289.751	5438
289.809	5903
289.867	7414
289.925	11628
289.983	9489
290.040	6240
290.098	7219
290.156	9988
290.214	9916
290.271	6139
290.329	6341
290.387	5439
290.444	5156
290.502	4195
290.560	5362
290.617	5947
290.675	6143
290.733	7414
290.790	6627
290.848	5823
290.906	8398
290.963	6900
291.021	5802
291.078	6092
291.136	8074
291.194	39844
291.251	34580
291.309	10624
291.366	7373
291.424	8101
291.481	8190
291.539	9058
291.596	6483
291.654	4613
291.711	4367
291.769	11204
291.826	17007
291.884	8399
291.941	6898
291.999	6484
292.056	10130
292.114	8022
292.171	6522
292.228	8205
292.286	12225
292.343	21442
292.401	19862
292.458	10600
292.515	10296
292.573	12714
292.630	10735
292.687	8739
292.745	7826
292.802	14237
292.859	36100
292.917	50195
292.974	19823
293.031	10121
293.089	8628
293.146	6970
293.203	6790
293.260	5767
293.318	12019
293.375	11108
293.432	7322
293.489	6013
293.546	6147
293.604	12248
293.661	53941
293.718	67717
293.775	30172
293.832	19700
293.889	19305
293.947	17043
294.004	11078
294.061	12982
294.118	36893
294.175	54987
294.232	43694
294.289	18049
294.346	13985
294.403	11655
294.460	10215
294.517	9145
294.574	7525
294.631	6590
294.688	9649
294.745	40596
294.802	98315
294.859	62162
294.916	29916
294.973	20332
295.030	18710
295.087	13243
295.144	9950
295.201	7531
295.258	7104
295.315	13661
295.372	54324
295.429	49023
295.486	20688
295.542	16528
295.599	52906
295.656	44771
295.713	52996
295.770	44292
295.827	17940
295.883	12461
295.940	14526
295.997	26095
296.054	16373
296.111	10125
296.167	7870
296.224	6607
296.281	7258
296.338	6177
296.394	6570
296.451	11593
296.508	42995
296.564	40511
296.621	37775
296.678	101411
296.734	72905
296.791	27036
296.848	17799
296.904	29911
296.961	58294
297.018	71580
297.074	33239
297.131	16501
297.187	14796
297.244	25563
297.301	103974
297.357	82153
297.414	29153
297.470	15922
297.527	12123
297.583	12345
297.640	11417
297.696	8449
297.753	8020
297.809	6283
297.866	5428
297.922	5926
297.979	6242
298.035	9019
298.092	21522
298.148	49416
298.204	27202
298.261	17383
298.317	55294
298.374	78765
298.430	34692
298.486	21058
298.543	15657
298.599	15873
298.656	20008
298.712	48796
298.768	74184
298.824	33822
298.881	16863
298.937	11252
298.993	12813
299.050	14776
299.106	11943
299.162	10610
299.218	10287
299.275	8369
299.331	10146
299.387	35946
299.443	95579
299.500	61713
299.556	26342
299.612	17965
299.668	18711
299.724	28620
299.780	18294
299.837	11677
299.893	30766
299.949	86351
300.005	62739
300.061	89356
300.117	87931
300.173	36054
300.229	26967
300.285	38091
300.341	29657
300.397	16493
300.453	11625
300.510	10672
300.566	10534
300.622	20211
300.678	67838
300.734	72927
300.790	73982
300.845	60014
300.901	61722
300.957	78484
301.013	38393
301.069	19060
301.125	19270
301.181	17461
301.237	12742
301.293	9688
301.349	8790
301.405	8729
301.461	11973
301.516	12342
301.572	18755
301.628	23848
301.684	20156
301.740	42669
301.796	38275
301.851	37346
301.907	53658
301.963	43455
302.019	124779
302.074	222052
302.130	154757
302.186	66724
302.242	33765
302.297	23796
302.353	31462
302.409	48976
302.464	29956
302.520	44290
302.576	93555
302.631	76961
302.687	39329
302.743	20256
302.798	13996
302.854	11355
302.910	12174
302.965	19694
303.021	29599
303.076	27608
303.132	43511
303.187	35014
303.243	17483
303.299	12024
303.354	10408
303.410	9471
303.465	8935
303.521	8193
303.576	8592
303.632	11509
303.687	38976
303.743	72516
303.798	39953
303.853	19837
303.909	13015
303.964	14155
304.020	29405
304.075	28380
304.130	37636
304.186	56458
304.241	50516
304.297	35086
304.352	20081
304.358	19433
304.407	14176
304.449	15481
304.463	15933
304.518	14637
304.539	13443
304.573	11526
304.629	11219
304.630	11538
304.684	26028
304.720	56049
304.739	71523
304.794	59835
304.811	50867
304.850	28733
304.902	16781
304.905	16050
304.960	13991
304.992	14294
305.015	14566
305.071	13515
305.083	12841
305.126	10279
305.173	8083
305.181	7734
305.236	6800
305.264	8021
305.292	9325
305.347	13503
305.354	13476
305.402	13311
305.445	14737
305.457	15139
305.512	17263
305.535	16313
305.567	14914
305.622	15725
305.626	17013
305.678	39184
305.716	69879
305.733	82606
305.788	60702
305.807	57832
305.843	50952
305.897	71481
305.898	71781
305.953	49744
305.988	37340
306.008	29539
306.063	19285
306.078	17463
306.118	13956
306.168	10129
306.173	9795
306.228	8296
306.259	8149
306.283	8041
306.338	7923
306.349	8090
306.393	9212
306.440	10116
306.448	10196
306.503	8714
306.530	10848
306.558	13998
306.613	30498
306.620	32969
306.668	50556
306.711	64660
306.723	67070
306.778	44659
306.801	36786
306.833	25356
306.888	14226
306.892	13702
306.943	10314
306.982	9374
306.997	9170
307.052	8377
307.072	8455
307.107	8524
307.162	10169
307.163	10219
307.217	15186
307.253	18434
307.272	19716
307.327	17569
307.343	16846
307.381	14724
307.434	14322
307.436	14510
307.491	31070
307.524	45644
307.546	54911
307.600	49312
307.614	46209
307.655	28085
307.704	15123
307.710	14564
307.765	15314
307.795	20446
307.819	25819
307.874	33259
307.885	32673
307.929	25584
307.975	22502
307.984	22762
308.038	28207
308.065	37884
308.093	57026
308.148	141572
308.156	157364
308.202	263997
308.246	280194
308.257	265412
308.312	157721
308.336	122191
308.366	98525
308.421	61515
308.426	58810
308.475	39172
308.517	27380
308.530	25350
308.585	20848
308.607	19582
308.639	18655
308.694	18875
308.697	19355
308.748	30191
308.787	37276
308.803	38673
308.857	32047
308.877	30671
308.912	27832
308.967	27550
308.967	27627
309.021	37480
309.058	49143
309.076	59551
309.130	101808
309.148	121924
309.185	185189
309.238	303125
309.239	304684
309.293	356277
309.328	347562
309.348	302127
309.402	171665
309.418	139980
309.457	100958
309.508	63736
309.511	62725
309.566	56959
309.598	59245
309.620	67963
309.674	99456
309.688	105162
309.729	108014
309.778	98034
309.783	95190
309.837	63584
309.868	49375
309.892	49017
309.946	62078
309.959	66258
310.001	91833
310.049	106363
310.055	102615
310.109	63706
310.139	44481
310.163	35393
310.218	20335
310.229	17807
310.272	14559
310.319	11578
310.326	11172
310.381	9640
310.409	8757
310.435	8473
310.489	8296
310.499	8251
310.543	7680
310.589	7925
310.598	8023
310.652	8293
310.679	8391
310.706	7960
310.760	6946
310.769	6836
310.814	6248
310.859	5756
310.868	5725
310.923	5627
310.948	5748
310.977	6460
311.031	7840
311.038	8017
311.085	7540
311.128	7092
311.139	7128
311.193	7295
311.218	7414
311.247	7014
311.301	6267
311.308	6200
311.356	6295
311.398	6294
311.410	6213
311.464	5977
311.488	5866
311.518	5983
311.572	6257
311.578	6330
311.626	9183
311.668	11582
311.680	11299
311.734	9805
311.758	9218
311.788	9172
311.842	9043
311.847	9060
311.896	10015
311.937	10855
311.950	11140
312.004	12395
312.027	12930
312.058	11033
312.112	7731
312.117	7409
312.165	6747
312.207	6212
312.297	9547
312.386	8375
312.476	7678
312.566	15413
312.656	11103
312.745	5477
312.835	6553
312.925	7821
313.015	7102
313.104	7488
313.194	6274
313.284	7269
313.374	8859
313.463	11289
313.553	6372
313.643	6528
313.732	6775
313.822	6271
313.912	7294
314.001	7652
314.091	9164
314.180	10824
314.270	10864
314.360	10570
314.449	11213
314.539	7503
314.628	6383
314.718	7422
314.808	8503
314.897	8057
314.987	8404
315.076	9338
315.166	12170
315.255	9676
315.345	9990
315.434	8972
315.524	8452
315.613	9818
315.703	12801
315.792	16744
315.881	31669
315.971	21462
316.060	14718
316.150	17651
316.239	17351
316.328	10263
316.418	7320
316.507	7096
316.597	9794
316.686	10088
316.775	9393
316.865	17033
316.954	8985
317.043	5240
317.133	7206
317.222	6715
317.311	6867
317.400	6315
317.490	8695
317.579	11017
317.668	7438
317.757	10967
317.847	20294
317.936	53986
318.025	40809
318.114	19917
318.203	15560
318.293	17404
318.382	38950
318.471	35212
318.560	39420
318.649	54909
318.738	23416
318.828	9770
318.917	11798
319.006	8528
319.095	23150
319.184	66927
319.273	57030
319.362	33198
319.451	10613
319.540	9129
319.629	17346
319.718	38009
319.807	14814
319.896	23237
319.985	82809
320.074	53354
320.163	10761
320.252	11892
320.341	11862
320.430	14765
320.519	16189
320.608	14694
320.697	10883
320.786	10441
320.875	12054
320.964	14865
321.053	22509
321.142	31152
321.230	39353
321.319	23985
321.408	56747
321.497	34062
321.586	23565
321.675	21515
321.764	24094
321.852	16102
321.941	30423
322.030	29253
322.119	20679
322.207	56474
322.296	37479
322.385	21013
322.474	22672
322.562	64771
322.651	54221
322.740	23777
322.829	38241
322.917	27411
323.006	21831
323.095	19911
323.183	13757
323.272	17367
323.361	25740
323.449	59576
323.538	32333
323.626	40441
323.715	39519
323.804	11952
323.892	35399
323.981	38344
324.069	10562
324.158	17378
324.246	25753
324.335	12437
324.424	24521
324.512	11617
324.601	12285
324.689	20858
324.778	48247
324.866	25025
324.954	9113
325.043	8079
325.131	12367
325.220	17499
325.308	21076
325.397	16032
325.485	15317
325.574	7388
325.662	7356
325.750	7816
325.839	7903
325.927	5670
326.015	8917
326.104	8494
326.192	11838
326.280	6722
326.369	6894
326.457	10311
326.545	19841
326.634	12608
326.722	5025
326.810	6035
326.898	6712
326.987	7393
327.075	14669
327.163	17307
327.251	8476
327.340	13332
327.428	29693
327.516	8839
327.604	7677
327.692	6464
327.781	5932
327.869	9187
327.957	7838
328.045	9392
328.133	5595
328.221	5974
328.309	7065
328.397	6594
328.485	7746
328.574	10031
328.662	34915
328.750	28309
328.838	8047
328.926	6877
329.014	6111
329.102	8366
329.190	17978
329.278	19930
329.366	6469
329.454	4876
329.542	6552
329.630	6020
329.718	6480
329.806	8737
329.893	9277
329.981	9515
330.069	13593
330.157	49001
330.245	182320
330.333	145096
330.421	28449
330.509	13601
330.597	41150
330.684	42256
330.772	12699
330.860	11511
330.948	15913
331.036	11346
331.123	5748
331.211	5456
331.299	6468
331.387	11673
331.475	27615
331.562	11788
331.650	6239
331.738	6730
331.825	7610
331.913	5788
332.001	5567
332.089	6025
332.176	10230
332.264	16938
332.352	22005
332.439	9700
332.527	7423
332.614	5024
332.702	6475
332.790	6232
332.877	9564
332.965	23740
333.052	14150
333.140	10170
333.228	29483
333.315	14564
333.403	6658
333.490	11581
333.578	17777
333.665	36574
333.753	28585
333.840	8242
333.928	7914
334.015	12756
334.103	20187
334.190	76836
334.278	40367
334.365	13429
334.452	12650
334.540	9014
334.627	9396
334.715	11672
334.802	15857
334.889	55020
334.977	97933
335.064	26535
335.151	12792
335.239	9489
335.326	11007
335.413	31451
335.501	77256
335.588	15847
335.675	9849
335.762	10728
335.850	18499
335.937	15402
336.024	25440
336.111	84647
336.199	73980
336.286	20897
336.373	10855
336.460	8648
336.547	7072
336.635	8339
336.722	9486
336.809	7865
336.896	9560
336.983	22853
337.070	61623
337.157	94523
337.245	53089
337.332	44238
337.419	8702
337.506	6815
337.593	6953
337.680	14265
337.767	64985
337.854	27802
337.941	22059
338.028	20835
338.115	13119
338.202	8336
338.289	13749
338.376	42477
338.463	27450
338.550	27033
338.637	53079
338.724	11848
338.811	16988
338.898	6474
338.984	5407
339.071	7236
339.158	8111
339.245	19668
339.332	20550
339.419	10875
339.506	15340
339.593	5262
339.679	5697
339.766	6264
339.853	7355
339.940	18057
340.027	9708
340.113	6498
340.200	10435
340.287	8281
340.374	8125
340.460	17011
340.547	10439
340.634	9693
340.720	35556
340.807	39762
340.894	7096
340.980	6419
341.067	6962
341.154	6476
341.240	9599
341.327	24575
341.414	12799
341.500	13415
341.587	8359
341.674	5455
341.760	13458
341.847	22065
341.933	11125
342.020	3712
342.106	4143
342.193	5532
342.279	13294
342.366	10019
342.452	18143
342.539	11323
342.625	15122
342.712	48418
342.798	29366
342.885	12614
342.971	5323
343.058	5327
343.144	5163
343.230	6162
343.317	6024
343.403	7751
343.490	4771
343.576	4861
343.662	5258
343.749	6649
343.835	7873
343.921	10857
344.008	50233
344.094	187610
344.180	70981
344.267	16241
344.353	37746
344.439	67498
344.525	26076
344.612	13842
344.698	10202
344.784	9227
344.870	5794
344.957	6586
345.043	9746
345.129	8118
345.215	15856
345.301	13279
345.387	10150
345.474	5644
345.560	4642
345.646	5105
345.732	5893
345.818	7450
345.904	8829
345.990	7270
346.076	6891
346.162	11715
346.249	8711
346.335	5754
346.421	5440
346.507	13115
346.593	70727
346.679	34224
346.765	7993
346.851	6905
346.937	9526
347.023	5803
347.108	6159
347.194	8346
347.280	7309
347.366	6943
347.452	16536
347.538	77348
347.624	75718
347.710	65719
347.796	13713
347.882	6812
347.967	6962
348.053	7217
348.139	6868
348.225	5760
348.311	6408
348.397	5699
348.482	6426
348.568	10033
348.654	6009
348.740	8309
348.825	14161
348.911	9939
348.997	26223
349.083	87451
349.168	24849
349.254	7459
349.340	10363
349.425	5628
349.511	7686
349.597	9914
349.682	13030
349.768	48809
349.854	42948
349.939	6927
350.025	5213
350.110	5569
350.196	4908
350.282	5542
350.367	4813
350.453	6000
350.538	8203
350.624	9010
350.709	10363
350.795	5367
350.880	5949
350.966	6147
351.051	8469
351.137	7521
351.222	6031
351.308	12856
351.393	51670
351.479	25106
351.564	9391
351.649	6206
351.735	5865
351.820	5110
351.906	6833
351.991	7026
352.076	21192
352.162	57192
352.247	15307
352.332	8203
352.418	14752
352.503	20434
352.588	52938
352.673	84179
352.759	19078
352.844	9899
352.929	7923
353.014	13547
353.100	9183
353.185	12750
353.270	20060
353.355	23474
353.441	8612
353.526	6153
353.611	12012
353.696	23266
353.781	13512
353.866	8656
353.952	6479
354.037	11918
354.122	34340
354.207	35656
354.292	20033
354.377	7522
354.462	6660
354.547	8658
354.632	9443
354.717	9766
354.802	19139
354.887	11294
354.972	6483
355.057	6636
355.142	5086
355.227	7140
355.312	10915
355.397	20662
355.482	51021
355.567	41587
355.652	17548
355.737	24081
355.822	44302
355.907	72911
355.991	13673
356.076	8044
356.161	7072
356.246	6597
356.331	7971
356.416	11594
356.501	59742
356.585	126975
356.670	27390
356.755	11576
356.840	13016
356.924	42750
357.009	197651
357.094	144304
357.179	25062
357.263	18545
357.348	13074
357.433	15931
357.517	14037
357.602	13673
357.687	9782
357.771	14072
357.856	39335
357.941	39267
358.025	31214
358.110	174821
358.195	163746
358.279	26681
358.364	14328
358.448	29077
358.533	104697
358.617	108003
358.702	85522
358.787	50173
358.871	18698
358.956	22703
359.040	9645
359.125	6533
359.209	7411
359.294	15338
359.378	41797
359.462	22952
359.547	12892
359.631	8062
359.716	6251
359.800	6510
359.885	9853
359.969	9321
360.053	7076
360.138	6866
360.222	9428
360.306	17408
360.391	18415
360.475	18122
360.559	57294
360.644	43431
360.728	43732
360.812	31522
360.896	132915
360.981	80288
361.065	45399
361.149	13230
361.233	12361
361.318	10362
361.402	11471
361.486	9812
361.570	8494
361.654	10005
361.739	17324
361.823	61383
361.907	158223
361.991	50968
362.075	15524
362.159	33481
362.243	34266
362.327	28613
362.411	46077
362.495	27635
362.580	15293
362.664	10103
362.748	11115
362.832	13561
362.916	19162
363.000	50084
363.084	134102
363.168	202700
363.252	75400
363.336	20940
363.420	19237
363.503	44349
363.587	96065
363.671	26402
363.755	14377
363.839	20265
363.923	14340
364.007	17529
364.091	28259
364.175	22890
364.258	88925
364.342	117504
364.426	141173
364.510	113181
364.594	39895
364.677	26607
364.761	89714
364.845	126548
364.929	35910
365.013	34183
365.096	21415
365.180	29945
365.264	20688
365.347	85460
365.431	72176
365.515	18494
365.598	10621
365.682	9189
365.766	11379
365.849	19775
365.933	10751
366.017	11957
366.100	12019
366.184	7248
366.267	6722
366.351	7383
366.435	7526
366.518	6995
366.602	6478
366.685	7168
366.769	8394
366.852	10824
366.936	20830
367.019	18678
367.103	10328
367.186	18266
367.270	11106
367.353	6893
367.436	7152
367.520	7860
367.603	8750
367.687	12375
367.770	21935
367.853	17005
367.937	24409
368.020	73250
368.104	28840
368.187	14441
368.270	24633
368.353	27438
368.437	21026
368.520	29831
368.603	30876
368.687	31747
368.770	93581
368.853	38937
368.936	18685
369.020	23201
369.103	12725
369.186	8044
369.269	9881
369.352	11955
369.436	22828
369.519	16896
369.602	10358
369.685	8436
369.768	10407
369.851	8786
369.934	7340
370.018	7629
370.101	17124
370.184	17887
370.267	11552
370.350	16879
370.433	27707
370.516	49710
370.599	98179
370.682	36608
370.765	42633
370.848	60463
370.931	95309
371.014	64872
371.097	14365
371.180	11081
371.263	8303
371.346	7990
371.429	8646
371.511	9081
371.594	13444
371.677	20927
371.760	24909
371.843	21603
371.926	51731
372.009	189440
372.091	112128
372.174	40110
372.257	89541
372.340	67889
372.423	28665
372.505	38988
372.588	22718
372.671	23651
372.754	87038
372.836	82458
372.919	27253
373.002	66339
373.085	38142
373.167	20508
373.250	38660
373.332	89481
373.415	102529
373.498	231098
373.580	150149
373.663	81730
373.746	188791
373.828	70012
373.911	23036
373.993	18314
374.076	42498
374.159	73912
374.241	27362
374.324	69468
374.406	84056
374.489	45983
374.571	182979
374.654	142037
374.736	37357
374.819	98976
374.901	155623
374.983	212360
375.066	68312
375.148	17718
375.231	29912
375.313	94671
375.395	57709
375.478	17444
375.560	10494
375.643	12536
375.725	23813
375.807	112738
375.890	149031
375.972	48369
376.054	26725
376.136	28053
376.219	21335
376.301	24500
376.383	117162
376.465	86366
376.548	31387
376.630	35784
376.712	91473
376.794	89628
376.877	14859
376.959	7378
377.041	8505
377.123	11604
377.205	20696
377.287	9851
377.369	7238
377.452	6850
377.534	8676
377.616	7311
377.698	8794
377.780	7361
377.862	8258
377.944	8175
378.026	7349
378.108	5268
378.190	6508
378.272	7122
378.354	6378
378.436	6155
378.518	7900
378.600	24544
378.682	30872
378.764	46796
378.846	70242
378.928	18362
379.010	23069
379.091	20517
379.173	8101
379.255	7089
379.337	8488
379.419	18922
379.501	76105
379.583	62650
379.664	11614
379.746	18358
379.828	49111
379.910	82947
379.991	91516
380.073	28536
380.155	11359
380.237	10424
380.318	7951
380.400	8079
380.482	12690
380.564	24221
380.645	22497
380.727	28761
380.809	17836
380.890	12496
380.972	11358
381.053	10625
381.135	10332
381.217	17068
381.298	59465
381.380	53579
381.461	24021
381.543	70374
381.624	166200
381.706	55476
381.787	18875
381.869	20400
381.951	31521
382.032	145911
382.113	175338
382.195	47237
382.276	24687
382.358	33295
382.439	94471
382.521	115252
382.602	173752
382.684	116984
382.765	117766
382.846	191582
382.928	285341
383.009	259091
383.090	113995
383.172	269980
383.253	621380
383.334	313520
383.416	173610
383.497	144540
383.578	64268
383.659	89375
383.741	225812
383.822	674231
383.903	601359
383.984	182113
384.066	193659
384.147	184086
384.228	56587
384.309	29228
384.390	28252
384.471	20412
384.553	20545
384.634	21357
384.715	26784
384.796	17998
384.877	17106
384.958	40590
385.039	86742
385.120	46332
385.201	18947
385.282	18093
385.363	18963
385.444	18792
385.525	22433
385.606	63970
385.687	100639
385.768	30874
385.849	21529
385.930	55742
386.011	165811
386.092	86524
386.173	18837
386.254	12298
386.335	12382
386.416	13286
386.496	25795
386.577	70214
386.658	38316
386.739	16957
386.820	14121
386.901	13253
386.981	12228
387.062	10150
387.143	12868
387.224	44346
387.304	77355
387.385	31318
387.466	18936
387.547	19328
387.627	17960
387.708	18614
387.789	70274
387.869	147436
387.950	67940
388.031	13470
388.111	9387
388.192	14534
388.273	23818
388.353	21389
388.434	13357
388.514	16241
388.595	61132
388.676	138000
388.756	89660
388.837	53414
388.917	57114
388.998	14943
389.078	10710
389.159	9283
389.239	8551
389.320	12286
389.400	14469
389.480	15651
389.561	56795
389.641	55079
389.722	14059
389.802	21533
389.883	24526
389.963	60381
390.043	69477
390.124	20413
390.204	16562
390.284	56346
390.365	67170
390.445	31504
390.525	76430
390.605	104449
390.686	57171
390.766	22622
390.846	11789
390.927	8516
391.007	8977
391.087	10419
391.167	11527
391.247	10643
391.328	10156
391.408	14347
391.488	16617
391.568	9343
391.648	9318
391.728	16757
391.808	15881
391.888	17064
391.969	24520
392.049	65612
392.129	41676
392.209	23095
392.289	63023
392.369	63262
392.449	30570
392.529	29445
392.609	20331
392.689	20666
392.769	53130
392.849	85319
392.929	39682
393.009	82045
393.089	108036
393.169	66589
393.248	131711
393.328	463116
393.408	793988
393.488	370055
393.568	103641
393.648	49079
393.728	30766
393.807	23182
393.887	19455
393.967	17044
394.047	19032
394.127	22019
394.206	27468
394.286	56077
394.366	242712
394.446	480253
394.525	193604
394.605	46179
394.685	24885
394.764	34874
394.844	61464
394.924	73240
395.003	29963
395.083	17173
395.163	15276
395.242	13509
395.322	14698
395.402	12396
395.481	13406
395.561	19792
395.640	65003
395.720	85519
395.799	76607
395.879	90459
395.958	44941
396.038	81596
396.117	328994
396.197	608902
396.276	288172
396.356	89168
396.435	51999
396.515	38385
396.594	36376
396.673	55318
396.753	124228
396.832	462502
396.912	612803
396.991	230813
397.070	59454
397.150	29969
397.229	22008
397.308	21843
397.388	49152
397.467	40148
397.546	15378
397.625	10451
397.705	13517
397.784	14048
397.863	12524
397.942	8338
398.022	7745
398.101	12685
398.180	54870
398.259	56656
398.338	16817
398.417	10782
398.497	9072
398.576	7765
398.655	7622
398.734	6058
398.813	6391
398.892	11245
398.971	54000
399.050	60826
399.129	11520
399.208	5729
399.287	5054
399.366	4950
399.445	5400
399.524	5223
399.603	5554
399.682	8670
399.761	19206
399.840	53208
399.919	83021
399.998	20292
400.077	6337
400.156	4415
400.235	6485
400.313	5413
400.392	6243
400.471	16793
400.550	58623
400.629	31540
400.708	8089
400.786	7016
400.865	11460
400.944	21750
401.023	14937
401.102	5321
401.180	4484
401.259	3530
401.338	4867
401.416	7079
401.495	7838
401.574	5729
401.652	5054
401.731	6529
401.810	8292
401.888	6711
401.967	3886
402.046	5243
402.124	6133
402.203	10095
402.281	7647
402.360	6974
402.438	16493
402.517	21900
402.596	9037
402.674	6428
402.753	5950
402.831	3640
402.910	5365
402.988	12944
403.066	67193
403.145	81594
403.223	23489
403.302	61073
403.380	74454
403.459	59646
403.537	42778
403.615	12420
403.694	5338
403.772	4522
403.850	4033
403.929	3774
404.007	3989
404.085	7880
404.164	14893
404.242	8850
404.320	5840
404.398	9604
404.477	19103
404.555	82566
404.633	164254
404.711	45341
404.789	9800
404.868	7034
404.946	6518
405.024	4217
405.102	3671
405.180	3556
405.258	3430
405.336	4183
405.415	3249
405.493	7525
405.571	11118
405.649	6893
405.727	3398
405.805	6204
405.883	7306
405.961	6850
406.039	7351
406.117	6258
406.195	6210
406.273	15975
406.351	85843
406.429	116793
406.507	24017
406.585	7419
406.663	5834
406.740	7624
406.818	8610
406.896	5881
406.974	4754
407.052	6459
407.130	35786
407.208	114494
407.285	48278
407.363	6899
407.441	5430
407.519	5137
407.596	4892
407.674	8285
407.752	17052
407.830	28373
407.907	19625
407.985	8939
408.063	5230
408.141	2866
408.218	4499
408.296	8813
408.373	7844
408.451	6794
408.529	6958
408.606	4604
408.684	4017
408.762	3094
408.839	2444
408.917	2467
408.994	3852
409.072	4104
409.149	4143
409.227	5646
409.304	10572
409.382	9996
409.459	8406
409.537	11754
409.614	14731
409.692	10570
409.769	8520
409.846	12054
409.924	17717
410.001	17516
410.079	12573
410.156	8582
410.233	6716
410.311	5853
410.388	4724
410.465	5925
410.543	7709
410.620	6145
410.697	4707
410.775	6927
410.852	5343
410.929	5235
411.006	9449
411.083	6360
411.161	9711
411.238	16929
411.315	10010
411.392	5575
411.469	5795
411.547	9180
411.624	6388
411.701	5167
411.778	4364
411.855	8806
411.932	10953
412.009	5217
412.086	3563
412.163	4678
412.240	5509
412.317	6718
412.394	7645
412.471	4405
412.548	3129
412.625	4139
412.702	3929
412.779	8198
412.856	9841
412.933	4105
413.010	3735
413.087	3949
413.164	15663
413.241	53471
413.318	25024
413.395	7151
413.471	10773
413.548	10047
413.625	3701
413.702	4432
413.779	5738
413.855	3236
413.932	2557
414.009	2186
414.086	2748
414.162	2927
414.239	4886
414.316	13179
414.393	58415
414.469	51920
414.546	7131
414.623	3309
414.699	2766
414.776	5067
414.853	4203
414.929	3857
415.006	3704
415.082	4101
415.159	4341
415.236	2892
415.312	3593
415.389	5148
415.465	10530
415.542	8818
415.618	3320
415.695	7071
415.771	6193
415.848	4927
415.924	4273
416.000	4398
416.077	3529
416.153	2059
416.230	1871
416.306	1739
416.383	2057
416.459	3067
416.535	2091
416.612	3070
416.688	2688
416.764	2321
416.841	2981
416.917	3305
416.993	3315
417.069	3142
417.146	5651
417.222	7868
417.298	7971
417.374	4032
417.451	3860
417.527	5148
417.603	7403
417.679	5862
417.755	3743
417.831	2807
417.908	2686
417.984	1805
418.060	2783
418.136	5031
418.212	13767
418.288	8828
418.364	3796
418.440	3055
418.516	5476
418.592	6058
418.668	10511
418.744	21064
418.820	22603
418.896	9456
418.972	3632
419.048	3374
419.124	6375
419.200	12098
419.276	5420
419.352	2295
419.428	2682
419.504	2631
419.579	5223
419.655	4845
419.731	4687
419.807	8252
419.883	21285
419.959	26026
420.034	9624
420.110	6561
420.186	27169
420.262	53881
420.337	15413
420.413	6225
420.489	5782
420.565	3948
420.640	3815
420.716	5272
420.792	4528
420.867	5499
420.943	4433
421.019	6387
421.094	9441
421.170	6364
421.245	5409
421.321	5402
421.397	6327
421.472	6872
421.548	12367
421.623	18582
421.699	12799
421.774	9405
421.850	9694
421.925	12396
422.001	15457
422.076	13907
422.152	14772
422.227	21152
422.302	29945
422.378	36819
422.453	61215
422.529	117241
422.604	282682
422.679	496764
422.755	482671
422.830	313984
422.905	131491
422.981	67580
423.056	42560
423.131	30628
423.207	23134
423.282	18020
423.357	21772
423.432	22543
423.508	15439
423.583	21756
423.658	32031
423.733	13710
423.808	10891
423.883	11460
423.959	11309
424.034	10354
424.109	9884
424.184	7097
424.259	5708
424.334	5304
424.409	5107
424.484	4245
424.559	6272
424.634	4960
424.709	5711
424.784	8102
424.859	7467
424.934	5341
425.009	17351
425.084	49638
425.159	41912
425.234	9369
425.309	3453
425.384	5616
425.459	21468
425.534	15862
425.609	5186
425.683	3680
425.758	3125
425.833	4235
425.908	4815
425.983	8213
426.058	40715
426.132	46940
426.207	10963
426.282	5448
426.357	7289
426.431	4927
426.506	4284
426.581	3673
426.655	3690
426.730	3722
426.805	3860
426.879	4479
426.954	4810
427.029	6183
427.103	20398
427.178	87228
427.253	97015
427.327	18377
427.402	6030
427.476	16604
427.551	22354
427.625	6689
427.700	4849
427.774	3598
427.849	4633
427.923	4496
427.998	3580
428.072	3835
428.147	7881
428.221	18561
428.296	88274
428.370	126005
428.444	27452
428.519	8626
428.593	12523
428.667	18584
428.742	14438
428.816	17973
428.890	34307
428.965	129762
429.039	90613
429.113	24146
429.188	16812
429.262	5654
429.336	5814
429.410	18617
429.485	28361
429.559	12822
429.633	16903
429.707	8073
429.781	7708
429.855	36408
429.930	131178
430.004	93181
430.078	56272
430.152	75867
430.226	93239
430.300	207023
430.374	83059
430.448	14763
430.522	12690
430.596	46715
430.670	64843
430.744	61566
430.818	202603
430.892	114184
430.966	15157
431.040	6814
431.114	4000
431.188	2967
431.262	4437
431.336	3449
431.410	4831
431.484	14102
431.557	23622
431.631	8486
431.705	4393
431.779	9478
431.853	59919
431.927	126474
432.000	34885
432.074	5503
432.148	4382
432.222	4591
432.295	4075
432.369	3141
432.443	4217
432.516	14616
432.590	81608
432.664	93018
432.737	16445
432.811	3953
432.885	2300
432.958	2224
433.032	3195
433.106	2308
433.179	2206
433.253	1608
433.326	1726
433.400	1855
433.473	1472
433.547	1824
433.620	1718
433.694	4523
433.767	8255
433.841	3127
433.914	3191
433.988	2618
434.061	2601
434.134	2578
434.208	2576
434.281	926
434.355	1250
434.428	1978
434.501	2763
434.575	1624
434.648	1807
434.721	1855
434.795	2171
434.868	1168
434.941	1589
435.014	1316
435.088	2057
435.161	3349
435.234	5714
435.307	10796
435.381	7948
435.454	5104
435.527	6085
435.600	8152
435.673	7399
435.746	5982
435.819	4741
435.892	4162
435.966	3991
436.039	2501
436.112	3664
436.185	1983
436.258	2664
436.331	1569
436.404	1612
436.477	1194
436.550	1277
436.623	1684
436.696	1498
436.769	2443
436.842	2639
436.915	1930
436.987	3420
437.060	3739
437.133	2066
437.206	1707
437.279	2756
437.352	2360
437.425	1882
437.498	2314
437.570	4886
437.643	11597
437.716	6333
437.789	2051
437.861	3306
437.934	12622
438.007	19128
438.080	4593
438.152	3131
438.225	5125
438.298	18489
438.370	109367
438.443	137736
438.516	37429
438.588	12008
438.661	2969
438.734	1973
438.806	2614
438.879	4520
438.951	4383
439.024	9344
439.096	7785
439.169	3857
439.241	2432
439.314	1630
439.386	2724
439.459	5512
439.531	7072
439.604	8416
439.676	3230
439.749	2214
439.821	2298
439.893	2529
439.966	2275
440.038	3112
440.110	3783
440.183	4218
440.255	2622
440.327	3499
440.400	8705
440.472	51916
440.544	113089
440.617	35069
440.689	8474
440.761	7909
440.833	14057
440.905	16630
440.978	6482
441.050	2835
441.122	2399
441.194	1387
441.266	2289
441.338	2569
441.411	3685
441.483	12910
441.555	55964
441.627	37515
441.699	7315
441.771	5954
441.843	4735
441.915	3255
441.987	2838
442.059	3057
442.131	3143
442.203	6031
442.275	6627
442.347	8407
442.419	8817
442.491	21955
442.563	113012
442.635	134175
442.706	35980
442.778	29858
442.850	14035
442.922	4791
442.994	4753
443.066	6440
443.137	7560
443.209	6831
443.281	7652
443.353	12821
443.425	31021
443.496	143853
443.568	310749
443.640	200683
443.711	52931
443.783	12702
443.855	7947
443.926	5413
443.998	4743
444.070	5715
444.141	5628
444.213	6549
444.285	9650
444.356	8849
444.428	7477
444.499	5048
444.571	3080
444.642	3130
444.714	2690
444.785	6653
444.857	8799
444.928	10702
445.000	14215
445.071	9328
445.143	14137
445.214	13547
445.285	13447
445.357	26946
445.428	73815
445.500	277249
445.571	350880
445.642	205933
445.714	90328
445.785	37899
445.856	22556
445.928	10990
445.999	12239
446.070	10887
446.141	7482
446.213	11322
446.284	9063
446.355	5534
446.426	4288
446.497	4003
446.569	4095
446.640	8274
446.711	11132
446.782	6865
446.853	2486
446.924	4070
446.995	4031
447.066	3679
447.138	4329
447.209	5299
447.280	2598
447.351	2564
447.422	1738
447.493	2501
447.564	4331
447.635	5672
447.706	8169
447.777	2628
447.847	1609
447.918	1569
447.989	2713
448.060	4177
448.131	5962
448.202	10787
448.273	10208
448.344	7553
448.414	3025
448.485	2491
448.556	3035
448.627	2170
448.698	1954
448.768	1291
448.839	1824
448.910	3216
448.981	6870
449.051	5116
449.122	2628
449.193	1703
449.263	2129
449.334	2466
449.405	2050
449.475	6815
449.546	11740
449.616	6995
449.687	7774
449.758	4827
449.828	2546
449.899	2352
449.969	2585
450.040	2672
450.110	2325
450.181	2884
450.251	2892
450.322	3307
450.392	2423
450.463	2641
450.533	2620
450.604	2601
450.674	2429
450.744	2412
450.815	2120
450.885	2779
450.955	2256
451.026	2287
451.096	2393
451.166	2650
451.237	3132
451.307	11090
451.377	12720
451.447	4667
451.518	2213
451.588	2265
451.658	2998
451.728	3528
451.799	7405
451.869	20273
451.939	12124
452.009	3524
452.079	2468
452.149	2237
452.219	2431
452.289	8315
452.360	21204
452.430	8945
452.500	2737
452.570	3748
452.640	6061
452.710	11279
452.780	27692
452.850	24976
452.920	23819
452.990	17868
453.060	6496
453.129	5012
453.199	7528
453.269	8508
453.339	49989
453.409	91510
453.479	52111
453.549	78984
453.619	99482
453.688	83248
453.758	21014
453.828	4686
453.898	3666
453.968	3069
454.037	2665
454.087	3049
454.107	3190
454.168	2401
454.177	2262
454.247	2432
454.249	2457
454.316	2570
454.330	2587
454.386	2502
454.411	3370
454.456	4328
454.492	9377
454.525	13807
454.574	12210
454.595	11595
454.655	5632
454.665	4672
454.734	3860
454.736	3947
454.804	4823
454.817	6015
454.873	9443
454.898	13285
454.943	19789
454.979	16330
455.013	13504
455.060	8477
455.082	6461
455.141	5276
455.152	4958
455.221	7730
455.222	7978
455.291	16344
455.303	16472
455.360	18020
455.384	14668
455.430	8547
455.465	8714
455.499	8678
455.546	10487
455.569	10462
455.627	14143
455.638	15108
455.707	7777
455.708	7773
455.777	3530
455.789	3523
455.846	3396
455.869	3463
455.916	3629
455.950	3569
455.985	3425
456.031	3208
456.054	3045
456.112	3089
456.124	3107
456.193	3255
456.193	3233
456.262	3686
456.274	3812
456.332	4040
456.355	4274
456.401	4118
456.436	3946
456.470	3949
456.516	3654
456.540	3587
456.597	2722
456.609	2481
456.678	2915
456.678	2900
456.747	2790
456.759	2820
456.817	2776
456.840	2647
456.886	2420
456.920	2693
456.955	3101
457.001	3383
457.024	3652
457.082	4757
457.093	4945
457.162	6994
457.163	7034
457.232	6634
457.243	6433
457.301	5206
457.324	4320
457.370	3350
457.405	3611
457.439	3903
457.485	3621
457.508	3522
457.566	4328
457.577	4542
457.646	6300
457.647	6343
457.715	10712
457.727	11524
457.784	17249
457.808	20770
457.853	23821
457.889	30151
457.922	31560
457.969	26951
457.991	29591
458.050	30434
458.060	30929
458.129	43229
458.130	43870
458.198	42183
458.211	40358
458.267	36151
458.292	27108
458.336	17913
458.372	15323
458.405	16599
458.453	21862
458.474	27102
458.533	45589
458.543	46799
458.611	64854
458.614	66059
458.680	56282
458.694	46933
458.749	30895
458.775	22689
458.818	12361
458.855	9441
458.887	7523
458.936	6423
458.955	5968
459.016	5934
459.024	5924
459.093	5923
459.097	5915
459.162	6102
459.177	6365
459.230	7288
459.257	7670
459.299	7567
459.338	7930
459.368	8527
459.418	8885
459.437	8449
459.499	7894
459.505	7953
459.574	6523
459.579	6520
459.643	6319
459.659	6212
459.711	6263
459.740	6230
459.780	6457
459.820	7350
459.849	7636
459.900	7747
459.917	7734
459.981	8160
459.986	8167
460.054	7827
460.061	7810
460.123	8885
460.141	9181
460.191	10800
460.222	12028
460.260	13245
460.302	14826
460.328	13519
460.382	11404
460.397	11534
460.462	9950
460.465	10011
460.534	11858
460.543	12150
460.602	21725
460.623	25241
460.671	38942
460.703	49856
460.739	41909
460.783	37336
460.808	35045
460.864	15204
460.876	14215
460.944	7965
460.945	7876
461.013	7112
461.024	7035
461.081	7591
461.104	8276
461.150	7879
461.184	7141
461.218	6969
461.264	6691
461.286	6897
461.345	7105
461.355	6979
461.423	6708
461.425	6698
461.491	7159
461.505	7299
461.559	11338
461.585	13053
461.628	20290
461.665	27203
461.696	28702
461.745	32469
461.764	27714
461.825	13360
461.832	13805
461.901	10426
461.905	10339
461.969	7886
461.985	7772
462.037	7258
462.065	6932
462.105	7862
462.145	8628
462.173	11167
462.225	16112
462.241	17625
462.305	23786
462.310	23073
462.378	13949
462.385	12681
462.446	11228
462.465	10253
462.514	8841
462.545	8364
462.582	7630
462.625	7661
462.650	7754
462.705	7275
462.718	7366
462.785	8114
462.786	8156
462.854	10264
462.865	10608
462.922	12445
462.945	13471
462.990	10685
463.025	8330
463.058	8021
463.104	6818
463.126	6837
463.184	7208
463.194	7254
463.262	7648
463.264	7680
463.330	7791
463.344	7704
463.398	8163
463.424	8303
463.466	8270
463.504	8506
463.533	8590
463.583	8465
463.601	8818
463.663	10107
463.669	10407
463.737	13775
463.743	14093
463.805	18712
463.823	20021
463.873	28892
463.903	34244
463.940	34886
463.982	36172
464.008	29037
464.062	14174
464.076	13836
464.142	8786
464.144	8741
464.211	8014
464.221	8040
464.279	8895
464.301	9149
464.347	9746
464.381	10387
464.414	11230
464.461	12409
464.482	12897
464.540	13880
464.550	13708
464.617	12569
464.620	12512
464.685	14092
464.699	14436
464.753	16467
464.779	17512
464.820	18996
464.859	20207
464.888	19213
464.938	17626
464.956	17419
465.018	16145
465.023	16014
465.091	14215
465.098	14003
465.158	14101
465.177	14153
465.226	14811
465.257	15277
465.293	15616
465.336	15812
465.361	17438
465.416	20950
465.428	21647
465.495	25542
465.496	25648
465.563	36365
465.575	38110
465.631	44632
465.654	47579
465.698	31188
465.734	17630
465.765	16849
465.813	14375
465.833	14040
465.893	13666
465.900	13713
465.968	14280
465.972	14300
466.035	14893
466.052	15010
466.102	15242
466.131	15386
466.170	16006
466.210	16574
466.237	16585
466.290	16527
466.304	16753
466.369	17577
466.372	17656
466.439	19176
466.449	19377
466.506	21697
466.528	22518
466.573	27723
466.607	31509
466.641	43595
466.687	60408
466.708	65153
466.766	77809
466.775	72695
466.842	33664
466.845	31753
466.909	26821
466.925	25513
466.977	23554
467.004	22657
467.044	22705
467.083	22701
467.111	24880
467.163	28876
467.178	29591
467.242	32314
467.245	32195
467.312	28492
467.321	27950
467.379	25968
467.400	25172
467.446	26504
467.480	27387
467.559	24229
467.638	21688
467.717	23587
467.796	24963
467.875	29362
467.955	24846
468.034	32857
468.113	62342
468.192	88089
468.271	29018
468.350	24585
468.429	28190
468.508	29514
468.588	23235
468.667	20907
468.746	21009
468.825	21132
468.904	17203
468.983	21163
469.062	29490
469.141	34119
469.220	18071
469.299	17409
469.378	20572
469.456	24671
469.535	22667
469.614	21071
469.693	22104
469.772	25285
469.851	34721
469.930	25360
470.009	21446
470.088	24622
470.166	33056
470.245	55075
470.324	70091
470.403	43286
470.482	28592
470.560	23138
470.639	24329
470.718	27809
470.797	21159
470.875	24935
470.954	31059
471.033	30676
471.111	16532
471.190	15921
471.269	15215
471.347	16572
471.426	17728
471.505	18485
471.583	21605
471.662	18715
471.740	17640
471.819	18204
471.898	17187
471.976	16980
472.055	17492
472.133	17711
472.212	22360
472.290	22952
472.369	17186
472.447	15396
472.526	16076
472.604	16229
472.683	19529
472.761	21368
472.839	18896
472.918	16929
472.996	18166
473.075	19199
473.153	18204
473.231	16071
473.310	19362
473.388	19402
473.466	18336
473.545	22410
473.623	31769
473.701	29869
473.780	17613
473.858	18053
473.936	17759
474.014	16607
474.093	19950
474.171	24571
474.249	33089
474.327	21928
474.405	16008
474.484	16029
474.562	16944
474.640	16981
474.718	17749
474.796	18522
474.874	16838
474.952	14528
475.030	15736
475.108	18003
475.187	20798
475.265	22623
475.343	34948
475.421	38892
475.499	16332
475.577	16311
475.655	20373
475.733	36649
475.811	59126
475.889	53741
475.966	34579
476.044	18707
476.122	26070
476.200	34999
476.278	24559
476.356	14286
476.434	17325
476.512	22001
476.590	32818
476.667	24700
476.745	14159
476.823	16718
476.901	14125
476.979	14694
477.056	14154
477.134	15619
477.212	16056
477.290	15418
477.367	13116
477.445	13292
477.523	13164
477.601	13479
477.678	13649
477.756	15824
477.834	16716
477.911	13505
477.989	13005
478.066	13285
478.144	16885
478.222	23023
478.299	42747
478.377	35200
478.454	13237
478.532	12251
478.609	15776
478.687	16816
478.764	13177
478.842	14835
478.919	18355
478.997	14883
479.074	12926
479.152	14143
479.229	17349
479.307	12120
479.384	10032
479.461	11323
479.539	11180
479.616	14441
479.694	11682
479.771	13914
479.848	15697
479.926	18819
480.003	19587
480.080	12248
480.157	11561
480.235	12177
480.312	12413
480.389	13076
480.467	21029
480.544	24602
480.621	14878
480.698	14103
480.775	16566
480.853	15571
480.930	12627
481.007	13015
481.084	14770
481.161	16073
481.238	14279
481.315	11856
481.392	11388
481.470	12089
481.547	11947
481.624	11830
481.701	11336
481.778	11522
481.855	13967
481.932	18851
482.009	32986
482.086	22412
482.163	15669
482.240	26712
482.317	56639
482.393	36841
482.470	13125
482.547	13802
482.624	13161
482.701	13006
482.778	12916
482.855	11307
482.932	10977
483.009	11363
483.085	13680
483.162	17007
483.239	17548
483.316	13783
483.393	13356
483.469	13334
483.546	14326
483.623	14640
483.699	11553
483.776	12530
483.853	15709
483.930	21275
484.006	47948
484.083	82449
484.160	50190
484.236	79418
484.313	60537
484.389	44840
484.466	38773
484.543	38493
484.619	40266
484.696	41820
484.772	41284
484.849	41879
484.925	35962
485.002	36120
485.078	37170
485.155	37661
485.231	33692
485.308	32085
485.384	34260
485.461	38795
485.537	60374
485.614	67607
485.690	33847
485.766	32195
485.843	37154
485.919	55777
485.995	57781
486.072	31691
486.148	29476
486.224	29627
486.301	31181
486.377	35382
486.453	37122
486.530	34290
486.606	45127
486.682	50797
486.758	55074
486.835	61564
486.911	51787
486.987	80420
487.063	103644
487.139	145642
487.215	94748
487.292	40986
487.368	35259
487.444	39762
487.520	49066
487.596	51051
487.672	79363
487.748	201268
487.824	314822
487.900	102951
487.976	43809
488.052	40887
488.128	48114
488.204	39752
488.280	31854
488.356	38740
488.432	63399
488.508	96058
488.584	40293
488.660	30765
488.736	31059
488.812	34554
488.888	43835
488.964	62211
489.039	142656
489.115	220733
489.191	114115
489.267	32471
489.343	29652
489.418	26207
489.494	25498
489.570	24515
489.646	26094
489.722	24950
489.797	27566
489.873	36864
489.949	71460
490.024	58785
490.100	26192
490.176	26823
490.251	33944
490.327	48251
490.403	26754
490.478	23076
490.554	20903
490.629	22563
490.705	21819
490.781	23835
490.856	22963
490.932	28598
491.007	29646
491.083	27157
491.158	23196
491.234	29046
491.309	53390
491.385	55651
491.460	24430
491.536	23517
491.611	22969
491.686	25464
491.762	39833
491.837	85590
491.913	146558
491.988	198402
492.063	263020
492.139	53619
492.214	31589
492.289	20836
492.365	20676
492.440	24669
492.515	22187
492.590	22438
492.666	19318
492.741	24879
492.816	35735
492.891	21063
492.967	18972
493.042	16196
493.117	17549
493.192	17294
493.267	21287
493.342	31515
493.418	30919
493.493	18292
493.568	15621
493.643	16554
493.718	21795
493.793	33486
493.868	44076
493.943	27165
494.018	18768
494.093	16645
494.168	16934
494.243	16593
494.318	15338
494.393	15069
494.468	15744
494.543	17142
494.618	20210
494.693	17934
494.768	15823
494.842	17577
494.917	15308
494.992	17433
495.067	15810
495.142	14450
495.217	17081
495.292	15518
495.366	18146
495.441	23406
495.516	30155
495.591	55567
495.665	185427
495.740	469886
495.815	159060
495.890	26154
495.964	19754
496.039	21238
496.114	20284
496.188	21987
496.263	22208
496.338	19635
496.412	20874
496.487	24900
496.561	30159
496.636	31321
496.710	22948
496.785	24995
496.860	27257
496.934	23953
497.009	23687
497.083	24354
497.158	26436
497.232	29722
497.307	35690
497.381	29974
497.455	33520
497.530	40860
497.604	30743
497.679	32571
497.753	47513
497.827	65970
497.902	64013
497.976	73346
498.050	144708
498.125	478707
498.199	489411
498.273	111816
498.348	91721
498.422	71973
498.496	66131
498.570	57164
498.645	39381
498.719	35864
498.793	38014
498.867	52750
498.941	75251
499.016	180963
499.090	513517
499.164	165507
499.238	25902
499.312	24180
499.386	34426
499.460	27984
499.534	23553
499.609	27922
499.683	39485
499.757	37925
499.831	82638
499.905	312923
499.979	295489
500.053	45747
500.127	49620
500.201	45448
500.275	24477
500.349	21608
500.422	26069
500.496	44970
500.570	105626
500.644	187726
500.718	339294
500.792	69965
500.866	19454
500.940	24558
501.013	20726
501.087	21799
501.161	44704
501.235	57553
501.309	96630
501.382	268119
501.456	244031
501.530	54807
501.603	86485
501.677	34012
501.751	16846
501.825	21816
501.898	37947
501.972	103539
502.046	65266
502.119	23412
502.193	51191
502.266	116922
502.340	55503
502.413	48584
502.487	98129
502.561	57373
502.634	21190
502.708	21586
502.781	19373
502.855	13666
502.928	11840
503.002	11672
503.075	11527
503.149	11540
503.222	12051
503.295	13330
503.369	15742
503.442	26052
503.516	74320
503.589	197330
503.662	125853
503.736	39018
503.809	90211
503.882	77039
503.956	110522
504.029	119202
504.102	116870
504.175	162809
504.249	58277
504.322	27400
504.395	21949
504.468	14837
504.542	14603
504.615	12404
504.688	11556
504.761	12299
504.834	16412
504.907	23022
504.980	40523
505.053	17924
505.127	25267
505.200	24279
505.273	19132
505.346	12439
505.419	11250
505.492	9529
505.565	8237
505.638	9460
505.711	9040
505.784	9022
505.857	7876
505.930	9041
506.003	9167
506.076	10425
506.149	12622
506.221	17390
506.294	17520
506.367	43419
506.440	141127
506.513	78677
506.586	19135
506.659	13069
506.731	12514
506.804	15981
506.877	26009
506.950	14577
507.022	10738
507.095	13798
507.168	17551
507.241	12683
507.313	10212
507.386	14302
507.459	21701
507.531	12668
507.604	10460
507.677	9668
507.749	10320
507.822	15094
507.894	34290
507.967	38482
508.040	22486
508.112	19072
508.185	17301
508.257	17451
508.330	26254
508.402	17209
508.475	14645
508.547	16540
508.620	16184
508.692	22716
508.765	15659
508.837	12242
508.909	13635
508.982	13540
509.054	16037
509.127	14679
509.199	12333
509.271	11744
509.344	11329
509.416	10879
509.488	12157
509.560	12113
509.633	15617
509.705	18303
509.777	16860
509.849	24614
509.922	17809
509.994	12153
510.066	12729
510.138	14887
510.210	27414
510.283	28058
510.355	22218
510.427	18935
510.499	18102
510.571	17832
510.643	20030
510.715	30793
510.787	28998
510.859	18298
510.931	20683
511.003	30153
511.076	26232
511.148	16279
511.219	16697
511.291	21705
511.363	25250
511.435	15412
511.507	13821
511.579	13106
511.651	14472
511.723	13869
511.795	13498
511.867	14774
511.939	17294
512.010	29940
512.082	26167
512.154	16559
512.226	17332
512.298	24752
512.369	39629
512.441	29609
512.513	30787
512.585	23484
512.656	21105
512.728	24775
512.800	19173
512.871	17574
512.943	17674
513.015	16906
513.086	18509
513.158	21357
513.230	22723
513.301	33585
513.373	38745
513.444	20561
513.516	17226
513.588	17921
513.659	19786
513.731	27126
513.802	25345
513.874	47590
513.945	91603
514.016	29390
514.088	17876
514.159	22658
514.231	27957
514.302	36609
514.374	24960
514.445	23476
514.516	35366
514.588	29966
514.659	22320
514.730	34648
514.802	33002
514.873	29917
514.944	28451
515.016	24915
515.087	27520
515.158	29613
515.229	38294
515.301	31109
515.372	39497
515.443	28421
515.514	21914
515.585	17854
515.656	18913
515.728	17166
515.799	17748
515.870	18840
515.941	21055
516.012	21692
516.083	26150
516.154	31247
516.225	39915
516.296	34929
516.367	31455
516.438	36476
516.509	55834
516.580	103048
516.651	307488
516.722	1042797
516.793	433076
516.864	64082
516.935	55673
517.006	72068
517.077	126560
517.148	338852
517.219	1120749
517.289	1769333
517.360	326883
517.431	90032
517.502	36962
517.573	33323
517.643	30947
517.714	33605
517.785	33350
517.856	33238
517.926	38437
517.997	46030
518.068	64596
518.138	109342
518.209	235079
518.280	762434
518.350	2467819
518.421	995753
518.492	109203
518.562	54107
518.633	49059
518.703	51932
518.774	80834
518.845	178928
518.915	187104
518.986	64292
519.056	45916
519.127	77675
519.197	109088
519.268	175002
519.338	109536
519.408	34988
519.479	46719
519.549	37471
519.620	22495
519.690	18918
519.760	18580
519.831	21069
519.901	20428
519.971	15815
520.042	17948
520.112	20963
520.182	23667
520.253	29190
520.323	19038
520.393	26098
520.463	42665
520.534	29839
520.604	55581
520.674	27424
520.744	27171
520.814	64057
520.885	62160
520.955	55137
521.025	171756
521.095	78340
521.165	17134
521.235	17572
521.305	14940
521.375	15205
521.445	18307
521.515	26848
521.585	29458
521.655	31068
521.725	22525
521.795	19889
521.865	15512
521.935	19702
522.005	19020
522.075	13522
522.145	14282
522.215	16206
522.285	22319
522.355	27823
522.424	48705
522.494	45889
522.564	32374
522.634	68371
522.704	190800
522.774	78571
522.843	16811
522.913	17652
522.983	24878
523.053	18713
523.122	20308
523.192	34546
523.262	108074
523.331	109042
523.401	19865
523.471	13508
523.540	14506
523.610	11679
523.680	11059
523.749	11771
523.819	14722
523.888	15156
523.958	11844
524.027	12187
524.097	13876
524.166	13203
524.236	16552
524.305	14076
524.375	13137
524.444	11887
524.514	12662
524.583	13719
524.653	16885
524.722	17547
524.791	14236
524.861	12193
524.930	12996
524.999	14823
525.069	21073
525.138	14945
525.207	17354
525.277	14116
525.346	13982
525.415	13706
525.484	14964
525.554	17034
525.623	15053
525.692	14836
525.761	15860
525.830	16117
525.900	21271
525.969	33354
526.038	63251
526.107	123713
526.176	346547
526.245	315926
526.314	102076
526.383	178941
526.452	282070
526.522	383504
526.591	449539
526.660	122028
526.729	57688
526.797	71546
526.867	168344
526.935	587725
527.004	959091
527.073	584831
527.142	53150
527.211	22741
527.280	23717
527.349	24493
527.418	13932
527.487	14087
527.555	12633
527.624	11381
527.693	10526
527.762	11824
527.831	11174
527.899	10499
527.968	11141
528.037	12363
528.106	16111
528.174	32825
528.243	24437
528.312	30664
528.380	47407
528.449	15660
528.518	10658
528.586	8590
528.655	8864
528.723	8447
528.792	9157
528.861	10752
528.929	8746
528.998	8857
529.066	8387
529.135	8256
529.203	8850
529.272	8546
529.340	10500
529.409	9082
529.477	9478
529.545	11060
529.614	13697
529.682	14813
529.751	16819
529.819	16898
529.887	13621
529.956	10146
530.024	10783
530.092	10704
530.161	13057
530.229	24382
530.297	14028
530.365	10061
530.434	8930
530.502	9167
530.570	8510
530.638	8193
530.707	11122
530.775	11510
530.843	9495
530.911	8675
530.979	9983
531.047	8723
531.115	10524
531.183	8868
531.252	9716
531.320	8632
531.388	9447
531.456	10238
531.524	9188
531.592	10460
531.660	10874
531.728	10278
531.796	9593
531.864	9221
531.932	10285
532.000	9514
532.067	10826
532.135	12042
532.203	13538
532.271	18269
532.339	29567
532.407	80326
532.475	48414
532.542	18239
532.610	24276
532.678	45416
532.746	133490
532.814	358869
532.881	99290
532.949	15793
533.017	13167
533.084	11778
533.152	10767
533.220	11527
533.287	13632
533.355	11274
533.423	10144
533.490	10770
533.558	10604
533.625	11580
533.693	13021
533.761	11752
533.828	13924
533.896	14759
533.963	27930
534.031	35763
534.098	46895
534.166	24507
534.233	13556
534.300	12572
534.368	12001
534.435	13190
534.503	13421
534.570	15201
534.637	14873
534.705	17825
534.772	25027
534.840	48112
534.907	148122
534.974	229201
535.041	33855
535.109	17777
535.176	13800
535.243	12885
535.310	13577
535.378	13745
535.445	11089
535.512	11718
535.579	11919
535.646	11694
535.714	12556
535.781	15448
535.848	15219
535.915	14291
535.982	13048
536.049	13499
536.116	14248
536.183	13675
536.250	13679
536.317	15002
536.384	18388
536.451	27167
536.518	28802
536.585	20964
536.652	23356
536.719	35113
536.786	29551
536.853	21448
536.920	31065
536.987	54582
537.053	61113
537.120	164158
537.187	169941
537.254	21098
537.321	14682
537.388	15066
537.454	13265
537.521	13143
537.588	12922
537.654	15456
537.721	19029
537.788	19219
537.855	15358
537.921	15535
537.988	15979
538.055	15173
538.121	15964
538.188	18788
538.254	27364
538.321	54857
538.388	36291
538.454	17868
538.521	15392
538.587	14320
538.654	15300
538.720	14356
538.787	14251
538.853	15862
538.920	18514
538.986	18896
539.053	15723
539.119	16560
539.185	18289
539.252	19982
539.318	31369
539.385	23105
539.451	22873
539.517	23350
539.583	28576
539.650	51800
539.716	133770
539.782	47306
539.849	18120
539.915	17425
539.981	19034
540.047	22412
540.114	19031
540.180	18239
540.246	21864
540.312	28889
540.378	54113
540.444	59696
540.510	55150
540.576	146605
540.643	58706
540.709	16866
540.775	16716
540.841	17459
540.907	21532
540.973	31910
541.039	31980
541.105	34602
541.171	21657
541.237	18017
541.303	19377
541.369	22310
541.435	28545
541.500	46763
541.566	34553
541.632	16880
541.698	15617
541.764	14791
541.830	15935
541.896	14439
541.961	16772
542.027	16773
542.093	17669
542.159	18621
542.224	22372
542.290	30238
542.356	46265
542.421	55449
542.487	24612
542.553	17359
542.618	19694
542.684	18032
542.750	18802
542.815	26308
542.881	42589
542.947	118401
543.012	109974
543.078	18212
543.143	15639
543.209	18501
543.274	20840
543.340	25223
543.405	46210
543.471	85147
543.536	24785
543.602	16318
543.667	15970
543.732	15628
543.798	14855
543.863	16938
543.928	15905
543.994	15365
544.059	15246
544.124	15977
544.190	16050
544.255	16919
544.320	17372
544.386	19044
544.451	26119
544.516	33624
544.581	36655
544.646	74756
544.712	134807
544.777	32199
544.842	19886
544.907	21356
544.972	19533
545.037	18137
545.102	19886
545.168	19934
545.233	20042
545.298	22425
545.363	26838
545.428	32893
545.493	50899
545.558	106565
545.623	53038
545.688	21882
545.753	20642
545.818	20833
545.883	21513
545.947	21199
546.012	22702
546.077	23938
546.142	24304
546.207	25315
546.272	31369
546.337	33700
546.401	27081
546.466	25388
546.531	24913
546.596	27052
546.661	27454
546.725	26308
546.790	26349
546.855	28008
546.919	28411
546.984	31284
547.049	33994
547.113	37100
547.178	39382
547.243	43794
547.307	50500
547.372	55982
547.436	60260
547.501	54914
547.565	60508
547.630	61818
547.695	60666
547.759	56945
547.823	57323
547.888	53308
547.952	56636
548.017	57144
548.081	62171
548.146	65778
548.210	63776
548.274	62187
548.339	62604
548.403	57778
548.468	54049
548.532	51568
548.596	53619
548.660	54963
548.725	60717
548.789	67475
548.853	67539
548.917	60739
548.982	63381
549.046	60961
549.110	49515
549.174	49998
549.238	55194
549.303	60911
549.367	62634
549.431	59706
549.495	57208
549.559	56577
549.623	64133
549.687	74201
549.751	83145
549.815	84799
549.879	84431
549.943	78837
550.007	83672
550.071	84687
550.135	84410
550.199	75305
550.263	71015
550.327	67823
550.391	72495
550.455	75479
550.519	80085
550.582	85040
550.646	100460
550.710	108019
550.774	93479
550.838	92961
550.901	95154
550.965	101442
551.029	106990
551.093	115468
551.156	130463
551.220	157713
551.284	183861
551.347	136261
551.411	132174
551.475	139219
551.538	104612
551.602	95832
551.666	88881
551.729	85546
551.793	81135
551.856	81181
551.920	79893
551.983	81034
552.047	79604
552.110	79595
552.174	78878
552.237	81642
552.301	77716
552.364	74402
552.428	73868
552.491	74903
552.554	77814
552.618	78440
552.681	84438
552.745	90411
552.808	114026
552.871	148811
552.934	105564
552.998	81939
553.061	78779
553.124	76211
553.187	71978
553.251	75667
553.314	76000
553.377	75700
553.440	78504
553.503	83515
553.567	89503
553.630	81583
553.693	77560
553.756	79151
553.819	78395
553.882	74818
553.945	74219
554.008	75891
554.071	76118
554.134	76450
554.197	72761
554.260	71892
554.323	73530
554.386	74964
554.449	75593
554.512	76664
554.575	72914
554.638	72623
554.701	72140
554.764	71879
554.827	68342
554.889	67368
554.952	62628
555.015	61742
555.078	63206
555.141	63881
555.203	62173
555.266	61071
555.329	63131
555.391	61067
555.454	60903
555.517	59410
555.580	55997
555.642	53959
555.705	53409
555.768	54406
555.830	53192
555.893	50441
555.955	48601
556.018	49055
556.080	48321
556.143	49696
556.206	49746
556.268	49403
556.330	49140
556.393	48529
556.455	48421
556.518	51654
556.580	53022
556.643	44600
556.705	44143
556.767	41901
556.830	43171
556.892	45076
556.955	54949
557.017	49107
557.079	40712
557.142	41096
557.204	44940
557.266	61751
557.328	60676
557.391	35724
557.453	33221
557.515	35178
557.577	37996
557.639	40387
557.701	33453
557.764	32816
557.826	33117
557.888	35625
557.950	38054
558.012	44788
558.074	59204
558.136	96540
558.198	241828
558.260	124072
558.322	37927
558.384	36617
558.446	40673
558.508	46218
558.570	61550
558.632	95148
558.694	161925
558.756	205103
558.818	397085
558.880	1076489
558.942	469137
559.003	244473
559.065	160496
559.127	48957
559.189	53637
559.251	74635
559.312	117769
559.374	209224
559.436	638856
559.498	462333
559.559	65793
559.621	55719
559.683	76904
559.744	123260
559.806	277018
559.868	546346
559.929	140256
559.991	66478
560.052	91188
560.114	221600
560.176	206460
560.237	121555
560.299	241573
560.360	77197
560.422	27094
560.483	24693
560.545	23213
560.606	23494
560.667	22913
560.729	21786
560.790	21246
560.852	21611
560.913	22250
560.974	21394
561.036	20030
561.097	19912
561.158	20418
561.220	21691
561.281	21909
561.342	23009
561.403	28903
561.465	36063
561.526	60185
561.587	92242
561.648	32468
561.709	21704
561.771	20492
561.832	21653
561.893	20771
561.954	20485
562.015	20513
562.076	19654
562.137	19345
562.198	20251
562.259	19129
562.320	20845
562.381	22152
562.442	30559
562.503	26525
562.564	20646
562.625	19748
562.686	19222
562.747	20813
562.808	20495
562.869	18969
562.930	20782
562.991	21282
563.051	19868
563.112	19549
563.173	19246
563.234	19116
563.294	19180
563.355	18233
563.416	19924
563.477	19413
563.537	20019
563.598	20436
563.659	19329
563.720	20158
563.780	19885
563.841	20541
563.901	19367
563.962	18918
564.023	18378
564.083	19222
564.144	19298
564.204	20702
564.265	19712
564.325	21378
564.386	29294
564.446	30880
564.507	18395
564.567	18507
564.628	19216
564.688	19432
564.749	18539
564.809	20488
564.869	22789
564.930	20981
564.990	18819
565.050	19450
565.111	19628
565.171	18803
565.231	19606
565.292	19822
565.352	19718
565.412	19292
565.472	19819
565.532	21257
565.593	19793
565.653	18911
565.713	20451
565.773	22035
565.833	24458
565.893	30326
565.953	21743
566.013	20232
566.074	21435
566.134	24073
566.194	29812
566.254	35747
566.314	26674
566.374	21644
566.434	21210
566.494	21841
566.554	22889
566.614	23269
566.673	24046
566.733	24443
566.793	24720
566.853	27368
566.913	26422
566.973	26663
567.033	27299
567.092	27755
567.152	26908
567.212	26994
567.272	27757
567.331	28059
567.391	29436
567.451	30909
567.511	33945
567.570	35575
567.630	28592
567.690	26707
567.749	26650
567.809	28384
567.868	31712
567.928	35776
567.988	40476
568.047	48207
568.107	63070
568.166	83705
568.226	123146
568.285	180892
568.345	158150
568.404	118296
568.464	96166
568.523	88366
568.582	89745
568.642	106046
568.701	136047
568.761	185625
568.820	295811
568.879	314716
568.939	221260
568.998	155001
569.057	111956
569.116	87309
569.176	70682
569.235	57789
569.294	50039
569.353	42784
569.413	40099
569.472	36818
569.531	33858
569.590	30707
569.649	29604
569.708	27717
569.767	26997
569.827	29261
569.886	28318
569.945	23861
570.004	23112
570.063	23919
570.122	23666
570.181	24856
570.240	24080
570.299	24953
570.358	25251
570.417	22766
570.475	19890
570.534	20860
570.593	21513
570.652	21311
570.711	23223
570.770	21110
570.829	22027
570.887	22359
570.946	23863
571.005	21136
571.064	20471
571.122	22444
571.181	22860
571.240	20267
571.299	17748
571.357	18200
571.416	18734
571.475	19235
571.533	20666
571.592	18784
571.650	18364
571.709	18319
571.768	19324
571.826	19464
571.885	17846
571.943	17702
572.002	16804
572.060	17392
572.119	16113
572.177	16277
572.236	15352
572.294	15938
572.352	15885
572.411	16696
572.469	15717
572.528	16437
572.586	16921
572.644	17021
572.703	21726
572.761	18156
572.819	15251
572.877	15885
572.936	14794
572.994	15508
573.052	15575
573.110	16369
573.169	17020
573.227	15499
573.285	15225
573.343	14615
573.401	15858
573.459	15312
573.517	14217
573.576	15188
573.634	15065
573.692	16409
573.750	16336
573.808	15819
573.866	14748
573.924	16755
573.982	19036
574.040	15926
574.098	15445
574.155	14946
574.213	15107
574.271	13950
574.329	15303
574.387	14840
574.445	14429
574.503	13917
574.560	13447
574.618	14198
574.676	13804
574.734	13698
574.792	14891
574.849	14061
574.907	11928
574.965	12885
575.022	12447
575.080	13043
575.138	13418
575.195	14410
575.253	14004
575.311	15683
575.368	14457
575.426	12645
575.483	14162
575.541	12838
575.598	12094
575.656	14310
575.713	13380
575.771	14293
575.828	12690
575.886	13234
575.943	13576
576.001	13662
576.058	13660
576.115	15116
576.173	15583
576.230	17215
576.287	19169
576.345	17162
576.402	14488
576.459	14956
576.517	14382
576.574	14884
576.631	14220
576.688	14466
576.746	13800
576.803	13740
576.860	13486
576.917	12919
576.974	14083
577.031	13824
577.089	13647
577.146	14871
577.203	14080
577.260	14149
577.317	15809
577.374	15313
577.431	14284
577.488	14884
577.545	13414
577.602	14106
577.659	13382
577.716	13634
577.773	12385
577.830	13409
577.886	13999
577.943	12991
578.000	13483
578.057	14353
578.114	14087
578.171	13708
578.227	13852
578.284	13055
578.341	14123
578.398	14101
578.454	14063
578.511	14829
578.568	16445
578.625	15302
578.681	14212
578.738	13178
578.794	13984
578.851	14739
578.908	14383
578.964	14967
579.021	16572
579.077	14778
579.134	15008
579.190	14885
579.247	14191
579.303	13997
579.360	13801
579.416	14076
579.473	14698
579.529	13987
579.586	13898
579.642	13880
579.698	14235
579.755	14613
579.811	14597
579.867	14072
579.924	13902
579.980	13534
580.036	13803
580.093	14492
580.149	14054
580.205	15926
580.261	15526
580.317	14888
580.374	15426
580.430	17950
580.486	17334
580.542	15960
580.598	15601
580.619	15758
580.654	16042
580.692	15690
580.710	15533
580.765	15253
580.767	15254
580.823	15858
580.838	15745
580.879	15483
580.911	15631
580.935	15753
580.984	14903
580.991	14796
581.047	15695
581.057	15727
581.103	15916
581.130	15621
581.159	15326
581.203	15478
581.215	15520
581.270	15749
581.276	15671
581.326	15010
581.349	15331
581.382	15792
581.422	16249
581.438	16474
581.494	16508
581.494	16510
581.550	17184
581.567	17117
581.606	16950
581.640	16831
581.661	16773
581.713	16102
581.717	16051
581.773	16458
581.786	16360
581.829	16068
581.859	16599
581.885	17070
581.932	16602
581.940	16524
581.996	17098
582.004	17155
582.052	17383
582.077	17157
582.107	16928
582.150	16647
582.163	16560
582.219	17668
582.223	17607
582.274	17034
582.296	17307
582.330	17656
582.368	17832
582.386	17906
582.441	18011
582.441	18011
582.497	17159
582.514	17419
582.552	17986
582.587	17799
582.608	17626
582.659	17618
582.663	17628
582.719	18801
582.732	18525
582.774	17517
582.805	17369
582.830	17284
582.877	18593
582.885	18841
582.941	18428
582.950	18553
582.996	19049
583.023	19208
583.052	19399
583.095	19438
583.107	19407
583.162	19085
583.168	19117
583.218	19447
583.240	19495
583.273	19689
583.313	19490
583.328	19394
583.384	20061
583.385	20056
583.439	20027
583.458	20106
583.494	20003
583.531	20211
583.549	20376
583.603	19715
583.605	19705
583.660	20996
583.676	21001
583.715	20771
583.748	20960
583.770	21202
583.820	21147
583.825	21125
583.881	21529
583.893	21513
583.936	21381
583.965	21468
583.991	21645
584.038	22497
584.046	22679
584.101	22169
584.110	22395
584.156	23213
584.183	23184
584.211	23344
584.255	23005
584.266	22827
584.321	22633
584.328	22656
584.376	23175
584.400	23450
584.431	23962
584.472	23941
584.486	23882
584.541	24827
584.545	24846
584.596	25298
584.617	25393
584.651	25625
584.689	25454
584.706	25404
584.761	26739
584.762	26728
584.816	26792
584.834	27032
584.871	27325
584.906	27791
584.926	28202
584.978	28901
584.980	28937
585.035	29687
585.051	29849
585.090	30695
585.123	32125
585.145	33019
585.195	33761
585.200	33863
585.254	35062
585.267	35727
585.309	38452
585.340	40308
585.364	41726
585.412	46043
585.419	46703
585.473	54113
585.484	56558
585.528	67471
585.556	75462
585.583	85879
585.628	106265
585.637	114969
585.692	196663
585.700	220216
585.747	387682
585.772	387662
585.801	309067
585.845	175959
585.856	143065
585.910	66676
585.917	58778
585.965	51271
585.989	47659
586.019	46133
586.061	45445
586.074	45534
586.128	45584
586.133	45581
586.183	46442
586.205	46614
586.237	46821
586.277	47140
586.292	47312
586.346	47807
586.349	47808
586.401	49413
586.421	49953
586.455	50835
586.493	51582
586.509	52093
586.564	54403
586.565	54500
586.618	64999
586.637	67341
586.672	70013
586.709	68271
586.727	65834
586.781	62882
586.781	62957
586.835	63964
586.853	63880
586.889	62798
586.925	62026
586.944	62512
586.996	64169
586.998	64304
587.052	66034
587.068	66918
587.106	69285
587.140	69975
587.161	70827
587.212	73838
587.215	74097
587.269	77728
587.284	78459
587.323	80589
587.356	81987
587.377	83702
587.427	88275
587.431	88695
587.485	92845
587.499	93757
587.539	97558
587.571	100419
587.593	102451
587.643	106418
587.648	107172
587.702	114445
587.715	116263
587.755	123515
587.786	128280
587.810	131971
587.858	139160
587.864	140521
587.917	152768
587.930	155452
587.971	165804
588.001	173123
588.025	180807
588.073	196069
588.079	198638
588.133	218941
588.145	223622
588.187	244619
588.217	258528
588.241	273345
588.288	303917
588.295	309165
588.348	351508
588.360	360654
588.402	405478
588.431	437517
588.456	471265
588.503	540490
588.510	553262
588.564	659638
588.575	682971
588.617	804412
588.646	892530
588.671	993557
588.718	1194670
588.725	1238196
588.778	1583844
588.789	1656798
588.832	2020118
588.861	2267272
588.886	2400772
588.932	2552023
588.939	2506380
588.993	1968827
589.004	1905780
589.047	2141860
589.075	2276949
589.100	2386738
589.147	2451096
589.154	2395986
589.207	1939937
589.218	1851042
589.261	1629634
589.290	1490112
589.314	1466105
589.361	1435750
589.368	1457689
589.421	1646235
589.433	1690630
589.475	2003355
589.504	2215273
589.528	2290519
589.576	2304658
589.582	2281344
589.635	2107600
589.647	2064446
589.689	2161769
589.718	2165960
589.742	1906607
589.790	1402546
589.795	1364013
589.849	997484
589.861	913647
589.902	768193
589.932	661396
589.955	611450
590.004	504250
590.009	498127
590.062	422169
590.075	403126
590.115	366350
590.146	336935
590.168	322669
590.218	289110
590.222	287684
590.275	260933
590.289	253464
590.328	239952
590.360	227993
590.381	221643
590.431	204885
590.435	204545
590.488	190437
590.503	186279
590.541	179458
590.574	172469
590.594	169217
590.645	159353
590.647	159447
590.700	151814
590.716	149048
590.753	144996
590.787	140792
590.806	139255
590.859	133620
590.859	133896
590.912	129914
590.930	128279
590.965	125399
591.001	121983
591.018	121229
591.071	117883
591.072	117542
591.124	115448
591.143	114336
591.177	112677
591.214	110271
591.230	109965
591.283	108100
591.285	107738
591.336	106546
591.356	105688
591.389	103913
591.427	101264
591.442	100700
591.495	97314
591.498	96825
591.547	95647
591.569	94750
591.600	93966
591.640	92350
591.653	92386
591.706	91339
591.711	91003
591.759	90080
591.782	89193
591.811	89746
591.853	90086
591.864	90414
591.917	90598
591.924	90375
591.969	88417
591.995	86958
592.022	86741
592.066	85749
592.075	85961
592.127	85779
592.137	85519
592.180	87314
592.208	88093
592.233	87640
592.279	85920
592.285	85922
592.338	83975
592.350	83283
592.390	83059
592.421	82482
592.443	82077
592.491	80459
592.495	80584
592.548	79181
592.562	78577
592.600	79535
592.633	79936
592.653	79821
592.704	78479
592.705	78910
592.775	77773
592.846	77093
592.916	77399
592.987	77835
593.058	78227
593.128	74572
593.199	74493
593.270	72378
593.341	73273
593.411	73450
593.482	73601
593.553	73352
593.623	72387
593.694	72816
593.764	74030
593.835	72471
593.906	71313
593.976	71430
594.047	71861
594.117	74999
594.188	77225
594.258	74400
594.329	71618
594.399	72682
594.470	72557
594.540	73194
594.611	74492
594.681	72255
594.751	73968
594.822	73077
594.892	74961
594.963	76915
595.033	78027
595.103	78795
595.174	78393
595.244	81547
595.314	88290
595.384	87278
595.455	79653
595.525	80266
595.595	83482
595.665	83882
595.736	82829
595.806	81643
595.876	82735
595.946	83499
596.016	82657
596.087	84564
596.157	86208
596.227	86224
596.297	87632
596.367	91873
596.437	95490
596.507	98619
596.577	104682
596.647	101270
596.717	99384
596.787	100964
596.857	100721
596.927	101199
596.997	102216
597.067	100812
597.137	101812
597.207	103945
597.277	103713
597.347	103289
597.417	100189
597.487	99788
597.557	100144
597.626	103355
597.696	103427
597.766	105059
597.836	107290
597.906	103335
597.975	94464
598.045	93521
598.115	94723
598.185	97478
598.254	105689
598.324	114316
598.394	119089
598.464	119339
598.533	114798
598.603	112029
598.672	107275
598.742	106879
598.812	106509
598.881	107029
598.951	107794
599.020	107797
599.090	109629
599.159	113644
599.229	111271
599.299	108027
599.368	108303
599.437	108918
599.507	104597
599.576	99137
599.646	99936
599.715	97354
599.785	97064
599.854	97655
599.924	95419
599.993	94222
600.062	94402
600.132	96138
600.201	97710
600.270	105383
600.340	117238
600.409	116766
600.478	113891
600.547	113262
600.617	117350
600.686	101966
600.755	89786
600.824	86808
600.894	84373
600.963	82733
601.032	80546
601.101	80790
601.170	77380
601.239	77239
601.308	74869
601.378	77967
601.447	76341
601.516	76304
601.585	77833
601.654	78097
601.723	80992
601.792	76901
601.861	79790
601.930	83286
601.999	85234
602.068	84780
602.137	84710
602.206	88943
602.275	85962
602.343	88546
602.412	90295
602.481	88429
602.550	86532
602.619	87147
602.688	88529
602.756	89779
602.825	89621
602.894	89965
602.963	92086
603.032	92115
603.100	93814
603.169	93842
603.238	92286
603.307	93778
603.375	94801
603.444	94668
603.513	95761
603.581	97170
603.650	98672
603.719	97519
603.787	94990
603.856	98768
603.924	100144
603.993	104543
604.061	104080
604.130	108142
604.198	112420
604.267	114401
604.335	115252
604.404	114424
604.472	117111
604.541	117782
604.609	118849
604.678	119768
604.746	120827
604.815	122242
604.883	125185
604.951	126776
605.020	125325
605.088	127431
605.156	128378
605.225	129932
605.293	130950
605.361	129148
605.429	131443
605.498	133607
605.566	136968
605.634	142172
605.702	145251
605.771	150641
605.839	151486
605.907	150200
605.975	147642
606.043	141904
606.111	141507
606.180	141195
606.248	140509
606.316	138999
606.384	140199
606.452	140607
606.520	143487
606.588	150100
606.656	145714
606.724	145251
606.792	139965
606.860	132270
606.928	118295
606.996	110949
607.064	107502
607.132	108629
607.200	111190
607.267	118281
607.335	119968
607.403	123607
607.471	122419
607.539	119224
607.607	118631
607.674	112879
607.742	105107
607.810	105744
607.878	107340
607.946	106104
608.013	108728
608.081	112997
608.149	115501
608.216	115188
608.284	118717
608.352	121332
608.419	122160
608.487	120742
608.555	119048
608.622	117690
608.690	119931
608.757	129647
608.825	139671
608.893	137475
608.960	137008
609.028	133300
609.095	128564
609.163	130232
609.230	120291
609.298	108889
609.365	106743
609.432	113579
609.500	119698
609.567	133093
609.635	150251
609.702	167906
609.769	170104
609.837	157209
609.904	123750
609.971	119407
610.039	127306
610.106	147242
610.173	215155
610.241	440943
610.308	781931
610.375	491020
610.442	232663
610.509	139355
610.577	124225
610.644	120414
610.711	121495
610.778	125941
610.845	127289
610.912	134172
610.980	138749
611.047	142716
611.114	140902
611.181	137600
611.248	133829
611.315	135928
611.382	141884
611.449	143733
611.516	148607
611.583	149530
611.650	148212
611.717	151253
611.784	152311
611.851	157375
611.918	167762
611.984	183258
612.051	220857
612.118	334159
612.185	716044
612.252	1335854
612.319	469609
612.386	211149
612.452	190948
612.519	175971
612.586	171042
612.653	171093
612.719	171369
612.786	175148
612.853	165478
612.919	153832
612.986	155229
613.053	151730
613.120	146583
613.186	137108
613.253	135385
613.319	136281
613.386	137459
613.453	137339
613.519	141228
613.586	143603
613.652	152260
613.719	155161
613.785	150544
613.852	145241
613.918	139970
613.985	139534
614.051	142877
614.118	146871
614.184	147602
614.250	138792
614.317	141717
614.383	140725
614.449	142429
614.516	143436
614.582	142737
614.648	142483
614.715	139765
614.781	142180
614.847	137803
614.914	139298
614.980	136885
615.046	137242
615.112	136361
615.179	140793
615.245	144293
615.311	150221
615.377	166983
615.443	209476
615.509	185628
615.575	156923
615.642	153514
615.708	152389
615.774	157096
615.840	166317
615.906	182395
615.972	212921
616.038	302250
616.104	519630
616.170	876763
616.236	1721731
616.302	790102
616.368	283105
616.434	228007
616.500	182597
616.565	178343
616.631	200226
616.697	215831
616.763	188060
616.829	208578
616.895	320153
616.961	474349
617.026	347332
617.092	182588
617.158	154717
617.224	149999
617.289	144189
617.355	134524
617.421	131521
617.487	131839
617.552	129389
617.618	124354
617.684	124189
617.749	125700
617.815	124014
617.880	120124
617.946	119305
618.012	119696
618.077	124155
618.143	123354
618.208	119181
618.274	123538
618.339	131140
618.405	123947
618.470	109802
618.536	110841
618.601	112616
618.667	111799
618.732	104017
618.798	100731
618.863	99416
618.928	99966
618.994	98857
619.059	101125
619.124	106744
619.190	112061
619.255	100016
619.320	99967
619.386	99149
619.451	98686
619.516	97483
619.581	96623
619.647	99979
619.712	102095
619.777	99432
619.842	95774
619.907	99434
619.972	99585
620.038	100989
620.103	98401
620.168	97054
620.233	97667
620.298	98797
620.363	98701
620.428	99084
620.493	101795
620.558	103444
620.623	103000
620.688	106599
620.753	104483
620.818	104706
620.883	105988
620.948	106182
621.013	105616
621.078	105959
621.143	103822
621.207	106943
621.272	106839
621.337	106421
621.402	104963
621.467	105689
621.532	107917
621.596	106037
621.661	103706
621.726	99292
621.791	100545
621.855	102483
621.920	104170
621.985	104861
622.049	104100
622.114	105768
622.179	105963
622.243	105630
622.308	108951
622.373	109301
622.437	112226
622.502	108973
622.566	106374
622.631	105185
622.695	106966
622.760	107575
622.824	106228
622.889	106758
622.953	109210
623.018	113882
623.082	131727
623.147	117945
623.211	110990
623.276	109191
623.340	109474
623.404	102548
623.469	102207
623.533	103510
623.597	103210
623.662	100472
623.726	100255
623.790	94280
623.854	92060
623.919	91168
623.983	91907
624.047	94201
624.111	92857
624.176	93781
624.240	95459
624.304	101214
624.368	99089
624.432	95326
624.496	93635
624.560	97619
624.625	101656
624.689	102028
624.753	98399
624.817	101070
624.881	96538
624.945	96252
625.009	87692
625.073	89003
625.137	90589
625.201	96238
625.265	101858
625.329	96667
625.393	90869
625.456	93553
625.520	92701
625.584	94116
625.648	97080
625.712	102447
625.776	114466
625.839	139835
625.903	126949
625.967	84822
626.031	80970
626.095	96845
626.158	107462
626.222	82132
626.286	70152
626.349	68065
626.413	65486
626.477	64003
626.540	64603
626.604	62894
626.668	62725
626.731	61518
626.795	59573
626.858	61525
626.922	61710
626.986	60849
627.049	58995
627.113	60160
627.176	59740
627.240	58083
627.303	57868
627.366	57850
627.430	56745
627.493	58900
627.557	56146
627.620	56900
627.684	56349
627.747	59653
627.810	57488
627.874	54087
627.937	50146
628.000	50502
628.064	51118
628.127	49409
628.190	46545
628.253	45784
628.317	45636
628.380	43510
628.443	42152
628.506	43868
628.569	41987
628.632	39618
628.696	39342
628.759	38930
628.822	38802
628.885	37840
628.948	36942
629.011	37805
629.074	37431
629.137	37299
629.200	35472
629.263	36948
629.326	35661
629.389	36330
629.452	34417
629.515	34643
629.578	34209
629.641	34058
629.704	35799
629.767	34643
629.830	34160
629.892	33618
629.955	32229
630.018	33452
630.081	33538
630.144	35599
630.207	36118
630.269	33806
630.332	32460
630.395	32757
630.458	32073
630.520	30469
630.583	31439
630.646	30337
630.708	29926
630.771	30848
630.834	30931
630.896	31470
630.959	29955
631.021	31005
631.084	30094
631.146	30322
631.209	31326
631.272	30779
631.334	29966
631.397	29648
631.459	30734
631.522	30854
631.584	31350
631.646	31080
631.709	32667
631.771	34655
631.834	37329
631.896	32969
631.958	30732
632.021	30168
632.083	28907
632.145	29785
632.208	28728
632.270	29788
632.332	27401
632.395	27726
632.457	28486
632.519	27421
632.581	27401
632.643	27687
632.706	26748
632.768	27874
632.830	26629
632.892	26428
632.954	27972
633.016	27664
633.078	26837
633.141	27349
633.203	26845
633.265	27880
633.327	26763
633.389	27595
633.451	27700
633.513	29675
633.575	31156
633.637	29337
633.698	30978
633.760	29116
633.822	28950
633.884	28428
633.946	28903
634.008	29271
634.070	28727
634.132	29487
634.193	31308
634.255	32366
634.317	33176
634.379	34477
634.441	32849
634.502	30979
634.564	29263
634.626	27277
634.687	26506
634.749	26584
634.811	26140
634.873	25460
634.934	25523
634.996	24755
635.057	24973
635.119	24606
635.181	26497
635.242	26356
635.304	24893
635.365	26359
635.427	24983
635.488	26224
635.550	25753
635.611	25227
635.673	24453
635.734	26073
635.796	26943
635.857	27735
635.918	29764
635.980	29088
636.041	30767
636.102	32081
636.164	34169
636.225	34154
636.286	32391
636.348	30213
636.409	27137
636.470	26083
636.531	25294
636.593	25753
636.654	25279
636.715	25164
636.776	23147
636.838	23237
636.899	23332
636.960	22678
637.021	22705
637.082	22508
637.143	21734
637.204	21892
637.265	21385
637.326	21777
637.387	22212
637.448	21845
637.509	22481
637.570	22803
637.631	21124
637.692	21084
637.753	20995
637.814	21240
637.875	21493
637.936	21402
637.997	21222
638.058	21560
638.119	21470
638.179	21172
638.240	21016
638.301	21645
638.362	20844
638.423	21208
638.483	20048
638.544	19957
638.605	19137
638.666	19317
638.726	20174
638.787	20270
638.848	20136
638.908	19863
638.969	18941
639.030	19075
639.090	19328
639.151	19612
639.211	20189
639.272	22135
639.332	24312
639.393	29523
639.453	21066
639.514	21636
639.574	20076
639.635	19457
639.695	18716
639.756	18408
639.816	18961
639.877	19873
639.937	21187
639.997	28799
640.058	28475
640.118	20015
640.178	17963
640.239	18449
640.299	17701
640.359	18407
640.420	17261
640.480	18883
640.540	19612
640.600	21339
640.661	20696
640.721	19536
640.781	21809
640.841	20934
640.901	19317
640.961	18675
641.021	18834
641.082	19966
641.142	21686
641.202	24225
641.262	18565
641.322	18522
641.382	17866
641.442	16626
641.502	17256
641.562	17558
641.622	17766
641.682	17894
641.742	17842
641.802	20222
641.861	18239
641.921	17988
641.981	17861
642.041	17914
642.101	18640
642.161	20808
642.221	16391
642.280	15742
642.340	16532
642.400	16419
642.460	16441
642.519	16541
642.579	16207
642.639	16600
642.698	16675
642.758	17227
642.818	16518
642.877	16658
642.937	17622
642.997	17882
643.056	20070
643.116	23040
643.175	18047
643.235	18428
643.294	18035
643.354	18505
643.414	19030
643.473	20037
643.532	22595
643.592	28166
643.651	38120
643.711	57776
643.770	101359
643.830	190907
643.889	485688
643.948	707359
644.008	115312
644.067	35828
644.126	27004
644.186	22985
644.245	20225
644.304	18256
644.363	17790
644.423	16688
644.482	17515
644.541	17022
644.600	18467
644.659	18710
644.719	20224
644.778	27254
644.837	36844
644.896	59806
644.955	120391
645.014	207689
645.073	49693
645.132	22557
645.191	19292
645.250	18054
645.309	17447
645.368	18014
645.427	19881
645.486	23237
645.545	37125
645.604	44248
645.663	18711
645.722	16561
645.781	17109
645.840	19048
645.898	20909
645.957	25397
646.016	33860
646.075	52575
646.134	92152
646.192	173884
646.251	480983
646.310	452809
646.369	59947
646.427	27530
646.486	24791
646.545	19529
646.603	17774
646.662	16402
646.721	15633
646.779	15570
646.838	14637
646.896	16537
646.955	20294
647.014	24550
647.072	36939
647.131	65787
647.189	146018
647.248	46970
647.306	17046
647.365	14406
647.423	13177
647.481	13806
647.540	12632
647.598	12399
647.657	13055
647.715	12465
647.773	12716
647.832	12302
647.890	11914
647.948	12421
648.007	11508
648.065	11318
648.123	11751
648.181	12510
648.240	11626
648.298	10975
648.356	11466
648.414	11645
648.472	11892
648.531	12361
648.589	11285
648.647	10880
648.705	10973
648.763	10760
648.821	11622
648.879	12012
648.937	12009
648.995	13039
649.053	14799
649.111	18671
649.169	27067
649.227	43691
649.285	74746
649.343	156588
649.401	377220
649.459	118794
649.516	40120
649.574	22160
649.632	16924
649.690	17177
649.748	15899
649.806	18909
649.863	27750
649.921	45488
649.979	106706
650.037	49539
650.094	13838
650.152	12359
650.210	10825
650.268	10765
650.325	9459
650.383	9712
650.440	9762
650.498	9132
650.556	9693
650.613	8827
650.671	8971
650.728	9246
650.786	9158
650.843	9620
650.901	10142
650.958	10313
651.016	8587
651.073	8429
651.131	8753
651.188	8327
651.246	8327
651.303	7397
651.360	8270
651.418	7939
651.475	8440
651.532	7473
651.590	7310
651.647	7595
651.704	8105
651.762	7853
651.819	8343
651.876	7879
651.933	7917
651.990	7579
652.048	7561
652.105	8071
652.162	6882
652.219	7293
652.276	7327
652.333	7391
652.390	7188
652.448	7446
652.505	7742
652.562	7480
652.619	6595
652.676	7634
652.733	7437
652.790	7703
652.847	6959
652.904	7377
652.961	6742
653.017	7165
653.074	7878
653.131	7326
653.188	7574
653.245	7196
653.302	6218
653.359	6850
653.415	7225
653.472	6868
653.529	6678
653.586	6261
653.642	6995
653.699	6795
653.756	6219
653.813	7306
653.869	6947
653.926	7166
653.983	6615
654.039	7036
654.096	6419
654.152	6952
654.209	6535
654.266	7612
654.322	7027
654.379	7430
654.435	7383
654.492	7098
654.548	7296
654.605	9586
654.661	12165
654.717	7846
654.774	7006
654.830	6785
654.887	6607
654.943	7279
655.000	7472
655.056	7341
655.112	7464
655.168	7051
655.225	7341
655.281	6991
655.337	7283
655.394	7569
655.450	9573
655.506	8345
655.562	8641
655.618	10425
655.675	7677
655.731	6973
655.787	6536
655.843	6225
655.899	6593
655.955	7210
656.011	6196
656.067	6365
656.123	7133
656.179	6409
656.235	5940
656.291	6582
656.347	6837
656.403	6385
656.459	6794
656.515	7101
656.571	6838
656.627	7272
656.683	6584
656.739	7334
656.795	6434
656.850	6284
656.906	6994
656.962	7996
657.018	6857
657.074	7276
657.129	7982
657.185	8536
657.241	10437
657.297	17980
657.352	10411
657.408	6697
657.464	7423
657.519	7177
657.575	6036
657.630	6359
657.686	6118
657.742	6620
657.797	6137
657.853	5864
657.908	6495
657.964	6164
658.019	5866
658.075	6860
658.130	5966
658.186	5164
658.241	5867
658.297	6522
658.352	5676
658.407	5927
658.463	5983
658.518	6458
658.573	6019
658.629	6354
658.684	5527
658.739	6122
658.795	5443
658.850	6308
658.905	6399
658.960	6260
659.016	5618
659.071	5630
659.126	6323
659.181	6137
659.236	6630
659.291	9731
659.346	9142
659.401	6912
659.457	6779
659.512	5932
659.567	6180
659.622	5566
659.677	5879
659.732	5818
659.787	5558
659.842	6159
659.897	6619
659.952	7451
660.007	5823
660.061	5325
660.116	5263
660.171	5621
660.226	5042
660.281	6371
660.336	5527
660.391	6311
660.445	5500
660.500	5776
660.555	4897
660.610	6080
660.664	6354
660.719	5954
660.774	5954
660.828	5507
660.883	5183
660.938	5944
660.992	5296
661.047	6502
661.101	5927
661.156	5521
661.211	5616
661.265	4718
661.320	4916
661.374	5228
661.429	5239
661.483	5844
661.538	4604
661.592	6017
661.647	6115
661.701	6041
661.755	5616
661.810	5466
661.864	5198
661.919	5411
661.973	5932
662.027	5591
662.081	4921
662.136	5540
662.190	5737
662.244	5719
662.299	6271
662.353	5893
662.407	4774
662.461	5119
662.515	5559
662.569	5536
662.624	6045
662.678	5464
662.732	5904
662.786	4828
662.840	5469
662.894	4957
662.948	5437
663.002	5307
663.056	5415
663.110	4941
663.164	5470
663.218	5195
663.272	5090
663.326	5322
663.380	5788
663.434	5718
663.488	4833
663.542	6468
663.595	5753
663.649	5142
663.703	7104
663.757	6108
663.811	4362
663.864	5021
663.918	6270
663.972	4843
664.026	5445
664.079	4937
664.133	5765
664.187	5284
664.240	5720
664.294	5644
664.348	5439
664.401	5302
664.455	5419
664.508	5412
664.562	6411
664.615	4820
664.669	4787
664.722	5328
664.776	4805
664.829	4299
664.883	5180
664.936	5487
664.990	4462
665.043	5453
665.097	4282
665.150	6239
665.203	5574
665.257	5507
665.310	4858
665.363	4835
665.417	5499
665.470	5587
665.523	4641
665.576	5978
665.630	5435
665.683	4395
665.736	5375
665.789	5589
665.842	5799
665.895	5467
665.949	6113
666.002	5702
666.055	5364
666.108	6320
666.161	5393
666.214	6213
666.267	5841
666.320	6337
666.373	6405
666.426	6463
666.479	5049
666.532	5897
666.585	5208
666.638	6241
666.691	5622
666.744	5937
666.796	5708
666.849	5944
666.902	6245
666.955	5366
667.008	5238
667.060	5862
667.113	5156
667.166	5419
667.219	5471
667.271	4873
667.324	5001
667.377	5045
667.430	6049
667.482	5686
667.535	6332
667.587	5646
667.640	5690
667.693	5924
667.745	6639
667.798	8862
667.850	9499
667.903	5965
667.955	5737
668.008	5920
668.060	5492
668.113	6048
668.165	6106
668.218	5881
668.270	5488
668.322	5551
668.375	6051
668.427	6201
668.479	5626
668.532	5652
668.584	5412
668.636	6009
668.689	5059
668.741	5219
668.793	5092
668.845	5772
668.898	5599
668.950	5402
669.002	6023
669.054	5396
669.106	5137
669.158	6343
669.211	5851
669.263	5671
669.315	5434
669.367	5317
669.419	6136
669.471	7245
669.523	6274
669.575	7443
669.627	8087
669.679	7239
669.731	6095
669.783	6401
669.835	6707
669.886	7855
669.938	7791
669.990	7341
670.042	7068
670.094	7242
670.146	7847
670.197	9637
670.249	10043
670.301	12438
670.353	15753
670.404	20592
670.456	29325
670.508	42194
670.560	65169
670.611	104075
670.663	171761
670.715	294035
670.766	605522
670.818	840537
670.869	350132
670.921	84102
670.972	40626
671.024	27738
671.075	20906
671.127	16160
671.178	12701
671.230	11543
671.281	10638
671.333	10073
671.384	9177
671.436	9639
671.487	10500
671.538	11651
671.590	13383
671.641	16999
671.692	22689
671.744	36556
671.795	65565
671.846	42320
671.897	16831
671.949	10640
672.000	9241
672.051	8820
672.102	6917
672.153	5934
672.204	6302
672.256	6508
672.307	5517
672.358	5591
672.409	5396
672.460	6626
672.511	5054
672.562	5205
672.613	5301
672.664	5274
672.715	5792
672.766	4941
672.817	4956
672.868	5423
672.919	5342
672.970	4637
673.021	4657
673.071	5029
673.122	4893
673.173	5409
673.224	3709
673.275	5277
673.326	4782
673.376	5031
673.427	4185
673.478	4177
673.528	4988
673.579	4801
673.630	4619
673.680	5121
673.731	5001
673.782	4488
673.832	4575
673.883	4214
673.934	4610
673.984	5001
674.035	3687
674.085	4727
674.136	5542
674.186	4347
674.237	5292
674.287	4530
674.338	5864
674.388	5230
674.438	4497
674.489	5172
674.539	4462
674.589	4409
674.640	4771
674.690	5162
674.740	3306
674.791	4177
674.841	4446
674.891	4501
674.942	3536
674.992	4633
675.042	3824
675.092	4402
675.142	3937
675.193	4495
675.243	3979
675.293	3878
675.343	4703
675.393	5006
675.443	4019
675.493	4182
675.543	3913
675.593	5134
675.643	3948
675.693	3980
675.743	4199
675.793	4574
675.843	3139
675.893	4184
675.943	4270
675.993	3551
676.043	3705
676.093	4397
676.142	3515
676.192	4020
676.242	3710
676.292	4143
676.341	3729
676.391	3459
676.441	3412
676.491	3107
676.540	3411
676.590	3925
676.640	4071
676.689	4227
676.739	3140
676.789	3333
676.838	3047
676.888	3604
676.937	2675
676.987	3955
677.037	2900
677.086	3368
677.136	3341
677.185	3853
677.235	3486
677.284	2963
677.333	3363
677.383	2758
677.432	3269
677.482	3789
677.531	2681
677.580	3124
677.630	2364
677.679	3327
677.728	3160
677.778	3562
677.827	2923
677.876	3264
677.925	2376
677.975	2980
678.024	3822
678.073	3294
678.122	4078
678.171	3811
678.220	3828
678.269	3579
678.319	3612
678.368	4444
678.417	3534
678.466	4262
678.515	4800
678.564	3500
678.613	3221
678.662	3291
678.711	2811
678.760	3766
678.809	3224
678.857	3386
678.906	2838
678.955	2876
679.004	4088
679.053	3569
679.102	3082
679.151	3284
679.199	3032
679.248	3359
679.297	3092
679.346	3163
679.394	3927
679.443	3618
679.492	3155
679.540	2938
679.589	3422
679.638	3280
679.686	2965
679.735	3555
679.784	2475
679.832	3241
679.881	2789
679.929	3135
679.978	2978
680.026	3032
680.075	2904
680.123	3041
680.172	3132
680.220	2396
680.268	2379
680.317	3419
680.365	2448
680.414	3153
680.462	2964
680.510	2684
680.559	3352
680.607	3033
680.655	2974
680.703	2791
680.752	2583
680.800	2851
680.848	2371
680.896	3190
680.945	2938
680.993	2622
681.041	3397
681.089	3087
681.137	2925
681.185	2129
681.233	2466
681.258	2736
681.281	2965
681.329	2215
681.377	2860
681.380	2893
681.425	3015
681.473	3294
681.502	2973
681.521	2705
681.569	3732
681.617	2438
681.624	2591
681.665	3378
681.713	3308
681.745	3408
681.761	3414
681.809	3021
681.857	2770
681.867	2929
681.904	3336
681.952	3476
681.989	3802
682.000	3875
682.048	3636
682.096	3818
682.111	3618
682.143	3115
682.191	4107
682.233	3508
682.239	3383
682.286	3565
682.334	3881
682.354	3811
682.382	3696
682.430	3598
682.476	3898
682.477	3879
682.525	4121
682.572	3905
682.598	3926
682.620	3889
682.667	4054
682.715	4043
682.720	4078
682.763	4223
682.810	3871
682.841	4252
682.857	4424
682.905	4386
682.952	5172
682.963	5097
683.000	4663
683.047	4069
683.085	5356
683.095	5683
683.142	4617
683.190	5206
683.206	5101
683.237	4880
683.284	5306
683.328	5388
683.332	5369
683.379	4459
683.426	4934
683.449	4951
683.473	4942
683.521	5771
683.568	5053
683.571	5061
683.615	4903
683.662	5454
683.693	5054
683.709	4783
683.757	5184
683.804	5052
683.814	5088
683.851	5170
683.898	5268
683.936	5241
683.945	5221
683.992	6143
684.039	6026
684.057	6096
684.086	6136
684.133	6412
684.179	5979
684.180	5949
684.227	6235
684.274	6210
684.300	6619
684.321	6880
684.368	6298
684.415	6758
684.422	6653
684.462	5915
684.509	6129
684.543	6372
684.556	6409
684.603	6712
684.649	6419
684.665	6299
684.696	6091
684.743	6355
684.786	6532
684.790	6532
684.837	6944
684.883	6579
684.908	6527
684.930	6487
684.977	7164
685.023	6698
685.029	6811
685.070	7543
685.117	7445
685.150	7035
685.164	6838
685.210	6975
685.257	7440
685.272	7599
685.303	7965
685.350	7851
685.393	7544
685.396	7507
685.443	7494
685.490	8146
685.514	8117
685.536	8129
685.583	8814
685.629	9001
685.636	8959
685.675	8267
685.722	8427
685.757	7978
685.768	7872
685.815	7924
685.861	8240
685.878	8184
685.908	8154
685.954	8651
686.000	8588
686.000	8578
686.047	8355
686.093	8501
686.121	8646
686.139	8819
686.185	9338
686.232	9434
686.242	9512
686.278	9366
686.324	8956
686.363	8874
686.370	8850
686.416	8254
686.463	8068
686.484	7992
686.509	8074
686.555	8849
686.601	8661
686.606	8665
686.647	8567
686.693	8209
686.727	8075
686.739	8046
686.785	8061
686.831	8720
686.848	8701
686.877	8674
686.923	8980
686.969	9010
686.969	9008
687.015	8451
687.061	8554
687.090	8735
687.107	8918
687.153	9292
687.199	9164
687.211	9135
687.245	9060
687.291	9096
687.332	8877
687.336	8848
687.382	9417
687.428	9633
687.453	9617
687.474	9644
687.520	9482
687.565	9330
687.574	9342
687.611	9208
687.657	9554
687.695	9436
687.702	9453
687.748	9696
687.794	9734
687.816	9673
687.839	9643
687.885	10086
687.931	9709
687.937	9751
687.976	9721
688.022	10394
688.058	10031
688.067	10027
688.113	9772
688.158	9682
688.179	9983
688.204	10266
688.249	10048
688.295	10540
688.300	10498
688.340	9976
688.386	10154
688.421	9941
688.431	9999
688.477	9986
688.522	10498
688.542	10577
688.567	10534
688.613	10586
688.658	10637
688.663	10650
688.703	10871
688.749	10539
688.784	10639
688.794	10642
688.839	10364
688.884	10728
688.905	10474
688.930	10299
688.975	10611
689.020	10789
689.026	10837
689.065	11071
689.110	10944
689.146	10447
689.155	10399
689.201	10546
689.246	10805
689.267	10910
689.291	10863
689.336	10933
689.381	10845
689.388	10827
689.426	10892
689.471	11010
689.509	10492
689.516	10435
689.561	10568
689.606	11004
689.630	11145
689.651	11137
689.696	10871
689.741	10528
689.750	10537
689.785	10853
689.830	10925
689.871	10796
689.875	10791
689.920	11234
689.965	11102
689.992	11161
690.010	11170
690.054	10654
690.099	11007
690.112	10925
690.144	10989
690.189	11390
690.233	11083
690.233	11096
690.278	11222
690.323	11522
690.354	11604
690.367	11626
690.412	11392
690.457	11180
690.474	11087
690.501	11079
690.546	11336
690.590	11275
690.595	11295
690.635	11488
690.680	10864
690.716	11049
690.724	11133
690.769	11233
690.813	11214
690.836	11196
690.857	11296
690.902	11419
690.946	11801
690.957	11768
690.991	11660
691.035	12004
691.077	12135
691.080	12184
691.124	12431
691.168	13403
691.198	13660
691.213	13653
691.257	13600
691.301	13613
691.318	13554
691.346	13297
691.390	12967
691.434	12702
691.439	12656
691.478	12535
691.522	12399
691.559	11963
691.567	11993
691.611	12268
691.655	12465
691.680	12820
691.699	13078
691.743	13306
691.787	13456
691.800	13448
691.831	13240
691.875	13075
691.919	12823
691.921	12795
691.964	13056
692.008	13299
692.041	13554
692.052	13600
692.096	13613
692.139	13751
692.162	13412
692.183	13047
692.227	13045
692.271	12819
692.282	12803
692.315	13188
692.359	13494
692.402	13657
692.403	13682
692.447	13919
692.490	13737
692.523	13815
692.534	13795
692.578	13624
692.622	13420
692.643	13214
692.666	13244
692.709	13146
692.753	13577
692.763	13630
692.797	13820
692.840	13683
692.884	13678
692.884	13703
692.928	13564
692.971	13523
693.004	13627
693.015	13737
693.059	13793
693.102	13611
693.124	13577
693.146	13581
693.189	13561
693.233	13833
693.245	13842
693.276	13806
693.320	13522
693.363	13339
693.365	13306
693.407	13738
693.450	14170
693.485	14241
693.493	14176
693.537	14149
693.580	14058
693.605	13852
693.624	13877
693.667	14142
693.710	14248
693.725	14239
693.753	14527
693.797	15094
693.840	15476
693.845	15510
693.883	16646
693.926	17799
693.966	18843
693.970	18814
694.013	17756
694.056	17260
694.086	16781
694.099	16606
694.142	15753
694.185	14906
694.206	14587
694.229	14706
694.272	14617
694.315	14530
694.326	14527
694.358	14736
694.401	14877
694.444	15068
694.446	15045
694.487	15605
694.530	16167
694.566	16385
694.573	16376
694.616	16356
694.659	16256
694.686	16073
694.702	15855
694.745	15529
694.787	14798
694.806	14590
694.830	14512
694.873	14055
694.916	13611
694.926	13507
694.959	13874
695.002	14344
695.044	14668
695.046	14648
695.087	14681
695.130	14845
695.166	14667
695.172	14689
695.215	15015
695.258	15079
695.286	15096
695.301	15147
695.343	15487
695.386	15480
695.406	15450
695.428	15378
695.471	15419
695.514	15108
695.526	15057
695.556	15092
695.599	15191
695.641	14932
695.646	14892
695.684	15393
695.726	15987
695.766	16324
695.769	16315
695.811	15745
695.854	15169
695.886	14592
695.896	14708
695.938	15282
695.981	15656
696.005	15902
696.023	15990
696.065	15896
696.108	15944
696.125	15970
696.150	16117
696.192	16251
696.235	16352
696.245	16339
696.277	16493
696.319	16505
696.361	16665
696.365	16642
696.404	16611
696.446	16452
696.485	16167
696.488	16205
696.530	16328
696.572	16347
696.604	16400
696.614	16461
696.656	16537
696.698	16554
696.724	16497
696.740	16521
696.783	16498
696.825	16469
696.844	16447
696.867	16390
696.909	16236
696.951	15949
696.964	15842
696.992	16020
697.034	16225
697.076	16416
697.083	16399
697.118	16485
697.160	16595
697.202	16674
697.203	16634
697.244	16642
697.286	16702
697.323	16558
697.327	16586
697.369	16612
697.411	16512
697.442	16452
697.453	16560
697.494	16750
697.536	17095
697.562	17195
697.578	17225
697.620	17197
697.661	17116
697.682	17093
697.703	17381
697.744	17840
697.786	18307
697.801	18414
697.828	18725
697.869	19123
697.911	19567
697.921	19613
697.952	19519
697.994	19362
698.035	19228
698.040	19160
698.077	18681
698.118	18069
698.160	17453
698.160	17403
698.201	17711
698.243	17953
698.279	18127
698.284	18171
698.325	18127
698.367	18103
698.399	18031
698.408	18118
698.449	18265
698.491	18459
698.518	18542
698.532	18595
698.573	18579
698.614	18577
698.638	18530
698.656	18474
698.697	18225
698.738	17979
698.757	17813
698.779	17970
698.820	18196
698.862	18409
698.877	18442
698.903	18684
698.944	18991
698.985	19299
698.996	19336
699.026	19391
699.067	19397
699.116	19357
699.235	19232
699.354	18112
699.474	17890
699.593	17791
699.713	19626
699.832	18622
699.951	19108
700.070	20203
700.190	18148
700.309	18565
700.428	17451
700.547	18970
700.667	18169
700.786	17558
700.905	19616
701.024	17140
701.143	18253
701.262	18117
701.381	16741
701.500	16619
701.619	18676
701.738	18901
701.857	17531
701.976	16388
702.095	15837
702.214	16713
702.333	18250
702.452	18642
702.571	17451
702.690	16907
702.809	16210
702.928	16639
703.047	15210
703.165	16502
703.284	16416
703.403	15967
703.522	15920
703.640	17439
703.759	17215
703.878	18661
703.997	20995
704.115	15696
704.234	15871
704.353	16128
704.471	16464
704.590	15184
704.708	15550
704.827	14154
704.946	15294
705.064	14753
705.183	15718
705.301	15307
705.420	17124
705.538	20088
705.656	17963
705.775	16716
705.893	15229
706.012	16925
706.130	17852
706.249	17419
706.367	16748
706.485	17161
706.604	17224
706.722	17015
706.840	17480
706.958	20071
707.077	18602
707.195	17477
707.313	16528
707.431	15352
707.549	15350
707.668	15607
707.786	16224
707.904	15861
708.022	15407
708.140	14514
708.258	15294
708.376	14684
708.494	15427
708.612	16164
708.730	16346
708.848	20512
708.966	19313
709.084	19715
709.202	18283
709.320	16791
709.438	16155
709.556	17607
709.674	17707
709.791	17059
709.909	16727
710.027	17042
710.145	16183
710.263	17027
710.380	15994
710.498	16909
710.616	15978
710.733	16062
710.851	15519
710.969	16607
711.086	16795
711.204	16202
711.322	15910
711.439	15541
711.557	15923
711.674	15621
711.792	15499
711.909	15978
712.027	14924
712.144	16150
712.262	15170
712.379	15262
712.497	16616
712.614	21449
712.732	21614
712.849	18328
712.966	17210
713.084	18796
713.201	21861
713.318	18784
713.436	18108
713.553	18007
713.670	18155
713.787	18821
713.905	18933
714.022	19686
714.139	18115
714.256	18495
714.373	21606
714.490	26973
714.608	42167
714.725	99691
714.842	434374
714.959	450240
715.076	38596
715.193	22985
715.310	19566
715.427	19788
715.544	16199
715.661	17290
715.778	16105
715.895	16940
716.011	17232
716.128	18480
716.245	16423
716.362	17023
716.479	18604
716.596	19323
716.713	15688
716.829	16062
716.946	15688
717.063	15318
717.180	14902
717.296	15097
717.413	13955
717.530	14959
717.646	14135
717.763	14509
717.880	14070
717.996	13278
718.113	14046
718.229	14970
718.346	14191
718.462	13663
718.579	14564
718.695	17253
718.812	27603
718.928	19537
719.045	17450
719.161	14444
719.277	13117
719.394	14120
719.510	13179
719.626	14168
719.743	14328
719.859	17079
719.975	20545
720.092	34367
720.208	121884
720.324	281882
720.440	36241
720.557	16903
720.673	16279
720.789	22108
720.905	23733
721.021	36057
721.137	17716
721.253	12936
721.369	12710
721.486	12703
721.602	14415
721.718	15879
721.834	12294
721.950	12082
722.066	12087
722.181	11853
722.297	12116
722.413	12808
722.529	11783
722.645	11953
722.761	11005
722.877	11639
722.993	11238
723.108	12043
723.224	12989
723.340	12497
723.456	11250
723.571	11598
723.687	11656
723.803	11199
723.918	11439
724.034	11527
724.150	11335
724.265	10915
724.381	10547
724.497	16887
724.612	19314
724.728	11415
724.843	10564
724.959	10579
725.074	11120
725.190	16525
725.305	18147
725.421	10448
725.536	10509
725.651	10660
725.767	10018
725.882	9999
725.997	9499
726.113	9917
726.228	9787
726.343	9491
726.459	9653
726.574	8501
726.689	8862
726.804	10078
726.920	8790
727.035	10090
727.150	9095
727.265	10188
727.380	9641
727.495	10477
727.610	9485
727.725	9159
727.841	8934
727.956	9472
728.071	9876
728.186	9553
728.301	9462
728.416	9570
728.531	9799
728.645	9233
728.760	9340
728.875	9940
728.990	10386
729.105	10298
729.220	9535
729.335	10525
729.449	10211
729.564	8760
729.679	8985
729.794	7966
729.908	8563
730.023	9736
730.138	8979
730.253	8260
730.367	8149
730.482	8597
730.596	8205
730.711	9003
730.826	9624
730.940	8806
731.055	9230
731.169	9247
731.284	8790
731.398	9031
731.513	8461
731.627	10080
731.742	9683
731.856	11071
731.970	11475
732.085	11031
732.199	12090
732.313	14839
732.428	21625
732.542	47919
732.656	146069
732.771	89305
732.885	18857
732.999	13448
733.113	11771
733.227	12094
733.342	10603
733.456	10197
733.570	10739
733.684	10665
733.798	9760
733.912	9755
734.026	10148
734.140	9918
734.254	10318
734.368	9780
734.482	11807
734.596	13750
734.710	9743
734.824	9694
734.938	8980
735.052	9133
735.166	9194
735.280	10236
735.393	9392
735.507	10003
735.621	9416
735.735	10667
735.849	12691
735.962	10258
736.076	8745
736.190	9662
736.303	9141
736.417	10962
736.531	12289
736.644	8878
736.758	8663
736.872	8606
736.985	8321
737.099	9336
737.212	8027
737.326	7977
737.439	8334
737.553	8956
737.666	8476
737.780	8018
737.893	8329
738.007	8773
738.120	8762
738.233	9049
738.347	8254
738.460	8640
738.573	8312
738.687	8721
738.800	8803
738.913	9135
739.026	10359
739.140	8869
739.253	7213
739.366	7681
739.479	8739
739.592	7057
739.705	8281
739.818	7768
739.932	8492
740.045	7723
740.158	8145
740.271	8254
740.384	8423
740.497	7533
740.610	7916
740.723	8714
740.836	7365
740.949	7742
741.062	8943
741.174	11289
741.287	8941
741.400	7719
741.513	7508
741.626	7800
741.739	8038
741.851	7618
741.964	8114
742.077	7766
742.189	8196
742.302	8037
742.415	7705
742.527	8558
742.640	7715
742.753	8076
742.865	6854
742.978	7146
743.090	6492
743.203	7199
743.316	6722
743.428	6326
743.541	7231
743.653	6182
743.766	6403
743.878	7284
743.990	7117
744.103	8123
744.215	7149
744.327	7566
744.440	7844
744.552	8450
744.664	11192
744.777	8351
744.889	6749
745.001	6466
745.113	6344
745.226	7021
745.338	6392
745.450	5725
745.562	6176
745.674	6473
745.786	6202
745.898	5792
746.010	6240
746.122	6904
746.234	6751
746.347	6971
746.459	6145
746.570	6624
746.682	5849
746.794	5789
746.906	7121
747.018	6193
747.130	6332
747.242	5747
747.354	6101
747.466	6570
747.577	6165
747.689	6034
747.801	5620
747.913	5695
748.024	5435
748.136	5447
748.248	5095
748.359	5816
748.471	5711
748.583	5240
748.694	5285
748.806	5591
748.918	4977
749.029	6137
749.141	6492
749.252	7088
749.364	5989
749.475	6666
749.587	12077
749.698	8726
749.809	5936
749.921	6076
750.032	5622
750.144	5081
750.255	5308
750.366	4624
750.478	5667
750.589	5635
750.700	5246
750.811	6077
750.923	6064
751.034	6341
751.145	13849
751.256	13200
751.367	5871
751.479	5884
751.590	4621
751.701	5535
751.812	5930
751.923	5382
752.034	4571
752.145	5271
752.256	5648
752.367	5063
752.478	5092
752.589	4489
752.700	4890
752.811	4680
752.922	4680
753.032	5341
753.143	5454
753.254	6888
753.365	4807
753.476	5429
753.586	5046
753.697	5554
753.808	4832
753.919	5193
754.029	4663
754.140	5516
754.251	4940
754.361	4797
754.472	4708
754.582	5329
754.693	5136
754.804	4606
754.914	4863
755.025	4407
755.135	4773
755.246	5368
755.356	5005
755.466	4811
755.577	4824
755.687	5628
755.798	4490
755.908	5147
756.018	4864
756.129	5015
756.239	4339
756.349	4509
756.460	4947
756.570	5146
756.680	5011
756.790	4796
756.900	5428
757.011	5179
757.121	4997
757.231	4990
757.341	4118
757.451	5617
757.561	3867
757.671	4941
757.781	4468
757.891	4434
758.001	4412
758.111	5403
758.221	5201
758.331	5117
758.441	5280
758.551	5723
758.661	7272
758.771	7015
758.880	5098
758.990	4947
759.100	4650
759.210	5681
759.320	5104
759.429	4852
759.539	5095
759.649	5676
759.758	5869
759.868	5502
759.978	6401
760.087	6345
760.197	6283
760.307	5269
760.416	4679
760.526	5445
760.635	5021
760.745	5657
760.854	5421
760.964	6086
761.073	5771
761.182	5897
761.292	5207
761.401	5711
761.511	5493
761.620	4335
761.729	4477
761.839	4650
761.948	4338
762.057	4446
762.166	5057
762.276	4369
762.385	5079
762.494	5402
762.603	4805
762.712	4384
762.822	4856
762.931	5056
763.040	4396
763.149	4600
763.258	3850
763.367	4979
763.476	4816
763.585	5034
763.694	4641
763.803	5108
763.912	5332
764.021	4756
764.130	4432
764.238	4899
764.347	4575
764.456	5475
764.565	5291
764.674	5643
764.783	5435
764.891	5167
765.000	5384
765.109	6011
765.217	5244
765.326	6321
765.435	6726
765.543	7908
765.652	7568
765.761	8543
765.869	8756
765.978	12350
766.086	16722
766.195	29598
766.303	61214
766.412	164453
766.520	503972
766.629	439775
766.737	91545
766.846	31355
766.954	18972
767.062	14876
767.171	10762
767.279	9476
767.387	7875
767.496	7242
767.604	6799
767.712	6843
767.820	5979
767.928	6654
768.037	5893
768.145	5541
768.253	6226
768.361	6004
768.469	5511
768.577	5832
768.685	5412
768.793	5937
768.901	6242
769.009	6335
769.117	6332
769.225	6999
769.333	7333
769.441	9987
769.549	13975
769.657	26144
769.765	60039
769.873	198064
769.981	446093
770.088	139656
770.196	27163
770.304	14669
770.412	11262
770.519	9576
770.627	8178
770.735	7233
770.842	6164
770.950	6030
771.058	6082
771.165	6154
771.273	5938
771.380	6563
771.488	5755
771.595	6769
771.703	6518
771.810	6633
771.918	5416
772.025	5909
772.133	5542
772.240	6663
772.348	5749
772.455	6175
772.562	6737
772.670	5836
772.777	6172
772.884	6073
772.991	5967
773.099	6299
773.206	5884
773.313	5812
773.420	5841
773.528	5498
773.635	5378
773.742	5419
773.849	5035
773.956	5045
774.063	5893
774.170	5484
774.277	4989
774.384	5507
774.491	5345
774.598	5641
774.705	5376
774.812	5787
774.919	6906
775.026	5965
775.133	5695
775.239	5624
775.346	5293
775.453	4987
775.560	5941
775.667	5325
775.773	4810
775.880	5604
775.987	4844
776.093	5742
776.200	5179
776.307	5967
776.413	5438
776.520	5125
776.627	5222
776.733	5322
776.840	4861
776.946	5428
777.053	5149
777.159	5856
777.266	5627
777.372	5641
777.478	5270
777.585	5160
777.691	5126
777.798	5324
777.904	6013
778.010	5660
778.117	6575
778.223	6525
778.329	4613
778.435	4940
778.542	5835
778.648	5417
778.754	4784
778.860	4702
778.966	4615
779.072	4716
779.178	5360
779.284	4896
779.391	4401
779.497	3831
779.603	5603
779.708	4806
779.815	4930
779.920	5679
780.026	8983
780.132	14374
780.238	5547
780.344	4556
780.450	4685
780.556	4238
780.661	4145
780.767	4555
780.873	5396
780.979	4556
781.085	3462
781.190	5369
781.296	4364
781.402	5058
781.507	4322
781.613	4911
781.719	4377
781.824	3993
781.930	4969
782.035	4555
782.141	3725
782.246	3970
782.352	3373
782.457	4240
782.563	4064
782.668	4405
782.773	4165
782.879	4477
782.984	4349
783.090	4730
783.195	4556
783.300	5975
783.405	5651
783.511	3641
783.616	3788
783.721	3978
783.826	3653
783.932	4319
784.037	4155
784.142	4207
784.247	4324
784.352	3610
784.457	4832
784.562	3833
784.667	3976
784.772	3827
784.877	3768
784.982	3156
785.087	3909
785.192	4003
785.297	3888
785.402	3829
785.507	4069
785.611	4092
785.716	4107
785.821	3101
785.926	3651
786.031	3577
786.135	3284
786.240	3701
786.345	3005
786.450	4406
786.554	3667
786.659	3751
786.763	2897
786.868	3741
786.973	3612
787.077	3837
787.182	3439
787.286	3452
787.391	3366
787.495	3531
787.600	2816
787.704	2740
787.809	2558
787.913	3890
788.017	3218
788.122	3364
788.226	3945
788.330	3170
788.435	1713
788.539	3384
788.643	3716
788.747	3752
788.852	3230
788.956	3572
789.060	3891
789.164	3788
789.268	2933
789.372	2794
789.476	3496
789.580	3746
789.684	3179
789.788	3742
789.892	2940
789.996	3482
790.100	2737
790.204	2884
790.308	2476
790.412	4110
790.516	3159
790.620	3244
790.724	3077
790.828	2669
790.931	2930
791.035	3247
791.139	2846
791.242	3410
791.346	2621
791.450	3020
791.554	3731
791.657	2311
791.761	2750
791.864	3457
791.968	3121
792.072	3524
792.175	3650
792.279	3217
792.382	2931
792.486	2846
792.589	2596
792.693	2927
792.796	3069
792.899	3304
793.003	2367
793.106	2932
793.209	2536
793.313	3626
793.416	2365
793.519	2956
793.623	3606
793.726	4084
793.829	5455
793.932	3516
794.035	3264
794.138	3022
794.242	3324
794.345	3576
794.448	3417
794.551	4194
794.654	6421
794.757	6956
794.860	6571
794.963	3654
795.066	3141
795.169	2948
795.272	2504
795.375	1841
795.477	2390
795.580	3083
795.683	1839
795.786	2692
795.889	2114
795.991	3247
796.094	2767
796.197	2594
796.300	3596
796.402	2741
796.505	2764
796.608	2330
796.710	2297
796.813	2532
796.915	2833
797.018	2415
797.120	2619
797.223	2399
797.326	2369
797.428	2659
797.530	3052
797.633	2748
797.735	2070
797.838	2663
797.940	3158
798.042	3590
798.145	2587
798.247	2220
798.349	1849
798.452	1774
798.554	1611
798.656	1738
798.758	2740
798.860	2472
798.962	2496
799.065	2902
799.167	1933
799.269	2070
799.371	2593
799.473	2434
799.575	2802
799.677	3328
799.779	3551
799.881	3305
799.983	5615
800.085	3253
800.187	2686
800.289	2342
800.390	2632
800.492	3002
800.594	3431
800.696	2551
800.798	2805
800.899	2177
801.001	2422
801.103	2643
801.205	1576
801.306	2852
801.408	1559
801.509	2136
801.611	2239
801.713	1961
801.814	1750
801.916	2045
802.017	2515
802.119	2197
802.220	1601
802.322	1914
802.423	2837
802.525	2769
802.626	2079
802.727	2206
802.829	2211
802.930	2719
803.031	2379
803.133	1038
803.234	2293
803.335	2322
803.436	3067
803.538	1540
803.639	2092
803.740	1716
803.841	1841
803.942	2158
804.043	2162
804.144	1940
804.245	1278
804.346	2511
804.447	1978
804.548	2543
804.649	3036
804.750	3792
804.851	1933
804.952	1883
805.053	1956
805.154	956
805.255	1541
805.355	1693
805.456	1446
805.557	1633
805.658	1103
805.758	1767
805.859	1938
805.960	1835
806.061	1623
806.161	2606
806.262	1428
806.362	1909
806.463	1856
806.564	2555
806.664	1626
806.765	1737
806.865	1609
806.966	2904
807.066	1658
807.166	1745
807.267	1938
807.367	1591
807.468	1464
807.568	1635
807.668	2246
807.769	1582
807.869	1894
807.969	1711
808.069	1871
808.170	1992
808.270	1678
808.370	1838
808.470	1851
808.570	2556
808.670	3244
808.770	1631
808.870	2091
808.970	1523
809.070	1956
809.170	1972
809.271	1839
809.370	1328
809.470	1968
809.570	1803
809.670	1419
809.770	1309
809.870	1463
809.970	1400
810.070	1111
810.169	1783
810.269	2109
810.369	2226
810.469	1869
810.568	2085
810.668	1877
810.768	1650
810.867	1274
810.967	1812
811.066	1685
811.166	2137
811.265	1329
811.365	1885
811.464	1982
811.564	2270
811.663	1872
811.763	1818
811.862	1453
811.962	2371
812.061	1590
812.160	2119
812.260	1886
812.359	3060
812.458	2805
812.557	5089
812.657	10600
812.756	19728
812.855	7309
812.954	2403
813.053	2677
813.153	2199
813.252	2047
813.351	1889
813.450	1491
813.549	3276
813.648	2365
813.747	2261
813.846	1817
813.945	2078
814.044	1939
814.143	1951
814.242	1802
814.341	2782
814.439	1733
814.538	2284
814.637	2382
814.736	2399
814.835	2232
814.933	1653
815.032	2064
815.131	2955
815.229	2287
815.328	3668
815.427	3756
815.525	3540
815.624	2974
815.722	3099
815.821	4092
815.919	3628
816.018	3759
816.116	4173
816.215	3864
816.313	4864
816.412	4148
816.510	4397
816.609	4852
816.707	4862
816.805	5008
816.904	5846
817.002	4848
817.100	6207
817.198	6811
817.296	8083
817.395	7546
817.493	9872
817.591	10119
817.689	12477
817.787	15400
817.885	20043
817.983	31028
818.081	54064
818.179	107404
818.277	233139
818.375	514544
818.473	513369
818.571	186355
818.669	72993
818.767	45096
818.865	37546
818.963	37415
819.061	42666
819.158	61042
819.256	100007
819.354	192091
819.452	394939
819.549	729531
819.647	587423
819.745	232492
819.842	100155
819.940	57862
820.038	39836
820.135	28833
820.233	22358
820.330	18157
820.428	14187
820.525	13078
820.623	10971
820.720	9176
820.818	9731
820.915	7667
821.012	7827
821.110	6920
821.207	6184
821.304	5744
821.402	5228
821.499	5183
821.596	5933
821.693	4964
821.791	5110
821.888	4549
821.985	4900
822.082	7295
822.179	8112
822.276	4492
822.373	4362
822.470	3649
822.567	3300
822.664	3928
822.761	3448
822.858	3535
822.955	3437
823.052	3024
823.149	2313
823.246	2875
823.343	2743
823.440	2795
823.536	2562
823.633	2545
823.730	3131
823.827	2646
823.923	2353
824.020	3280
824.117	2256
824.213	2525
824.310	3905
824.407	2426
824.503	2395
824.600	2203
824.696	2582
824.793	1990
824.889	2729
824.986	2663
825.082	1531
825.179	1942
825.275	1512
825.371	1898
825.468	2869
825.564	2152
825.660	1941
825.757	2370
825.853	3546
825.949	2030
826.045	2684
826.142	1605
826.238	2462
826.334	2038
826.430	2069
826.526	2226
826.622	734
826.718	1604
826.814	2294
826.910	2733
827.006	2662
827.102	967
827.198	2349
827.294	2141
827.390	2025
827.486	2141
827.582	849
827.678	1100
827.774	2407
827.869	1821
827.965	1852
828.061	987
828.157	1560
828.252	1191
828.348	1276
828.444	1820
828.539	1266
828.635	1518
828.731	2460
828.826	843
828.922	1676
829.017	1089
829.113	2020
829.208	1931
829.304	1440
829.399	2141
829.495	1014
829.590	1938
829.685	1258
829.781	751
829.876	1550
829.971	1746
830.066	582
830.162	1248
830.257	949
830.352	1889
830.447	2071
830.543	1440
830.638	1857
830.733	2146
830.828	1608
830.923	1235
831.018	562
831.113	1291
831.208	2317
831.303	823
831.398	1117
831.493	1349
831.588	1383
831.683	1156
831.778	1077
831.873	1483
831.967	1760
832.062	934
832.157	1447
832.252	1742
832.346	1499
832.441	989
832.536	2319
832.631	3155
832.725	5942
832.820	6129
832.914	1408
833.009	1312
833.104	1732
833.198	1315
833.293	2398
833.387	709
833.482	1772
833.576	1306
833.670	2216
833.765	1645
833.859	1226
833.954	1858
834.048	2062
834.142	873
834.237	1614
834.331	818
834.425	565
834.519	1008
834.613	1861
834.708	640
834.802	1931
834.896	274
834.990	1707
835.084	2016
835.178	1507
835.272	811
835.366	1472
835.460	1687
835.554	1145
835.648	1232
835.742	1113
835.836	621
835.930	738
836.024	1218
836.117	1285
836.211	1351
836.305	1152
836.399	1598
836.493	1508
836.586	1384
836.680	1487
836.774	1839
836.867	961
836.961	501
837.055	49
837.148	717
837.242	679
837.335	1442
837.429	1136
837.522	688
837.616	2176
837.709	750
837.803	1424
837.896	1852
837.989	2056
838.083	1441
838.176	1530
838.269	1979
838.363	2954
838.456	903
838.549	1747
838.642	1692
838.735	3609
838.829	7425
838.922	4095
839.015	1118
839.108	1502
839.201	644
839.294	450
839.387	1465
839.480	1369
839.573	935
839.666	612
839.759	982
839.852	1208
839.945	542
840.038	642
840.131	1135
840.223	1168
840.316	925
840.409	1221
840.502	539
840.594	1624
840.687	748
840.780	774
840.873	810
840.965	591
841.058	933
841.150	851
841.243	2307
841.336	1572
841.428	1233
841.521	1363
841.613	727
841.706	821
841.798	1755
841.890	373
841.983	362
842.075	1458
842.167	1401
842.260	428
842.352	859
842.444	1880
842.537	1421
842.629	1769
842.721	3355
842.813	1377
842.905	-38
842.997	1521
843.090	1043
843.182	1673
843.274	1362
843.366	3289
843.458	4530
843.550	8468
843.642	6967
843.734	1574
843.826	1004
843.918	1168
844.009	345
844.101	597
844.193	590
844.285	282
844.377	1425
844.469	357
844.560	927
844.652	682
844.744	1357
844.835	1034
844.927	969
845.019	790
845.110	1042
845.202	1211
845.293	215
845.385	1370
845.476	183
845.568	682
845.659	798
845.751	1122
845.842	898
845.934	247
846.025	-71
846.116	1543
846.208	362
846.299	567
846.390	804
846.482	729
846.573	987
846.664	1595
846.755	1390
846.846	2065
846.937	2711
847.029	1065
847.120	958
847.211	520
847.302	895
847.393	600
847.484	544
847.575	875
847.666	-416
847.757	357
847.847	160
847.938	1001
848.029	857
848.120	1015
848.211	-47
848.302	610
848.392	475
848.483	179
848.574	856
848.664	937
848.755	227
848.846	1054
848.936	568
849.027	467
849.118	637
849.208	1245
849.299	1188
849.389	1428
849.480	2440
849.570	4906
849.661	8564
849.751	14649
849.841	29377
849.932	14707
850.022	1302
850.112	1655
850.203	714
850.293	971
850.383	854
850.474	232
850.564	732
850.654	876
850.744	718
850.834	764
850.924	77
851.014	788
851.104	797
851.194	589
851.284	211
851.374	1763
851.464	1777
851.554	1274
851.644	628
851.734	1411
851.824	749
851.914	931
852.004	169
852.094	250
852.183	545
852.273	635
852.363	635
852.452	770
852.542	697
852.632	242
852.721	164
852.811	566
852.901	783
852.990	448
853.080	329
853.169	834
853.259	473
853.348	510
853.438	908
853.527	2445
853.617	2109
853.706	3962
853.795	5791
853.885	12593
853.974	26482
854.063	51599
854.152	87152
854.242	164350
854.331	81279
854.420	12875
854.509	4314
854.598	3141
854.687	2430
854.777	1857
854.866	1001
854.955	1940
855.044	989
855.133	787
855.222	601
855.311	775
855.400	1318
855.488	1080
855.577	963
855.666	1202
855.755	974
855.844	546
855.933	864
856.021	616
856.110	727
856.199	1086
856.288	688
856.376	871
856.465	-116
856.554	162
856.642	57
856.731	665
856.819	576
856.908	414
856.996	306
857.085	754
857.173	1013
857.262	1010
857.350	301
857.438	-39
857.527	306
857.615	776
857.703	302
857.792	745
857.880	818
857.968	1110
858.056	57
858.145	532
858.233	788
858.321	-270
858.409	-30
858.497	964
858.585	342
858.673	449
858.761	-258
858.849	27
858.937	529
859.025	60
859.113	-217
859.201	880
859.289	745
859.377	1722
859.465	-336
859.552	795
859.640	399
859.728	893
859.816	-126
859.903	834
859.991	-392
860.079	244
860.166	490
860.254	-17
860.342	72
860.429	546
860.517	444
860.604	523
860.692	210
860.779	129
860.867	-618
860.954	740
861.042	1140
861.129	939
861.216	771
861.304	235
861.391	502
861.478	186
861.565	1205
861.653	851
861.740	45
861.827	323
861.914	213
862.001	710
862.089	-152
862.176	493
862.263	452
862.350	56
862.437	-33
862.524	357
862.611	234
862.698	467
862.785	-669
862.871	964
862.958	37
863.045	715
863.132	907
863.219	603
863.306	-613
863.392	755
863.479	72
863.566	-257
863.652	467
863.739	496
863.826	-68
863.912	373
863.999	-225
864.086	1156
864.172	-116
864.259	838
864.345	-142
864.432	739
864.518	926
864.604	644
864.691	1290
864.777	40
864.863	1180
864.950	1700
865.036	375
865.122	1548
865.209	2186
865.295	2850
865.381	2251
865.467	2708
865.553	2190
865.639	2788
865.726	4277
865.812	7092
865.898	13811
865.984	27988
866.070	40221
866.156	70139
866.242	98796
866.328	33709
866.414	5806
866.499	3500
866.585	3109
866.671	2900
866.757	1754
866.843	1446
866.928	2335
867.014	2002
867.100	1676
867.186	1659
867.271	1771
867.357	2292
867.442	1468
867.528	2545
867.614	1937
867.699	2086
867.785	1767
867.870	1665
867.956	665
868.041	1806
868.127	1362
868.212	1496
868.297	1961
868.383	1826
868.468	2212
868.553	2194
868.639	3954
868.724	4309
868.809	7243
868.894	9368
868.979	2862
869.065	1422
869.150	869
869.235	1168
869.320	1215
869.405	1446
869.490	555
869.575	1296
869.660	850
869.745	1514
869.830	1461
869.915	1697
870.000	1263
870.085	941
870.169	1315
870.254	1710
870.339	1866
870.424	365
870.509	1036
870.593	979
870.678	509
870.763	1790
870.847	1221
870.932	751
871.016	881
871.101	1386
871.186	725
871.270	1363
871.355	1045
871.439	657
871.523	1202
871.608	851
871.692	757
871.777	329
871.861	1095
871.945	1356
872.030	944
872.114	1185
872.198	765
872.282	644
872.367	302
872.451	657
872.535	580
872.619	846
872.703	1410
872.787	954
872.871	1331
872.955	903
873.039	624
873.123	692
873.207	553
873.291	1828
873.375	957
873.459	1362
873.543	976
873.627	805
873.711	122
873.794	707
873.878	969
873.962	1294
874.045	1511
874.129	700
874.137	693
874.213	625
874.245	775
874.296	1021
874.352	443
874.380	158
874.460	957
874.464	989
874.547	-123
874.568	94
874.631	748
874.676	515
874.714	319
874.784	551
874.798	588
874.881	1526
874.892	1395
874.965	537
874.999	546
875.048	560
875.107	628
875.131	640
875.215	984
875.215	984
875.298	587
875.323	549
875.381	479
875.430	1049
875.465	1418
875.538	590
875.548	480
875.631	586
875.646	619
875.714	747
875.753	878
875.798	1131
875.861	538
875.881	302
875.964	876
875.968	873
876.047	876
876.076	915
876.130	1046
876.183	662
876.213	431
876.291	677
876.296	687
876.379	1131
876.398	1070
876.462	949
876.506	812
876.545	670
876.613	615
876.628	600
876.711	787
876.721	767
876.794	640
876.828	688
876.877	778
876.935	926
876.960	974
877.043	615
877.043	617
877.125	1011
877.150	974
877.208	908
877.258	1124
877.291	1294
877.365	1060
877.374	1015
877.456	1350
877.472	1303
877.539	1203
877.579	1267
877.622	1286
877.687	1176
877.704	1145
877.787	1256
877.794	1234
877.869	1029
877.901	963
877.952	1018
878.008	1363
878.034	1363
878.115	511
878.117	503
878.199	1034
878.222	966
878.282	579
878.329	669
878.364	915
878.437	987
878.447	933
878.529	856
878.544	762
878.611	585
878.651	790
878.694	1063
878.758	990
878.776	922
878.858	1038
878.865	1027
878.941	862
878.972	729
879.023	557
879.078	403
879.105	419
879.185	540
879.187	546
879.269	1225
879.292	1309
879.351	1176
879.399	1118
879.433	1143
879.506	1150
879.516	1154
879.598	785
879.613	751
879.680	665
879.720	865
879.762	1129
879.827	833
879.844	689
879.926	527
879.933	496
880.007	367
880.040	732
880.089	1440
880.147	1536
880.171	1555
880.253	2286
880.254	2295
880.335	4402
880.360	4898
880.417	6315
880.467	7767
880.499	9588
880.574	15591
880.580	15934
880.662	20926
880.680	19543
880.744	10268
880.787	5245
880.825	2554
880.893	1229
880.907	1161
880.989	784
881.000	808
881.070	931
881.106	923
881.152	844
881.213	680
881.233	665
881.315	611
881.319	611
881.396	617
881.426	662
881.478	720
881.532	664
881.559	599
881.639	527
881.641	541
881.722	962
881.745	1112
881.803	1177
881.852	1196
881.885	1126
881.958	1143
881.966	1176
882.047	1410
882.064	1425
882.129	1315
882.171	1385
882.210	1699
882.277	1737
882.291	1763
882.372	2873
882.383	2923
882.454	2304
882.489	1735
882.535	1171
882.596	530
882.616	555
882.697	1597
882.702	1623
882.778	1414
882.808	1236
882.859	615
882.914	306
882.940	415
883.020	349
883.021	354
883.102	990
883.127	1155
883.183	1154
883.233	1281
883.264	1291
883.339	1081
883.345	1061
883.426	272
883.445	254
883.507	515
883.551	681
883.587	740
883.657	677
883.668	728
883.749	948
883.763	1071
883.830	1704
883.869	1781
883.910	1303
883.975	657
883.991	639
884.072	666
884.081	679
884.152	919
884.187	911
884.233	943
884.292	1157
884.314	1256
884.394	1210
884.398	1218
884.475	808
884.504	578
884.555	540
884.610	784
884.636	884
884.716	906
884.716	909
884.797	978
884.821	932
884.877	1237
884.927	1559
884.958	1381
885.033	835
885.038	830
885.118	752
885.139	756
885.199	725
885.244	684
885.279	646
885.350	591
885.359	647
885.439	1170
885.456	1225
885.520	1355
885.561	1490
885.600	1218
885.667	715
885.680	710
885.760	650
885.773	653
885.840	1078
885.878	1331
885.920	1254
885.984	928
886.000	890
886.080	955
886.089	925
886.160	770
886.195	827
886.240	933
886.300	1033
886.320	1003
886.400	850
886.406	835
886.480	902
886.511	887
886.560	1013
886.616	1265
886.640	1262
886.720	1181
886.722	1178
886.800	1324
886.827	1277
886.879	993
886.932	787
886.959	996
887.038	1739
887.039	1744
887.119	1389
887.143	1305
887.198	935
887.248	533
887.278	757
887.354	1333
887.358	1328
887.437	1207
887.459	1143
887.517	1148
887.564	1113
887.596	1311
887.669	1832
887.676	1795
887.755	1085
887.774	972
887.835	1245
887.880	1329
887.914	965
887.985	324
887.994	436
888.073	1283
888.090	1485
888.153	1030
888.195	662
888.232	1074
888.300	1913
888.311	1832
888.391	1127
888.405	1005
888.470	645
888.510	382
888.549	910
888.615	1832
888.628	1737
888.708	1136
888.720	1040
888.787	1353
888.825	1495
888.866	1228
888.930	843
888.945	723
889.024	44
889.035	-43
889.103	764
889.140	1198
889.182	1242
889.245	1292
889.261	1207
889.340	772
889.349	725
889.419	1369
889.454	1675
889.498	1494
889.559	1242
889.577	1153
889.656	744
889.664	703
889.735	1043
889.768	1199
889.814	936
889.873	585
889.978	812
890.083	1729
890.187	1187
890.292	823
890.397	1016
890.501	1293
890.606	1388
890.710	1694
890.815	1737
890.919	1535
891.024	1360
891.128	1428
891.233	859
891.337	2013
891.442	1542
891.546	1444
891.650	1122
891.755	875
891.859	1201
891.963	1311
892.068	1674
892.172	1161
892.276	833
892.380	1096
892.484	1038
892.589	1589
892.693	1391
892.797	964
892.901	835
893.005	710
893.109	688
893.213	1581
893.317	1042
893.421	343
893.525	328
893.629	583
893.733	376
893.837	2033
893.941	983
894.045	817
894.148	435
894.252	725
894.356	697
894.460	1438
894.564	1758
894.667	686
894.771	571
894.875	1000
894.978	333
895.082	1198
895.186	470
895.289	1577
895.393	1284
895.496	480
895.600	920
895.703	513
895.807	803
895.910	1077
896.014	169
896.117	789
896.221	694
896.324	1277
896.427	350
896.531	438
896.634	2
896.737	997
896.840	621
896.944	929
897.047	179
897.150	1214
897.253	1459
897.356	-55
897.460	1014
897.563	562
897.666	524
897.769	1764
897.872	845
897.975	999
898.078	625
898.181	875
898.284	946
898.387	1498
898.490	491
898.593	914
898.695	641
898.798	98
898.901	711
899.004	1437
899.107	287
899.209	1187
899.312	62
899.415	967
899.518	412
899.620	942
899.723	674
899.826	1253
899.928	1315
900.031	2070
900.133	-391
900.236	1029
900.338	181
900.441	1010
900.543	-713
900.646	843
900.748	270
900.851	842
900.953	245
901.055	663
901.158	471
901.260	750
901.362	-225
901.465	604
901.567	887
901.669	26
901.771	165
901.873	1040
901.976	193
902.078	801
902.180	-215
902.282	-124
902.384	-164
902.486	692
902.588	419
902.690	273
902.792	492
902.894	290
902.996	-44
903.098	611
903.200	-68
903.302	221
903.404	903
903.505	385
903.607	892
903.709	277
903.811	485
903.913	49
904.014	115
904.116	71
904.218	385
904.319	924
904.421	325
904.523	337
904.624	-243
904.726	445
904.827	41
904.929	-33
905.030	66
905.132	99
905.233	639
905.335	309
905.436	160
905.537	9
905.639	800
905.740	11
905.841	159
905.943	756
906.044	932
906.145	205
906.247	-240
906.348	-14
906.449	406
906.550	625
906.651	1060
906.752	-434
906.854	405
906.955	282
907.056	348
907.157	2
907.258	797
907.359	634
907.460	738
907.561	347
907.662	-281
907.762	-158
907.863	437
907.964	-55
908.065	616
908.166	636
908.267	-291
908.367	676
908.468	156
908.569	350
908.670	881
908.770	349
908.871	1192
908.971	1362
909.072	-544
909.173	-168
909.273	-264
909.374	353
909.474	-53
909.575	410
909.675	382
909.776	134
909.876	65
909.977	-98
910.077	786
910.177	506
910.278	-156
910.378	541
910.478	566
910.579	78
910.679	-580
910.779	719
910.879	-3
910.980	-259
911.080	-158
911.180	333
911.280	-103
911.380	236
911.480	-236
911.580	785
911.680	83
911.780	522
911.880	701
911.980	769
912.080	-479
912.180	638
912.280	276
912.380	1011
912.480	-168
912.580	249
912.679	-402
912.779	1014
912.879	1041
912.979	193
913.078	-357
913.178	-609
913.278	25
913.377	-276
913.477	728
913.577	-668
913.676	213
913.776	-330
913.875	707
913.975	806
914.074	-266
914.174	148
914.273	-961
914.373	685
914.472	-43
914.572	444
914.671	210
914.770	281
914.870	355
914.969	-192
915.068	-324
915.167	697
915.267	-371
915.366	770
915.465	6
915.564	581
915.663	11
915.763	657
915.862	263
915.961	502
916.060	-523
916.159	61
916.258	-546
916.357	615
916.456	-181
916.555	3
916.654	-501
916.752	727
916.851	765
916.950	728
917.049	-407
917.148	74
917.247	-603
917.345	510
917.444	-271
917.543	540
917.642	-939
917.740	194
917.839	-61
917.937	237
918.036	-332
918.135	315
918.233	318
918.332	-40
918.430	-236
918.529	114
918.627	-274
918.726	-101
918.824	-194
918.923	788
919.021	-350
919.119	-551
919.218	-1110
919.316	705
919.414	-807
919.512	83
919.611	17
919.709	743
919.807	169
919.905	1023
920.003	-49
920.102	402
920.200	-128
920.298	890
920.396	-489
920.494	538
920.592	-323
920.690	256
920.788	208
920.886	-159
920.984	1084
921.082	300
921.180	529
921.277	255
921.375	240
921.473	-323
921.571	1144
921.669	423
921.766	892
921.864	1040
921.962	848
922.060	1552
922.157	1190
922.255	269
922.352	-41
922.450	895
922.548	925
922.645	1092
922.743	731
922.840	1543
922.938	1906
923.035	2890
923.133	1420
923.230	3016
923.327	2888
923.425	3349
923.522	3142
923.619	3062
923.717	2367
923.814	2813
923.911	2931
924.008	2554
924.106	2281
924.203	2368
924.300	1310
924.397	2403
924.494	1905
924.591	2719
924.688	2368
924.786	2055
924.883	2482
924.979	2496
925.077	2558
925.173	2369
925.270	2719
925.367	1992
925.464	2242
925.561	3027
925.658	2492
925.755	2580
925.852	1736
925.948	3713
926.045	2815
926.142	3219
926.239	2202
926.335	3073
926.432	1644
926.529	2128
926.625	2671
926.722	2449
926.818	1655
926.915	2224
927.011	1799
927.108	2106
927.204	1735
927.301	1457
927.397	1397
927.494	2544
927.590	2653
927.687	1216
927.783	1156
927.879	2344
927.976	1399
928.072	1553
928.168	2437
928.264	2265
928.361	1473
928.457	2222
928.553	1797
928.649	1644
928.745	2058
928.841	1173
928.937	2059
929.033	2251
929.129	1374
929.225	1941
929.321	1675
929.417	870
929.513	1957
929.609	1507
929.705	428
929.801	2131
929.897	2488
929.993	1203
930.089	1199
930.184	1817
930.280	1819
930.376	1698
930.471	2034
930.567	2205
930.663	1520
930.758	1391
930.854	1362
930.950	830
931.045	1531
931.141	1651
931.236	1227
931.332	1968
931.427	1290
931.523	936
931.618	2304
931.714	972
931.809	734
931.905	1752
932.000	1461
932.095	689
932.191	1450
932.286	1785
932.381	2322
932.476	1385
932.572	1123
932.667	950
932.762	218
932.857	1535
932.952	1177
933.047	2376
933.142	1446
933.237	187
933.332	1875
933.427	2063
933.522	793
933.617	1067
933.712	576
933.807	1388
933.902	1766
933.997	1702
934.092	1217
934.187	1265
934.282	1420
934.376	1304
934.471	1523
934.566	1631
934.661	894
934.755	942
934.850	1977
934.945	2524
935.039	253
935.134	1610
935.228	451
935.323	1658
935.417	1483
935.512	503
935.606	466
935.701	904
935.795	615
935.890	1381
935.984	333
936.079	316
936.173	947
936.267	1317
936.362	1482
936.456	1319
936.550	638
936.644	1847
936.738	1232
936.833	1149
936.927	810
937.021	480
937.115	1407
937.209	1389
937.303	1017
937.397	343
937.491	1109
937.585	344
937.679	1208
937.773	1033
937.867	664
937.961	509
938.055	807
938.149	1601
938.243	1482
938.337	1272
938.430	582
938.524	686
938.618	785
938.712	909
938.805	1025
938.899	1083
938.993	1325
939.086	1246
939.180	526
939.274	599
939.367	875
939.461	1166
939.554	840
939.648	505
939.741	379
939.835	656
939.928	1162
940.022	1007
940.115	890
940.208	965
940.302	861
940.395	1387
940.488	825
940.582	980
940.675	479
940.768	1163
940.861	389
940.954	916
941.048	648
941.141	357
941.234	583
941.327	1682
941.420	1791
941.513	2356
941.606	349
941.699	752
941.792	559
941.885	1262
941.978	823
942.071	274
942.164	624
942.257	257
942.349	470
942.442	893
942.535	744
942.628	635
942.721	188
942.813	428
942.906	575
942.999	1111
943.091	465
943.184	888
943.277	761
943.369	922
943.462	264
943.554	393
943.647	325
943.739	-47
943.832	539
943.924	227
944.017	219
944.109	43
944.201	16
944.294	360
944.386	-124
944.478	459
944.571	901
944.663	1115
944.755	293
944.847	886
944.940	276
945.032	-15
945.124	225
945.216	671
945.308	694
945.400	957
945.492	468
945.584	786
945.676	231
945.768	1085
945.860	1154
945.952	860
946.044	352
946.136	516
946.228	181
946.320	411
946.412	577
946.503	721
946.595	1155
946.687	299
946.779	258
946.870	73
946.962	-409
947.054	30
947.145	233
947.237	65
947.329	439
947.420	42
947.512	-221
947.603	390
947.695	20
947.786	-269
947.878	-708
947.969	633
948.061	-19
948.152	308
948.243	-141
948.335	-131
948.426	-275
948.517	248
948.609	-302
948.700	966
948.791	-165
948.882	176
948.973	-142
949.065	-1220
949.156	-148
949.247	-298
949.338	-109
949.429	-437
949.520	-786
949.611	-185
949.702	304
949.793	208
949.884	-612
949.975	123
950.066	-722
950.157	-262
950.247	-416
950.338	254
950.429	-313
950.520	-31
950.611	507
950.701	-193
950.792	-143
950.883	730
950.973	-234
951.064	49
951.155	-600
951.245	892
951.336	-633
951.427	321
951.517	-552
951.608	224
951.698	307
951.788	-480
951.879	-533
951.969	-185
952.060	-62
952.150	44
952.240	-193
952.331	-44
952.421	-379
952.511	-331
952.602	-215
952.692	-1128
952.782	-90
952.872	-67
952.962	-61
953.052	-578
953.143	-472
953.233	190
953.323	-588
953.413	95
953.503	-78
953.593	-315
953.683	-236
953.773	104
953.863	-73
953.953	434
954.042	-68
954.132	-39
954.222	-48
954.312	26
954.402	-441
954.492	96
954.581	-553
954.671	305
954.761	-151
954.850	-430
954.940	95
955.030	-738
955.119	-619
955.209	-295
955.298	-324
955.388	-25
955.477	-642
955.567	67
955.656	-373
955.746	8
955.835	-306
955.925	-66
956.014	-414
956.103	-12
956.193	32
956.282	384
956.371	-548
956.461	-484
956.550	-561
956.639	180
956.728	-643
956.817	11
956.906	-482
956.995	317
957.085	-1051
957.174	-292
957.263	468
957.352	298
957.441	-637
957.530	327
957.619	-1292
957.708	172
957.796	-425
957.885	361
957.974	-842
958.063	302
958.152	-292
958.241	-12
958.329	-1358
958.418	-530
958.507	-733
958.596	178
958.684	-761
958.773	114
958.861	-484
958.950	-234
959.039	-598
959.127	-362
959.216	-471
959.304	-409
959.393	-615
959.481	-131
959.570	100
959.658	-177
959.746	-1180
959.835	-429
959.923	-464
960.011	117
960.100	-267
960.188	-166
960.276	-668
960.365	-1112
960.453	-231
960.541	-174
960.629	-795
960.717	-205
960.805	-1530
960.893	-487
960.981	-1214
961.069	-76
961.158	-255
961.245	-147
961.333	-347
961.421	-524
961.509	-425
961.597	-232
961.685	-717
961.773	-715
961.861	-1297
961.949	-585
962.036	-1184
962.124	-666
962.212	-1103
962.299	-239
962.387	-993
962.475	270
962.562	-749
962.650	-354
962.738	-500
962.825	-362
962.913	-633
963.000	-478
963.088	-718
963.175	-93
963.263	-967
963.350	375
963.438	168
963.525	-309
963.612	-269
963.700	428
963.787	1307
963.874	5694
963.962	2253
964.049	-697
964.136	-400
964.223	-1137
964.310	-759
964.398	-575
964.485	118
964.572	-889
964.659	-586
964.746	81
964.833	29
964.920	402
965.007	-722
965.094	-390
965.181	-1199
965.268	-267
965.355	-129
965.441	-422
965.528	-1422
965.615	-322
965.702	-1042
965.789	-111
965.875	-1001
965.962	-26
966.049	-376
966.136	18
966.222	-240
966.309	-69
966.395	65
966.482	-576
966.569	-15
966.655	213
966.742	-812
966.828	-1080
966.915	-1023
967.001	-623
967.087	-761
967.174	-539
967.260	-601
967.347	-633
967.433	-511
967.519	1269
967.605	3316
967.692	521
967.778	-567
967.864	-1028
967.950	-481
968.036	-681
968.123	-670
968.209	-373
968.295	-1305
968.381	-1056
968.467	-898
968.553	-816
968.639	-684
968.725	-369
968.811	710
968.897	203
968.983	-357
969.069	-446
969.154	-596
969.240	-778
969.326	-660
969.412	-646
969.497	-441
969.583	-184
969.669	-980
969.755	-764
969.840	-864
969.926	-170
970.012	-50
970.097	494
970.183	124
970.268	644
970.354	-681
970.439	-371
970.525	388
970.610	1679
970.696	128
970.781	-445
970.866	-1340
970.952	0
971.037	-443
971.122	-647
971.208	-806
971.293	-234
971.378	-1371
971.463	-394
971.549	-962
971.634	-711
971.719	-666
971.804	246
971.889	-604
971.974	-332
972.059	-1424
972.144	-642
972.229	-903
972.314	-125
972.399	-1124
972.484	-774
972.569	-405
972.654	-241
972.739	-469
972.824	458
972.908	352
972.993	95
973.078	-732
973.163	-1279
973.247	-708
973.332	-778
973.417	-716
973.501	-1104
973.586	-1086
973.671	-726
973.755	-417
973.840	-244
973.924	-24
974.009	480
974.093	-1051
974.178	47
974.262	-146
974.346	995
974.431	-56
974.515	-813
974.600	-265
974.684	-835
974.768	-1077
974.852	-338
974.937	-202
975.021	-699
975.105	-875
975.189	-930
975.273	-1013
975.358	102
975.442	-594
975.526	-1002
975.610	-837
975.694	-594
975.778	-534
975.862	-213
975.946	-1553
976.030	-207
976.114	-1234
976.198	-1288
976.281	-915
976.365	351
976.449	44
976.533	-1017
976.617	-446
976.700	-291
976.784	-1245
976.868	-538
976.951	-553
977.035	-564
977.119	-474
977.202	-351
977.286	-1082
977.369	-23
977.453	-875
977.536	314
977.620	-1268
977.703	126
977.787	-859
977.870	-355
977.953	-17
978.037	-585
978.120	-612
978.203	-401
978.287	240
978.370	654
978.453	-161
978.536	-165
978.620	-900
978.703	156
978.786	74
978.869	93
978.952	-794
979.035	-558
979.118	-814
979.201	-797
979.284	-52
979.367	-1216
979.450	-985
979.533	-603
979.616	107
979.699	-101
979.782	-489
979.865	-632
979.948	-827
980.030	-1028
980.113	-1407
980.196	-120
980.279	-930
980.361	-1015
980.444	-694
980.526	-307
980.609	-1067
980.692	-601
980.774	254
980.857	-414
980.939	185
981.022	165
981.104	-650
981.187	-276
981.269	-352
981.352	-1079
981.434	-1471
981.516	-694
981.599	-600
981.681	-1247
981.763	-818
981.846	-75
981.928	-1067
982.010	-1117
982.092	-1164
982.174	-508
982.256	-470
982.339	-787
982.421	-568
982.503	-859
982.585	-951
982.667	-859
982.749	-748
982.831	-1175
982.913	-972
982.995	-507
983.077	-717
983.158	-469
983.240	-1755
983.322	-16
983.404	-575
983.486	-214
983.568	-682
983.649	101
983.731	-796
983.813	-963
983.894	-33
983.976	-901
984.058	-263
984.139	-759
984.221	-860
984.302	-363
984.384	-1996
984.465	-339
984.547	-1079
984.628	-820
984.710	-81
984.791	-991
984.872	-830
984.954	-229
985.035	-1028
985.116	-641
985.198	-998
985.279	-641
985.360	-704
985.441	-784
985.522	-896
985.604	-1119
985.685	-1436
985.766	-705
985.847	-544
985.928	-656
986.009	-459
986.090	-1056
986.171	-775
986.252	-81
986.333	-934
986.414	-214
986.495	-474
986.576	-582
986.656	-1046
986.737	176
986.818	-1067
986.899	-1169
986.980	-685
987.060	-665
987.141	-99
987.222	-658
987.302	-737
987.383	-13
987.464	-738
987.544	-79
987.625	-723
987.705	-956
987.786	-634
987.866	-996
987.947	-339
988.027	-580
988.108	-72
988.188	-809
988.268	-1125
988.349	-1424
988.429	-932
988.509	-444
988.589	-365
988.670	-1235
988.750	-135
988.830	152
988.910	-640
988.990	-895
989.070	38
989.151	-658
989.231	-214
989.311	-430
989.391	-1418
989.471	-1082
989.551	-481
989.631	-1331
989.711	-567
989.791	-400
989.870	-1274
989.950	-184
990.030	-1349
990.110	-762
990.190	-781
990.269	-513
990.349	-731
990.429	-1079
990.509	-1677
990.588	-911
990.668	-749
990.747	-842
990.827	-614
990.907	-1626
990.986	-291
991.066	-34
991.145	-124
991.225	-332
991.304	-1349
991.383	-901
991.463	-813
991.542	-635
991.622	-673
991.701	-1213
991.780	-1475
991.859	-324
991.939	-1323
992.018	-324
992.097	-291
992.176	102
992.256	-1792
992.335	-1628
992.414	32
992.493	-777
992.572	-1519
992.651	-69
992.730	-645
992.809	-256
992.888	-1074
992.967	-787
993.046	-913
993.125	-1065
993.203	-793
993.282	-1396
993.361	-1280
993.440	232
993.519	-928
993.597	-661
993.676	-1850
993.755	321
993.834	-1205
993.912	-425
993.991	-968
994.069	-505
994.148	-922
994.226	-273
994.305	-1227
994.384	-665
994.462	-230
994.540	-859
994.619	-1073
994.697	-872
994.776	-1325
994.854	-1223
994.932	-1454
995.011	-581
995.089	-1389
995.167	-1385
995.245	-1274
995.324	-575
995.402	-750
995.480	-1053
995.558	-1372
995.636	-1155
995.714	-1557
995.792	-972
995.870	-2011
995.948	-805
996.026	-1330
996.104	-1335
996.182	-1331
996.260	-1026
996.338	-1384
996.416	-784
996.494	-1154
996.572	-72
996.649	-1758
996.727	-1752
996.805	-900
996.883	-823
996.960	-1251
997.038	-1288
997.116	-1119
997.193	-1063
997.271	-523
997.348	-1379
997.426	-1370
997.504	-1512
997.581	-738
997.658	-1008
997.736	-1502
997.813	-1220
997.891	-624
997.968	-1138
998.046	-1245
998.123	-1117
998.200	-1080
998.277	-766
998.355	-806
998.432	-1484
998.509	-1136
998.586	-1069
998.663	-1533
998.741	-412
998.818	-1252
998.895	-550
998.972	-1477
999.049	-806
999.126	-1351
999.203	-905
999.280	-661
999.357	-1452
999.434	-1516
999.511	-1280
999.587	-930
999.664	-1828
999.741	-793
999.818	-645
999.895	-2096
999.971	-451
1000.048	-1195
1000.125	-992
1000.202	-1222
1000.278	-1335
1000.355	-1039
1000.431	-1676
1000.508	-1471
1000.584	-539
1000.661	-1457
1000.738	-564
1000.814	-1101
1000.890	-796
1000.967	-1651
1001.043	-1017
1001.120	-2261
1001.196	-695
1001.272	-1228
1001.349	-662
1001.425	-1251
1001.501	-703
1001.577	-884
1001.654	-1466
1001.730	-1310
1001.806	-1370
1001.882	-1969
1001.958	-1154
1002.034	-1037
1002.110	-366
1002.186	-1320
1002.262	-926
1002.338	-1239
1002.414	-917
1002.490	-1024
1002.566	-2025
1002.642	-1923
1002.718	-750
1002.794	-1885
1002.870	-1222
1002.945	-1731
1003.021	-1217
1003.097	-1022
1003.173	-619
1003.248	-1412
1003.324	-1305
1003.400	-1293
1003.475	-906
1003.551	-1633
1003.626	-992
1003.702	-699
1003.777	-1079
1003.853	-1826
1003.928	-1279
1004.004	-1593
1004.079	-899
1004.155	-1530
1004.230	-1288
1004.305	-1790
1004.381	-1100
1004.456	-1238
1004.531	-1117
1004.607	-1673
1004.682	-1078
1004.757	-1366
1004.832	-1156
1004.907	-1745
1004.982	-997
1005.057	-1134
1005.133	-1760
1005.208	-2024
1005.283	-731
1005.358	-1765
1005.433	-2350
1005.508	-1604
1005.583	-1284
1005.657	-1330
1005.732	-331
1005.807	-1281
1005.882	-931
1005.957	-1441
1006.032	-1472
1006.106	-1728
1006.181	-1599
1006.256	-859
1006.331	-924
1006.405	-2121
1006.480	-619
1006.554	-987
1006.629	-1253
1006.704	-1354
1006.778	-581
1006.853	-1483
1006.927	-1833
1007.002	-1395
1007.076	-1118
1007.150	-1085
1007.225	-1667
1007.299	-1278
1007.373	-677
1007.448	-1655
1007.522	-1117
1007.596	-1474
1007.671	-1593
1007.745	-1407
1007.819	-1374
1007.893	-1655
1007.967	-1224
1008.041	-1422
1008.115	-1540
1008.190	-1421
1008.264	-730
1008.338	-1865
1008.412	-1304
1008.486	-1296
1008.560	-1127
1008.633	-1848
1008.707	-1635
1008.781	-1068
1008.855	-1664
1008.929	-1404
1009.003	-862
1009.076	-2152
1009.150	-1171
1009.224	-1813
1009.298	-1752
1009.371	-1976
1009.445	-886
1009.519	-1080
1009.592	-1649
1009.666	-1558
1009.739	-1193
1009.813	-1541
1009.886	-974
1009.960	-1937
1010.033	-1603
1010.107	-1770
1010.180	-1174
1010.253	-1562
1010.327	-857
1010.400	-2061
1010.473	-1520
1010.547	-1811
1010.620	-1546
1010.693	-1352
1010.766	-1553
1010.840	-1027
1010.913	-1196
1010.986	-1489
1011.059	-1599
1011.132	-1792
1011.205	-1861
1011.278	-1562
1011.351	-1575
1011.424	-1042
1011.497	-1490
1011.570	-1896
1011.643	-1604
1011.716	-2090
1011.789	-1833
1011.862	-1945
1011.934	-1027
1012.007	-1471
1012.080	-1638
1012.153	-1296
1012.225	-1325
1012.298	-1410
1012.371	-1318
1012.443	-1593
1012.516	-2290
1012.588	-1260
1012.661	-810
1012.733	-2036
1012.806	-986
1012.879	-1895
1012.951	-753
1013.023	-1969
1013.096	-1252
1013.168	-1427
1013.241	-1246
1013.313	-1596
1013.385	-1171
1013.458	-1731
1013.530	-1543
1013.602	-1320
1013.674	-1645
1013.746	-1715
1013.819	-1054
1013.891	-832
1013.963	-1240
1014.035	-1680
1014.107	-1016
1014.179	-2128
1014.251	-1515
1014.323	-1580
1014.395	-1108
1014.467	-1915
1014.539	-1119
1014.611	-1991
1014.683	-1807
1014.754	-1102
1014.826	-1679
1014.898	-1836
1014.970	-1096
1015.042	-1527
1015.113	-1415
1015.185	-2447
1015.257	-1218
1015.328	-1348
1015.400	-1422
1015.471	-1647
1015.543	-1891
1015.615	-1830
1015.686	-1782
1015.757	-1984
1015.829	-1965
1015.901	-1608
1015.972	-1218
1016.043	-1746
1016.115	-1015
1016.186	-1595
1016.257	-1212
1016.328	-1239
1016.400	-1890
1016.471	-1955
1016.542	-1820
1016.613	-1872
1016.685	-1615
1016.756	-1191
1016.827	-1379
1016.898	-2131
1016.969	-1415
1017.040	-2009
1017.111	-1487
1017.182	-2408
1017.253	-1523
1017.324	-1681
1017.395	-1389
1017.466	-1658
1017.537	-1198
1017.608	-1195
1017.678	-1079
1017.749	-1977
1017.820	-1566
1017.891	-1400
1017.961	-1637
1018.032	-1263
1018.103	-781
1018.173	-1608
1018.244	-1018
1018.315	-1569
1018.385	-1539
1018.456	-1518
1018.526	-1298
1018.597	-1756
1018.667	-1694
1018.738	-1667
1018.808	-1254
1018.878	-2286
1018.949	-913
1019.019	-1317
1019.089	-1581
1019.160	-1374
1019.230	-2395
1019.300	-753
1019.371	-1935
1019.441	-1737
1019.511	-1146
1019.581	-951
1019.651	-1523
1019.721	-1219
1019.791	-1165
1019.861	-1140
1019.931	-1457
1020.001	-1950
1020.071	-877
1020.141	-1701
1020.211	-1366
1020.281	-1991
1020.351	-1224
1020.421	-1150
1020.491	-2376
1020.560	-2203
1020.630	-1537
1020.700	-1255
1020.770	-1778
1020.839	-1610
1020.909	-2161
1020.979	-1238
1021.048	-2011
1021.118	-1716
1021.187	-906
1021.257	-1657
1021.326	-1370
1021.396	-1843
1021.465	-1444
1021.535	-2139
1021.604	-929
1021.674	-1648
1021.743	-1334
1021.812	-1538
1021.882	-1237
1021.951	-1862
1022.020	-2235
1022.089	-631
1022.159	-949
1022.228	-1289
1022.297	-1309
1022.366	-1605
1022.435	-1144
1022.504	-1580
1022.573	-1941
1022.642	-1791
1022.711	-1192
1022.781	-788
1022.849	-2124
1022.918	-2291
1022.987	-1863
1023.056	-1505
1023.125	-1162
1023.194	-1920
1023.263	-2219
1023.331	-1513
1023.400	-2391
1023.469	-964
1023.538	-845
1023.606	-1730
1023.675	-1971
1023.744	-1764
1023.812	-1606
1023.881	-2244
1023.949	-1775
1024.018	-1789
1024.086	-1270
1024.155	-1915
1024.223	-1192
1024.292	-1847
1024.360	-2487
1024.429	-1585
1024.497	-1673
1024.565	-2135
1024.634	-1855
1024.702	-2087
1024.770	-1408
1024.838	-1661
1024.907	-801
1024.975	-1731
1025.043	-1288
1025.111	-1697
1025.179	-1005
1025.247	-1307
1025.315	-1784
1025.383	-1333
1025.451	-1347
1025.519	-1659
1025.587	-1862
1025.655	-2092
1025.723	-1241
1025.791	-1315
1025.859	-1324
1025.927	-1767
1025.995	-1170
1026.062	-1200
1026.130	-1904
1026.198	-1688
1026.266	-971
1026.333	-1668
1026.401	-1212
1026.469	-1535
1026.536	-1161
1026.604	-1132
1026.671	-1588
1026.739	-1455
1026.806	-2251
1026.874	-1802
1026.941	-1256
1027.009	-1897
1027.076	-1903
1027.144	-1613
1027.211	-1466
1027.278	-2129
1027.345	-1366
1027.413	-1472
1027.480	-1417
1027.547	-1536
1027.614	-1739
1027.682	-1406
1027.749	-2237
1027.816	-2060
1027.883	-1020
1027.950	-1934
1028.017	-1517
1028.084	-2070
1028.151	-1117
1028.218	-1602
1028.285	-1065
1028.352	-1772
1028.419	-979
1028.486	-2256
1028.553	-1197
1028.619	-1663
1028.686	-1977
1028.753	-2280
1028.820	-2573
1028.886	-1984
1028.953	-1772
1029.020	-1528
1029.086	-1091
1029.153	-1787
1029.220	-1963
1029.286	-1103
1029.353	-2246
1029.419	-2391
1029.486	-1659
1029.552	-2562
1029.619	-935
1029.685	-1957
1029.751	-1391
1029.818	-1149
1029.884	-2853
1029.951	-1377
1030.017	-807
1030.083	-1896
1030.149	-2347
1030.216	-2075
1030.282	-1872
1030.348	-2007
1030.414	-748
1030.480	-1105
1030.546	-1167
1030.612	-1559
1030.678	-1841
1030.744	-1784
1030.810	-501
1030.876	-1742
1030.942	-1588
1031.008	-2152
1031.074	-2394
1031.140	-2858
1031.206	-1371
1031.272	-1800
1031.337	-1536
1031.403	-1536
1031.469	-1432
1031.534	-1827
1031.600	-1638
1031.666	-1094
1031.731	-1776
1031.797	-2270
1031.863	-1463
1031.928	-1589
1031.994	-2602
1032.059	-1687
1032.125	-1660
1032.190	-1763
1032.256	-1574
1032.321	-1915
1032.386	-2020
1032.452	-1761
1032.517	-2036
1032.582	-2202
1032.647	-1539
1032.713	-1750
1032.778	-1692
1032.843	-2165
1032.908	-2096
1032.974	-1513
1033.039	-1878
1033.104	-1416
1033.169	-1919
1033.234	-1436
1033.299	-1419
1033.364	-1909
1033.429	-1714
1033.494	-1266
1033.559	-605
1033.624	-1237
1033.688	-1147
1033.753	-1779
1033.818	-1365
1033.883	-1567
1033.948	-1927
1034.013	-1502
1034.077	-1384
1034.142	-1178
1034.207	-1268
1034.271	-1334
1034.336	-886
1034.400	-45
1034.465	-159
1034.530	-578
1034.594	258
1034.658	-1194
1034.723	-1743
1034.787	-2118
1034.852	-1520
1034.916	-1701
1034.981	-2168
1035.045	-1541
1035.109	-2351
1035.173	-2238
1035.238	-1380
1035.302	-824
1035.366	-1960
1035.430	-2045
1035.495	-1855
1035.559	-1277
1035.623	-1432
1035.687	-2054
1035.751	-1656
1035.815	-2519
1035.879	-1669
1035.943	-1900
1036.007	-1803
1036.071	-1821
1036.135	-2289
1036.198	-1980
1036.262	-1606
1036.326	-1518
1036.390	-1244
1036.454	-1537
1036.517	-1750
1036.581	-1428
1036.645	-519
1036.709	-1055
1036.772	64
1036.836	-155
1036.900	-1465
1036.963	-1817
1037.026	-1337
1037.090	-1233
1037.154	-1703
1037.217	-2601
1037.280	-2147
1037.344	-2424
1037.407	-1578
1037.471	-2610
1037.534	-2701
1037.597	-1827
1037.661	-1745
1037.724	-1577
1037.787	-1310
1037.850	-2101
1037.913	-2290
1037.977	-2460
1038.040	-2060
1038.103	-1707
1038.166	-1878
1038.229	-1236
1038.292	-2076
1038.355	-2421
1038.418	-2092
1038.481	-1234
1038.544	-1352
1038.607	-1972
1038.670	-1336
1038.732	-2193
1038.795	-2259
1038.858	-1921
1038.921	-2091
1038.984	-2247
1039.046	-1203
1039.109	-1858
1039.172	-1821
1039.234	-2318
1039.297	-2019
1039.360	-2446
1039.422	-1669
1039.485	-1907
1039.547	-2438
1039.610	-2226
1039.672	-2165
1039.734	-1561
1039.797	-1570
1039.859	-2130
1039.922	-1871
1039.984	-2298
1040.046	-2006
1040.109	-2231
1040.171	-1407
1040.233	-2139
1040.295	-1948
1040.358	-1868
1040.420	-2058
1040.482	-1729
1040.544	-1652
1040.606	-2093
1040.668	-1779
1040.730	-2687
1040.792	-1917
1040.854	-1724
1040.916	-1690
1040.978	-2611
1041.040	-1574
1041.102	-2147
1041.164	-2694
1041.225	-2155
1041.287	-1762
1041.349	-1374
1041.411	-1778
1041.472	-2534
1041.534	-2613
1041.596	-2293
1041.657	-2293
1041.719	-2229
1041.781	-1879
1041.842	-1929
1041.904	-1736
1041.965	-2283
1042.027	-1224
1042.088	-1417
1042.150	-2384
1042.211	-1735
1042.272	-1439
1042.334	-2330
1042.395	-1704
1042.456	-1919
1042.518	-1923
1042.579	-2775
1042.640	-2365
1042.701	-2814
1042.763	-1511
1042.824	-1820
1042.885	-2633
1042.946	-1919
1043.007	-2169
1043.068	-2056
1043.129	-1320
1043.190	-2416
1043.251	-907
1043.312	-1982
1043.373	-1877
1043.434	-2119
1043.495	-2377
1043.556	-923
1043.616	-1570
1043.677	-2612
1043.738	-1937
1043.799	-2264
1043.859	-2663
1043.920	-1271
1043.981	-2046
1044.041	-1607
1044.102	-1534
1044.162	-2327
1044.223	-2061
1044.284	-1412
1044.344	-1421
1044.405	-1427
1044.465	-1551
1044.525	-2725
1044.586	-1493
1044.646	-2022
1044.707	-1423
1044.767	-2218
1044.827	-1461
1044.887	-1754
1044.948	-1359
1045.008	-2369
1045.068	-1864
1045.128	-2004
1045.188	-1199
1045.249	-2514
1045.309	-1694
1045.369	-1666
1045.429	-2175
1045.489	-1849
1045.549	-1456
1045.609	-1854
1045.669	-1768
1045.729	-1604
1045.789	-1625
1045.848	-2402
1045.908	-1634
1045.968	-2467
1046.028	-2234
1046.088	-1599
1046.147	-1705
1046.207	-1581
1046.267	-1625
1046.326	-1742
1046.386	-958
1046.446	-1077
1046.505	-186
1046.565	-1296
1046.624	-1024
1046.684	-1161
1046.743	-1021
1046.803	-803
1046.862	-848
1046.922	0
