'Start Wavelength	183.907
'End Wavelength	1046.922
'Gate Delay	5.000
'Gate Width (ms)	1.050
'Laser Output Level	0.000
'X Position	0.000
'Y Position	0.000
'Z Position	0.000
'Grid Point Number	1.000
'Shot Number	100.000
183.907	533.000
183.977	1048.000
184.047	-48
184.116	1197
184.186	93
184.256	186
184.325	111
184.395	51
184.465	512
184.534	1176
184.604	87
184.674	956
184.743	883
184.813	704
184.883	1220
184.952	376
185.022	148
185.092	1171
185.161	453
185.231	1273
185.301	266
185.370	829
185.440	914
185.509	980
185.579	46
185.649	1203
185.718	400
185.788	703
185.857	-67
185.927	923
185.996	463
186.066	834
186.136	219
186.205	1095
186.275	724
186.344	1402
186.414	941
186.483	696
186.553	1759
186.622	2772
186.692	902
186.761	1264
186.831	596
186.900	965
186.970	980
187.039	1085
187.109	1136
187.178	1576
187.248	1783
187.317	1918
187.387	1145
187.456	1550
187.526	1511
187.595	1568
187.664	803
187.734	1911
187.803	1785
187.873	2370
187.942	2031
188.012	1743
188.081	798
188.150	2272
188.220	2699
188.289	2330
188.358	1585
188.428	1198
188.497	1039
188.567	1652
188.636	1056
188.705	1547
188.775	1443
188.844	1517
188.913	1328
188.983	1884
189.052	956
189.121	1542
189.191	1808
189.260	2359
189.329	1302
189.399	1692
189.468	1213
189.537	1229
189.606	1587
189.676	2416
189.745	2479
189.814	1711
189.883	1216
189.953	2254
190.022	3486
190.091	7166
190.161	4533
190.230	2839
190.299	1684
190.368	2036
190.437	1460
190.507	1830
190.576	742
190.645	1237
190.714	999
190.783	2084
190.853	1421
190.922	2279
190.991	865
191.060	1428
191.129	2440
191.198	1700
191.268	1155
191.337	2213
191.406	1135
191.475	1572
191.544	882
191.613	1969
191.682	896
191.752	1964
191.821	1593
191.890	2212
191.959	1352
192.028	2193
192.097	1207
192.166	1536
192.235	1894
192.304	1677
192.373	513
192.442	955
192.511	1182
192.580	1326
192.650	1360
192.719	1882
192.788	1692
192.857	1610
192.926	1154
192.995	2182
193.064	2048
193.133	4471
193.202	4175
193.271	3907
193.340	3039
193.409	4097
193.478	4303
193.547	6513
193.615	6988
193.684	5811
193.753	3040
193.822	3029
193.891	1428
193.960	3180
194.029	3312
194.098	2250
194.167	1424
194.236	2131
194.305	1251
194.374	2227
194.443	1703
194.512	2571
194.580	2591
194.649	3520
194.718	2502
194.787	2116
194.856	1637
194.925	2435
194.994	2699
195.062	3527
195.131	3302
195.200	4667
195.269	3246
195.338	2212
195.407	1998
195.475	2809
195.544	3706
195.613	3213
195.682	2991
195.751	4780
195.819	3086
195.888	3418
195.957	5381
196.026	3943
196.094	3775
196.163	5168
196.232	3304
196.301	3316
196.369	3870
196.438	2636
196.507	3272
196.576	2701
196.644	2032
196.713	2643
196.782	1890
196.850	2657
196.919	2436
196.988	2706
197.056	1937
197.125	2614
197.194	1951
197.262	2847
197.331	2410
197.400	2706
197.468	2268
197.537	2470
197.606	3866
197.674	7860
197.743	5626
197.812	4906
197.880	8973
197.949	5843
198.017	7953
198.086	3450
198.155	3085
198.223	7106
198.292	8614
198.360	4318
198.429	3210
198.497	4119
198.566	9025
198.635	5567
198.703	3612
198.772	6499
198.840	14471
198.909	6344
198.977	3880
199.046	4491
199.114	3989
199.183	3687
199.251	3303
199.320	2681
199.388	2332
199.457	3144
199.525	3280
199.594	3204
199.662	2827
199.731	3398
199.799	3197
199.867	4170
199.936	3017
200.004	2784
200.073	2832
200.141	2628
200.210	2242
200.278	2867
200.346	3785
200.415	5235
200.483	4786
200.552	3749
200.620	3538
200.688	3750
200.757	2753
200.825	3469
200.893	3488
200.962	3410
201.030	2788
201.098	4003
201.167	2786
201.235	3595
201.303	3624
201.372	4238
201.440	4118
201.508	5090
201.577	3589
201.645	4122
201.713	2823
201.781	5496
201.850	4176
201.918	4712
201.986	2916
202.055	3713
202.123	3892
202.191	3167
202.259	3541
202.327	3930
202.396	3403
202.464	4138
202.532	10852
202.600	17796
202.669	6085
202.737	5252
202.805	3530
202.873	3833
202.941	3892
203.009	4379
203.078	3672
203.146	3523
203.214	3254
203.282	3680
203.350	3607
203.418	4092
203.487	3495
203.555	3394
203.623	3105
203.691	4156
203.759	2953
203.827	3581
203.895	4525
203.963	4690
204.031	4123
204.099	4408
204.168	3620
204.236	4383
204.304	5049
204.372	3863
204.440	4007
204.508	4130
204.576	2926
204.644	4060
204.712	3026
204.780	4043
204.848	4197
204.916	3499
204.984	4430
205.052	4732
205.120	4310
205.188	5020
205.256	3780
205.324	4051
205.392	3728
205.460	5138
205.528	4389
205.596	4592
205.664	4031
205.732	6305
205.799	18970
205.867	11098
205.935	6011
206.003	5952
206.071	4670
206.139	5392
206.207	3815
206.275	4570
206.343	3898
206.411	4594
206.478	3982
206.546	4492
206.614	4432
206.682	4693
206.750	5235
206.818	6710
206.885	4801
206.953	4667
207.021	4709
207.089	3923
207.157	4418
207.225	5033
207.292	4427
207.360	6318
207.428	4889
207.496	4743
207.563	4667
207.631	5188
207.699	4748
207.767	4973
207.834	4687
207.902	6562
207.970	5263
208.038	5173
208.105	4733
208.173	7860
208.241	7730
208.309	8027
208.376	8689
208.444	12445
208.512	5136
208.579	5865
208.647	6398
208.715	6589
208.782	5843
208.850	6531
208.918	5507
208.985	5093
209.053	6068
209.120	5704
209.188	5618
209.256	6065
209.323	7868
209.391	8603
209.459	6001
209.526	5711
209.594	4878
209.661	7040
209.729	6124
209.796	6515
209.864	6192
209.932	6586
209.999	6056
210.067	8631
210.134	5976
210.202	8542
210.269	9501
210.337	8402
210.404	6915
210.472	6595
210.539	6398
210.607	9984
210.674	7642
210.742	7292
210.809	6299
210.877	9656
210.944	8511
211.012	8400
211.079	7276
211.146	6750
211.214	8308
211.281	11232
211.349	7789
211.416	8497
211.484	8020
211.551	7732
211.618	6891
211.686	7863
211.753	6141
211.821	6829
211.888	7076
211.955	8535
212.023	8027
212.090	9084
212.157	8240
212.225	10833
212.292	17890
212.359	40109
212.427	45174
212.494	17676
212.561	11119
212.629	9926
212.696	8589
212.763	8801
212.831	8484
212.898	8032
212.965	7205
213.032	8690
213.100	8621
213.167	10246
213.234	8592
213.301	8003
213.369	6774
213.436	8515
213.503	8129
213.570	9415
213.638	8824
213.705	7607
213.772	8069
213.839	11662
213.906	9014
213.973	10557
214.041	8767
214.108	9151
214.175	8118
214.242	9123
214.309	8343
214.376	9270
214.444	9519
214.511	10755
214.578	8666
214.645	10736
214.712	10607
214.779	9991
214.846	10235
214.913	11112
214.980	10729
215.048	12398
215.115	12126
215.182	11257
215.249	8939
215.316	9661
215.383	8356
215.450	9423
215.517	8860
215.584	9056
215.651	8540
215.718	10423
215.785	10747
215.852	11257
215.919	11123
215.986	11279
216.053	7823
216.120	10372
216.187	11989
216.254	9154
216.321	10254
216.388	10820
216.455	11017
216.522	11686
216.589	14759
216.656	25429
216.722	14816
216.789	13852
216.856	12498
216.923	12217
216.990	11006
217.057	13091
217.124	14920
217.191	14478
217.258	16904
217.324	17100
217.391	15033
217.458	13287
217.525	11079
217.592	11216
217.659	11843
217.725	13062
217.792	19681
217.859	12576
217.926	9564
217.993	9141
218.059	9218
218.126	9171
218.193	8849
218.260	8226
218.327	8694
218.393	9898
218.460	8173
218.527	8468
218.594	14832
218.660	19267
218.727	13768
218.794	9173
218.860	8360
218.927	8398
218.994	7842
219.061	10050
219.127	14429
219.194	13692
219.261	8104
219.327	7942
219.394	7065
219.461	7871
219.527	8871
219.594	14308
219.661	8327
219.727	8079
219.794	8676
219.860	9296
219.927	10540
219.994	20805
220.060	22727
220.127	14301
220.193	12379
220.260	14466
220.326	18528
220.393	26369
220.460	22860
220.526	17905
220.593	14940
220.659	15641
220.726	22545
220.792	36150
220.859	30130
220.925	39262
220.992	37038
221.058	47328
221.125	37621
221.191	25987
221.258	14759
221.324	13190
221.391	11614
221.457	10934
221.524	11228
221.590	23868
221.657	41683
221.723	22728
221.789	29730
221.856	19495
221.922	13705
221.989	11326
222.055	10906
222.121	13000
222.188	13545
222.254	11297
222.321	9332
222.387	8666
222.453	8931
222.520	9389
222.586	8636
222.652	8558
222.719	9190
222.785	9884
222.851	7826
222.918	9074
222.984	9149
223.050	9891
223.116	8430
223.183	8291
223.249	6685
223.315	7645
223.382	8238
223.448	7685
223.514	6896
223.580	7230
223.647	7204
223.713	7390
223.779	8033
223.845	8686
223.911	8205
223.978	8234
224.044	7855
224.110	7932
224.176	7614
224.242	8043
224.309	6337
224.375	7861
224.441	6798
224.507	8052
224.573	8321
224.639	7165
224.705	6805
224.772	7446
224.838	8160
224.904	9223
224.970	7870
225.036	9625
225.102	8452
225.168	8831
225.234	7668
225.300	8535
225.366	6634
225.432	6906
225.499	9136
225.565	11178
225.631	10959
225.697	11819
225.763	12726
225.829	13554
225.895	17656
225.961	20840
226.027	16487
226.093	19108
226.159	21512
226.225	36506
226.291	67836
226.357	57253
226.423	35507
226.489	25564
226.554	19000
226.620	21624
226.686	31022
226.752	40684
226.818	73494
226.884	97565
226.950	55830
227.016	32327
227.082	23192
227.148	21870
227.214	19659
227.279	17214
227.345	15398
227.411	15657
227.477	21982
227.543	39321
227.609	27823
227.674	18520
227.740	14927
227.806	12410
227.872	11454
227.938	16653
228.003	16626
228.069	11278
228.135	9233
228.201	10077
228.267	11091
228.332	15674
228.398	17131
228.464	10280
228.530	9022
228.595	9003
228.661	13969
228.727	18197
228.792	11317
228.858	12147
228.924	11801
228.990	12552
229.055	15591
229.121	11613
229.187	11325
229.252	12118
229.318	8953
229.384	13325
229.449	11703
229.515	7707
229.581	6865
229.646	10142
229.712	16186
229.777	32746
229.843	20379
229.909	21692
229.974	22611
230.040	15619
230.105	17726
230.171	18396
230.236	23491
230.302	28025
230.368	17977
230.433	15376
230.499	14965
230.564	15933
230.630	12204
230.695	11126
230.761	11167
230.826	13181
230.892	18342
230.957	11591
231.023	10915
231.088	11800
231.154	11318
231.219	13738
231.284	21036
231.350	14743
231.415	10484
231.481	10577
231.546	10077
231.612	9944
231.677	9781
231.742	10456
231.808	9850
231.873	9896
231.939	12431
232.004	22627
232.069	12655
232.135	12378
232.200	9977
232.265	9724
232.331	8339
232.396	9157
232.461	8263
232.527	9897
232.592	8740
232.657	12312
232.723	14483
232.788	9894
232.853	9337
232.918	9422
232.984	8449
233.049	10097
233.114	14029
233.179	12952
233.245	22083
233.310	13230
233.375	9224
233.440	9220
233.506	7928
233.571	8738
233.636	8335
233.701	10802
233.766	18778
233.832	12101
233.897	12150
233.962	12881
234.027	13140
234.092	12566
234.157	11651
234.222	14383
234.288	25856
234.353	36956
234.418	27406
234.483	20797
234.548	18538
234.613	16430
234.678	15771
234.743	26232
234.808	38497
234.873	20302
234.938	15273
235.004	15515
235.069	14166
235.134	12725
235.199	12791
235.264	12655
235.329	12401
235.394	12952
235.459	15356
235.524	13867
235.589	11527
235.654	11918
235.719	10967
235.784	11562
235.849	16974
235.913	21058
235.978	27731
236.043	19377
236.108	13143
236.173	16721
236.238	13310
236.303	13990
236.368	13120
236.433	26655
236.498	24957
236.563	29271
236.627	80135
236.692	148354
236.757	72493
236.822	41904
236.887	33452
236.952	28061
237.017	25650
237.081	29563
237.146	46207
237.211	86924
237.276	182673
237.341	165646
237.405	69614
237.470	41778
237.535	27906
237.600	21317
237.664	19628
237.729	18612
237.794	33252
237.859	36072
237.923	22828
237.988	18944
238.053	23603
238.118	30918
238.182	60371
238.247	26854
238.312	22923
238.376	18745
238.441	16883
238.506	13672
238.570	11527
238.635	11531
238.700	11369
238.764	15578
238.829	33525
238.893	20638
238.958	22753
239.023	16814
239.087	13975
239.152	14537
239.216	11838
239.281	12937
239.346	12293
239.410	13319
239.475	24140
239.539	54843
239.604	20548
239.668	15188
239.733	15938
239.797	37793
239.862	56540
239.926	36666
239.991	17313
240.055	14009
240.120	13888
240.184	13066
240.249	11463
240.313	11390
240.378	15220
240.442	44384
240.507	26768
240.571	16879
240.635	32311
240.700	21753
240.764	13419
240.829	10758
240.893	10048
240.957	14401
241.022	40620
241.086	35625
241.151	17078
241.215	12346
241.279	22885
241.344	21915
241.408	18317
241.472	18756
241.537	17061
241.601	16648
241.665	15851
241.730	17153
241.794	17569
241.858	16466
241.922	17121
241.987	16434
242.051	15000
242.115	16274
242.179	14281
242.244	14492
242.308	14792
242.372	19277
242.436	18399
242.501	15458
242.565	14900
242.629	13973
242.693	13843
242.757	15036
242.822	14720
242.886	14820
242.950	15697
243.014	15016
243.078	19884
243.142	16469
243.206	17388
243.271	18134
243.335	20207
243.399	40882
243.463	176715
243.527	133552
243.591	44024
243.655	26431
243.719	20527
243.783	26131
243.847	42742
243.911	43521
243.975	53210
244.040	25593
244.104	17814
244.168	19659
244.232	37380
244.296	37966
244.360	32540
244.424	19311
244.488	16033
244.552	15293
244.615	13877
244.679	14231
244.743	26559
244.807	16689
244.871	13686
244.935	13098
244.999	14483
245.063	15993
245.127	19670
245.191	34544
245.255	21446
245.319	28093
245.383	17030
245.446	15446
245.510	15514
245.574	16846
245.638	15386
245.702	33519
245.766	35864
245.829	21570
245.893	18310
245.957	17816
246.021	18895
246.085	21503
246.149	32191
246.212	85517
246.276	60012
246.340	33022
246.404	21453
246.467	41866
246.531	32681
246.595	22474
246.659	22118
246.722	26778
246.786	25469
246.850	43053
246.913	26850
246.977	19419
247.041	21487
247.104	20020
247.168	31349
247.232	89811
247.295	93720
247.359	32893
247.423	38568
247.486	40622
247.550	23884
247.614	28905
247.677	26750
247.741	18770
247.804	19529
247.868	27303
247.932	94274
247.995	69690
248.059	29033
248.122	24160
248.186	32528
248.249	101422
248.313	210317
248.376	146493
248.440	76481
248.503	37877
248.567	42559
248.630	65151
248.694	73643
248.757	146427
248.821	157278
248.884	85265
248.948	130574
249.011	168526
249.075	222517
249.138	110631
249.202	55177
249.265	45642
249.328	41057
249.392	38878
249.455	29389
249.519	30515
249.582	43833
249.645	55256
249.709	31274
249.772	28406
249.835	28994
249.899	28837
249.962	26587
250.025	38979
250.089	100873
250.152	61639
250.215	38268
250.279	32583
250.342	32158
250.405	29839
250.468	32265
250.532	45552
250.595	99642
250.658	315136
250.721	192239
250.785	90024
250.848	51778
250.911	39097
250.974	38022
251.038	97018
251.101	81006
251.164	53180
251.227	56001
251.290	54234
251.354	147120
251.417	327482
251.480	182777
251.543	319159
251.606	457042
251.669	221951
251.732	144016
251.795	160034
251.859	219715
251.922	277293
251.985	105162
252.048	64038
252.111	55070
252.174	65613
252.237	175525
252.300	194593
252.363	328593
252.426	282097
252.489	117782
252.552	70917
252.615	57978
252.678	103543
252.741	175127
252.804	316244
252.867	333926
252.930	185234
252.993	101869
253.056	73769
253.119	50516
253.182	61313
253.245	72675
253.308	51630
253.371	55953
253.434	44962
253.497	68966
253.559	91140
253.622	64566
253.685	96372
253.748	55171
253.811	41287
253.874	48826
253.937	40543
254.000	43714
254.062	109648
254.125	81209
254.188	105311
254.251	46684
254.314	48256
254.376	87468
254.439	66728
254.502	56583
254.565	117615
254.628	95473
254.690	54009
254.753	35909
254.816	35622
254.878	47165
254.941	99148
255.004	43457
255.067	37787
255.129	28576
255.192	20462
255.255	25829
255.317	23287
255.380	15634
255.443	16495
255.505	16725
255.568	18082
255.631	18143
255.693	19028
255.756	15518
255.819	16527
255.881	13994
255.944	14458
256.006	15510
256.069	15497
256.132	16937
256.194	32292
256.257	36759
256.319	34304
256.382	25038
256.444	22563
256.507	19809
256.569	19812
256.632	23441
256.694	40764
256.757	170769
256.819	163843
256.882	58467
256.944	37289
257.007	36295
257.069	32746
257.132	21681
257.194	21753
257.257	24545
257.319	22385
257.381	32964
257.444	129970
257.506	321502
257.569	183865
257.631	100223
257.693	53506
257.756	36345
257.818	26959
257.880	20934
257.943	21703
258.005	20997
258.067	20552
258.130	19728
258.192	37907
258.254	38598
258.317	21187
258.379	35399
258.441	72130
258.503	35873
258.566	75573
258.628	32988
258.690	22387
258.753	35660
258.815	42314
258.877	23300
258.939	19746
259.001	20212
259.064	20275
259.126	28167
259.188	23821
259.250	24415
259.312	43857
259.375	58437
259.437	26783
259.499	20630
259.561	21505
259.623	23127
259.685	20036
259.747	25551
259.809	81535
259.872	83389
259.934	160927
259.996	70737
260.058	29171
260.120	22162
260.182	17889
260.244	16672
260.306	16891
260.368	16131
260.430	24266
260.492	57972
260.554	58248
260.616	48189
260.678	116805
260.740	47283
260.802	26399
260.864	24106
260.926	22141
260.988	19961
261.050	31525
261.112	88115
261.174	103027
261.236	38702
261.298	30019
261.359	60947
261.421	32195
261.483	20380
261.545	19113
261.607	15490
261.669	19048
261.731	55519
261.793	57359
261.854	29000
261.916	22352
261.978	27124
262.040	19764
262.102	21140
262.164	28499
262.225	17124
262.287	33625
262.349	57697
262.411	24206
262.472	19079
262.534	54293
262.596	31304
262.658	18793
262.719	17507
262.781	41448
262.843	41092
262.904	21719
262.966	22242
263.028	45457
263.090	255417
263.151	170220
263.213	80193
263.275	41532
263.336	23484
263.398	18931
263.459	16411
263.521	31244
263.583	46875
263.644	22670
263.706	14559
263.767	12865
263.829	11655
263.891	11593
263.952	10817
264.014	14427
264.075	55475
264.137	45347
264.198	18804
264.260	14233
264.321	20155
264.383	88526
264.444	57591
264.506	22665
264.567	21207
264.629	77208
264.690	50117
264.752	26137
264.813	17626
264.875	16115
264.936	16537
264.998	15044
265.059	13036
265.120	18245
265.182	55446
265.243	148639
265.305	52803
265.366	24683
265.427	18341
265.489	16699
265.550	16062
265.611	21103
265.673	18311
265.734	14405
265.795	12043
265.857	14331
265.918	18112
265.979	90986
266.040	216761
266.102	72685
266.163	42637
266.224	32425
266.286	20101
266.347	17471
266.408	17976
266.469	16055
266.530	13479
266.592	18758
266.653	53461
266.714	32786
266.775	16717
266.836	14187
266.898	20904
266.959	26531
267.020	14921
267.081	15222
267.142	14595
267.203	14613
267.264	15316
267.326	16348
267.387	14099
267.448	15116
267.509	15216
267.570	14395
267.631	14211
267.692	14351
267.753	14210
267.814	17869
267.875	64355
267.936	48045
267.997	39773
268.058	28202
268.119	19858
268.180	19197
268.241	15249
268.302	14381
268.363	14533
268.424	16591
268.485	15717
268.546	12683
268.607	11739
268.668	12406
268.729	12663
268.790	14999
268.851	26629
268.912	60065
268.972	36482
269.033	20132
269.094	13942
269.155	13541
269.216	13903
269.277	13414
269.338	11619
269.398	16950
269.459	20934
269.520	26945
269.581	34142
269.642	29956
269.702	23947
269.763	18909
269.824	17327
269.885	36247
269.945	23181
270.006	15006
270.067	12917
270.128	14227
270.188	14304
270.249	14201
270.310	12176
270.370	13876
270.431	12704
270.492	13148
270.553	22750
270.613	54735
270.674	47701
270.734	19502
270.795	18843
270.856	28035
270.916	16237
270.977	16543
271.038	21365
271.098	22898
271.159	40874
271.219	17797
271.280	15281
271.340	14810
271.401	27623
271.462	27869
271.522	19341
271.583	16895
271.643	17168
271.704	17477
271.764	27994
271.825	95897
271.885	231903
271.946	111628
272.006	63618
272.066	165771
272.127	91797
272.187	37789
272.248	28564
272.308	71951
272.369	94789
272.429	39904
272.489	55924
272.550	41919
272.610	49782
272.671	26369
272.731	41721
272.791	40641
272.852	29052
272.912	23029
272.972	17212
273.033	22445
273.093	30282
273.153	23768
273.214	19731
273.274	39411
273.334	154166
273.394	95423
273.455	50004
273.515	117646
273.575	87894
273.635	47397
273.696	124877
273.756	97991
273.816	40088
273.876	36635
273.936	87485
273.997	47044
274.057	25887
274.117	28490
274.177	106160
274.237	202033
274.297	92978
274.358	98720
274.418	115038
274.478	54055
274.538	27511
274.598	44832
274.658	85843
274.718	56757
274.778	25688
274.838	25927
274.898	91486
274.958	113454
275.018	134144
275.078	54322
275.138	28888
275.198	21481
275.258	19527
275.318	33465
275.378	51831
275.438	35150
275.498	34119
275.558	99949
275.618	126213
275.678	65211
275.738	62810
275.798	38174
275.858	20630
275.918	19273
275.978	25293
276.038	17087
276.098	20081
276.157	85983
276.217	72874
276.277	39811
276.337	27118
276.397	24161
276.457	22521
276.517	16092
276.576	15204
276.636	22060
276.696	44729
276.756	65664
276.815	27225
276.875	25243
276.935	27140
276.995	18273
277.055	16830
277.114	17748
277.174	66830
277.234	61130
277.293	27174
277.353	19496
277.413	17929
277.472	21515
277.532	17756
277.592	36843
277.651	146366
277.711	67232
277.771	99671
277.830	175217
277.890	73120
277.950	202846
278.009	156802
278.069	72055
278.128	151534
278.188	78617
278.248	110099
278.307	143235
278.367	43700
278.426	28277
278.486	20770
278.545	18907
278.605	16983
278.664	17877
278.724	26844
278.783	125096
278.843	79071
278.902	31741
278.962	30094
279.021	30293
279.081	34511
279.140	32948
279.199	31253
279.259	29746
279.318	30274
279.378	45684
279.437	143741
279.496	397940
279.556	537303
279.615	199382
279.675	88652
279.734	86209
279.793	174132
279.853	118766
279.912	47005
279.971	37942
280.031	43378
280.090	128010
280.149	85429
280.208	208170
280.268	435057
280.327	161785
280.386	76869
280.445	92313
280.505	46785
280.564	33958
280.623	32189
280.682	76384
280.742	40414
280.801	24015
280.860	19648
280.919	20718
280.978	17937
281.037	17637
281.097	15739
281.156	16709
281.215	17169
281.274	53917
281.333	100455
281.392	31420
281.451	18290
281.510	18693
281.569	15298
281.628	14161
281.688	14326
281.747	20419
281.806	15277
281.865	14236
281.924	14989
281.983	12722
282.042	12503
282.101	13697
282.160	12659
282.219	13229
282.278	36947
282.337	54590
282.396	20312
282.454	18127
282.513	55817
282.572	73297
282.631	24339
282.690	18680
282.749	20034
282.808	20927
282.867	23371
282.926	16676
282.985	13582
283.043	13990
283.102	15205
283.161	23925
283.220	83165
283.279	50296
283.338	22934
283.396	21287
283.455	19590
283.514	28963
283.573	29961
283.631	20250
283.690	18340
283.749	27167
283.808	51860
283.866	26244
283.925	18763
283.984	23356
284.043	32206
284.101	22567
284.160	23758
284.219	25163
284.277	26810
284.336	77268
284.395	118764
284.453	50156
284.512	46462
284.570	53828
284.629	42928
284.688	47721
284.746	51845
284.805	63352
284.863	81193
284.922	98681
284.981	132692
285.039	214629
285.098	431633
285.156	731931
285.215	745697
285.273	722323
285.332	449459
285.390	272409
285.449	180741
285.507	128836
285.566	95160
285.624	73525
285.683	57476
285.741	47475
285.799	42899
285.858	40507
285.916	33825
285.975	30450
286.033	26656
286.091	25195
286.150	22287
286.208	24253
286.267	24683
286.325	33413
286.383	39217
286.442	24882
286.500	20301
286.558	18707
286.616	21979
286.675	24571
286.733	22089
286.791	20936
286.850	24724
286.908	46913
286.966	32953
287.024	19824
287.083	16779
287.141	16148
287.199	24355
287.257	22986
287.315	18700
287.374	39071
287.432	44674
287.490	25052
287.548	20475
287.606	17929
287.664	20485
287.723	31984
287.781	22441
287.839	21531
287.897	25564
287.955	31831
288.013	51729
288.071	179846
288.129	651334
288.187	575275
288.245	209268
288.303	104019
288.361	68307
288.419	49102
288.477	33730
288.535	25894
288.593	21869
288.651	18233
288.709	15643
288.767	17915
288.825	13523
288.883	14962
288.941	14610
288.999	14262
289.057	12777
289.115	13633
289.173	14413
289.231	15841
289.289	13749
289.346	15305
289.404	21468
289.462	31357
289.520	21183
289.578	12980
289.636	11037
289.694	12023
289.751	10936
289.809	11862
289.867	13084
289.925	21728
289.983	14724
290.040	11167
290.098	13657
290.156	18284
290.214	15900
290.271	11932
290.329	10934
290.387	11462
290.444	9898
290.502	10495
290.560	11013
290.617	12601
290.675	10974
290.733	13447
290.790	11631
290.848	11651
290.906	13869
290.963	12259
291.021	10711
291.078	11894
291.136	23138
291.194	91351
291.251	49985
291.309	18484
291.366	14034
291.424	14993
291.481	14224
291.539	14842
291.596	10695
291.654	8803
291.711	10487
291.769	23510
291.826	23916
291.884	14382
291.941	11122
291.999	14353
292.056	17979
292.114	12094
292.171	11369
292.228	14955
292.286	22243
292.343	35484
292.401	27170
292.458	17425
292.515	18124
292.573	19503
292.630	17130
292.687	14987
292.745	14819
292.802	37321
292.859	77783
292.917	74816
292.974	27604
293.031	17780
293.089	14610
293.146	12820
293.203	11649
293.260	13798
293.318	21904
293.375	19183
293.432	11643
293.489	11929
293.546	13316
293.604	31076
293.661	123048
293.718	107757
293.775	44635
293.832	33658
293.889	29462
293.947	23848
294.004	17947
294.061	28816
294.118	74891
294.175	106652
294.232	65766
294.289	30226
294.346	23735
294.403	20905
294.460	17972
294.517	14981
294.574	13077
294.631	12935
294.688	22698
294.745	110670
294.802	189576
294.859	95536
294.916	45218
294.973	33424
295.030	28840
295.087	21385
295.144	17046
295.201	14460
295.258	13622
295.315	36305
295.372	112632
295.429	70812
295.486	31523
295.542	45668
295.599	115992
295.656	85220
295.713	108901
295.770	66475
295.827	28161
295.883	22426
295.940	29838
295.997	40240
296.054	23150
296.111	16401
296.167	13261
296.224	13593
296.281	12625
296.338	12390
296.394	12451
296.451	29823
296.508	88320
296.564	66014
296.621	87511
296.678	199375
296.734	104999
296.791	43919
296.848	34021
296.904	61882
296.961	109748
297.018	118398
297.074	48974
297.131	27220
297.187	25772
297.244	72554
297.301	215291
297.357	120140
297.414	43032
297.470	29210
297.527	22519
297.583	21338
297.640	17787
297.696	14969
297.753	13433
297.809	11966
297.866	10967
297.922	11478
297.979	12010
298.035	18465
298.092	51885
298.148	82292
298.204	37734
298.261	37630
298.317	128253
298.374	124035
298.430	50671
298.486	33825
298.543	25680
298.599	28437
298.656	37781
298.712	97940
298.768	108612
298.824	44979
298.881	23740
298.937	18891
298.993	23346
299.050	23648
299.106	18949
299.162	19934
299.218	15801
299.275	14777
299.331	21356
299.387	93605
299.443	164210
299.500	83190
299.556	37248
299.612	29664
299.668	34150
299.724	41841
299.780	24516
299.837	22665
299.893	76451
299.949	140575
300.005	99378
300.061	171163
300.117	129721
300.173	52226
300.229	45026
300.285	58635
300.341	38503
300.397	23477
300.453	18680
300.510	18427
300.566	17581
300.622	46177
300.678	115336
300.734	110899
300.790	130874
300.845	93747
300.901	107161
300.957	112578
301.013	49755
301.069	29478
301.125	30653
301.181	26658
301.237	18970
301.293	15749
301.349	14281
301.405	15753
301.461	19908
301.516	22331
301.572	31880
301.628	34576
301.684	37290
301.740	75687
301.796	54997
301.851	69236
301.907	78628
301.963	87935
302.019	281166
302.074	391088
302.130	223267
302.186	94585
302.242	52099
302.297	40332
302.353	65892
302.409	75296
302.464	46607
302.520	95401
302.576	155498
302.631	106980
302.687	51156
302.743	29281
302.798	22016
302.854	19001
302.910	20616
302.965	35372
303.021	42070
303.076	46489
303.132	65138
303.187	43501
303.243	23681
303.299	19123
303.354	16533
303.410	15840
303.465	13978
303.521	14360
303.576	14676
303.632	24362
303.687	89718
303.743	117674
303.798	54279
303.853	28286
303.909	21606
303.964	25928
304.020	45313
304.075	40852
304.130	63624
304.186	81173
304.241	68062
304.297	44494
304.352	27543
304.358	27061
304.407	23137
304.449	23548
304.463	23708
304.518	21909
304.539	20225
304.573	17549
304.629	20653
304.630	21535
304.684	61455
304.720	109004
304.739	133374
304.794	86845
304.811	73942
304.850	41170
304.902	25231
304.905	24327
304.960	22347
304.992	22169
305.015	22109
305.071	20031
305.083	18998
305.126	15081
305.173	13423
305.181	13194
305.236	12885
305.264	15257
305.292	17780
305.347	20495
305.354	20580
305.402	21003
305.445	23344
305.457	24037
305.512	26791
305.535	25296
305.567	23111
305.622	30810
305.626	33623
305.678	84141
305.716	122250
305.733	136852
305.788	91127
305.807	95047
305.843	100384
305.897	126842
305.898	127201
305.953	77088
305.988	58967
306.008	47657
306.063	33017
306.078	29087
306.118	22015
306.168	16928
306.173	16522
306.228	13633
306.259	13342
306.283	13350
306.338	13770
306.349	14237
306.393	16404
306.440	15919
306.448	15738
306.503	15979
306.530	22403
306.558	32986
306.613	62878
306.620	67854
306.668	100462
306.711	114304
306.723	114021
306.778	68184
306.801	55825
306.833	39539
306.888	22093
306.892	21226
306.943	18222
306.982	15957
306.997	15305
307.052	14644
307.072	14642
307.107	15961
307.162	23173
307.163	23255
307.217	33326
307.253	39834
307.272	41770
307.327	37488
307.343	36688
307.381	32058
307.434	33105
307.436	34098
307.491	76303
307.524	99005
307.546	107024
307.600	84731
307.614	79309
307.655	49427
307.704	27909
307.710	27860
307.765	35311
307.795	45865
307.819	58944
307.874	70934
307.885	71884
307.929	55722
307.975	45452
307.984	47243
308.038	66547
308.065	90686
308.093	143689
308.148	335248
308.156	359958
308.202	515551
308.246	530046
308.257	489995
308.312	276840
308.336	200504
308.366	163024
308.421	97704
308.426	92534
308.475	62015
308.517	43423
308.530	41098
308.585	35675
308.607	33961
308.639	34541
308.694	40795
308.697	41814
308.748	75024
308.787	92142
308.803	91482
308.857	75522
308.877	72601
308.912	65190
308.967	57563
308.967	57465
309.021	80873
309.058	103584
309.076	128924
309.130	226549
309.148	271383
309.185	422214
309.238	665363
309.239	668919
309.293	730778
309.328	718302
309.348	604731
309.402	306045
309.418	228638
309.457	169243
309.508	104710
309.511	103793
309.566	100319
309.598	103623
309.620	118564
309.674	162912
309.688	171135
309.729	167815
309.778	154846
309.783	151057
309.837	106977
309.868	86763
309.892	95947
309.946	136294
309.959	144690
310.001	180310
310.049	198523
310.055	190424
310.109	112757
310.139	74647
310.163	60686
310.218	35787
310.229	31135
310.272	26193
310.319	22042
310.326	21787
310.381	20183
310.409	19724
310.435	18910
310.489	17341
310.499	17154
310.543	17825
310.589	18588
310.598	18791
310.652	19954
310.679	20228
310.706	18002
310.760	13871
310.769	13212
310.814	12070
310.859	11211
310.868	11299
310.923	12016
310.948	12506
310.977	14065
311.031	16897
311.038	17239
311.085	17466
311.128	17807
311.139	17393
311.193	15199
311.218	14096
311.247	13215
311.301	11783
311.308	11609
311.356	12223
311.398	12865
311.410	12693
311.464	11699
311.488	11294
311.518	11700
311.572	12670
311.578	12818
311.626	17580
311.668	21359
311.680	21333
311.734	21247
311.758	21150
311.788	21138
311.842	21209
311.847	21223
311.896	25853
311.937	29849
311.950	29858
312.004	29562
312.027	29415
312.058	24567
312.112	15924
312.117	15046
312.165	14261
312.207	13580
312.297	21876
312.386	17187
312.476	18466
312.566	33255
312.656	20683
312.745	11504
312.835	14171
312.925	15878
313.015	14403
313.104	16953
313.194	12595
313.284	13599
313.374	18174
313.463	17887
313.553	11825
313.643	12319
313.732	11051
313.822	11066
313.912	12788
314.001	15790
314.091	19433
314.180	24168
314.270	21030
314.360	22951
314.449	22290
314.539	13612
314.628	12494
314.718	15951
314.808	19332
314.897	14442
314.987	13859
315.076	18325
315.166	23937
315.255	24053
315.345	22241
315.434	22533
315.524	19604
315.613	25488
315.703	31602
315.792	46346
315.881	119641
315.971	79914
316.060	40329
316.150	60281
316.239	64328
316.328	32611
316.418	14192
316.507	15993
316.597	20475
316.686	22126
316.775	29640
316.865	63911
316.954	24046
317.043	11788
317.133	14265
317.222	13649
317.311	12936
317.400	13487
317.490	18225
317.579	24638
317.668	18223
317.757	31495
317.847	76759
317.936	223225
318.025	139259
318.114	54913
318.203	43398
318.293	47097
318.382	79993
318.471	70194
318.560	96568
318.649	137177
318.738	44891
318.828	22693
318.917	24666
319.006	30651
319.095	94768
319.184	185742
319.273	121922
319.362	59915
319.451	21376
319.540	21685
319.629	50654
319.718	74317
319.807	33455
319.896	85127
319.985	220228
320.074	105833
320.163	28877
320.252	41573
320.341	41000
320.430	32971
320.519	39535
320.608	29503
320.697	20865
320.786	21196
320.875	26769
320.964	35867
321.053	54271
321.142	79909
321.230	87145
321.319	70868
321.408	133962
321.497	70094
321.586	53839
321.675	65806
321.764	70854
321.852	47740
321.941	76929
322.030	60877
322.119	65398
322.207	137296
322.296	110315
322.385	55155
322.474	69558
322.562	163842
322.651	107208
322.740	65048
322.829	94450
322.917	91727
323.006	67681
323.095	45225
323.183	35528
323.272	49098
323.361	92123
323.449	243222
323.538	130035
323.626	165815
323.715	151496
323.804	48542
323.892	154157
323.981	122010
324.069	32376
324.158	79024
324.246	105168
324.335	37566
324.424	50908
324.512	22814
324.601	24809
324.689	53153
324.778	93594
324.866	74062
324.954	28815
325.043	19412
325.131	38227
325.220	70934
325.308	83860
325.397	61137
325.485	46455
325.574	15101
325.662	15082
325.750	17806
325.839	14444
325.927	13075
326.015	18156
326.104	29420
326.192	51046
326.280	16855
326.369	13938
326.457	24109
326.545	41237
326.634	22700
326.722	11356
326.810	13304
326.898	12570
326.987	17383
327.075	39503
327.163	42232
327.251	25224
327.340	34979
327.428	45931
327.516	16196
327.604	14539
327.692	15592
327.781	17523
327.869	33430
327.957	26472
328.045	20999
328.133	12447
328.221	17858
328.309	16946
328.397	13554
328.485	17498
328.574	29055
328.662	88495
328.750	61372
328.838	27054
328.926	14918
329.014	12651
329.102	21767
329.190	54587
329.278	38983
329.366	12955
329.454	11507
329.542	12164
329.630	11874
329.718	13271
329.806	18692
329.893	20302
329.981	22777
330.069	39821
330.157	191735
330.245	443723
330.333	233474
330.421	42740
330.509	36616
330.597	110859
330.684	87999
330.772	29919
330.860	37714
330.948	48445
331.036	23274
331.123	12237
331.211	12107
331.299	15520
331.387	44707
331.475	67603
331.562	27492
331.650	12734
331.738	15379
331.825	23694
331.913	13539
332.001	10581
332.089	16992
332.176	34036
332.264	78230
332.352	89229
332.439	24440
332.527	16337
332.614	13964
332.702	19739
332.790	15166
332.877	38816
332.965	90102
333.052	37453
333.140	31215
333.228	74426
333.315	30429
333.403	17824
333.490	46549
333.578	63345
333.665	88987
333.753	52104
333.840	18744
333.928	19702
334.015	48061
334.103	93363
334.190	249952
334.278	97305
334.365	30455
334.452	26031
334.540	19400
334.627	22227
334.715	33626
334.802	54988
334.889	277148
334.977	386039
335.064	64170
335.151	24870
335.239	23871
335.326	28659
335.413	125042
335.501	168614
335.588	33188
335.675	21811
335.762	29820
335.850	45275
335.937	34926
336.024	80951
336.111	313851
336.199	198664
336.286	36189
336.373	20563
336.460	16428
336.547	15548
336.635	20488
336.722	20010
336.809	16846
336.896	25375
336.983	82047
337.070	182712
337.157	249149
337.245	194809
337.332	191433
337.419	26211
337.506	15498
337.593	17625
337.680	68293
337.767	169987
337.854	62666
337.941	58011
338.028	71433
338.115	38188
338.202	28855
338.289	52020
338.376	191893
338.463	100919
338.550	111374
338.637	111450
338.724	38737
338.811	67339
338.898	21788
338.984	13676
339.071	17977
339.158	21288
339.245	55978
339.332	37434
339.419	40032
339.506	51024
339.593	12309
339.679	12531
339.766	12498
339.853	18792
339.940	41057
340.027	18752
340.113	15715
340.200	21491
340.287	17598
340.374	21386
340.460	37129
340.547	19251
340.634	27299
340.720	105065
340.807	78173
340.894	13371
340.980	13885
341.067	14716
341.154	14441
341.240	25253
341.327	55501
341.414	23318
341.500	20792
341.587	14237
341.674	12211
341.760	35243
341.847	46831
341.933	17818
342.020	8182
342.106	8230
342.193	14447
342.279	27931
342.366	23159
342.452	37315
342.539	22302
342.625	47274
342.712	120851
342.798	60848
342.885	23863
342.971	9169
343.058	8917
343.144	11282
343.230	10608
343.317	12207
343.403	11928
343.490	9280
343.576	9370
343.662	10723
343.749	14819
343.835	18195
343.921	30436
344.008	187609
344.094	490842
344.180	151585
344.267	39498
344.353	126826
344.439	157270
344.525	64185
344.612	26295
344.698	21698
344.784	16808
344.870	10368
344.957	13446
345.043	22267
345.129	18776
345.215	34694
345.301	24201
345.387	16708
345.474	9388
345.560	10815
345.646	15608
345.732	14495
345.818	16836
345.904	15666
345.990	16226
346.076	16383
346.162	32164
346.249	18362
346.335	10728
346.421	12065
346.507	49828
346.593	191040
346.679	70688
346.765	14663
346.851	14145
346.937	16475
347.023	10973
347.108	14630
347.194	13647
347.280	13232
347.366	15891
347.452	51216
347.538	223623
347.624	188891
347.710	140124
347.796	32594
347.882	13850
347.967	13143
348.053	19979
348.139	14212
348.225	11964
348.311	12625
348.397	11353
348.482	15830
348.568	19458
348.654	11489
348.740	18370
348.825	21345
348.911	23067
348.997	94911
349.083	218127
349.168	56121
349.254	15588
349.340	16069
349.425	11182
349.511	17970
349.597	22047
349.682	39515
349.768	131814
349.854	76703
349.939	14652
350.025	10524
350.110	10972
350.196	9932
350.282	9924
350.367	8548
350.453	19350
350.538	27978
350.624	21667
350.709	19179
350.795	11457
350.880	12357
350.966	13685
351.051	20622
351.137	20408
351.222	12996
351.308	39880
351.393	119364
351.479	41673
351.564	13871
351.649	12839
351.735	10190
351.820	9480
351.906	11380
351.991	16804
352.076	73702
352.162	120065
352.247	30548
352.332	17459
352.418	32870
352.503	40256
352.588	158481
352.673	152760
352.759	37686
352.844	19257
352.929	19357
353.014	27950
353.100	18937
353.185	32003
353.270	47192
353.355	47488
353.441	16603
353.526	17588
353.611	38529
353.696	51050
353.781	28063
353.866	16567
353.952	13562
354.037	36830
354.122	87208
354.207	85140
354.292	39001
354.377	14441
354.462	13088
354.547	19633
354.632	18746
354.717	27411
354.802	39843
354.887	18851
354.972	10648
355.057	9995
355.142	9862
355.227	14912
355.312	25576
355.397	57839
355.482	137341
355.567	87612
355.652	46095
355.737	53561
355.822	148278
355.907	153156
355.991	26345
356.076	14983
356.161	12251
356.246	11928
356.331	13616
356.416	31875
356.501	214271
356.585	310694
356.670	57952
356.755	24318
356.840	35031
356.924	147617
357.009	592811
357.094	320603
357.179	58467
357.263	39686
357.348	34065
357.433	37715
357.517	32302
357.602	27973
357.687	22970
357.771	35890
357.856	108244
357.941	65924
358.025	108399
358.110	549876
358.195	361565
358.279	54091
358.364	30901
358.448	96373
358.533	297179
358.617	237022
358.702	220141
358.787	97626
358.871	46983
358.956	42013
359.040	17256
359.125	13676
359.209	15202
359.294	49759
359.378	87202
359.462	42837
359.547	25809
359.631	18397
359.716	13759
359.800	15471
359.885	23167
359.969	19371
360.053	15043
360.138	15793
360.222	21963
360.306	44561
360.391	38972
360.475	58882
360.559	136448
360.644	118750
360.728	100925
360.812	109229
360.896	388324
360.981	206600
361.065	96133
361.149	28136
361.233	25794
361.318	22554
361.402	25136
361.486	22198
361.570	17736
361.654	22517
361.739	51056
361.823	208401
361.907	420806
361.991	109589
362.075	40936
362.159	94365
362.243	77151
362.327	71550
362.411	75925
362.495	45165
362.580	29161
362.664	20876
362.748	23746
362.832	30282
362.916	52234
363.000	124283
363.084	291136
363.168	492304
363.252	164540
363.336	46723
363.420	49858
363.503	170034
363.587	230374
363.671	55948
363.755	34309
363.839	48918
363.923	30019
364.007	49632
364.091	64940
364.175	77957
364.258	297874
364.342	267671
364.426	249119
364.510	149282
364.594	71995
364.677	68792
364.761	301480
364.845	302358
364.929	90992
365.013	72015
365.096	53375
365.180	72012
365.264	67622
365.347	280825
365.431	151885
365.515	40617
365.598	23473
365.682	18403
365.766	36901
365.849	46088
365.933	24630
366.017	31273
366.100	27694
366.184	13480
366.267	14406
366.351	15737
366.435	13446
366.518	12676
366.602	10406
366.685	13088
366.769	18300
366.852	30892
366.936	55737
367.019	37131
367.103	27487
367.186	47339
367.270	17743
367.353	11682
367.436	13002
367.520	13215
367.603	18386
367.687	28688
367.770	56747
367.853	33821
367.937	81032
368.020	179525
368.104	56343
368.187	37906
368.270	58376
368.353	49761
368.437	55829
368.520	136447
368.603	117434
368.687	103307
368.770	238299
368.853	76282
368.936	52137
369.020	57257
369.103	24406
369.186	17172
369.269	18503
369.352	31863
369.436	54884
369.519	36835
369.602	21872
369.685	16718
369.768	23064
369.851	18359
369.934	13718
370.018	19277
370.101	46665
370.184	37947
370.267	26671
370.350	45264
370.433	67681
370.516	154267
370.599	251264
370.682	100885
370.765	113924
370.848	133655
370.931	276378
371.014	138748
371.097	29566
371.180	20216
371.263	13494
371.346	13517
371.429	13057
371.511	16279
371.594	29847
371.677	49500
371.760	57278
371.843	43768
371.926	162566
372.009	515742
372.091	207848
372.174	92844
372.257	252300
372.340	133333
372.423	76736
372.505	92801
372.588	43295
372.671	66270
372.754	260659
372.836	174981
372.919	87167
373.002	187227
373.085	72330
373.167	43296
373.250	102091
373.332	249578
373.415	282004
373.498	678934
373.580	331829
373.663	268084
373.746	507448
373.828	151637
373.911	49722
373.993	47935
374.076	159656
374.159	178278
374.241	74654
374.324	214226
374.406	180228
374.489	146425
374.571	540616
374.654	305181
374.736	98363
374.819	309809
374.901	444907
374.983	564452
375.066	144912
375.148	38133
375.231	114728
375.313	277150
375.395	126697
375.478	33155
375.560	21996
375.643	28153
375.725	74996
375.807	376776
375.890	387059
375.972	179063
376.054	81901
376.136	116575
376.219	78918
376.301	84598
376.383	365580
376.465	195810
376.548	93338
376.630	96972
376.712	294070
376.794	199242
376.877	30023
376.959	16547
377.041	19376
377.123	39185
377.205	51642
377.287	15852
377.369	12250
377.452	15177
377.534	15487
377.616	15003
377.698	16844
377.780	13500
377.862	16205
377.944	14989
378.026	11867
378.108	10838
378.190	12551
378.272	11431
378.354	10060
378.436	10899
378.518	21580
378.600	85525
378.682	70465
378.764	143722
378.846	149824
378.928	44453
379.010	54397
379.091	32547
379.173	16129
379.255	15368
379.337	21627
379.419	57412
379.501	224597
379.583	122970
379.664	28198
379.746	54218
379.828	143117
379.910	210382
379.991	214774
380.073	52597
380.155	24400
380.237	21263
380.318	14891
380.400	17574
380.482	32002
380.564	62493
380.645	60881
380.727	62711
380.809	35135
380.890	26896
380.972	22556
381.053	19628
381.135	23902
381.217	44610
381.298	166021
381.380	103370
381.461	61568
381.543	247900
381.624	455243
381.706	120833
381.787	45220
381.869	46893
381.951	96238
382.032	468276
382.113	420250
382.195	109087
382.276	55837
382.358	92357
382.439	282617
382.521	296336
382.602	516560
382.684	288812
382.765	396257
382.846	548706
382.928	783294
383.009	563567
383.090	342045
383.172	922835
383.253	1677924
383.334	736192
383.416	504991
383.497	352802
383.578	185448
383.659	300753
383.741	817667
383.822	2094859
383.903	1541601
383.984	462290
384.066	568231
384.147	452038
384.228	126324
384.309	74718
384.390	62809
384.471	48012
384.553	47999
384.634	56399
384.715	63652
384.796	40591
384.877	43069
384.958	128200
385.039	210951
385.120	91312
385.201	37568
385.282	46417
385.363	47918
385.444	45991
385.525	59905
385.606	197830
385.687	239174
385.768	70388
385.849	58388
385.930	178272
386.011	455274
386.092	175408
386.173	39771
386.254	28757
386.335	29373
386.416	31327
386.496	79766
386.577	179855
386.658	79294
386.739	44239
386.820	38852
386.901	34472
386.981	31446
387.062	23367
387.143	34266
387.224	139272
387.304	174270
387.385	67205
387.466	42537
387.547	47662
387.627	38298
387.708	47851
387.789	225246
387.869	381743
387.950	134813
388.031	29100
388.111	26173
388.192	52135
388.273	79467
388.353	54761
388.434	31753
388.514	44564
388.595	200191
388.676	372653
388.756	197391
388.837	148298
388.917	120534
388.998	33857
389.078	23195
389.159	20966
389.239	22007
389.320	29599
389.400	35449
389.480	47249
389.561	168384
389.641	108944
389.722	34084
389.802	54767
389.883	59360
389.963	186641
390.043	158347
390.124	59751
390.204	48476
390.284	175800
390.365	149302
390.445	123763
390.525	331801
390.605	434352
390.686	159559
390.766	47471
390.846	25191
390.927	19213
391.007	21664
391.087	24623
391.167	30751
391.247	25751
391.328	30435
391.408	54066
391.488	42839
391.568	21124
391.648	26674
391.728	40152
391.808	35822
391.888	43254
391.969	73503
392.049	171734
392.129	85453
392.209	63174
392.289	190865
392.369	134403
392.449	100916
392.529	68417
392.609	53641
392.689	58173
392.769	172605
392.849	206885
392.929	115826
393.009	268318
393.089	273276
393.169	209844
393.248	480708
393.328	1578284
393.408	2466311
393.488	1030214
393.568	272862
393.648	129027
393.728	84653
393.807	62831
393.887	52531
393.967	48064
394.047	51079
394.127	60707
394.206	81334
394.286	196459
394.366	837368
394.446	1365484
394.525	439950
394.605	105733
394.685	67945
394.764	119564
394.844	208471
394.924	184097
395.003	65586
395.083	41683
395.163	39272
395.242	36777
395.322	37648
395.402	32030
395.481	34971
395.561	71596
395.640	235092
395.720	207834
395.799	242972
395.879	237975
395.958	129888
396.038	292425
396.117	1099585
396.197	1773963
396.276	711559
396.356	214576
396.435	149815
396.515	104815
396.594	112504
396.673	178003
396.753	455420
396.832	1571835
396.912	1834483
396.991	593774
397.070	148257
397.150	81561
397.229	56742
397.308	61449
397.388	116314
397.467	69812
397.546	33272
397.625	29400
397.705	32560
397.784	39012
397.863	27162
397.942	20502
398.022	22230
398.101	50078
398.180	208920
398.259	140449
398.338	38410
398.417	27103
398.497	22769
398.576	20856
398.655	17804
398.734	14807
398.813	16410
398.892	40383
398.971	210712
399.050	146227
399.129	27089
399.208	12413
399.287	12479
399.366	11361
399.445	12756
399.524	13035
399.603	15302
399.682	23341
399.761	59028
399.840	202101
399.919	223872
399.998	44242
400.077	13898
400.156	12666
400.235	14108
400.313	14191
400.392	18433
400.471	58417
400.550	159438
400.629	62092
400.708	21171
400.786	19346
400.865	47832
400.944	67400
401.023	32832
401.102	10591
401.180	9329
401.259	10935
401.338	15221
401.416	18732
401.495	22639
401.574	15776
401.652	15107
401.731	19383
401.810	22425
401.888	13535
401.967	8918
402.046	14608
402.124	16045
402.203	29242
402.281	17535
402.360	21714
402.438	62102
402.517	62129
402.596	19440
402.674	19160
402.753	13456
402.831	11276
402.910	13469
402.988	39768
403.066	205820
403.145	163610
403.223	55662
403.302	172480
403.380	142177
403.459	145849
403.537	69655
403.615	27443
403.694	11923
403.772	8758
403.850	9528
403.929	8587
404.007	10727
404.085	21556
404.164	38380
404.242	16237
404.320	13212
404.398	21469
404.477	50287
404.555	295769
404.633	472551
404.711	107791
404.789	19972
404.868	16776
404.946	15276
405.024	9015
405.102	8409
405.180	8872
405.258	9417
405.336	9605
405.415	10654
405.493	25790
405.571	30561
405.649	12919
405.727	11097
405.805	15673
405.883	18837
405.961	17409
406.039	27098
406.117	15770
406.195	17518
406.273	54380
406.351	306996
406.429	309675
406.507	65615
406.585	21146
406.663	13829
406.740	21676
406.818	22047
406.896	13671
406.974	12704
407.052	22439
407.130	129702
407.208	354252
407.285	111540
407.363	18374
407.441	14429
407.519	12511
407.596	12470
407.674	23179
407.752	51413
407.830	81632
407.907	52735
407.985	22733
408.063	11710
408.141	9848
408.218	18031
408.296	26477
408.373	18994
408.451	16688
408.529	17919
408.606	11337
408.684	8122
408.762	6547
408.839	6833
408.917	6543
408.994	7911
409.072	10987
409.149	10259
409.227	14492
409.304	22928
409.382	18719
409.459	19802
409.537	26217
409.614	29090
409.692	22275
409.769	20508
409.846	27140
409.924	36582
410.001	38318
410.079	26380
410.156	18694
410.233	17374
410.311	17438
410.388	13730
410.465	15551
410.543	19872
410.620	11344
410.697	11140
410.775	18933
410.852	11522
410.929	13974
411.006	24087
411.083	15393
411.161	29764
411.238	38928
411.315	24613
411.392	11400
411.469	14755
411.547	23485
411.624	14373
411.701	12699
411.778	10520
411.855	30163
411.932	26360
412.009	12967
412.086	10312
412.163	11828
412.240	16862
412.317	18167
412.394	22235
412.471	9498
412.548	7576
412.625	9665
412.702	11898
412.779	26916
412.856	23804
412.933	10432
413.010	8292
413.087	11297
413.164	54523
413.241	146599
413.318	52003
413.395	17969
413.471	31593
413.548	20787
413.625	9067
413.702	14680
413.779	15059
413.855	6389
413.932	5477
414.009	6996
414.086	6863
414.162	7337
414.239	12313
414.316	48413
414.393	187578
414.469	117103
414.546	18381
414.623	8053
414.699	7052
414.776	12812
414.853	10033
414.929	9452
415.006	10754
415.082	13153
415.159	13318
415.236	8435
415.312	9152
415.389	15126
415.465	32384
415.542	22079
415.618	9821
415.695	19200
415.771	15592
415.848	14243
415.924	12129
416.000	12563
416.077	7723
416.153	5353
416.230	5146
416.306	4486
416.383	6731
416.459	6566
416.535	5242
416.612	5829
416.688	6702
416.764	6419
416.841	7694
416.917	9048
416.993	8283
417.069	9555
417.146	15249
417.222	18650
417.298	16105
417.374	10525
417.451	10815
417.527	13013
417.603	19505
417.679	14058
417.755	10722
417.831	7629
417.908	6061
417.984	5824
418.060	6462
418.136	15815
418.212	39826
418.288	19375
418.364	9256
418.440	8668
418.516	15809
418.592	20261
418.668	35560
418.744	59066
418.820	58663
418.896	21198
418.972	8370
419.048	8293
419.124	18901
419.200	31645
419.276	12472
419.352	5406
419.428	4999
419.504	8529
419.579	15623
419.655	12923
419.731	9915
419.807	24443
419.883	67680
419.959	71974
420.034	23293
420.110	19669
420.186	86528
420.262	132728
420.337	32216
420.413	17988
420.489	12410
420.565	9159
420.640	9276
420.716	10251
420.792	9823
420.867	9746
420.943	11685
421.019	17676
421.094	23692
421.170	13140
421.245	9959
421.321	11501
421.397	13692
421.472	14381
421.548	29841
421.623	39320
421.699	23846
421.774	20882
421.850	22054
421.925	29610
422.001	37141
422.076	30369
422.152	32480
422.227	50530
422.302	65242
422.378	83812
422.453	148100
422.529	295189
422.604	730256
422.679	1185608
422.755	1253030
422.830	609086
422.905	229071
422.981	122412
423.056	79838
423.131	57167
423.207	44388
423.282	38523
423.357	51325
423.432	51836
423.508	34156
423.583	60945
423.658	76493
423.733	30542
423.808	26872
423.883	27640
423.959	29517
424.034	25351
424.109	19372
424.184	15498
424.259	12830
424.334	11277
424.409	11193
424.484	9869
424.559	13211
424.634	11559
424.709	14342
424.784	21445
424.859	16844
424.934	15984
425.009	52328
425.084	140277
425.159	93297
425.234	19573
425.309	9367
425.384	18019
425.459	62837
425.534	27516
425.609	12657
425.683	11310
425.758	8772
425.833	9730
425.908	12171
425.983	25346
426.058	124571
426.132	112276
426.207	25418
426.282	17429
426.357	28497
426.431	12237
426.506	8599
426.581	10943
426.655	11075
426.730	8902
426.805	10405
426.879	10524
426.954	10340
427.029	16385
427.103	62352
427.178	275520
427.253	256554
427.327	46618
427.402	19984
427.476	60314
427.551	52113
427.625	16947
427.700	14925
427.774	10512
427.849	13708
427.923	11539
427.998	9901
428.072	11912
428.147	22782
428.221	58755
428.296	281968
428.370	280558
428.444	50310
428.519	27932
428.593	51128
428.667	59569
428.742	55276
428.816	58457
428.890	119581
428.965	387467
429.039	171632
429.113	79923
429.188	44037
429.262	14528
429.336	14319
429.410	52144
429.485	64887
429.559	41565
429.633	54851
429.707	20965
429.781	24543
429.855	133719
429.930	393306
430.004	207449
430.078	223681
430.152	260765
430.226	289778
430.300	553376
430.374	160916
430.448	34452
430.522	41926
430.596	200670
430.670	198217
430.744	190227
430.818	585046
430.892	239021
430.966	37806
431.040	16600
431.114	11469
431.188	10617
431.262	10383
431.336	10993
431.410	15920
431.484	59693
431.557	70363
431.631	19799
431.705	12150
431.779	28788
431.853	197263
431.927	305350
432.000	58835
432.074	13157
432.148	12970
432.222	16657
432.295	9795
432.369	8604
432.443	12016
432.516	47055
432.590	266855
432.664	235427
432.737	40922
432.811	9922
432.885	6843
432.958	5051
433.032	6325
433.106	5067
433.179	4188
433.253	4210
433.326	6411
433.400	4062
433.473	3848
433.547	5323
433.620	4231
433.694	11265
433.767	19948
433.841	10465
433.914	6424
433.988	6195
434.061	4873
434.134	6857
434.208	5001
434.281	3800
434.355	4135
434.428	5792
434.501	7102
434.575	4594
434.648	6359
434.721	5137
434.795	4965
434.868	4684
434.941	3700
435.014	4119
435.088	5250
435.161	8563
435.234	13933
435.307	23470
435.381	16833
435.454	11743
435.527	12091
435.600	14798
435.673	14594
435.746	11296
435.819	9908
435.892	8806
435.966	7616
436.039	7180
436.112	8534
436.185	5344
436.258	4525
436.331	3700
436.404	4039
436.477	3360
436.550	3565
436.623	4621
436.696	3322
436.769	5686
436.842	7488
436.915	6091
436.987	10956
437.060	8915
437.133	4695
437.206	4004
437.279	5057
437.352	4142
437.425	4782
437.498	5391
437.570	11090
437.643	22643
437.716	7950
437.789	4303
437.861	7027
437.934	37377
438.007	35715
438.080	9068
438.152	7597
438.225	12371
438.298	45208
438.370	322712
438.443	339053
438.516	85394
438.588	20714
438.661	7020
438.734	6494
438.806	8457
438.879	10380
438.951	9792
439.024	24102
439.096	15943
439.169	7494
439.241	5788
439.314	4513
439.386	8604
439.459	14534
439.531	22540
439.604	20442
439.676	6094
439.749	3880
439.821	4209
439.893	4714
439.966	4778
440.038	7326
440.110	11751
440.183	8138
440.255	6246
440.327	7936
440.400	20202
440.472	154406
440.544	282729
440.617	64591
440.689	18026
440.761	17408
440.833	32691
440.905	34558
440.978	10889
441.050	5194
441.122	4948
441.194	4650
441.266	6171
441.338	5874
441.411	7278
441.483	31914
441.555	141097
441.627	62131
441.699	17162
441.771	19876
441.843	11541
441.915	6487
441.987	5211
442.059	6064
442.131	7236
442.203	15269
442.275	18433
442.347	21021
442.419	19247
442.491	58192
442.563	286102
442.635	238235
442.706	71755
442.778	78339
442.850	23648
442.922	10986
442.994	10939
443.066	17395
443.137	18708
443.209	14909
443.281	17623
443.353	31627
443.425	85327
443.496	386331
443.568	666358
443.640	345875
443.711	78084
443.783	24606
443.855	17418
443.926	12171
443.998	9657
444.070	14645
444.141	12586
444.213	15418
444.285	22130
444.356	19009
444.428	18062
444.499	12951
444.571	6963
444.642	7057
444.714	8435
444.785	13688
444.857	18357
444.928	36631
445.000	42375
445.071	25172
445.143	46110
445.214	32438
445.285	31910
445.357	82858
445.428	204898
445.500	700457
445.571	708550
445.642	394011
445.714	142456
445.785	101051
445.856	49978
445.928	25901
445.999	25599
446.070	20389
446.141	14887
446.213	21701
446.284	17485
446.355	12643
446.426	11983
446.497	9054
446.569	11358
446.640	23249
446.711	23688
446.782	10647
446.853	8639
446.924	13068
446.995	11289
447.066	9363
447.138	15067
447.209	15793
447.280	5434
447.351	4635
447.422	4320
447.493	6887
447.564	10659
447.635	14607
447.706	12679
447.777	5326
447.847	3377
447.918	4018
447.989	7249
448.060	10999
448.131	21112
448.202	33060
448.273	20887
448.344	13289
448.414	5617
448.485	6290
448.556	5399
448.627	3928
448.698	3480
448.768	3420
448.839	4236
448.910	10518
448.981	18332
449.051	9185
449.122	5253
449.193	3851
449.263	4187
449.334	5019
449.405	4937
449.475	14873
449.546	21018
449.616	14980
449.687	21305
449.758	9223
449.828	6399
449.899	5873
449.969	5628
450.040	4711
450.110	5207
450.181	8841
450.251	7417
450.322	5925
450.392	5047
450.463	5440
450.533	4133
450.604	4673
450.674	4866
450.744	5369
450.815	4879
450.885	5878
450.955	4803
451.026	4326
451.096	4966
451.166	6877
451.237	8855
451.307	39091
451.377	33752
451.447	7812
451.518	5684
451.588	5120
451.658	5377
451.728	6691
451.799	22575
451.869	67824
451.939	23249
452.009	7147
452.079	5179
452.149	4046
452.219	7243
452.289	31092
452.360	62503
452.430	15396
452.500	7375
452.570	10321
452.640	11239
452.710	23520
452.780	67572
452.850	46975
452.920	45558
452.990	23759
453.060	9634
453.129	10578
453.199	15892
453.269	21413
453.339	139504
453.409	257643
453.479	122129
453.549	242934
453.619	282692
453.688	198713
453.758	34627
453.828	11495
453.898	8436
453.968	7791
454.037	6376
454.087	6356
454.107	6334
454.168	6285
454.177	6265
454.247	5157
454.249	5189
454.316	5447
454.330	5544
454.386	5730
454.411	8290
454.456	11859
454.492	28109
454.525	42543
454.574	28292
454.595	22252
454.655	9845
454.665	7848
454.734	6865
454.736	7054
454.804	11044
454.817	13892
454.873	23549
454.898	37438
454.943	62320
454.979	44036
455.013	27825
455.060	17885
455.082	13838
455.141	10343
455.152	9473
455.221	15372
455.222	15979
455.291	51270
455.303	48342
455.360	36908
455.384	28359
455.430	13328
455.465	14296
455.499	14384
455.546	23781
455.569	26999
455.627	37332
455.638	39804
455.707	10870
455.708	10850
455.777	5720
455.789	5833
455.846	6220
455.869	5958
455.916	5443
455.950	5398
455.985	5253
456.031	5842
456.054	6094
456.112	4863
456.124	4661
456.193	5255
456.193	5234
456.262	5298
456.274	5688
456.332	7185
456.355	7637
456.401	7749
456.436	7715
456.470	7831
456.516	5907
456.540	5085
456.597	4518
456.609	4379
456.678	4165
456.678	4151
456.747	4345
456.759	4251
456.817	3585
456.840	3740
456.886	4139
456.920	4281
456.955	4505
457.001	4939
457.024	5427
457.082	6821
457.093	6947
457.162	9191
457.163	9237
457.232	10960
457.243	11065
457.301	10729
457.324	8570
457.370	5429
457.405	5172
457.439	5216
457.485	5417
457.508	5396
457.566	6470
457.577	6805
457.646	8662
457.647	8709
457.715	13176
457.727	14244
457.784	21341
457.808	25167
457.853	29044
457.889	39513
457.922	44759
457.969	37606
457.991	39003
458.050	36274
458.060	36007
458.129	48768
458.130	49566
458.198	59762
458.211	57999
458.267	51561
458.292	38315
458.336	22234
458.372	18898
458.405	20045
458.453	25943
458.474	31564
458.533	51765
458.543	53026
458.611	77832
458.614	79499
458.680	84688
458.694	72132
458.749	42099
458.775	30508
458.818	15574
458.855	11964
458.887	9368
458.936	8608
458.955	8376
459.016	7629
459.024	7511
459.093	7639
459.097	7634
459.162	7892
459.177	8023
459.230	8706
459.257	9356
459.299	9835
459.338	10268
459.368	10753
459.418	11371
459.437	10788
459.499	9332
459.505	9418
459.574	8091
459.579	8070
459.643	6990
459.659	6756
459.711	6885
459.740	7190
459.780	7523
459.820	8184
459.849	8805
459.900	9512
459.917	9379
459.981	9296
459.986	9303
460.054	8851
460.061	8821
460.123	9124
460.141	9308
460.191	11005
460.222	12038
460.260	12856
460.302	14753
460.328	14065
460.382	12089
460.397	12145
460.462	9610
460.465	9589
460.534	11293
460.543	11508
460.602	19124
460.623	22005
460.671	32450
460.703	41401
460.739	35839
460.783	37350
460.808	39166
460.864	17049
460.876	14303
460.944	8261
460.945	8198
461.013	8600
461.024	8747
461.081	8964
461.104	9055
461.150	8445
461.184	8446
461.218	8831
461.264	8318
461.286	8047
461.345	7867
461.355	7878
461.423	8190
461.425	8197
461.491	9400
461.505	9614
461.559	17200
461.585	20904
461.628	31871
461.665	42069
461.696	45499
461.745	57120
461.764	50616
461.825	26188
461.832	26787
461.901	12328
461.905	12195
461.969	9794
461.985	9692
462.037	9244
462.065	8671
462.105	10169
462.145	11913
462.173	16092
462.225	24164
462.241	26699
462.305	37677
462.310	36486
462.378	24042
462.385	21383
462.446	14727
462.465	12576
462.514	9848
462.545	10073
462.582	10107
462.625	9937
462.650	9494
462.705	8461
462.718	8847
462.785	10897
462.786	10969
462.854	15113
462.865	15852
462.922	19208
462.945	21137
462.990	16842
463.025	12255
463.058	11228
463.104	8622
463.126	8169
463.184	8277
463.194	8359
463.262	9118
463.264	9150
463.330	9699
463.344	9842
463.398	10650
463.424	10930
463.466	11382
463.504	11750
463.533	11451
463.583	11116
463.601	11517
463.663	12478
463.669	12923
463.737	18260
463.743	18745
463.805	28027
463.823	30923
463.873	45169
463.903	53297
463.940	54692
463.982	59518
464.008	48599
464.062	22802
464.076	22188
464.142	11362
464.144	11204
464.211	10043
464.221	10096
464.279	10685
464.301	10943
464.347	12322
464.381	13395
464.414	14899
464.461	16771
464.482	17463
464.540	19733
464.550	19378
464.617	16906
464.620	16769
464.685	16392
464.699	16339
464.753	17651
464.779	18483
464.820	19184
464.859	19771
464.888	19755
464.938	19513
464.956	19787
465.018	20697
465.023	20368
465.091	16079
465.098	15544
465.158	15718
465.177	15863
465.226	15661
465.257	15577
465.293	16331
465.336	17059
465.361	18774
465.416	22710
465.428	24341
465.495	33061
465.496	33225
465.563	51547
465.575	54588
465.631	64502
465.654	69538
465.698	44467
465.734	22537
465.765	21370
465.813	17332
465.833	16692
465.893	17056
465.900	17032
465.968	16781
465.972	16747
466.035	17073
466.052	17128
466.102	18373
466.131	19079
466.170	19669
466.210	20197
466.237	20366
466.290	20635
466.304	20851
466.369	21626
466.372	21753
466.439	24566
466.449	24940
466.506	27486
466.528	28400
466.573	37496
466.607	44179
466.641	60740
466.687	83691
466.708	92445
466.766	116299
466.775	108242
466.842	47460
466.845	44446
466.909	34788
466.925	32556
466.977	30610
467.004	29776
467.044	29865
467.083	29903
467.111	30613
467.163	31808
467.178	32363
467.242	34422
467.245	34369
467.312	32081
467.321	31725
467.379	30404
467.400	29842
467.446	31817
467.480	33151
467.559	28414
467.638	24579
467.717	26145
467.796	28225
467.875	31050
467.955	28926
468.034	41879
468.113	88093
468.192	129496
468.271	35672
468.350	25363
468.429	29508
468.508	30242
468.588	24570
468.667	23211
468.746	24619
468.825	23169
468.904	20339
468.983	24620
469.062	36605
469.141	44842
469.220	20134
469.299	18967
469.378	20746
469.456	22765
469.535	20717
469.614	20854
469.693	23153
469.772	30041
469.851	40237
469.930	29233
470.009	21447
470.088	23455
470.166	28168
470.245	44931
470.324	55719
470.403	42728
470.482	28551
470.560	24318
470.639	23994
470.718	28750
470.797	22966
470.875	25852
470.954	35786
471.033	39179
471.111	16700
471.190	15838
471.269	15222
471.347	16065
471.426	17704
471.505	19297
471.583	20479
471.662	18523
471.740	16590
471.819	17403
471.898	16355
471.976	15801
472.055	16556
472.133	18375
472.212	25250
472.290	28234
472.369	17776
472.447	15584
472.526	15194
472.604	15735
472.683	17434
472.761	20736
472.839	18360
472.918	17277
472.996	18259
473.075	21010
473.153	20958
473.231	16818
473.310	21498
473.388	20836
473.466	18663
473.545	21957
473.623	30596
473.701	31646
473.780	17561
473.858	17899
473.936	18427
474.014	17523
474.093	21031
474.171	30355
474.249	43928
474.327	29924
474.405	16372
474.484	16287
474.562	17541
474.640	18518
474.718	20533
474.796	21913
474.874	18585
474.952	17278
475.030	17650
475.108	20583
475.187	24975
475.265	27640
475.343	36416
475.421	41938
475.499	18746
475.577	19356
475.655	25205
475.733	50973
475.811	94436
475.889	82775
475.966	56423
476.044	18266
476.122	25949
476.200	33918
476.278	26619
476.356	16005
476.434	17520
476.512	23495
476.590	33597
476.667	28288
476.745	14995
476.823	17663
476.901	16351
476.979	17055
477.056	15995
477.134	17438
477.212	17780
477.290	17215
477.367	14317
477.445	14392
477.523	14334
477.601	14821
477.678	14728
477.756	20091
477.834	22750
477.911	14658
477.989	15101
478.066	14759
478.144	18398
478.222	24191
478.299	41796
478.377	39465
478.454	14478
478.532	13649
478.609	15635
478.687	18351
478.764	14534
478.842	15594
478.919	19141
478.997	18509
479.074	14343
479.152	18385
479.229	25265
479.307	15979
479.384	12346
479.461	12444
479.539	15385
479.616	18665
479.694	15666
479.771	17136
479.848	18842
479.926	25915
480.003	29449
480.080	15064
480.157	12725
480.235	13486
480.312	14734
480.389	17026
480.467	29699
480.544	38628
480.621	19454
480.698	16980
480.775	20795
480.853	19893
480.930	14902
481.007	15885
481.084	18487
481.161	19852
481.238	18822
481.315	14480
481.392	13284
481.470	15056
481.547	14917
481.624	14488
481.701	13591
481.778	15541
481.855	18168
481.932	27542
482.009	48608
482.086	36882
482.163	18901
482.240	28639
482.317	54352
482.393	44750
482.470	17823
482.547	18018
482.624	16412
482.701	17397
482.778	17676
482.855	13363
482.932	14853
483.009	13900
483.085	16674
483.162	22135
483.239	19713
483.316	17637
483.393	16017
483.469	15053
483.546	17718
483.623	20226
483.699	14787
483.776	15815
483.853	18345
483.930	28846
484.006	72096
484.083	132178
484.160	55920
484.236	65109
484.313	49792
484.389	40089
484.466	34628
484.543	34928
484.619	37480
484.696	37919
484.772	40103
484.849	42081
484.925	32889
485.002	30900
485.078	33704
485.155	36957
485.231	30145
485.308	29290
485.384	32408
485.461	42332
485.537	74249
485.614	97278
485.690	34529
485.766	30532
485.843	33948
485.919	52972
485.995	60902
486.072	29428
486.148	27019
486.224	27313
486.301	29553
486.377	36640
486.453	39389
486.530	32610
486.606	39270
486.682	45132
486.758	60165
486.835	80301
486.911	58821
486.987	102627
487.063	118355
487.139	157222
487.215	107071
487.292	44081
487.368	32181
487.444	39746
487.520	50156
487.596	52498
487.672	79394
487.748	205691
487.824	339705
487.900	134486
487.976	52309
488.052	45026
488.128	53086
488.204	44440
488.280	32736
488.356	41464
488.432	86171
488.508	152576
488.584	51599
488.660	31323
488.736	29722
488.812	32294
488.888	42756
488.964	62239
489.039	143685
489.115	240680
489.191	152593
489.267	34770
489.343	30988
489.418	25298
489.494	24741
489.570	24033
489.646	25234
489.722	24806
489.797	27302
489.873	44650
489.949	103406
490.024	97935
490.100	27117
490.176	26607
490.251	35049
490.327	51639
490.403	31896
490.478	23990
490.554	20975
490.629	21592
490.705	20801
490.781	25049
490.856	25408
490.932	30222
491.007	30716
491.083	29236
491.158	26087
491.234	35390
491.309	77118
491.385	92686
491.460	27363
491.536	27795
491.611	24038
491.686	27282
491.762	41157
491.837	90116
491.913	173944
491.988	221531
492.063	323749
492.139	83986
492.214	45114
492.289	21409
492.365	22805
492.440	26325
492.515	28024
492.590	25874
492.666	21497
492.741	29939
492.816	48661
492.891	27791
492.967	19470
493.042	18312
493.117	19193
493.192	17406
493.267	21230
493.342	28060
493.418	29238
493.493	19981
493.568	16996
493.643	18731
493.718	25661
493.793	44339
493.868	51905
493.943	32971
494.018	22817
494.093	19716
494.168	20107
494.243	17476
494.318	15846
494.393	16734
494.468	17737
494.543	17557
494.618	22445
494.693	22004
494.768	19660
494.842	20887
494.917	16384
494.992	18500
495.067	16930
495.142	16596
495.217	18758
495.292	18876
495.366	21900
495.441	27096
495.516	34442
495.591	61055
495.665	198092
495.740	521250
495.815	261350
495.890	35790
495.964	25816
496.039	24838
496.114	24541
496.188	26456
496.263	26775
496.338	25666
496.412	29169
496.487	35267
496.561	37094
496.636	42729
496.710	31613
496.785	34551
496.860	40816
496.934	33137
497.009	34672
497.083	34475
497.158	36350
497.232	42962
497.307	53340
497.381	47279
497.455	53681
497.530	69979
497.604	52576
497.679	54111
497.753	80365
497.827	113553
497.902	107777
497.976	118996
498.050	220263
498.125	683813
498.199	845176
498.273	181973
498.348	140388
498.422	116078
498.496	102077
498.570	94621
498.645	69111
498.719	64000
498.793	67389
498.867	89641
498.941	125783
499.016	278524
499.090	780635
499.164	338944
499.238	43931
499.312	37277
499.386	44862
499.460	41130
499.534	36568
499.609	41570
499.683	58398
499.757	60927
499.831	125848
499.905	468165
499.979	547465
500.053	77959
500.127	81210
500.201	64330
500.275	35457
500.349	31028
500.422	35316
500.496	56683
500.570	131897
500.644	280476
500.718	557310
500.792	142222
500.866	29631
500.940	37615
501.013	32124
501.087	29186
501.161	55765
501.235	83951
501.309	156354
501.382	431346
501.456	459414
501.530	93268
501.603	147186
501.677	66790
501.751	23505
501.825	30854
501.898	57940
501.972	171887
502.046	134822
502.119	33585
502.193	75231
502.266	196603
502.340	112203
502.413	77368
502.487	177053
502.561	111754
502.634	37918
502.708	27964
502.781	27550
502.855	21070
502.928	17054
503.002	17272
503.075	16153
503.149	17583
503.222	17226
503.295	18577
503.369	25021
503.442	40273
503.516	121954
503.589	351747
503.662	262000
503.736	69072
503.809	148876
503.882	150590
503.956	171440
504.029	200350
504.102	134732
504.175	183600
504.249	81250
504.322	40794
504.395	33616
504.468	22461
504.542	21558
504.615	17099
504.688	15193
504.761	16532
504.834	21400
504.907	27613
504.980	49684
505.053	25874
505.127	29459
505.200	33895
505.273	32091
505.346	21801
505.419	16975
505.492	13875
505.565	12440
505.638	12113
505.711	11620
505.784	13071
505.857	12004
505.930	12165
506.003	12756
506.076	14426
506.149	19486
506.221	28814
506.294	26228
506.367	67303
506.440	226863
506.513	156769
506.586	31836
506.659	20099
506.731	15922
506.804	20754
506.877	34749
506.950	22847
507.022	14644
507.095	20087
507.168	27849
507.241	17415
507.313	14341
507.386	18268
507.459	27167
507.531	19602
507.604	14013
507.677	13349
507.749	12413
507.822	18529
507.894	36374
507.967	40806
508.040	22357
508.112	18618
508.185	17691
508.257	18061
508.330	28049
508.402	19103
508.475	16624
508.547	19690
508.620	18474
508.692	32293
508.765	21042
508.837	13836
508.909	13440
508.982	14092
509.054	18312
509.127	16482
509.199	13051
509.271	13351
509.344	11593
509.416	13035
509.488	13293
509.560	14426
509.633	17104
509.705	21505
509.777	19025
509.849	27729
509.922	22267
509.994	14151
510.066	12451
510.138	15866
510.210	24517
510.283	24882
510.355	21084
510.427	17863
510.499	17309
510.571	18283
510.643	19240
510.715	30751
510.787	33659
510.859	18914
510.931	24063
511.003	32203
511.076	29678
511.148	16810
511.219	16975
511.291	27211
511.363	38865
511.435	16910
511.507	14680
511.579	14609
511.651	15836
511.723	14856
511.795	14660
511.867	15768
511.939	20654
512.010	45841
512.082	44653
512.154	19246
512.226	19035
512.298	23361
512.369	37672
512.441	29493
512.513	31066
512.585	25833
512.656	22544
512.728	27562
512.800	20484
512.871	18686
512.943	19247
513.015	17826
513.086	18693
513.158	22953
513.230	24650
513.301	37429
513.373	44901
513.444	25281
513.516	18096
513.588	18998
513.659	22653
513.731	29705
513.802	29078
513.874	51481
513.945	113284
514.016	45065
514.088	19017
514.159	23110
514.231	30577
514.302	38683
514.374	26171
514.445	26801
514.516	48343
514.588	46305
514.659	26619
514.730	49013
514.802	45650
514.873	41219
514.944	39550
515.016	32240
515.087	36047
515.158	39788
515.229	60044
515.301	45318
515.372	62516
515.443	46461
515.514	32899
515.585	25182
515.656	22690
515.728	20569
515.799	20474
515.870	21531
515.941	23083
516.012	22741
516.083	26766
516.154	31673
516.225	41558
516.296	41559
516.367	35539
516.438	39287
516.509	56863
516.580	102185
516.651	294236
516.722	1053797
516.793	653206
516.864	80286
516.935	66340
517.006	78288
517.077	132649
517.148	335827
517.219	1079735
517.289	2171165
517.360	572806
517.431	156428
517.502	44428
517.573	36446
517.643	34747
517.714	34955
517.785	35881
517.856	36776
517.926	41380
517.997	51164
518.068	70914
518.138	114355
518.209	235183
518.280	764437
518.350	2660899
518.421	1558991
518.492	164407
518.562	70873
518.633	62537
518.703	63864
518.774	97655
518.845	207505
518.915	226927
518.986	85486
519.056	58091
519.127	91833
519.197	144013
519.268	276004
519.338	212153
519.408	48586
519.479	57023
519.549	48758
519.620	28418
519.690	22390
519.760	21057
519.831	23296
519.901	24984
519.971	18361
520.042	20572
520.112	26937
520.182	29164
520.253	36964
520.323	25158
520.393	33535
520.463	58369
520.534	41142
520.604	80926
520.674	39949
520.744	35553
520.814	89224
520.885	96076
520.955	84658
521.025	289219
521.095	163724
521.165	21916
521.235	21038
521.305	20099
521.375	17849
521.445	20416
521.515	32023
521.585	34936
521.655	39080
521.725	26959
521.795	25395
521.865	18525
521.935	25576
522.005	27655
522.075	16351
522.145	17473
522.215	20969
522.285	33797
522.355	45177
522.424	83865
522.494	86816
522.564	46853
522.634	77365
522.704	230842
522.774	124888
522.843	22899
522.913	22480
522.983	30032
523.053	25319
523.122	23777
523.192	38183
523.262	119872
523.331	166154
523.401	30701
523.471	16746
523.540	17896
523.610	14871
523.680	13829
523.749	15205
523.819	19252
523.888	22721
523.958	15194
524.027	15774
524.097	18650
524.166	16663
524.236	20114
524.305	19274
524.375	16066
524.444	14619
524.514	15260
524.583	18011
524.653	23223
524.722	25322
524.791	19483
524.861	15298
524.930	15438
524.999	19097
525.069	26672
525.138	22099
525.207	25321
525.277	18326
525.346	18619
525.415	16855
525.484	18445
525.554	22701
525.623	23213
525.692	18006
525.761	20258
525.830	20759
525.900	25649
525.969	42286
526.038	78318
526.107	141874
526.176	411290
526.245	415317
526.314	136346
526.383	213434
526.452	355462
526.522	453943
526.591	614512
526.660	175720
526.729	86094
526.797	85841
526.867	194272
526.935	682467
527.004	1216427
527.073	843595
527.142	82112
527.211	32166
527.280	28917
527.349	33623
527.418	18685
527.487	17475
527.555	16253
527.624	14800
527.693	13774
527.762	14450
527.831	13836
527.899	14031
527.968	14897
528.037	16038
528.106	20972
528.174	39909
528.243	38395
528.312	42264
528.380	72626
528.449	26314
528.518	13812
528.586	10818
528.655	11095
528.723	11770
528.792	12138
528.861	14518
528.929	14347
528.998	11345
529.066	10268
529.135	11678
529.203	10905
529.272	11188
529.340	11704
529.409	12816
529.477	13349
529.545	17627
529.614	21097
529.682	21089
529.751	29273
529.819	24133
529.887	21487
529.956	14040
530.024	14056
530.092	12677
530.161	16275
530.229	31109
530.297	22134
530.365	11984
530.434	11335
530.502	10950
530.570	10746
530.638	10874
530.707	13600
530.775	14365
530.843	11996
530.911	11876
530.979	10439
531.047	12348
531.115	12889
531.183	11395
531.252	11250
531.320	12277
531.388	11916
531.456	12664
531.524	12135
531.592	12411
531.660	13725
531.728	13024
531.796	11957
531.864	11682
531.932	12704
532.000	12619
532.067	13698
532.135	14366
532.203	17136
532.271	21284
532.339	34954
532.407	100011
532.475	80604
532.542	25361
532.610	28789
532.678	50531
532.746	146422
532.814	458597
532.881	158069
532.949	21835
533.017	16018
533.084	13802
533.152	13633
533.220	14658
533.287	17736
533.355	13934
533.423	12192
533.490	12039
533.558	12700
533.625	13677
533.693	15103
533.761	14057
533.828	15784
533.896	17900
533.963	31560
534.031	48632
534.098	60210
534.166	37088
534.233	15025
534.300	15163
534.368	15178
534.435	15072
534.503	15119
534.570	19032
534.637	18212
534.705	19689
534.772	29988
534.840	56016
534.907	173218
534.974	312896
535.041	51308
535.109	24518
535.176	18174
535.243	14022
535.310	15563
535.378	17232
535.445	12651
535.512	13447
535.579	14058
535.646	13349
535.714	13523
535.781	16552
535.848	16356
535.915	15772
535.982	14956
536.049	15163
536.116	15482
536.183	16347
536.250	15870
536.317	19065
536.384	21487
536.451	33001
536.518	37798
536.585	27799
536.652	29868
536.719	44313
536.786	41259
536.853	28799
536.920	39331
536.987	71809
537.053	76908
537.120	189885
537.187	245886
537.254	28027
537.321	17313
537.388	17132
537.454	14866
537.521	14334
537.588	14238
537.654	15420
537.721	19923
537.788	19032
537.855	16362
537.921	16586
537.988	18065
538.055	16675
538.121	18371
538.188	22732
538.254	35232
538.321	70300
538.388	53402
538.454	21499
538.521	18041
538.587	16201
538.654	15523
538.720	15906
538.787	16062
538.853	16637
538.920	22349
538.986	24730
539.053	19600
539.119	19429
539.185	20639
539.252	22013
539.318	39048
539.385	31434
539.451	22955
539.517	23764
539.583	30537
539.650	57218
539.716	167865
539.782	72008
539.849	20624
539.915	20152
539.981	21513
540.047	26990
540.114	24462
540.180	21968
540.246	25355
540.312	35519
540.378	68817
540.444	83823
540.510	68069
540.576	181899
540.643	92093
540.709	20048
540.775	18205
540.841	19142
540.907	26198
540.973	43947
541.039	39151
541.105	44556
541.171	25357
541.237	20438
541.303	22316
541.369	25772
541.435	35837
541.500	61677
541.566	48486
541.632	21520
541.698	17071
541.764	17724
541.830	16543
541.896	16415
541.961	18108
542.027	19121
542.093	20068
542.159	20526
542.224	24700
542.290	35626
542.356	59212
542.421	77099
542.487	34939
542.553	21879
542.618	22162
542.684	20468
542.750	21246
542.815	28058
542.881	49685
542.947	142844
543.012	158758
543.078	22506
543.143	17412
543.209	19619
543.274	21999
543.340	27695
543.405	51450
543.471	111911
543.536	32661
543.602	18439
543.667	18401
543.732	16471
543.798	17298
543.863	17770
543.928	16497
543.994	15154
544.059	16011
544.124	16100
544.190	15999
544.255	17209
544.320	17639
544.386	21679
544.451	29340
544.516	39598
544.581	41068
544.646	83696
544.712	184311
544.777	46418
544.842	21393
544.907	24519
544.972	21182
545.037	19680
545.102	20814
545.168	22117
545.233	22543
545.298	24114
545.363	31422
545.428	38465
545.493	57813
545.558	133202
545.623	78803
545.688	24531
545.753	22069
545.818	20699
545.883	21899
545.947	22940
546.012	23797
546.077	27361
546.142	25209
546.207	26259
546.272	34977
546.337	39459
546.401	29788
546.466	26762
546.531	25193
546.596	27104
546.661	29689
546.725	26671
546.790	25379
546.855	26185
546.919	27857
546.984	29477
547.049	33406
547.113	38017
547.178	38211
547.243	40549
547.307	47654
547.372	54106
547.436	62134
547.501	51733
547.565	53489
547.630	58579
547.695	62658
547.759	59257
547.823	58243
547.888	48728
547.952	48236
548.017	50413
548.081	57487
548.146	66837
548.210	65443
548.274	54237
548.339	52688
548.403	48059
548.468	47097
548.532	45247
548.596	48176
548.660	48364
548.725	52173
548.789	62676
548.853	65331
548.917	55436
548.982	60771
549.046	67000
549.110	45343
549.174	44199
549.238	46970
549.303	51019
549.367	53485
549.431	51709
549.495	48699
549.559	49372
549.623	54150
549.687	64481
549.751	74515
549.815	73847
549.879	69872
549.943	64308
550.007	68069
550.071	70254
550.135	73006
550.199	68273
550.263	59443
550.327	60190
550.391	72143
550.455	69422
550.519	66977
550.582	72591
550.646	85906
550.710	97993
550.774	78710
550.838	77926
550.901	80888
550.965	87902
551.029	92521
551.093	106299
551.156	125377
551.220	171956
551.284	226163
551.347	145466
551.411	149350
551.475	194449
551.538	96820
551.602	79195
551.666	73589
551.729	70057
551.793	67576
551.856	68116
551.920	63213
551.983	65103
552.047	64332
552.110	64555
552.174	66057
552.237	66933
552.301	64859
552.364	60257
552.428	59911
552.491	62184
552.554	64941
552.618	66358
552.681	71994
552.745	78680
552.808	104244
552.871	152045
552.934	119030
552.998	79604
553.061	69580
553.124	64728
553.187	60539
553.251	62278
553.314	62232
553.377	61240
553.440	65896
553.503	68893
553.567	72750
553.630	65120
553.693	63636
553.756	65775
553.819	63148
553.882	61206
553.945	61566
554.008	61504
554.071	58846
554.134	62124
554.197	58356
554.260	56142
554.323	61126
554.386	61613
554.449	62861
554.512	61335
554.575	59887
554.638	61695
554.701	61808
554.764	58740
554.827	55390
554.889	54150
554.952	51390
555.015	49915
555.078	51367
555.141	52798
555.203	51054
555.266	51773
555.329	51251
555.391	51113
555.454	52368
555.517	53405
555.580	49434
555.642	45057
555.705	44936
555.768	45286
555.830	45345
555.893	41518
555.955	41800
556.018	41467
556.080	40839
556.143	42090
556.206	41989
556.268	43661
556.330	44922
556.393	44228
556.455	44329
556.518	51199
556.580	61235
556.643	41073
556.705	36987
556.767	36900
556.830	38275
556.892	40771
556.955	57783
557.017	56826
557.079	37641
557.142	37969
557.204	43448
557.266	69131
557.328	80692
557.391	37657
557.453	32673
557.515	33063
557.577	37638
557.639	43143
557.701	32792
557.764	30534
557.826	32122
557.888	35234
557.950	39499
558.012	45389
558.074	63858
558.136	107650
558.198	300872
558.260	183439
558.322	41797
558.384	39234
558.446	43980
558.508	52461
558.570	72694
558.632	115153
558.694	214025
558.756	261548
558.818	480908
558.880	1433538
558.942	781169
559.003	309859
559.065	234157
559.127	64011
559.189	63119
559.251	86599
559.312	139475
559.374	251882
559.436	791284
559.498	719606
559.559	95617
559.621	69068
559.683	89387
559.744	144767
559.806	321819
559.868	747751
559.929	226932
559.991	79806
560.052	108100
560.114	265587
560.176	287715
560.237	143444
560.299	318061
560.360	120172
560.422	31665
560.483	27993
560.545	25834
560.606	24015
560.667	23602
560.729	22478
560.790	23163
560.852	22714
560.913	23115
560.974	21167
561.036	22269
561.097	21317
561.158	22265
561.220	23043
561.281	23997
561.342	26032
561.403	30803
561.465	41738
561.526	72719
561.587	143271
561.648	53724
561.709	24672
561.771	22211
561.832	22179
561.893	22440
561.954	21113
562.015	20445
562.076	20725
562.137	20706
562.198	20317
562.259	21499
562.320	22103
562.381	24795
562.442	35413
562.503	36076
562.564	22147
562.625	21020
562.686	20930
562.747	23218
562.808	23634
562.869	19673
562.930	23167
562.991	22902
563.051	21186
563.112	20216
563.173	20292
563.234	19462
563.294	20445
563.355	20860
563.416	22812
563.477	20583
563.537	21439
563.598	22364
563.659	20724
563.720	22378
563.780	22419
563.841	23033
563.901	21459
563.962	19781
564.023	19823
564.083	20825
564.144	21647
564.204	21821
564.265	23694
564.325	27106
564.386	41848
564.446	56453
564.507	22561
564.567	21280
564.628	22074
564.688	21086
564.749	21707
564.809	24710
564.869	29600
564.930	25266
564.990	21518
565.050	20767
565.111	21246
565.171	20475
565.231	20704
565.292	20984
565.352	20805
565.412	21586
565.472	23123
565.532	26032
565.593	24876
565.653	21983
565.713	23760
565.773	26617
565.833	29358
565.893	40804
565.953	30164
566.013	26395
566.074	28416
566.134	32986
566.194	45763
566.254	60143
566.314	42661
566.374	30619
566.434	29683
566.494	30099
566.554	31604
566.614	33110
566.673	33779
566.733	36584
566.793	38412
566.853	40773
566.913	41059
566.973	40742
567.033	42361
567.092	43579
567.152	42680
567.212	43694
567.272	43104
567.331	46241
567.391	47467
567.451	51304
567.511	56025
567.570	62991
567.630	45740
567.690	41624
567.749	41803
567.809	44026
567.868	50218
567.928	57791
567.988	69391
568.047	85212
568.107	105359
568.166	141972
568.226	202944
568.285	290834
568.345	284851
568.404	231616
568.464	197817
568.523	181129
568.582	183544
568.642	208237
568.701	254500
568.761	331942
568.820	481707
568.879	541650
568.939	433335
568.998	335441
569.057	255229
569.116	202774
569.176	164117
569.235	132758
569.294	113340
569.353	97582
569.413	85337
569.472	75217
569.531	66853
569.590	59691
569.649	55668
569.708	51430
569.767	48552
569.827	48288
569.886	48023
569.945	38220
570.004	37064
570.063	36298
570.122	34969
570.181	36422
570.240	35270
570.299	37550
570.358	37312
570.417	31719
570.475	27315
570.534	27519
570.593	28785
570.652	28703
570.711	30314
570.770	27217
570.829	29100
570.887	28822
570.946	29870
571.005	26141
571.064	24388
571.122	25846
571.181	29500
571.240	25472
571.299	22577
571.357	21309
571.416	23854
571.475	24912
571.533	28869
571.592	22019
571.650	23433
571.709	22533
571.768	21168
571.826	21535
571.885	19971
571.943	18596
572.002	18072
572.060	20184
572.119	18074
572.177	16680
572.236	16490
572.294	17753
572.352	17223
572.411	16898
572.469	16472
572.528	16826
572.586	18408
572.644	19451
572.703	26183
572.761	22223
572.819	16427
572.877	15767
572.936	15372
572.994	15922
573.052	16374
573.110	17700
573.169	17603
573.227	16626
573.285	15862
573.343	14325
573.401	15813
573.459	15992
573.517	15019
573.576	15807
573.634	15272
573.692	17778
573.750	16990
573.808	16081
573.866	16437
573.924	20839
573.982	23292
574.040	18055
574.098	15861
574.155	15642
574.213	14256
574.271	13977
574.329	16400
574.387	15834
574.445	14804
574.503	13816
574.560	14027
574.618	13354
574.676	14016
574.734	13688
574.792	14175
574.849	13674
574.907	12779
574.965	12681
575.022	12792
575.080	13293
575.138	13846
575.195	14919
575.253	15206
575.311	17180
575.368	15539
575.426	13020
575.483	13036
575.541	12832
575.598	13131
575.656	14194
575.713	14974
575.771	14096
575.828	13722
575.886	13022
575.943	13651
576.001	13631
576.058	14194
576.115	16346
576.173	17948
576.230	20874
576.287	23753
576.345	21694
576.402	16294
576.459	15737
576.517	16056
576.574	16384
576.631	17167
576.688	17142
576.746	13937
576.803	14361
576.860	14252
576.917	13616
576.974	14061
577.031	15281
577.089	13821
577.146	14576
577.203	14872
577.260	15481
577.317	16471
577.374	17909
577.431	18316
577.488	15686
577.545	15306
577.602	13868
577.659	12671
577.716	13182
577.773	12961
577.830	13342
577.886	13803
577.943	13636
578.000	13592
578.057	14786
578.114	15049
578.171	13785
578.227	14263
578.284	13523
578.341	14110
578.398	16025
578.454	15972
578.511	17022
578.568	19474
578.625	18287
578.681	15614
578.738	13137
578.794	14068
578.851	13736
578.908	14544
578.964	15724
579.021	14888
579.077	14665
579.134	15514
579.190	14293
579.247	14113
579.303	15059
579.360	14768
579.416	14015
579.473	13266
579.529	13766
579.586	13910
579.642	14376
579.698	14492
579.755	15320
579.811	16342
579.867	14735
579.924	14795
579.980	14549
580.036	14434
580.093	14388
580.149	15660
580.205	15314
580.261	14739
580.317	16741
580.374	16281
580.430	18051
580.486	19913
580.542	16479
580.598	16972
580.619	17055
580.654	17222
580.692	16450
580.710	16100
580.765	16612
580.767	16650
580.823	16486
580.838	16250
580.879	15674
580.911	15772
580.935	15887
580.984	16098
580.991	16151
581.047	15422
581.057	15350
581.103	15116
581.130	15074
581.159	15048
581.203	16362
581.215	16739
581.270	15743
581.276	15706
581.326	15536
581.349	15453
581.382	15350
581.422	16158
581.438	16514
581.494	16944
581.494	16923
581.550	16367
581.567	16372
581.606	16432
581.640	16268
581.661	16175
581.713	16394
581.717	16429
581.773	14406
581.786	14593
581.829	15249
581.859	15571
581.885	15844
581.932	15283
581.940	15205
581.996	15920
582.004	15890
582.052	15690
582.077	15489
582.107	15341
582.150	15961
582.163	16158
582.219	16258
582.223	16271
582.274	16405
582.296	16450
582.330	16660
582.368	17478
582.386	17842
582.441	16755
582.441	16760
582.497	15443
582.514	15342
582.552	15238
582.587	15484
582.608	15635
582.659	16021
582.663	16064
582.719	16683
582.732	16515
582.774	15959
582.805	16019
582.830	16099
582.877	16249
582.885	16251
582.941	16725
582.950	16672
582.996	16630
583.023	17043
583.052	17414
583.095	17236
583.107	17157
583.162	17195
583.168	17202
583.218	17634
583.240	17496
583.273	17213
583.313	17136
583.328	17055
583.384	16812
583.385	16804
583.439	16668
583.458	16695
583.494	16908
583.531	16729
583.549	16507
583.603	16681
583.605	16692
583.660	17152
583.676	17336
583.715	17714
583.748	17807
583.770	17910
583.820	18083
583.825	18078
583.881	17597
583.893	17743
583.936	18365
583.965	18090
583.991	17776
584.038	17482
584.046	17471
584.101	18572
584.110	18528
584.156	17923
584.183	17991
584.211	18174
584.255	18126
584.266	18160
584.321	18405
584.328	18560
584.376	19147
584.400	18946
584.431	19037
584.472	19234
584.486	19178
584.541	19489
584.545	19470
584.596	19114
584.617	19225
584.651	19531
584.689	19658
584.706	19635
584.761	20704
584.762	20714
584.816	20782
584.834	20988
584.871	21106
584.906	21102
584.926	21300
584.978	22041
584.980	22035
585.035	22469
585.051	22695
585.090	23452
585.123	23795
585.145	24119
585.195	24441
585.200	24431
585.254	26305
585.267	26727
585.309	28311
585.340	30015
585.364	31379
585.412	35618
585.419	36214
585.473	43331
585.484	45601
585.528	55167
585.556	63866
585.583	72705
585.628	90532
585.637	95580
585.692	153360
585.700	176305
585.747	326210
585.772	321997
585.801	285395
585.845	166836
585.856	130322
585.910	56027
585.917	49873
585.965	40294
585.989	36962
586.019	35153
586.061	33073
586.074	32548
586.128	32511
586.133	32588
586.183	33403
586.205	33816
586.237	34478
586.277	34209
586.292	34000
586.346	34255
586.349	34334
586.401	35104
586.421	35639
586.455	36145
586.493	37121
586.509	37816
586.564	41316
586.565	41587
586.618	53173
586.637	56811
586.672	63851
586.709	57045
586.727	50332
586.781	43566
586.781	43505
586.835	42877
586.853	42457
586.889	41447
586.925	41179
586.944	41188
586.996	42205
586.998	42181
587.052	43394
587.068	44016
587.106	45142
587.140	46329
587.161	47030
587.212	48683
587.215	48674
587.269	50030
587.284	50621
587.323	52198
587.356	53926
587.377	54948
587.427	57571
587.431	57644
587.485	60115
587.499	60768
587.539	62550
587.571	64486
587.593	65618
587.643	69423
587.648	69755
587.702	75261
587.715	76566
587.755	79967
587.786	83321
587.810	85641
587.858	91220
587.864	91664
587.917	97989
587.930	99889
587.971	106790
588.001	112941
588.025	117921
588.073	128268
588.079	129354
588.133	142766
588.145	146282
588.187	158566
588.217	169305
588.241	178862
588.288	201296
588.295	204248
588.348	235451
588.360	243699
588.402	272853
588.431	297213
588.456	319158
588.503	371781
588.510	379072
588.564	455411
588.575	476149
588.617	555204
588.646	620317
588.671	681844
588.718	822375
588.725	844880
588.778	1062500
588.789	1115914
588.832	1377263
588.861	1559154
588.886	1775781
588.932	2066328
588.939	2098669
588.993	2170225
589.004	2245596
589.047	2251966
589.075	2262313
589.100	2170072
589.147	1810634
589.154	1749643
589.207	1277108
589.218	1192869
589.261	1024512
589.290	939552
589.314	913457
589.361	906345
589.368	912201
589.421	1022690
589.433	1058918
589.475	1293833
589.504	1459843
589.528	1681013
589.576	1953372
589.582	1955031
589.635	2060335
589.647	2090190
589.689	1821858
589.718	1545696
589.742	1296416
589.790	818508
589.795	786762
589.849	545992
589.861	497460
589.902	408427
589.932	352464
589.955	322338
590.004	265812
590.009	260211
590.062	214410
590.075	205107
590.115	183407
590.146	168723
590.168	159992
590.218	143632
590.222	141940
590.275	127182
590.289	124037
590.328	115375
590.360	109128
590.381	104572
590.431	95655
590.435	94865
590.488	87848
590.503	86210
590.541	81386
590.574	77994
590.594	76112
590.645	72515
590.647	72064
590.700	66794
590.716	65483
590.753	63166
590.787	61442
590.806	60185
590.859	57999
590.859	57741
590.912	53921
590.930	52944
590.965	51153
591.001	49973
591.018	49328
591.071	47841
591.072	47997
591.124	45999
591.143	45526
591.177	44652
591.214	44198
591.230	43657
591.283	42365
591.285	42462
591.336	41948
591.356	42018
591.389	41460
591.427	40878
591.442	40369
591.495	39217
591.498	39253
591.547	36906
591.569	36062
591.600	35300
591.640	34601
591.653	34429
591.706	34250
591.711	34340
591.759	33338
591.782	33139
591.811	33201
591.853	33647
591.864	33579
591.917	33448
591.924	33546
591.969	31315
591.995	30269
592.022	30230
592.066	30492
592.075	30293
592.127	29727
592.137	29766
592.180	30816
592.208	31672
592.233	31848
592.279	32202
592.285	31711
592.338	28558
592.350	27957
592.390	27100
592.421	26608
592.443	26493
592.491	26603
592.495	26423
592.548	25305
592.562	25103
592.600	25377
592.633	25796
592.653	25394
592.704	24466
592.705	24602
592.775	24606
592.846	25103
592.916	25485
592.987	25290
593.058	27566
593.128	24006
593.199	23793
593.270	23036
593.341	23289
593.411	23271
593.482	23325
593.553	23610
593.623	23119
593.694	22101
593.764	23102
593.835	24521
593.906	22305
593.976	22374
594.047	23083
594.117	23343
594.188	26110
594.258	24704
594.329	22072
594.399	21837
594.470	22513
594.540	22146
594.611	22279
594.681	22871
594.751	22307
594.822	23026
594.892	24559
594.963	25626
595.033	24761
595.103	24641
595.174	25728
595.244	26418
595.314	33384
595.384	35036
595.455	25650
595.525	26002
595.595	25596
595.665	25752
595.736	25954
595.806	25091
595.876	25925
595.946	25431
596.016	24789
596.087	26398
596.157	26222
596.227	26586
596.297	26709
596.367	28013
596.437	29708
596.507	30499
596.577	35809
596.647	38278
596.717	30254
596.787	30059
596.857	29787
596.927	30542
596.997	30888
597.067	31100
597.137	31306
597.207	31612
597.277	31310
597.347	30841
597.417	29685
597.487	28943
597.557	29684
597.626	31137
597.696	31887
597.766	32747
597.836	35293
597.906	38311
597.975	30038
598.045	27922
598.115	28644
598.185	28866
598.254	30969
598.324	33386
598.394	36999
598.464	37182
598.533	35421
598.603	34013
598.672	32032
598.742	30644
598.812	31444
598.881	32043
598.951	32957
599.020	32101
599.090	32599
599.159	32382
599.229	33740
599.299	32427
599.368	30772
599.437	32402
599.507	31497
599.576	30595
599.646	29323
599.715	29212
599.785	28773
599.854	28520
599.924	29185
599.993	29689
600.062	29373
600.132	28524
600.201	28914
600.270	30109
600.340	34897
600.409	34697
600.478	33585
600.547	33283
600.617	34072
600.686	30787
600.755	26353
600.824	26096
600.894	25094
600.963	23722
601.032	23046
601.101	22791
601.170	21761
601.239	21973
601.308	22416
601.378	22171
601.447	21723
601.516	21236
601.585	22021
601.654	22519
601.723	25297
601.792	22340
601.861	22887
601.930	22859
601.999	25046
602.068	25742
602.137	24637
602.206	26918
602.275	24918
602.343	25750
602.412	27947
602.481	27617
602.550	24750
602.619	24149
602.688	24813
602.756	25057
602.825	24969
602.894	25492
602.963	25712
603.032	25678
603.100	25122
603.169	25932
603.238	26159
603.307	26171
603.375	26112
603.444	26184
603.513	26732
603.581	26771
603.650	27258
603.719	27414
603.787	27178
603.856	27951
603.924	29125
603.993	29833
604.061	29990
604.130	30036
604.198	32102
604.267	32573
604.335	33118
604.404	32655
604.472	32985
604.541	34047
604.609	33508
604.678	33240
604.746	33381
604.815	33183
604.883	34980
604.951	35771
605.020	34833
605.088	36393
605.156	36742
605.225	37714
605.293	37105
605.361	36901
605.429	37635
605.498	39145
605.566	39233
605.634	40137
605.702	41867
605.771	42583
605.839	43400
605.907	43227
605.975	41976
606.043	40683
606.111	40467
606.180	40125
606.248	40754
606.316	39889
606.384	39616
606.452	41616
606.520	42802
606.588	46967
606.656	42949
606.724	40659
606.792	40104
606.860	37391
606.928	34899
606.996	31932
607.064	30568
607.132	31456
607.200	31654
607.267	33594
607.335	34117
607.403	34446
607.471	34827
607.539	33783
607.607	32618
607.674	32991
607.742	30445
607.810	31212
607.878	32205
607.946	30768
608.013	30957
608.081	32331
608.149	33903
608.216	32661
608.284	34139
608.352	35108
608.419	34512
608.487	35486
608.555	37611
608.622	34017
608.690	34476
608.757	36216
608.825	39713
608.893	40786
608.960	39209
609.028	40022
609.095	40116
609.163	40344
609.230	35356
609.298	32228
609.365	30976
609.432	31367
609.500	34129
609.567	37408
609.635	41705
609.702	47040
609.769	48390
609.837	46555
609.904	39433
609.971	37289
610.039	43399
610.106	52477
610.173	71664
610.241	131709
610.308	294200
610.375	173072
610.442	78469
610.509	40871
610.577	36144
610.644	35117
610.711	34572
610.778	35120
610.845	35866
610.912	36731
610.980	38885
611.047	39876
611.114	40348
611.181	39529
611.248	39294
611.315	37274
611.382	39495
611.449	41613
611.516	42732
611.583	42604
611.650	43363
611.717	44246
611.784	45291
611.851	49788
611.918	56526
611.984	68349
612.051	87542
612.118	127230
612.185	244439
612.252	596604
612.319	287017
612.386	75603
612.452	59855
612.519	54512
612.586	51233
612.653	53678
612.719	49676
612.786	50382
612.853	47498
612.919	43303
612.986	43778
613.053	43297
613.120	40422
613.186	37626
613.253	37603
613.319	37093
613.386	37866
613.453	39012
613.519	39590
613.586	41386
613.652	44186
613.719	49334
613.785	44977
613.852	43880
613.918	38911
613.985	39023
614.051	38448
614.118	39515
614.184	41636
614.250	38943
614.317	38532
614.383	38611
614.449	38704
614.516	39123
614.582	39063
614.648	40114
614.715	38276
614.781	37957
614.847	38374
614.914	38243
614.980	39179
615.046	38222
615.112	37194
615.179	38742
615.245	40733
615.311	43676
615.377	48091
615.443	65984
615.509	66494
615.575	49544
615.642	46603
615.708	47369
615.774	49947
615.840	56395
615.906	67009
615.972	87043
616.038	123794
616.104	212122
616.170	347611
616.236	760344
616.302	533084
616.368	115843
616.434	83100
616.500	61714
616.565	56197
616.631	62049
616.697	77195
616.763	64336
616.829	68057
616.895	99473
616.961	171342
617.026	151449
617.092	62683
617.158	44513
617.224	40041
617.289	39570
617.355	36856
617.421	35644
617.487	35069
617.552	34803
617.618	33314
617.684	31592
617.749	33548
617.815	32122
617.880	31616
617.946	31382
618.012	31498
618.077	31525
618.143	31413
618.208	30171
618.274	31032
618.339	32416
618.405	32106
618.470	29124
618.536	27720
618.601	29329
618.667	29142
618.732	26421
618.798	25059
618.863	25011
618.928	25039
618.994	24711
619.059	27272
619.124	28613
619.190	34239
619.255	27526
619.320	25402
619.386	25768
619.451	25648
619.516	24457
619.581	24003
619.647	24143
619.712	25639
619.777	23577
619.842	23645
619.907	24548
619.972	24528
620.038	26121
620.103	25638
620.168	23777
620.233	24240
620.298	23447
620.363	23224
620.428	24166
620.493	25489
620.558	24854
620.623	25632
620.688	24680
620.753	25795
620.818	24837
620.883	26204
620.948	25411
621.013	25863
621.078	25667
621.143	25984
621.207	26730
621.272	26516
621.337	26445
621.402	27123
621.467	28138
621.532	29312
621.596	29735
621.661	26687
621.726	25269
621.791	25131
621.855	24862
621.920	26252
621.985	27472
622.049	27460
622.114	27999
622.179	28287
622.243	27813
622.308	27596
622.373	27610
622.437	27030
622.502	26961
622.566	26161
622.631	27039
622.695	26893
622.760	26801
622.824	26399
622.889	27280
622.953	27687
623.018	29506
623.082	37007
623.147	34885
623.211	27744
623.276	26497
623.340	27271
623.404	25689
623.469	24466
623.533	24505
623.597	24519
623.662	24923
623.726	24101
623.790	22301
623.854	22011
623.919	22077
623.983	22317
624.047	22735
624.111	23114
624.176	22646
624.240	22598
624.304	25357
624.368	26124
624.432	23415
624.496	23283
624.560	23754
624.625	26664
624.689	27724
624.753	24064
624.817	25131
624.881	23341
624.945	23180
625.009	22020
625.073	21023
625.137	22158
625.201	24298
625.265	27712
625.329	26592
625.393	22758
625.456	24108
625.520	24051
625.584	26481
625.648	26723
625.712	30357
625.776	36956
625.839	61305
625.903	65636
625.967	34196
626.031	23975
626.095	29333
626.158	42288
626.222	24661
626.286	18257
626.349	16462
626.413	16051
626.477	15158
626.540	16112
626.604	16258
626.668	15779
626.731	15364
626.795	14652
626.858	14896
626.922	15549
626.986	15247
627.049	14339
627.113	15552
627.176	14887
627.240	15044
627.303	14597
627.366	14804
627.430	13348
627.493	14237
627.557	14574
627.620	14282
627.684	15432
627.747	14804
627.810	14536
627.874	14633
627.937	13434
628.000	13313
628.064	13089
628.127	11792
628.190	12006
628.253	11843
628.317	11615
628.380	11583
628.443	11039
628.506	11227
628.569	11744
628.632	11133
628.696	10245
628.759	9335
628.822	9792
628.885	9026
628.948	9340
629.011	9524
629.074	9707
629.137	9680
629.200	9094
629.263	9065
629.326	9372
629.389	9001
629.452	9070
629.515	9440
629.578	9165
629.641	8664
629.704	9805
629.767	9577
629.830	9188
629.892	8578
629.955	8989
630.018	8344
630.081	8924
630.144	10131
630.207	12687
630.269	10499
630.332	9309
630.395	9980
630.458	9615
630.520	7946
630.583	8644
630.646	7932
630.708	8046
630.771	7635
630.834	7889
630.896	8018
630.959	7994
631.021	8234
631.084	8209
631.146	8508
631.209	8518
631.272	9491
631.334	8552
631.397	8134
631.459	7760
631.522	8250
631.584	9603
631.646	9189
631.709	9504
631.771	10213
631.834	12098
631.896	10575
631.958	9666
632.021	7201
632.083	8320
632.145	7855
632.208	8059
632.270	7848
632.332	8315
632.395	7277
632.457	7373
632.519	6708
632.581	7980
632.643	7614
632.706	7082
632.768	6860
632.830	7539
632.892	7438
632.954	7213
633.016	7613
633.078	7596
633.141	7404
633.203	7315
633.265	7061
633.327	7033
633.389	7507
633.451	6603
633.513	7705
633.575	9348
633.637	9398
633.698	8950
633.760	9278
633.822	7789
633.884	7905
633.946	8591
634.008	7789
634.070	8166
634.132	7746
634.193	9369
634.255	9550
634.317	10365
634.379	10920
634.441	10158
634.502	8767
634.564	9770
634.626	8219
634.687	7197
634.749	8444
634.811	6960
634.873	6644
634.934	7161
634.996	6883
635.057	5841
635.119	7138
635.181	6869
635.242	6323
635.304	6765
635.365	8028
635.427	6827
635.488	7417
635.550	7266
635.611	7390
635.673	6761
635.734	7551
635.796	8034
635.857	8834
635.918	9366
635.980	9197
636.041	9630
636.102	11030
636.164	11779
636.225	12111
636.286	10599
636.348	9759
636.409	8591
636.470	7785
636.531	7286
636.593	7516
636.654	7923
636.715	7315
636.776	5732
636.838	5758
636.899	5908
636.960	6033
637.021	5232
637.082	5853
637.143	5982
637.204	6307
637.265	5735
637.326	5593
637.387	5996
637.448	6128
637.509	5472
637.570	5701
637.631	5349
637.692	4666
637.753	5184
637.814	5200
637.875	4965
637.936	5215
637.997	5026
638.058	5353
638.119	5472
638.179	5161
638.240	4941
638.301	5587
638.362	4568
638.423	4425
638.483	4857
638.544	4877
638.605	4934
638.666	4677
638.726	5095
638.787	4779
638.848	5227
638.908	4995
638.969	4603
639.030	4364
639.090	4991
639.151	4763
639.211	4685
639.272	5837
639.332	6336
639.393	11086
639.453	7555
639.514	5493
639.574	5430
639.635	4929
639.695	4763
639.756	4794
639.816	5208
639.877	5341
639.937	6105
639.997	8958
640.058	14300
640.118	5901
640.178	4742
640.239	4566
640.299	4386
640.359	4907
640.420	4858
640.480	4548
640.540	4635
640.600	6138
640.661	6151
640.721	4885
640.781	5594
640.841	7613
640.901	5402
640.961	5674
641.021	5606
641.082	5136
641.142	6495
641.202	8708
641.262	5687
641.322	4590
641.382	3725
641.442	4232
641.502	4050
641.562	4346
641.622	4417
641.682	4613
641.742	3636
641.802	4924
641.861	5398
641.921	4582
641.981	4887
642.041	5448
642.101	5536
642.161	5698
642.221	4941
642.280	3930
642.340	4039
642.400	3568
642.460	3955
642.519	4208
642.579	3749
642.639	3927
642.698	3471
642.758	5129
642.818	3434
642.877	4149
642.937	4911
642.997	4623
643.056	4984
643.116	7487
643.175	6107
643.235	4054
643.294	5137
643.354	5602
643.414	6124
643.473	8243
643.532	10707
643.592	16136
643.651	23587
643.711	35891
643.770	55373
643.830	89903
643.889	176385
643.948	441716
644.008	168809
644.067	22058
644.126	12315
644.186	8838
644.245	7836
644.304	6069
644.363	5829
644.423	5292
644.482	5374
644.541	5560
644.600	5378
644.659	6829
644.719	8596
644.778	11538
644.837	14731
644.896	21610
644.955	38320
645.014	92262
645.073	52535
645.132	8986
645.191	6102
645.250	5577
645.309	4736
645.368	5395
645.427	6209
645.486	7019
645.545	10612
645.604	19520
645.663	10111
645.722	5934
645.781	6345
645.840	7733
645.898	9874
645.957	14281
646.016	21022
646.075	31656
646.134	48440
646.192	77908
646.251	169708
646.310	337601
646.369	84069
646.427	14902
646.486	10138
646.545	7220
646.603	5786
646.662	5051
646.721	4890
646.779	5261
646.838	5257
646.896	5811
646.955	7752
647.014	9362
647.072	12849
647.131	21146
647.189	53862
647.248	45454
647.306	8305
647.365	4604
647.423	3371
647.481	4012
647.540	2670
647.598	4209
647.657	2733
647.715	2634
647.773	2853
647.832	3023
647.890	3056
647.948	2903
648.007	3312
648.065	3207
648.123	2690
648.181	3395
648.240	3473
648.298	3243
648.356	2364
648.414	2470
648.472	3176
648.531	3487
648.589	2385
648.647	3138
648.705	2361
648.763	3001
648.821	2692
648.879	3510
648.937	4561
648.995	5430
649.053	7708
649.111	11082
649.169	16730
649.227	22332
649.285	32985
649.343	58951
649.401	155645
649.459	137403
649.516	26260
649.574	15563
649.632	7595
649.690	7043
649.748	7373
649.806	7471
649.863	9907
649.921	15126
649.979	34874
650.037	42212
650.094	7938
650.152	3667
650.210	3582
650.268	2780
650.325	3154
650.383	2493
650.440	2370
650.498	2748
650.556	2107
650.613	1889
650.671	2449
650.728	1970
650.786	2181
650.843	2222
650.901	2990
650.958	3515
651.016	2170
651.073	2084
651.131	2272
651.188	2055
651.246	1593
651.303	2039
651.360	2004
651.418	1561
651.475	2402
651.532	2248
651.590	2015
651.647	1665
651.704	2436
651.762	2774
651.819	1826
651.876	2061
651.933	1927
651.990	2135
652.048	2278
652.105	1941
652.162	2046
652.219	2012
652.276	1998
652.333	1406
652.390	1609
652.448	2793
652.505	2437
652.562	1759
652.619	1881
652.676	1630
652.733	2203
652.790	2190
652.847	946
652.904	1883
652.961	838
653.017	1479
653.074	989
653.131	2053
653.188	1143
653.245	1167
653.302	1397
653.359	1544
653.415	2439
653.472	1398
653.529	1717
653.586	1332
653.642	1353
653.699	1767
653.756	1613
653.813	1406
653.869	1990
653.926	2055
653.983	1350
654.039	1865
654.096	940
654.152	1556
654.209	1842
654.266	2141
654.322	1436
654.379	2385
654.435	1436
654.492	1860
654.548	2494
654.605	3143
654.661	5920
654.717	3801
654.774	2473
654.830	2115
654.887	1773
654.943	1918
655.000	2239
655.056	1673
655.112	1597
655.168	1708
655.225	2058
655.281	2221
655.337	2691
655.394	3686
655.450	4467
655.506	4293
655.562	3138
655.618	4169
655.675	5323
655.731	2484
655.787	2297
655.843	1801
655.899	2028
655.955	2191
656.011	2546
656.067	2165
656.123	2128
656.179	2589
656.235	3272
656.291	3962
656.347	3545
656.403	4263
656.459	2313
656.515	2822
656.571	2365
656.627	3012
656.683	1936
656.739	2446
656.795	2244
656.850	2094
656.906	1912
656.962	3038
657.018	2214
657.074	2230
657.129	1694
657.185	2928
657.241	2999
657.297	4289
657.352	5241
657.408	2217
657.464	2981
657.519	1942
657.575	1846
657.630	1793
657.686	1601
657.742	1475
657.797	1326
657.853	1007
657.908	2272
657.964	967
658.019	1676
658.075	1826
658.130	980
658.186	1084
658.241	1604
658.297	1164
658.352	1518
658.407	1766
658.463	1425
658.518	1099
658.573	1445
658.629	2048
658.684	1568
658.739	1459
658.795	1583
658.850	1224
658.905	911
658.960	1697
659.016	929
659.071	1102
659.126	1885
659.181	1005
659.236	2251
659.291	3202
659.346	3929
659.401	2676
659.457	1962
659.512	1494
659.567	1986
659.622	1280
659.677	1313
659.732	1821
659.787	1455
659.842	1295
659.897	1727
659.952	2490
660.007	1591
660.061	1332
660.116	1812
660.171	1064
660.226	1693
660.281	1519
660.336	1262
660.391	1526
660.445	1335
660.500	1871
660.555	1126
660.610	1423
660.664	1324
660.719	1089
660.774	1466
660.828	978
660.883	2111
660.938	1457
660.992	2107
661.047	2006
661.101	1224
661.156	1511
661.211	1504
661.265	881
661.320	1758
661.374	1309
661.429	1455
661.483	1995
661.538	2212
661.592	1205
661.647	1054
661.701	1607
661.755	1082
661.810	2032
661.864	595
661.919	1665
661.973	949
662.027	1316
662.081	850
662.136	1745
662.190	1527
662.244	1167
662.299	1635
662.353	2234
662.407	1456
662.461	965
662.515	1827
662.569	1161
662.624	1238
662.678	1751
662.732	2021
662.786	1070
662.840	1351
662.894	1533
662.948	837
663.002	1590
663.056	1046
663.110	903
663.164	675
663.218	1913
663.272	1083
663.326	1924
663.380	1055
663.434	2231
663.488	994
663.542	1339
663.595	1855
663.649	1356
663.703	2141
663.757	1421
663.811	1211
663.864	1448
663.918	1448
663.972	988
664.026	1702
664.079	1768
664.133	1667
664.187	1805
664.240	1435
664.294	1416
664.348	1323
664.401	1531
664.455	1910
664.508	795
664.562	1732
664.615	1474
664.669	768
664.722	1726
664.776	968
664.829	1492
664.883	1554
664.936	1170
664.990	1431
665.043	2093
665.097	1167
665.150	1203
665.203	2390
665.257	1898
665.310	1623
665.363	1979
665.417	1367
665.470	1399
665.523	1500
665.576	1456
665.630	1426
665.683	1336
665.736	1503
665.789	1744
665.842	1505
665.895	1488
665.949	1210
666.002	1842
666.055	1836
666.108	1680
666.161	2475
666.214	2429
666.267	1893
666.320	2472
666.373	2459
666.426	2187
666.479	1706
666.532	2689
666.585	1941
666.638	3080
666.691	2317
666.744	3475
666.796	2589
666.849	1984
666.902	2855
666.955	1866
667.008	2341
667.060	1847
667.113	1776
667.166	1839
667.219	1348
667.271	1232
667.324	1791
667.377	2199
667.430	1769
667.482	1799
667.535	2326
667.587	1810
667.640	2750
667.693	2566
667.745	3020
667.798	3946
667.850	5606
667.903	3494
667.955	2237
668.008	1933
668.060	2208
668.113	2207
668.165	2101
668.218	1700
668.270	2602
668.322	2112
668.375	2065
668.427	2674
668.479	1614
668.532	2301
668.584	2105
668.636	1824
668.689	2601
668.741	1689
668.793	1989
668.845	2650
668.898	2362
668.950	1722
669.002	2412
669.054	1836
669.106	1309
669.158	2433
669.211	2800
669.263	2966
669.315	1484
669.367	1914
669.419	2141
669.471	3247
669.523	2877
669.575	2904
669.627	3236
669.679	4162
669.731	2949
669.783	2792
669.835	2352
669.886	2704
669.938	3317
669.990	3213
670.042	1891
670.094	3351
670.146	3152
670.197	3614
670.249	4519
670.301	6221
670.353	8086
670.404	12115
670.456	17053
670.508	24614
670.560	35461
670.611	52931
670.663	76659
670.715	119977
670.766	222573
670.818	527195
670.869	405511
670.921	82712
670.972	22592
671.024	14351
671.075	10829
671.127	7655
671.178	6027
671.230	5518
671.281	5307
671.333	5381
671.384	4910
671.436	4803
671.487	5794
671.538	6456
671.590	7462
671.641	8436
671.692	11350
671.744	15198
671.795	29505
671.846	39204
671.897	19074
671.949	7204
672.000	4530
672.051	4035
672.102	3255
672.153	3482
672.204	2975
672.256	2169
672.307	3022
672.358	2261
672.409	2400
672.460	2930
672.511	2164
672.562	2162
672.613	2325
672.664	2498
672.715	2515
672.766	2006
672.817	1608
672.868	2118
672.919	1865
672.970	1720
673.021	1656
673.071	1871
673.122	1652
673.173	1457
673.224	2275
673.275	1860
673.326	1704
673.376	2086
673.427	1850
673.478	2604
673.528	2571
673.579	1924
673.630	1853
673.680	2376
673.731	1601
673.782	1340
673.832	1565
673.883	2193
673.934	2070
673.984	2311
674.035	1635
674.085	1664
674.136	2046
674.186	1460
674.237	1702
674.287	2275
674.338	3188
674.388	4016
674.438	1585
674.489	1631
674.539	2126
674.589	1458
674.640	3033
674.690	2398
674.740	1573
674.791	2085
674.841	2007
674.891	2637
674.942	2383
674.992	1494
675.042	834
675.092	1850
675.142	2136
675.193	1118
675.243	1329
675.293	1703
675.343	1508
675.393	1389
675.443	2450
675.493	1316
675.543	1884
675.593	1361
675.643	1150
675.693	1605
675.743	2296
675.793	2190
675.843	1659
675.893	1848
675.943	1971
675.993	1582
676.043	1032
676.093	1753
676.142	1711
676.192	561
676.242	856
676.292	1658
676.341	1767
676.391	1051
676.441	2052
676.491	1694
676.540	1595
676.590	818
676.640	1253
676.689	1199
676.739	1574
676.789	1345
676.838	1447
676.888	880
676.937	1098
676.987	1402
677.037	1511
677.086	1169
677.136	1140
677.185	1010
677.235	1123
677.284	939
677.333	855
677.383	937
677.432	878
677.482	1435
677.531	988
677.580	991
677.630	1068
677.679	854
677.728	1093
677.778	650
677.827	1710
677.876	1280
677.925	152
677.975	1108
678.024	843
678.073	911
678.122	1745
678.171	679
678.220	1644
678.269	1343
678.319	1676
678.368	2043
678.417	1323
678.466	1864
678.515	2003
678.564	1840
678.613	2145
678.662	1821
678.711	931
678.760	780
678.809	996
678.857	1418
678.906	1114
678.955	1701
679.004	1710
679.053	1156
679.102	1815
679.151	943
679.199	2061
679.248	1848
679.297	1237
679.346	1228
679.394	1631
679.443	1827
679.492	836
679.540	778
679.589	892
679.638	853
679.686	959
679.735	1226
679.784	1061
679.832	1331
679.881	1631
679.929	1675
679.978	834
680.026	1071
680.075	902
680.123	1242
680.172	1158
680.220	1583
680.268	489
680.317	989
680.365	1772
680.414	669
680.462	923
680.510	1094
680.559	1444
680.607	151
680.655	767
680.703	995
680.752	1167
680.800	1686
680.848	748
680.896	924
680.945	1195
680.993	670
681.041	1621
681.089	594
681.137	375
681.185	670
681.233	283
681.258	568
681.281	830
681.329	1238
681.377	1216
681.380	1215
681.425	1089
681.473	839
681.502	448
681.521	160
681.569	1041
681.617	637
681.624	662
681.665	768
681.713	1331
681.745	1116
681.761	1011
681.809	1007
681.857	231
681.867	437
681.904	1101
681.952	779
681.989	1161
682.000	1273
682.048	767
682.096	975
682.111	850
682.143	555
682.191	1315
682.233	924
682.239	860
682.286	984
682.334	1432
682.354	1207
682.382	884
682.430	994
682.476	981
682.477	975
682.525	1693
682.572	1389
682.598	1259
682.620	1162
682.667	1140
682.715	1117
682.720	1135
682.763	1195
682.810	1787
682.841	1544
682.857	1416
682.905	1459
682.952	1978
682.963	1865
683.000	1438
683.047	877
683.085	1287
683.095	1394
683.142	1303
683.190	688
683.206	951
683.237	1399
683.284	1312
683.328	835
683.332	788
683.379	1431
683.426	923
683.449	1111
683.473	1305
683.521	1873
683.568	1505
683.571	1503
683.615	1448
683.662	1033
683.693	1064
683.709	1033
683.757	1410
683.804	1085
683.814	1096
683.851	1217
683.898	970
683.936	865
683.945	817
683.992	1431
684.039	1320
684.057	1526
684.086	1857
684.133	1325
684.179	1573
684.180	1578
684.227	1068
684.274	1861
684.300	1770
684.321	1690
684.368	1642
684.415	1394
684.422	1410
684.462	1453
684.509	1218
684.543	1382
684.556	1427
684.603	1270
684.649	1498
684.665	1448
684.696	1371
684.743	1585
684.786	1528
684.790	1515
684.837	1340
684.883	1715
684.908	1508
684.930	1338
684.977	1873
685.023	1437
685.029	1460
685.070	1652
685.117	1766
685.150	1633
685.164	1545
685.210	2044
685.257	1824
685.272	1896
685.303	2056
685.350	1707
685.393	2241
685.396	2283
685.443	1617
685.490	1669
685.514	1935
685.536	2210
685.583	2250
685.629	2107
685.636	2052
685.675	1708
685.722	2148
685.757	2245
685.768	2212
685.815	1970
685.861	1940
685.878	2152
685.908	2635
685.954	1811
686.000	2282
686.000	2285
686.047	2447
686.093	2002
686.121	1808
686.139	1734
686.185	2433
686.232	2726
686.242	2604
686.278	2165
686.324	2352
686.363	2250
686.370	2213
686.416	2377
686.463	2117
686.484	1975
686.509	1801
686.555	1600
686.601	1856
686.606	1822
686.647	1606
686.693	1660
686.727	1701
686.739	1720
686.785	2252
686.831	2341
686.848	2145
686.877	1757
686.923	2299
686.969	1648
686.969	1644
687.015	1625
687.061	2077
687.090	1863
687.107	1774
687.153	2020
687.199	2568
687.211	2473
687.245	2145
687.291	2068
687.332	2320
687.336	2344
687.382	2633
687.428	2009
687.453	2253
687.474	2486
687.520	1965
687.565	2511
687.574	2454
687.611	2183
687.657	2365
687.695	2421
687.702	2428
687.748	2013
687.794	2325
687.816	2256
687.839	2225
687.885	2219
687.931	2396
687.937	2375
687.976	2074
688.022	1600
688.058	1708
688.067	1781
688.113	1466
688.158	1897
688.179	2013
688.204	2160
688.249	1823
688.295	2319
688.300	2306
688.340	2086
688.386	2111
688.421	2168
688.431	2219
688.477	1671
688.522	2133
688.542	2409
688.567	2747
688.613	2662
688.658	2522
688.663	2541
688.703	2608
688.749	2615
688.784	2248
688.794	2125
688.839	2118
688.884	2081
688.905	1910
688.930	1853
688.975	1896
689.020	1979
689.026	2051
689.065	2534
689.110	2564
689.146	2526
689.155	2519
689.201	2594
689.246	2692
689.267	2962
689.291	3119
689.336	2575
689.381	2426
689.388	2406
689.426	2497
689.471	2265
689.509	2270
689.516	2276
689.561	2243
689.606	2336
689.630	2495
689.651	2674
689.696	2744
689.741	2722
689.750	2734
689.785	2658
689.830	2909
689.871	2667
689.875	2663
689.920	2389
689.965	2537
689.992	2641
690.010	2592
690.054	2573
690.099	1987
690.112	2218
690.144	2904
690.189	2608
690.233	2178
690.233	2180
690.278	2254
690.323	2784
690.354	2645
690.367	2495
690.412	2674
690.457	2099
690.474	2003
690.501	1993
690.546	2290
690.590	2479
690.595	2438
690.635	2141
690.680	2366
690.716	2516
690.724	2553
690.769	2531
690.813	2720
690.836	2722
690.857	2798
690.902	2850
690.946	2991
690.957	2989
690.991	2780
691.035	2869
691.077	2775
691.080	2785
691.124	2763
691.168	3002
691.198	3029
691.213	2993
691.257	3003
691.301	2786
691.318	2751
691.346	2837
691.390	2881
691.434	2771
691.439	2817
691.478	3051
691.522	2874
691.559	2698
691.567	2674
691.611	2790
691.655	2754
691.680	2651
691.699	2697
691.743	3046
691.787	3165
691.800	3179
691.831	3114
691.875	3097
691.919	3034
691.921	3031
691.964	3187
692.008	3047
692.041	3275
692.052	3312
692.096	3312
692.139	3205
692.162	3004
692.183	2927
692.227	3106
692.271	3425
692.282	3392
692.315	3243
692.359	3080
692.402	3411
692.403	3421
692.447	3268
692.490	3482
692.523	3744
692.534	3800
692.578	3373
692.622	3408
692.643	3327
692.666	3269
692.709	3072
692.753	3206
692.763	3226
692.797	3330
692.840	3062
692.884	3179
692.884	3188
692.928	3036
692.971	2947
693.004	3109
693.015	3166
693.059	3243
693.102	3404
693.124	3333
693.146	3250
693.189	3187
693.233	3340
693.245	3329
693.276	3326
693.320	3269
693.363	3364
693.365	3350
693.407	3466
693.450	3732
693.485	3906
693.493	3893
693.537	3642
693.580	3905
693.605	3730
693.624	3562
693.667	3368
693.710	3131
693.725	3051
693.753	3155
693.797	3354
693.840	3436
693.845	3475
693.883	3708
693.926	3615
693.966	3649
693.970	3664
694.013	3693
694.056	3786
694.086	3688
694.099	3588
694.142	3455
694.185	3336
694.206	3214
694.229	3281
694.272	3535
694.315	3681
694.326	3714
694.358	3714
694.401	3291
694.444	3714
694.446	3698
694.487	3881
694.530	4193
694.566	4563
694.573	4574
694.616	4568
694.659	4188
694.686	4166
694.702	4208
694.745	4169
694.787	4045
694.806	4038
694.830	3928
694.873	3797
694.916	3488
694.926	3417
694.959	3363
695.002	3231
695.044	3053
695.046	3044
695.087	3261
695.130	3324
695.166	3446
695.172	3482
695.215	3602
695.258	3777
695.286	3923
695.301	3979
695.343	3986
695.386	3922
695.406	3927
695.428	3960
695.471	4092
695.514	4141
695.526	4124
695.556	3846
695.599	3750
695.641	3236
695.646	3197
695.684	3282
695.726	3200
695.766	3203
695.769	3239
695.811	3700
695.854	4085
695.886	4323
695.896	4249
695.938	3964
695.981	3610
696.005	3432
696.023	3510
696.065	3641
696.108	3812
696.125	3837
696.150	3827
696.192	3795
696.235	3963
696.245	3951
696.277	4069
696.319	4228
696.361	4401
696.365	4400
696.404	4306
696.446	4250
696.485	4146
696.488	4147
696.530	3959
696.572	3906
696.604	3777
696.614	3807
696.656	3904
696.698	4071
696.724	4108
696.740	4055
696.783	3904
696.825	3830
696.844	3683
696.867	3688
696.909	3853
696.951	4013
696.964	4051
696.992	4130
697.034	4278
697.076	4179
697.083	4196
697.118	4454
697.160	4579
697.202	4806
697.203	4797
697.244	4660
697.286	4543
697.323	4320
697.327	4325
697.369	4409
697.411	4312
697.442	4308
697.453	4264
697.494	3964
697.536	3761
697.562	3582
697.578	3667
697.620	3921
697.661	4052
697.682	4143
697.703	4127
697.744	4084
697.786	4035
697.801	4002
697.828	4130
697.869	4271
697.911	4483
697.921	4511
697.952	4594
697.994	4710
698.035	4795
698.040	4794
698.077	4702
698.118	4536
698.160	4428
698.160	4413
698.201	4647
698.243	4906
698.279	5112
698.284	5083
698.325	4660
698.367	4259
698.399	3902
698.408	3959
698.449	4172
698.491	4404
698.518	4532
698.532	4494
698.573	4348
698.614	4217
698.638	4114
698.656	4156
698.697	4230
698.738	4321
698.757	4348
698.779	4370
698.820	4385
698.862	4408
698.877	4404
698.903	4535
698.944	4724
698.985	4917
698.996	4958
699.026	4828
699.067	4631
699.116	4385
699.235	4647
699.354	3999
699.474	4135
699.593	3873
699.713	4891
699.832	5171
699.951	4550
700.070	5383
700.190	4939
700.309	4375
700.428	4396
700.547	4906
700.667	4676
700.786	4582
700.905	4389
701.024	4521
701.143	4269
701.262	4967
701.381	3753
701.500	4516
701.619	4819
701.738	4513
701.857	5076
701.976	3892
702.095	3533
702.214	4378
702.333	4169
702.452	4934
702.571	3538
702.690	4168
702.809	3465
702.928	4091
703.047	4192
703.165	4651
703.284	3776
703.403	4358
703.522	3782
703.640	4943
703.759	4682
703.878	5342
703.997	5971
704.115	4383
704.234	4123
704.353	3648
704.471	3633
704.590	3873
704.708	3617
704.827	4470
704.946	3500
705.064	3385
705.183	3361
705.301	4115
705.420	4270
705.538	5395
705.656	5231
705.775	4544
705.893	3606
706.012	4068
706.130	4950
706.249	4205
706.367	4757
706.485	3892
706.604	4947
706.722	4939
706.840	4888
706.958	5737
707.077	5881
707.195	4278
707.313	5026
707.431	4607
707.549	4104
707.668	4566
707.786	4598
707.904	4661
708.022	4838
708.140	3364
708.258	4041
708.376	4022
708.494	3644
708.612	4579
708.730	4241
708.848	4833
708.966	5460
709.084	5270
709.202	5201
709.320	5250
709.438	4367
709.556	5084
709.674	4843
709.791	6028
709.909	4740
710.027	4018
710.145	4011
710.263	4606
710.380	5248
710.498	5133
710.616	5177
710.733	4094
710.851	4511
710.969	4984
711.086	5109
711.204	4522
711.322	5004
711.439	4677
711.557	3980
711.674	4995
711.792	4679
711.909	4612
712.027	4790
712.144	4547
712.262	4184
712.379	3755
712.497	5251
712.614	5889
712.732	7046
712.849	7110
712.966	5163
713.084	5154
713.201	6324
713.318	6584
713.436	5815
713.553	5643
713.670	5760
713.787	5759
713.905	5455
714.022	6800
714.139	5383
714.256	5635
714.373	6037
714.490	7590
714.608	12082
714.725	23330
714.842	91247
714.959	209697
715.076	29701
715.193	7507
715.310	5864
715.427	6297
715.544	5483
715.661	5092
715.778	4859
715.895	4775
716.011	5522
716.128	5817
716.245	4665
716.362	5838
716.479	5669
716.596	7554
716.713	5171
716.829	5038
716.946	5000
717.063	5585
717.180	4612
717.296	4069
717.413	4312
717.530	4935
717.646	4714
717.763	4516
717.880	3660
717.996	4694
718.113	3945
718.229	3910
718.346	4251
718.462	4274
718.579	4417
718.695	4738
718.812	7511
718.928	7914
719.045	5455
719.161	5223
719.277	4202
719.394	4359
719.510	3237
719.626	4744
719.743	4927
719.859	5135
719.975	6800
720.092	9719
720.208	24478
720.324	87098
720.440	31736
720.557	5104
720.673	5554
720.789	7252
720.905	8962
721.021	14901
721.137	11298
721.253	4609
721.369	3702
721.486	4067
721.602	4072
721.718	5674
721.834	4609
721.950	2690
722.066	3669
722.181	3346
722.297	3421
722.413	3806
722.529	3453
722.645	3362
722.761	3030
722.877	3418
722.993	3638
723.108	3550
723.224	3521
723.340	3540
723.456	3311
723.571	3083
723.687	3167
723.803	3243
723.918	3200
724.034	3487
724.150	3220
724.265	3508
724.381	3017
724.497	5136
724.612	9324
724.728	3279
724.843	2802
724.959	2985
725.074	3234
725.190	5161
725.305	9923
725.421	3693
725.536	2941
725.651	3460
725.767	3170
725.882	2484
725.997	2570
726.113	2568
726.228	2276
726.343	2586
726.459	2468
726.574	1748
726.689	2684
726.804	2696
726.920	2825
727.035	3120
727.150	2841
727.265	2976
727.380	2583
727.495	3175
727.610	2958
727.725	1923
727.841	2309
727.956	2427
728.071	2815
728.186	3819
728.301	2754
728.416	2213
728.531	2901
728.645	2964
728.760	2329
728.875	2336
728.990	3425
729.105	3812
729.220	2909
729.335	2678
729.449	3290
729.564	2686
729.679	2156
729.794	2045
729.908	2296
730.023	2768
730.138	3043
730.253	2820
730.367	2615
730.482	1811
730.596	2251
730.711	2710
730.826	3286
730.940	2090
731.055	2563
731.169	2170
731.284	2197
731.398	2045
731.513	2862
731.627	2367
731.742	3000
731.856	3325
731.970	3255
732.085	3389
732.199	3529
732.313	3731
732.428	5483
732.542	11324
732.656	36489
732.771	47512
732.885	7838
732.999	3860
733.113	3540
733.227	3693
733.342	3128
733.456	2981
733.570	2008
733.684	2654
733.798	2286
733.912	2236
734.026	2141
734.140	2130
734.254	2036
734.368	2501
734.482	3051
734.596	5955
734.710	2645
734.824	2308
734.938	2353
735.052	1955
735.166	2749
735.280	3281
735.393	2585
735.507	1889
735.621	2279
735.735	3161
735.849	5015
735.962	4011
736.076	1890
736.190	1822
736.303	2628
736.417	2582
736.531	4760
736.644	2734
736.758	2345
736.872	2446
736.985	2410
737.099	2173
737.212	2345
737.326	2091
737.439	1857
737.553	2850
737.666	2432
737.780	2206
737.893	2069
738.007	1982
738.120	1409
738.233	2102
738.347	2285
738.460	2406
738.573	2358
738.687	2015
738.800	2528
738.913	2258
739.026	3387
739.140	2220
739.253	2114
739.366	1656
739.479	1341
739.592	992
739.705	2012
739.818	1973
739.932	1461
740.045	1677
740.158	2236
740.271	1893
740.384	1576
740.497	1800
740.610	1568
740.723	2429
740.836	2384
740.949	2083
741.062	2723
741.174	3298
741.287	2559
741.400	1862
741.513	2103
741.626	1800
741.739	2099
741.851	2041
741.964	1532
742.077	2120
742.189	1817
742.302	1070
742.415	2318
742.527	2719
742.640	2412
742.753	2450
742.865	940
742.978	1196
743.090	1152
743.203	809
743.316	1629
743.428	1739
743.541	901
743.653	1946
743.766	1423
743.878	1299
743.990	1806
744.103	2139
744.215	2202
744.327	2862
744.440	3023
744.552	1993
744.664	3443
744.777	2636
744.889	1769
745.001	1860
745.113	1591
745.226	1234
745.338	1956
745.450	858
745.562	935
745.674	1361
745.786	1632
745.898	1769
746.010	1163
746.122	1129
746.234	1129
746.347	1234
746.459	1801
746.570	1232
746.682	860
746.794	1794
746.906	1751
747.018	2511
747.130	1498
747.242	1711
747.354	1595
747.466	1599
747.577	1692
747.689	1527
747.801	1161
747.913	1253
748.024	1194
748.136	1839
748.248	821
748.359	1514
748.471	1343
748.583	701
748.694	1393
748.806	1195
748.918	669
749.029	1437
749.141	1361
749.252	1795
749.364	1656
749.475	1981
749.587	3227
749.698	3260
749.809	1103
749.921	1523
750.032	1174
750.144	746
750.255	1527
750.366	523
750.478	1684
750.589	524
750.700	1439
750.811	1356
750.923	1391
751.034	1466
751.145	3256
751.256	5770
751.367	1821
751.479	1496
751.590	279
751.701	944
751.812	846
751.923	1936
752.034	955
752.145	956
752.256	1279
752.367	1128
752.478	1303
752.589	987
752.700	759
752.811	529
752.922	1121
753.032	959
753.143	1155
753.254	1624
753.365	1604
753.476	961
753.586	1359
753.697	969
753.808	872
753.919	1660
754.029	882
754.140	725
754.251	1079
754.361	59
754.472	976
754.582	1128
754.693	776
754.804	1719
754.914	534
755.025	1008
755.135	1138
755.246	1042
755.356	1043
755.466	1010
755.577	5
755.687	907
755.798	306
755.908	1474
756.018	92
756.129	1365
756.239	886
756.349	807
756.460	1460
756.570	777
756.680	730
756.790	797
756.900	1038
757.011	1413
757.121	1628
757.231	1561
757.341	1087
757.451	858
757.561	788
757.671	1468
757.781	714
757.891	1180
758.001	670
758.111	860
758.221	1561
758.331	291
758.441	688
758.551	1559
758.661	1071
758.771	2157
758.880	1824
758.990	1431
759.100	1054
759.210	1199
759.320	814
759.429	563
759.539	372
759.649	735
759.758	443
759.868	1150
759.978	994
760.087	1059
760.197	1055
760.307	1098
760.416	807
760.526	1428
760.635	698
760.745	1189
760.854	881
760.964	1034
761.073	1153
761.182	2231
761.292	1692
761.401	950
761.511	1750
761.620	785
761.729	536
761.839	731
761.948	1350
762.057	1051
762.166	743
762.276	678
762.385	698
762.494	312
762.603	796
762.712	1262
762.822	751
762.931	823
763.040	1217
763.149	716
763.258	1112
763.367	490
763.476	1277
763.585	1040
763.694	993
763.803	491
763.912	820
764.021	1367
764.130	1207
764.238	1179
764.347	1484
764.456	941
764.565	1189
764.674	1038
764.783	272
764.891	1241
765.000	963
765.109	1034
765.217	932
765.326	935
765.435	1264
765.543	2475
765.652	1478
765.761	1427
765.869	1454
765.978	1942
766.086	2736
766.195	4694
766.303	9561
766.412	22762
766.520	83363
766.629	193169
766.737	40884
766.846	6784
766.954	3507
767.062	3488
767.171	1820
767.279	1710
767.387	1374
767.496	1384
767.604	1284
767.712	1072
767.820	1213
767.928	1087
768.037	922
768.145	1389
768.253	1128
768.361	740
768.469	1578
768.577	808
768.685	1110
768.793	866
768.901	1548
769.009	1754
769.117	559
769.225	2007
769.333	1827
769.441	2104
769.549	2605
769.657	4019
769.765	8967
769.873	26262
769.981	104027
770.088	80718
770.196	6474
770.304	2547
770.412	1791
770.519	1750
770.627	1238
770.735	1196
770.842	1116
770.950	836
771.058	1079
771.165	850
771.273	841
771.380	1418
771.488	1440
771.595	685
771.703	1576
771.810	1407
771.918	1349
772.025	1370
772.133	860
772.240	1419
772.348	1457
772.455	1649
772.562	1743
772.670	1272
772.777	1388
772.884	1168
772.991	1194
773.099	1261
773.206	1823
773.313	1492
773.420	420
773.528	1330
773.635	1300
773.742	617
773.849	1391
773.956	686
774.063	1571
774.170	855
774.277	1193
774.384	1928
774.491	1076
774.598	1282
774.705	1150
774.812	997
774.919	1275
775.026	1793
775.133	1262
775.239	1357
775.346	1423
775.453	389
775.560	682
775.667	970
775.773	442
775.880	635
775.987	623
776.093	1001
776.200	834
776.307	1432
776.413	1433
776.520	924
776.627	798
776.733	1009
776.840	478
776.946	1687
777.053	1413
777.159	2237
777.266	3234
777.372	4465
777.478	2642
777.585	4212
777.691	3009
777.798	2119
777.904	1142
778.010	1327
778.117	1200
778.223	1771
778.329	1116
778.435	1959
778.542	1370
778.648	629
778.754	541
778.860	846
778.966	511
779.072	618
779.178	1721
779.284	1351
779.391	681
779.497	723
779.603	592
779.708	386
779.815	612
779.920	836
780.026	669
780.132	1749
780.238	1345
780.344	674
780.450	790
780.556	575
780.661	1032
780.767	821
780.873	318
780.979	771
781.085	1195
781.190	670
781.296	433
781.402	385
781.507	886
781.613	1192
781.719	598
781.824	1294
781.930	644
782.035	1163
782.141	620
782.246	1284
782.352	418
782.457	595
782.563	644
782.668	303
782.773	1020
782.879	570
782.984	-19
783.090	1079
783.195	324
783.300	1883
783.405	1035
783.511	1446
783.616	793
783.721	626
783.826	1105
783.932	91
784.037	498
784.142	338
784.247	1081
784.352	767
784.457	1091
784.562	1372
784.667	314
784.772	595
784.877	1027
784.982	649
785.087	778
785.192	388
785.297	611
785.402	721
785.507	601
785.611	792
785.716	691
785.821	1126
785.926	371
786.031	497
786.135	320
786.240	518
786.345	215
786.450	703
786.554	-145
786.659	729
786.763	-116
786.868	581
786.973	680
787.077	476
787.182	386
787.286	507
787.391	660
787.495	499
787.600	-193
787.704	281
787.809	268
787.913	729
788.017	-129
788.122	-61
788.226	-6
788.330	758
788.435	191
788.539	-233
788.643	45
788.747	353
788.852	392
788.956	350
789.060	756
789.164	-126
789.268	144
789.372	982
789.476	-20
789.580	745
789.684	683
789.788	-57
789.892	-163
789.996	45
790.100	242
790.204	-324
790.308	69
790.412	167
790.516	940
790.620	65
790.724	-195
790.828	859
790.931	536
791.035	-108
791.139	454
791.242	675
791.346	502
791.450	-600
791.554	417
791.657	-686
791.761	165
791.864	1045
791.968	796
792.072	437
792.175	-81
792.279	-44
792.382	608
792.486	217
792.589	111
792.693	353
792.796	345
792.899	528
793.003	-421
793.106	525
793.209	90
793.313	441
793.416	-332
793.519	-67
793.623	275
793.726	1062
793.829	2621
793.932	1260
794.035	392
794.138	338
794.242	361
794.345	460
794.448	543
794.551	222
794.654	1288
794.757	1222
794.860	340
794.963	297
795.066	601
795.169	231
795.272	713
795.375	322
795.477	305
795.580	100
795.683	108
795.786	-119
795.889	-411
795.991	-202
796.094	433
796.197	453
796.300	771
796.402	-65
796.505	-74
796.608	468
796.710	-2
796.813	309
796.915	179
797.018	-297
797.120	-333
797.223	-299
797.326	-266
797.428	213
797.530	11
797.633	-207
797.735	-93
797.838	-87
797.940	-209
798.042	438
798.145	-394
798.247	-20
798.349	91
798.452	510
798.554	228
798.656	608
798.758	-668
798.860	-335
798.962	80
799.065	181
799.167	-664
799.269	-9
799.371	-75
799.473	206
799.575	432
799.677	-162
799.779	587
799.881	759
799.983	869
800.085	542
800.187	433
800.289	947
800.390	-404
800.492	141
800.594	1198
800.696	-362
800.798	461
800.899	-115
801.001	-419
801.103	-593
801.205	-161
801.306	-249
801.408	-10
801.509	431
801.611	-5
801.713	312
801.814	374
801.916	-23
802.017	-506
802.119	187
802.220	-360
802.322	-977
802.423	621
802.525	530
802.626	-27
802.727	168
802.829	-294
802.930	-418
803.031	497
803.133	-283
803.234	-254
803.335	-182
803.436	241
803.538	16
803.639	-1362
803.740	526
803.841	-445
803.942	542
804.043	-308
804.144	-164
804.245	-497
804.346	713
804.447	-416
804.548	-207
804.649	97
804.750	1138
804.851	65
804.952	-403
805.053	375
805.154	-761
805.255	-142
805.355	-5
805.456	-123
805.557	367
805.658	-227
805.758	238
805.859	119
805.960	-7
806.061	40
806.161	280
806.262	-423
806.362	-441
806.463	164
806.564	119
806.664	525
806.765	54
806.865	-553
806.966	714
807.066	-523
807.166	-6
807.267	230
807.367	-326
807.468	32
807.568	-158
807.668	171
807.769	-115
807.869	271
807.969	-405
808.069	-553
808.170	-110
808.270	-383
808.370	1
808.470	-811
808.570	-171
808.670	81
808.770	-792
808.870	-139
808.970	-434
809.070	-441
809.170	-501
809.271	-98
809.370	-103
809.470	179
809.570	-419
809.670	9
809.770	258
809.870	-254
809.970	-379
810.070	-208
810.169	246
810.269	-1115
810.369	883
810.469	-245
810.568	-246
810.668	-578
810.768	-192
810.867	-47
810.967	-161
811.066	-73
811.166	-359
811.265	-566
811.365	-766
811.464	39
811.564	-84
811.663	-367
811.763	-29
811.862	121
811.962	-175
812.061	-186
812.160	86
812.260	431
812.359	-666
812.458	-223
812.557	81
812.657	1040
812.756	3461
812.855	1232
812.954	-55
813.053	-84
813.153	-201
813.252	86
813.351	140
813.450	-248
813.549	117
813.648	727
813.747	318
813.846	16
813.945	96
814.044	-316
814.143	-50
814.242	374
814.341	-391
814.439	-103
814.538	210
814.637	146
814.736	428
814.835	-267
814.933	-102
815.032	310
815.131	141
815.229	282
815.328	509
815.427	448
815.525	606
815.624	880
815.722	599
815.821	266
815.919	466
816.018	282
816.116	413
816.215	407
816.313	1414
816.412	931
816.510	995
816.609	1426
816.707	1214
816.805	1516
816.904	1771
817.002	1174
817.100	2334
817.198	1977
817.296	1820
817.395	1887
817.493	2323
817.591	4078
817.689	3400
817.787	4978
817.885	7883
817.983	12125
818.081	22484
818.179	43896
818.277	98535
818.375	223940
818.473	342312
818.571	135839
818.669	40408
818.767	22485
818.865	18235
818.963	17036
819.061	18547
819.158	26055
819.256	43698
819.354	83615
819.452	179824
819.549	390020
819.647	459300
819.745	162961
819.842	55407
819.940	29864
820.038	20545
820.135	14176
820.233	10700
820.330	8024
820.428	6562
820.525	5515
820.623	4212
820.720	4225
820.818	3484
820.915	3294
821.012	2798
821.110	2401
821.207	1860
821.304	1519
821.402	1856
821.499	1891
821.596	2131
821.693	2775
821.791	3005
821.888	1392
821.985	2033
822.082	2211
822.179	2936
822.276	1552
822.373	1116
822.470	1194
822.567	1094
822.664	792
822.761	1498
822.858	-96
822.955	127
823.052	57
823.149	357
823.246	424
823.343	1248
823.440	246
823.536	587
823.633	-6
823.730	466
823.827	888
823.923	-402
824.020	436
824.117	640
824.213	51
824.310	1402
824.407	340
824.503	-219
824.600	289
824.696	396
824.793	367
824.889	718
824.986	955
825.082	-269
825.179	254
825.275	-165
825.371	-246
825.468	385
825.564	-348
825.660	-551
825.757	-169
825.853	-182
825.949	106
826.045	-124
826.142	-159
826.238	-330
826.334	-544
826.430	-446
826.526	281
826.622	-30
826.718	-364
826.814	482
826.910	469
827.006	1059
827.102	-608
827.198	424
827.294	-443
827.390	112
827.486	-218
827.582	-879
827.678	-630
827.774	341
827.869	-1159
827.965	-684
828.061	-450
828.157	-425
828.252	482
828.348	204
828.444	-21
828.539	-751
828.635	-324
828.731	-314
828.826	-251
828.922	-35
829.017	54
829.113	-81
829.208	129
829.304	77
829.399	-357
829.495	-644
829.590	153
829.685	-534
829.781	-277
829.876	-121
829.971	-85
830.066	-336
830.162	-644
830.257	-326
830.352	-599
830.447	-244
830.543	-475
830.638	-1129
830.733	-269
830.828	237
830.923	-409
831.018	361
831.113	-629
831.208	-552
831.303	221
831.398	67
831.493	-1147
831.588	-385
831.683	-759
831.778	225
831.873	-260
831.967	-900
832.062	-448
832.157	-233
832.252	-8
832.346	-393
832.441	16
832.536	12
832.631	110
832.725	1628
832.820	2264
832.914	36
833.009	259
833.104	-172
833.198	381
833.293	-185
833.387	311
833.482	304
833.576	-498
833.670	2
833.765	129
833.859	-192
833.954	56
834.048	-179
834.142	-304
834.237	457
834.331	-461
834.425	83
834.519	-222
834.613	-36
834.708	-712
834.802	-58
834.896	-633
834.990	44
835.084	-434
835.178	78
835.272	-200
835.366	-660
835.460	-74
835.554	-179
835.648	12
835.742	-309
835.836	-34
835.930	126
836.024	-365
836.117	392
836.211	-325
836.305	-241
836.399	325
836.493	561
836.586	212
836.680	-373
836.774	-276
836.867	82
836.961	-546
837.055	144
837.148	-1057
837.242	-99
837.335	191
837.429	-626
837.522	-389
837.616	-183
837.709	-545
837.803	63
837.896	706
837.989	-594
838.083	339
838.176	-910
838.269	856
838.363	1098
838.456	482
838.549	118
838.642	144
838.735	452
838.829	1688
838.922	1588
839.015	-444
839.108	474
839.201	-712
839.294	-601
839.387	-120
839.480	-193
839.573	-737
839.666	-726
839.759	84
839.852	-250
839.945	-668
840.038	-293
840.131	-187
840.223	-248
840.316	-893
840.409	-563
840.502	-227
840.594	218
840.687	-369
840.780	-204
840.873	-547
840.965	-122
841.058	-287
841.150	-76
841.243	421
841.336	903
841.428	-55
841.521	-445
841.613	-113
841.706	236
841.798	-546
841.890	-171
841.983	-1151
842.075	223
842.167	-398
842.260	-674
842.352	67
842.444	-116
842.537	790
842.629	1627
842.721	2301
842.813	465
842.905	-382
842.997	25
843.090	-430
843.182	-359
843.274	170
843.366	1590
843.458	2652
843.550	6360
843.642	7121
843.734	1895
843.826	-300
843.918	1026
844.009	74
844.101	-221
844.193	-156
844.285	-495
844.377	213
844.469	108
844.560	-79
844.652	62
844.744	402
844.835	131
844.927	-452
845.019	-516
845.110	42
845.202	219
845.293	-638
845.385	-602
845.476	-920
845.568	-202
845.659	-302
845.751	-919
845.842	-547
845.934	-701
846.025	-888
846.116	267
846.208	-239
846.299	-287
846.390	-655
846.482	-440
846.573	-635
846.664	401
846.755	-47
846.846	82
846.937	523
847.029	192
847.120	-840
847.211	-19
847.302	-537
847.393	-326
847.484	-170
847.575	-164
847.666	-1013
847.757	-101
847.847	-1420
847.938	-641
848.029	-352
848.120	206
848.211	-45
848.302	-1143
848.392	-779
848.483	-1251
848.574	-585
848.664	-258
848.755	-398
848.846	-663
848.936	-1149
849.027	-365
849.118	-719
849.208	206
849.299	30
849.389	530
849.480	734
849.570	2053
849.661	5128
849.751	8731
849.841	18783
849.932	14336
850.022	1902
850.112	-258
850.203	-41
850.293	-673
850.383	38
850.474	-500
850.564	-89
850.654	345
850.744	-690
850.834	-304
850.924	-166
851.014	497
851.104	-857
851.194	87
851.284	24
851.374	19
851.464	-623
851.554	181
851.644	-413
851.734	-289
851.824	-27
851.914	-2
852.004	-774
852.094	-629
852.183	-416
852.273	-633
852.363	-79
852.452	-483
852.542	-805
852.632	-411
852.721	-351
852.811	-1059
852.901	-86
852.990	503
853.080	-598
853.169	-179
853.259	-578
853.348	-68
853.438	-51
853.527	147
853.617	395
853.706	1562
853.795	4423
853.885	8429
853.974	18426
854.063	39468
854.152	59449
854.242	121897
854.331	94327
854.420	15711
854.509	2505
854.598	1624
854.687	1797
854.777	1098
854.866	944
854.955	914
855.044	-28
855.133	-147
855.222	-536
855.311	-646
855.400	-663
855.488	-161
855.577	-694
855.666	229
855.755	-255
855.844	-464
855.933	269
856.021	1
856.110	255
856.199	-23
856.288	-762
856.376	-276
856.465	-173
856.554	-187
856.642	-135
856.731	-41
856.819	-441
856.908	229
856.996	-47
857.085	-191
857.173	-401
857.262	-168
857.350	-531
857.438	-421
857.527	-603
857.615	-332
857.703	-177
857.792	-232
857.880	-583
857.968	-814
858.056	-1282
858.145	-664
858.233	-700
858.321	-141
858.409	-395
858.497	-209
858.585	-270
858.673	-82
858.761	-91
858.849	-918
858.937	-501
859.025	-136
859.113	-879
859.201	-187
859.289	-365
859.377	-134
859.465	-268
859.552	223
859.640	-75
859.728	-887
859.816	-816
859.903	303
859.991	-679
860.079	11
860.166	-201
860.254	-319
860.342	-708
860.429	-747
860.517	-704
860.604	-347
860.692	-729
860.779	-592
860.867	-702
860.954	-395
861.042	-622
861.129	118
861.216	-114
861.304	-225
861.391	-670
861.478	-278
861.565	-492
861.653	-411
861.740	-780
861.827	-700
861.914	-273
862.001	-179
862.089	55
862.176	-266
862.263	-112
862.350	-366
862.437	292
862.524	-221
862.611	-445
862.698	-798
862.785	-340
862.871	-1030
862.958	-189
863.045	-288
863.132	-124
863.219	-603
863.306	-1077
863.392	-652
863.479	-1062
863.566	-673
863.652	-687
863.739	-420
863.826	-295
863.912	-341
863.999	-1142
864.086	-425
864.172	-358
864.259	47
864.345	-207
864.432	-129
864.518	-464
864.604	-540
864.691	-460
864.777	141
864.863	-22
864.950	-404
865.036	-455
865.122	128
865.209	442
865.295	1298
865.381	690
865.467	544
865.553	1082
865.639	2100
865.726	2549
865.812	4956
865.898	8967
865.984	19240
866.070	30128
866.156	42423
866.242	81637
866.328	40649
866.414	6328
866.499	2303
866.585	2288
866.671	1515
866.757	1663
866.843	756
866.928	599
867.014	788
867.100	823
867.186	577
867.271	755
867.357	794
867.442	1077
867.528	1584
867.614	1442
867.699	870
867.785	1034
867.870	101
867.956	443
868.041	1820
868.127	910
868.212	545
868.297	1186
868.383	1524
868.468	1206
868.553	1379
868.639	1339
868.724	1616
868.809	2603
868.894	4887
868.979	1622
869.065	134
869.150	310
869.235	9
869.320	-613
869.405	49
869.490	631
869.575	327
869.660	447
869.745	127
869.830	-46
869.915	114
870.000	4
870.085	94
870.169	11
870.254	850
870.339	-24
870.424	109
870.509	160
870.593	426
870.678	-423
870.763	-282
870.847	331
870.932	-113
871.016	-306
871.101	323
871.186	152
871.270	-245
871.355	267
871.439	358
871.523	-385
871.608	26
871.692	434
871.777	391
871.861	272
871.945	1034
872.030	598
872.114	-528
872.198	347
872.282	178
872.367	-565
872.451	76
872.535	77
872.619	-292
872.703	466
872.787	-180
872.871	-331
872.955	792
873.039	-62
873.123	-649
873.207	17
873.291	678
873.375	-197
873.459	-691
873.543	-239
873.627	332
873.711	215
873.794	384
873.878	36
873.962	44
874.045	-168
874.129	-614
874.137	-569
874.213	-120
874.245	94
874.296	440
874.352	-104
874.380	-371
874.460	8
874.464	21
874.547	-21
874.568	30
874.631	195
874.676	-115
874.714	-375
874.784	174
874.798	281
874.881	23
874.892	50
874.965	213
874.999	162
875.048	102
875.107	346
875.131	436
875.215	508
875.215	508
875.298	399
875.323	259
875.381	-72
875.430	-67
875.465	-79
875.538	564
875.548	644
875.631	825
875.646	815
875.714	874
875.753	825
875.798	690
875.861	216
875.881	78
875.964	647
875.968	634
876.047	476
876.076	481
876.130	509
876.183	413
876.213	348
876.291	355
876.296	351
876.379	822
876.398	828
876.462	850
876.506	530
876.545	257
876.613	510
876.628	561
876.711	448
876.721	521
876.794	1207
876.828	1020
876.877	659
876.935	643
876.960	702
877.043	481
877.043	486
877.125	1551
877.150	1225
877.208	755
877.258	1285
877.291	1490
877.365	1501
877.374	1537
877.456	1827
877.472	1873
877.539	1782
877.579	1606
877.622	1611
877.687	1736
877.704	1765
877.787	2128
877.794	2098
877.869	1585
877.901	1536
877.952	1548
878.008	1459
878.034	1338
878.115	1057
878.117	1062
878.199	1267
878.222	1312
878.282	1268
878.329	1311
878.364	1409
878.437	1678
878.447	1735
878.529	1566
878.544	1687
878.611	1714
878.651	1531
878.694	1758
878.758	1664
878.776	1550
878.858	1747
878.865	1729
878.941	1625
878.972	1802
879.023	1997
879.078	1555
879.105	1593
879.185	2289
879.187	2299
879.269	2463
879.292	2454
879.351	2460
879.399	2341
879.433	2073
879.506	1678
879.516	1723
879.598	1390
879.613	1541
879.680	1577
879.720	1415
879.762	1641
879.827	1929
879.844	1916
879.926	2015
879.933	1995
880.007	2333
880.040	2542
880.089	2768
880.147	3122
880.171	3442
880.253	3815
880.254	3813
880.335	5414
880.360	5940
880.417	9470
880.467	12358
880.499	17714
880.574	30358
880.580	30344
880.662	32177
880.680	31176
880.744	17619
880.787	7600
880.825	4988
880.893	2884
880.907	2726
880.989	2416
881.000	2277
881.070	1603
881.106	1585
881.152	1930
881.213	2371
881.233	2376
881.315	1798
881.319	1785
881.396	2113
881.426	2043
881.478	1716
881.532	1859
881.559	2135
881.639	2481
881.641	2487
881.722	2299
881.745	2220
881.803	1935
881.852	1946
881.885	2310
881.958	2863
881.966	2846
882.047	2582
882.064	2507
882.129	2835
882.171	3259
882.210	4003
882.277	4867
882.291	5285
882.372	7827
882.383	8134
882.454	5632
882.489	4030
882.535	3229
882.596	2575
882.616	2539
882.697	2429
882.702	2396
882.778	2382
882.808	2519
882.859	2318
882.914	1876
882.940	1941
883.020	1870
883.021	1877
883.102	2252
883.127	2162
883.183	2250
883.233	2716
883.264	2725
883.339	2446
883.345	2424
883.426	1953
883.445	1933
883.507	2063
883.551	1664
883.587	1787
883.657	2771
883.668	2911
883.749	3379
883.763	3442
883.830	3341
883.869	3352
883.910	2881
883.975	2028
883.991	2098
884.072	2381
884.081	2421
884.152	2499
884.187	2487
884.233	2698
884.292	2954
884.314	2985
884.394	2935
884.398	2926
884.475	2919
884.504	2854
884.555	2529
884.610	2114
884.636	2145
884.716	2657
884.716	2671
884.797	2814
884.821	2941
884.877	3222
884.927	3301
884.958	3175
885.033	2642
885.038	2617
885.118	2627
885.139	2490
885.199	2244
885.244	2170
885.279	2482
885.350	3169
885.359	3197
885.439	3115
885.456	3090
885.520	3491
885.561	3802
885.600	3560
885.667	2735
885.680	2661
885.760	2737
885.773	2660
885.840	3002
885.878	3226
885.920	3059
885.984	3131
886.000	3122
886.080	2498
886.089	2465
886.160	3537
886.195	3933
886.240	3720
886.300	3311
886.320	3466
886.400	4125
886.406	4159
886.480	4076
886.511	4004
886.560	4742
886.616	5524
886.640	5466
886.720	5326
886.722	5298
886.800	4197
886.827	3837
886.879	4175
886.932	4533
886.959	4493
887.038	4119
887.039	4125
887.119	3508
887.143	3262
887.198	3602
887.248	3982
887.278	3797
887.354	3061
887.358	3097
887.437	3768
887.459	3895
887.517	3814
887.564	3819
887.596	3947
887.669	4166
887.676	4139
887.755	3451
887.774	3308
887.835	3508
887.880	3635
887.914	3565
887.985	3389
887.994	3480
888.073	4133
888.090	4248
888.153	4201
888.195	4183
888.232	4296
888.300	4342
888.311	4291
888.391	3917
888.405	3827
888.470	3675
888.510	3571
888.549	3327
888.615	2875
888.628	3050
888.708	3976
888.720	4121
888.787	4358
888.825	4442
888.866	4174
888.930	3695
888.945	3743
889.024	3938
889.035	3955
889.103	3925
889.140	3869
889.182	3846
889.245	3801
889.261	3860
889.340	4037
889.349	4048
889.419	3949
889.454	3878
889.498	4171
889.559	4541
889.577	4445
889.656	3966
889.664	3906
889.735	4395
889.768	4606
889.814	4255
889.873	3757
889.978	4462
890.083	3925
890.187	3793
890.292	4762
890.397	4600
890.501	3824
890.606	3734
890.710	3671
890.815	4953
890.919	3642
891.024	3309
891.128	4135
891.233	4457
891.337	2967
891.442	4357
891.546	3697
891.650	3786
891.755	4243
891.859	5247
891.963	4091
892.068	4681
892.172	5463
892.276	4111
892.380	3592
892.484	3738
892.589	5010
892.693	4567
892.797	4445
892.901	4456
893.005	3167
893.109	4247
893.213	4914
893.317	4756
893.421	3178
893.525	3051
893.629	3284
893.733	4098
893.837	3826
893.941	4005
894.045	3536
894.148	2798
894.252	3663
894.356	4984
894.460	4468
894.564	4682
894.667	4335
894.771	4359
894.875	4295
894.978	3935
895.082	4497
895.186	4266
895.289	4620
895.393	3644
895.496	3908
895.600	4173
895.703	3875
895.807	3975
895.910	4214
896.014	3276
896.117	3975
896.221	3707
896.324	3386
896.427	4102
896.531	2386
896.634	3442
896.737	3410
896.840	3541
896.944	3973
897.047	4719
897.150	4313
897.253	4060
897.356	3432
897.460	3665
897.563	3429
897.666	3897
897.769	4026
897.872	3769
897.975	3543
898.078	3533
898.181	3693
898.284	3943
898.387	4060
898.490	5131
898.593	3356
898.695	3459
898.798	3071
898.901	5142
899.004	4154
899.107	4189
899.209	3195
899.312	4199
899.415	3766
899.518	4075
899.620	2999
899.723	4218
899.826	5301
899.928	10799
900.031	7545
900.133	4214
900.236	3110
900.338	3443
900.441	2890
900.543	2864
900.646	2439
900.748	3658
900.851	3479
900.953	3651
901.055	3122
901.158	4618
901.260	4963
901.362	3838
901.465	2809
901.567	3293
901.669	3191
901.771	3930
901.873	2894
901.976	3466
902.078	2744
902.180	3644
902.282	2967
902.384	4045
902.486	3885
902.588	4844
902.690	4962
902.792	5220
902.894	3310
902.996	4072
903.098	4163
903.200	3668
903.302	2806
903.404	3391
903.505	2844
903.607	3324
903.709	3745
903.811	3276
903.913	3577
904.014	3623
904.116	2821
904.218	3507
904.319	3322
904.421	3912
904.523	3247
904.624	3485
904.726	3577
904.827	2635
904.929	2921
905.030	2763
905.132	3984
905.233	3652
905.335	3291
905.436	3354
905.537	2388
905.639	3450
905.740	3332
905.841	3398
905.943	3250
906.044	3540
906.145	3447
906.247	3636
906.348	3371
906.449	3480
906.550	2707
906.651	3897
906.752	3100
906.854	3097
906.955	2825
907.056	2794
907.157	3076
907.258	4182
907.359	2595
907.460	2483
907.561	2360
907.662	2920
907.762	3072
907.863	3197
907.964	3776
908.065	4058
908.166	2994
908.267	3728
908.367	3563
908.468	4012
908.569	3509
908.670	4765
908.770	4917
908.871	6988
908.971	5774
909.072	7154
909.173	4336
909.273	4104
909.374	3465
909.474	3373
909.575	2935
909.675	3527
909.776	2926
909.876	3467
909.977	3943
910.077	3889
910.177	4368
910.278	4880
910.378	2795
910.478	3174
910.579	3765
910.679	3440
910.779	4107
910.879	3820
910.980	4165
911.080	3897
911.180	3253
911.280	3691
911.380	2760
911.480	3868
911.580	2457
911.680	3605
911.780	4457
911.880	5292
911.980	3623
912.080	3048
912.180	2498
912.280	3509
912.380	3549
912.480	2827
912.580	2434
912.679	3734
912.779	3193
912.879	3591
912.979	2803
913.078	3769
913.178	3551
913.278	3286
913.377	2833
913.477	3302
913.577	3079
913.676	3965
913.776	3652
913.875	4293
913.975	3055
914.074	3347
914.174	2848
914.273	3727
914.373	2822
914.472	3170
914.572	3305
914.671	2813
914.770	3397
914.870	3467
914.969	2948
915.068	3639
915.167	3379
915.267	3328
915.366	3236
915.465	3253
915.564	2952
915.663	3913
915.763	3987
915.862	3544
915.961	3826
916.060	3494
916.159	3000
916.258	3425
916.357	2595
916.456	3324
916.555	2397
916.654	3776
916.752	3820
916.851	4507
916.950	3683
917.049	3608
917.148	3335
917.247	3274
917.345	2576
917.444	2686
917.543	2751
917.642	3246
917.740	3162
917.839	2953
917.937	2954
918.036	3560
918.135	4273
918.233	3001
918.332	2972
918.430	2735
918.529	2675
918.627	3206
918.726	3096
918.824	3929
918.923	2890
919.021	3522
919.119	2927
919.218	3298
919.316	3502
919.414	3499
919.512	3760
919.611	3461
919.709	2625
919.807	3474
919.905	3548
920.003	3602
920.102	3482
920.200	3572
920.298	3548
920.396	4431
920.494	3996
920.592	3368
920.690	3120
920.788	3928
920.886	4037
920.984	4438
921.082	3380
921.180	4852
921.277	3576
921.375	4514
921.473	4422
921.571	5086
921.669	4434
921.766	4647
921.864	4772
921.962	4262
922.060	3869
922.157	4557
922.255	5256
922.352	4696
922.450	4378
922.548	4513
922.645	4868
922.743	5502
922.840	6425
922.938	8562
923.035	7401
923.133	7162
923.230	8206
923.327	10125
923.425	9864
923.522	8922
923.619	8376
923.717	7766
923.814	7582
923.911	8371
924.008	8122
924.106	8114
924.203	7830
924.300	8115
924.397	7818
924.494	7839
924.591	7771
924.688	8267
924.786	7560
924.883	7690
924.979	7238
925.077	8020
925.173	7339
925.270	8167
925.367	7924
925.464	8326
925.561	8342
925.658	9054
925.755	9207
925.852	8890
925.948	9940
926.045	8881
926.142	6886
926.239	8444
926.335	7297
926.432	7037
926.529	7324
926.625	7909
926.722	6908
926.818	6729
926.915	7245
927.011	8167
927.108	7275
927.204	8086
927.301	6787
927.397	6919
927.494	7828
927.590	7507
927.687	6129
927.783	6496
927.879	6825
927.976	7508
928.072	6754
928.168	6462
928.264	6870
928.361	6610
928.457	7358
928.553	8483
928.649	6028
928.745	7100
928.841	6639
928.937	6147
929.033	6502
929.129	6221
929.225	6030
929.321	8019
929.417	6156
929.513	5574
929.609	6294
929.705	6148
929.801	6018
929.897	5822
929.993	5102
930.089	6553
930.184	6694
930.280	5943
930.376	6440
930.471	7338
930.567	5290
930.663	5893
930.758	5608
930.854	5616
930.950	6208
931.045	6583
931.141	4922
931.236	6866
931.332	6769
931.427	5121
931.523	5369
931.618	7522
931.714	5217
931.809	5086
931.905	6178
932.000	6184
932.095	4292
932.191	5857
932.286	6378
932.381	6891
932.476	4939
932.572	4474
932.667	5909
932.762	5367
932.857	5126
932.952	5610
933.047	5977
933.142	5575
933.237	5866
933.332	5786
933.427	5458
933.522	6199
933.617	5069
933.712	4591
933.807	5030
933.902	5837
933.997	5598
934.092	6059
934.187	4648
934.282	5347
934.376	5326
934.471	6119
934.566	6424
934.661	5346
934.755	5422
934.850	5064
934.945	5854
935.039	5439
935.134	5532
935.228	4545
935.323	5802
935.417	6947
935.512	4117
935.606	3989
935.701	3951
935.795	5705
935.890	5933
935.984	5048
936.079	4673
936.173	4413
936.267	5073
936.362	5139
936.456	4487
936.550	6173
936.644	5753
936.738	4636
936.833	3913
936.927	3974
937.021	3346
937.115	4757
937.209	5760
937.303	5079
937.397	4227
937.491	4637
937.585	4190
937.679	5173
937.773	4328
937.867	3370
937.961	3684
938.055	4627
938.149	5298
938.243	4498
938.337	3391
938.430	4112
938.524	4086
938.618	5112
938.712	4836
938.805	4561
938.899	4820
938.993	5405
939.086	5176
939.180	4388
939.274	3684
939.367	4233
939.461	5066
939.554	4919
939.648	3819
939.741	4302
939.835	3923
939.928	4458
940.022	5237
940.115	5643
940.208	5498
940.302	4752
940.395	5362
940.488	5542
940.582	3598
940.675	4397
940.768	3794
940.861	4657
940.954	5354
941.048	5423
941.141	3759
941.234	5404
941.327	5411
941.420	7825
941.513	7592
941.606	6767
941.699	4002
941.792	5342
941.885	4842
941.978	5095
942.071	4379
942.164	4880
942.257	3286
942.349	3697
942.442	3267
942.535	4632
942.628	3640
942.721	4093
942.813	3598
942.906	4803
942.999	3921
943.091	4569
943.184	4384
943.277	4394
943.369	2356
943.462	3606
943.554	3140
943.647	3750
943.739	3471
943.832	4346
943.924	3843
944.017	3783
944.109	3085
944.201	4076
944.294	3919
944.386	3392
944.478	3435
944.571	3482
944.663	3489
944.755	3592
944.847	4094
944.940	4091
945.032	3998
945.124	3289
945.216	3323
945.308	3465
945.400	4435
945.492	3380
945.584	3838
945.676	4172
945.768	4105
945.860	3822
945.952	4091
946.044	4060
946.136	3277
946.228	3109
946.320	3118
946.412	4235
946.503	3561
946.595	4449
946.687	3027
946.779	3671
946.870	2710
946.962	3066
947.054	3928
947.145	4011
947.237	3370
947.329	3419
947.420	3196
947.512	3899
947.603	3207
947.695	2569
947.786	2897
947.878	4146
947.969	2727
948.061	4707
948.152	3809
948.243	3224
948.335	3020
948.426	2864
948.517	3290
948.609	3147
948.700	3192
948.791	3404
948.882	3269
948.973	2561
949.065	3357
949.156	3047
949.247	2736
949.338	3103
949.429	2693
949.520	3141
949.611	2256
949.702	3977
949.793	2702
949.884	3005
949.975	3114
950.066	2948
950.157	1749
950.247	2813
950.338	2787
950.429	3237
950.520	2818
950.611	4143
950.701	3386
950.792	3856
950.883	4084
950.973	3911
951.064	3285
951.155	4010
951.245	3547
951.336	3734
951.427	3498
951.517	4799
951.608	3565
951.698	3814
951.788	2411
951.879	3069
951.969	2521
952.060	3162
952.150	2800
952.240	3235
952.331	2795
952.421	4754
952.511	2191
952.602	2938
952.692	2351
952.782	2086
952.872	2215
952.962	3119
953.052	3321
953.143	2922
953.233	2928
953.323	2643
953.413	2878
953.503	3140
953.593	3027
953.683	3160
953.773	2830
953.863	3518
953.953	2339
954.042	2609
954.132	3429
954.222	3906
954.312	3831
954.402	3390
954.492	4238
954.581	5839
954.671	6993
954.761	3789
954.850	3007
954.940	3228
955.030	2201
955.119	2057
955.209	2605
955.298	1994
955.388	3046
955.477	3796
955.567	2578
955.656	2780
955.746	2498
955.835	2641
955.925	2061
956.014	2571
956.103	2303
956.193	2871
956.282	2700
956.371	3071
956.461	2598
956.550	3292
956.639	2903
956.728	2677
956.817	2278
956.906	2601
956.995	2758
957.085	3746
957.174	2443
957.263	3339
957.352	1549
957.441	2399
957.530	2528
957.619	3542
957.708	1638
957.796	2015
957.885	2465
957.974	2229
958.063	2546
958.152	1648
958.241	2015
958.329	3000
958.418	1917
958.507	2492
958.596	2618
958.684	3023
958.773	2304
958.861	2476
958.950	2083
959.039	2436
959.127	2634
959.216	2225
959.304	2817
959.393	2166
959.481	1919
959.570	2243
959.658	2287
959.746	3127
959.835	3315
959.923	5835
960.011	7001
960.100	3201
960.188	2616
960.276	2172
960.365	1707
960.453	2031
960.541	1226
960.629	2592
960.717	2310
960.805	2022
960.893	2132
960.981	2092
961.069	2124
961.158	2712
961.245	2321
961.333	2954
961.421	1920
961.509	2046
961.597	2137
961.685	2074
961.773	1674
961.861	2468
961.949	1772
962.036	2024
962.124	1923
962.212	2011
962.299	1644
962.387	2185
962.475	1930
962.562	1557
962.650	2493
962.738	2666
962.825	2884
962.913	1428
963.000	2096
963.088	2240
963.175	2395
963.263	2946
963.350	2770
963.438	3691
963.525	4039
963.612	5734
963.700	10518
963.787	23989
963.874	30112
963.962	11268
964.049	2305
964.136	2105
964.223	1436
964.310	2250
964.398	1005
964.485	2327
964.572	2416
964.659	4254
964.746	6187
964.833	5031
964.920	2382
965.007	2278
965.094	1609
965.181	2178
965.268	1860
965.355	2058
965.441	1033
965.528	1664
965.615	2039
965.702	2404
965.789	1310
965.875	606
965.962	1432
966.049	2055
966.136	1484
966.222	2453
966.309	1720
966.395	3535
966.482	2156
966.569	1461
966.655	1522
966.742	2717
966.828	1472
966.915	2157
967.001	1608
967.087	2268
967.174	1920
967.260	2841
967.347	3467
967.433	7870
967.519	17129
967.605	19359
967.692	6314
967.778	1763
967.864	2250
967.950	1949
968.036	1432
968.123	1119
968.209	953
968.295	1897
968.381	1641
968.467	1679
968.553	1533
968.639	1231
968.725	2105
968.811	4153
968.897	5761
968.983	2506
969.069	1325
969.154	2019
969.240	937
969.326	1620
969.412	300
969.497	1064
969.583	1550
969.669	1698
969.755	1217
969.840	1747
969.926	1311
970.012	2947
970.097	3588
970.183	5357
970.268	4564
970.354	3928
970.439	5042
970.525	11216
970.610	12390
970.696	4594
970.781	1568
970.866	1829
970.952	1476
971.037	1304
971.122	525
971.208	859
971.293	693
971.378	1277
971.463	1306
971.549	1454
971.634	1745
971.719	1437
971.804	2359
971.889	3064
971.974	2315
972.059	1000
972.144	719
972.229	1560
972.314	869
972.399	1330
972.484	1438
972.569	1290
972.654	1908
972.739	4145
972.824	7264
972.908	6680
972.993	1768
973.078	1193
973.163	971
973.247	1196
973.332	769
973.417	1235
973.501	786
973.586	1137
973.671	1407
973.755	1811
973.840	1238
973.924	2667
974.009	1591
974.093	1247
974.178	2983
974.262	4711
974.346	6096
974.431	5383
974.515	1796
974.600	877
974.684	1394
974.768	1054
974.852	675
974.937	1209
975.021	1239
975.105	2152
975.189	1160
975.273	1512
975.358	682
975.442	1372
975.526	1038
975.610	1383
975.694	1235
975.778	692
975.862	320
975.946	481
976.030	1674
976.114	1530
976.198	501
976.281	976
976.365	1011
976.449	917
976.533	603
976.617	1606
976.700	648
976.784	2263
976.868	1799
976.951	2787
977.035	2559
977.119	2849
977.202	1020
977.286	882
977.369	962
977.453	2297
977.536	2129
977.620	1206
977.703	1341
977.787	994
977.870	1352
977.953	962
978.037	782
978.120	2490
978.203	3549
978.287	5560
978.370	6621
978.453	3601
978.536	1899
978.620	2174
978.703	3615
978.786	4875
978.869	2054
978.952	1504
979.035	783
979.118	1487
979.201	885
979.284	1323
979.367	787
979.450	1234
979.533	-296
979.616	491
979.699	1176
979.782	1139
979.865	1126
979.948	1254
980.030	537
980.113	964
980.196	1065
980.279	1056
980.361	585
980.444	1611
980.526	728
980.609	1678
980.692	1324
980.774	2707
980.857	1868
980.939	1419
981.022	1385
981.104	1016
981.187	1124
981.269	1673
981.352	1259
981.434	1034
981.516	966
981.599	635
981.681	363
981.763	556
981.846	794
981.928	1230
982.010	87
982.092	961
982.174	709
982.256	1486
982.339	780
982.421	1303
982.503	317
982.585	1041
982.667	852
982.749	773
982.831	350
982.913	1404
982.995	1185
983.077	910
983.158	2209
983.240	2288
983.322	615
983.404	1546
983.486	1549
983.568	1862
983.649	1387
983.731	743
983.813	705
983.894	1103
983.976	879
984.058	2043
984.139	1147
984.221	1372
984.302	867
984.384	965
984.465	525
984.547	1222
984.628	1073
984.710	1180
984.791	1356
984.872	1552
984.954	1121
985.035	1827
985.116	987
985.198	1953
985.279	1059
985.360	1731
985.441	615
985.522	954
985.604	1463
985.685	592
985.766	772
985.847	1086
985.928	924
986.009	1031
986.090	646
986.171	922
986.252	1287
986.333	571
986.414	876
986.495	1441
986.576	806
986.656	943
986.737	1377
986.818	1073
986.899	363
986.980	1410
987.060	1328
987.141	1064
987.222	1130
987.302	1737
987.383	1624
987.464	1891
987.544	1470
987.625	1175
987.705	916
987.786	1503
987.866	1380
987.947	896
988.027	648
988.108	1885
988.188	744
988.268	1728
988.349	1343
988.429	1099
988.509	986
988.589	927
988.670	422
988.750	1297
988.830	531
988.910	1595
988.990	740
989.070	1009
989.151	508
989.231	983
989.311	1189
989.391	867
989.471	607
989.551	1599
989.631	969
989.711	1880
989.791	637
989.870	973
989.950	1060
990.030	1274
990.110	280
990.190	1361
990.269	1084
990.349	692
990.429	767
990.509	1781
990.588	874
990.668	1567
990.747	771
990.827	1414
990.907	137
990.986	919
991.066	916
991.145	1329
991.225	934
991.304	800
991.383	878
991.463	659
991.542	468
991.622	154
991.701	1018
991.780	619
991.859	555
991.939	141
992.018	950
992.097	668
992.176	850
992.256	855
992.335	838
992.414	1044
992.493	404
992.572	832
992.651	818
992.730	1196
992.809	836
992.888	850
992.967	389
993.046	1006
993.125	1049
993.203	395
993.282	1074
993.361	1024
993.440	457
993.519	17
993.597	-153
993.676	491
993.755	-87
993.834	577
993.912	-55
993.991	1215
994.069	234
994.148	788
994.226	623
994.305	678
994.384	-150
994.462	764
994.540	-270
994.619	810
994.697	15
994.776	744
994.854	517
994.932	398
995.011	94
995.089	1025
995.167	582
995.245	941
995.324	35
995.402	582
995.480	-146
995.558	-292
995.636	-220
995.714	-2
995.792	341
995.870	251
995.948	-38
996.026	-56
996.104	-72
996.182	213
996.260	868
996.338	492
996.416	109
996.494	1008
996.572	35
996.649	209
996.727	-196
996.805	146
996.883	-470
996.960	-755
997.038	-656
997.116	548
997.193	401
997.271	265
997.348	-410
997.426	110
997.504	-849
997.581	287
997.658	512
997.736	-351
997.813	-503
997.891	161
997.968	-546
998.046	-326
998.123	-564
998.200	1088
998.277	455
998.355	324
998.432	-864
998.509	-177
998.586	-387
998.663	-341
998.741	-340
998.818	162
998.895	134
998.972	207
999.049	-448
999.126	-279
999.203	-224
999.280	-17
999.357	-660
999.434	-1078
999.511	42
999.587	363
999.664	-931
999.741	83
999.818	611
999.895	1394
999.971	-829
1000.048	-104
1000.125	-712
1000.202	-212
1000.278	-29
1000.355	697
1000.431	-619
1000.508	-833
1000.584	-921
1000.661	-279
1000.738	-774
1000.814	27
1000.890	-681
1000.967	-291
1001.043	-371
1001.120	86
1001.196	-457
1001.272	-751
1001.349	285
1001.425	-215
1001.501	-946
1001.577	-699
1001.654	-164
1001.730	-169
1001.806	-734
1001.882	-655
1001.958	-183
1002.034	-303
1002.110	-905
1002.186	46
1002.262	-1160
1002.338	308
1002.414	-1089
1002.490	-752
1002.566	-450
1002.642	-215
1002.718	-618
1002.794	107
1002.870	-306
1002.945	-42
1003.021	-671
1003.097	2
1003.173	-703
1003.248	-452
1003.324	-323
1003.400	-51
1003.475	-779
1003.551	-769
1003.626	-696
1003.702	-829
1003.777	-638
1003.853	-793
1003.928	-897
1004.004	-687
1004.079	-1141
1004.155	-186
1004.230	-1516
1004.305	-384
1004.381	-412
1004.456	-243
1004.531	-511
1004.607	-298
1004.682	-548
1004.757	8
1004.832	35
1004.907	-607
1004.982	-715
1005.057	-280
1005.133	-373
1005.208	86
1005.283	-437
1005.358	-656
1005.433	-993
1005.508	-81
1005.583	-816
1005.657	-431
1005.732	-700
1005.807	173
1005.882	-669
1005.957	-325
1006.032	-862
1006.106	-469
1006.181	-429
1006.256	-1114
1006.331	-1119
1006.405	-891
1006.480	-807
1006.554	-229
1006.629	-727
1006.704	-1465
1006.778	-1198
1006.853	-1335
1006.927	-961
1007.002	-895
1007.076	-405
1007.150	-722
1007.225	-416
1007.299	-458
1007.373	35
1007.448	-927
1007.522	136
1007.596	-931
1007.671	-1309
1007.745	516
1007.819	-334
1007.893	-756
1007.967	276
1008.041	-98
1008.115	-1169
1008.190	-514
1008.264	-894
1008.338	-220
1008.412	-1139
1008.486	-670
1008.560	-1592
1008.633	-1103
1008.707	-470
1008.781	-31
1008.855	-1155
1008.929	-613
1009.003	-991
1009.076	-405
1009.150	-1412
1009.224	-986
1009.298	-1108
1009.371	-1344
1009.445	-539
1009.519	-1009
1009.592	-1468
1009.666	-946
1009.739	-965
1009.813	-394
1009.886	-730
1009.960	-695
1010.033	-555
1010.107	-444
1010.180	-530
1010.253	0
1010.327	-1796
1010.400	-541
1010.473	-1422
1010.547	-71
1010.620	-896
1010.693	-688
1010.766	-607
1010.840	-231
1010.913	-349
1010.986	-714
1011.059	-577
1011.132	-883
1011.205	-1364
1011.278	-113
1011.351	-1126
1011.424	-50
1011.497	-1148
1011.570	-1050
1011.643	-1039
1011.716	-966
1011.789	-1005
1011.862	425
1011.934	-680
1012.007	-1363
1012.080	-542
1012.153	-1097
1012.225	-63
1012.298	-978
1012.371	-1084
1012.443	-865
1012.516	-535
1012.588	-533
1012.661	-1824
1012.733	-834
1012.806	-288
1012.879	-630
1012.951	-1327
1013.023	-466
1013.096	-1585
1013.168	-450
1013.241	-957
1013.313	-468
1013.385	-1861
1013.458	-876
1013.530	-478
1013.602	-1218
1013.674	-255
1013.746	-1077
1013.819	-1708
1013.891	-924
1013.963	-1149
1014.035	-1116
1014.107	-901
1014.179	-1247
1014.251	-779
1014.323	-1179
1014.395	-1569
1014.467	-366
1014.539	-435
1014.611	-4
1014.683	-1263
1014.754	-477
1014.826	-1111
1014.898	-1351
1014.970	-1369
1015.042	-1311
1015.113	-1006
1015.185	-913
1015.257	-1243
1015.328	-443
1015.400	-1230
1015.471	-527
1015.543	-1354
1015.615	-1164
1015.686	-967
1015.757	-500
1015.829	-593
1015.901	-14
1015.972	-1698
1016.043	-843
1016.115	-1340
1016.186	-1741
1016.257	-1439
1016.328	-982
1016.400	-1347
1016.471	-424
1016.542	-1142
1016.613	-762
1016.685	-1001
1016.756	-618
1016.827	-1620
1016.898	-1423
1016.969	-1123
1017.040	-838
1017.111	-1589
1017.182	-920
1017.253	-1586
1017.324	-844
1017.395	-695
1017.466	-665
1017.537	-1390
1017.608	-1550
1017.678	-1010
1017.749	-463
1017.820	-1396
1017.891	-1104
1017.961	-1110
1018.032	-451
1018.103	-1210
1018.173	-937
1018.244	-1387
1018.315	-2148
1018.385	-1228
1018.456	-868
1018.526	-1567
1018.597	-1586
1018.667	-1652
1018.738	-901
1018.808	-2008
1018.878	-1583
1018.949	-1609
1019.019	-1573
1019.089	-1040
1019.160	-707
1019.230	-1267
1019.300	-855
1019.371	-1074
1019.441	-460
1019.511	-1171
1019.581	-1265
1019.651	-1314
1019.721	-613
1019.791	-1282
1019.861	-900
1019.931	-1693
1020.001	-529
1020.071	-1421
1020.141	-1224
1020.211	-950
1020.281	-1652
1020.351	-2182
1020.421	-675
1020.491	-2186
1020.560	-965
1020.630	-1415
1020.700	-1324
1020.770	-2362
1020.839	-1565
1020.909	-1759
1020.979	-1063
1021.048	-1796
1021.118	-1533
1021.187	-1048
1021.257	-1074
1021.326	-955
1021.396	-1734
1021.465	-958
1021.535	-685
1021.604	-583
1021.674	-1039
1021.743	-1075
1021.812	-1267
1021.882	-1770
1021.951	-1407
1022.020	-1514
1022.089	-427
1022.159	-1004
1022.228	-232
1022.297	-905
1022.366	-284
1022.435	-1371
1022.504	-1301
1022.573	-1329
1022.642	-848
1022.711	-1215
1022.781	-918
1022.849	-1594
1022.918	-1044
1022.987	-1056
1023.056	-1146
1023.125	-1279
1023.194	-279
1023.263	-1732
1023.331	116
1023.400	-1915
1023.469	-688
1023.538	-951
1023.606	-1673
1023.675	-2133
1023.744	-1342
1023.812	-1316
1023.881	-1550
1023.949	-1477
1024.018	-926
1024.086	-1545
1024.155	-621
1024.223	-400
1024.292	-731
1024.360	-1288
1024.429	-815
1024.497	-1608
1024.565	-886
1024.634	29
1024.702	-1865
1024.770	-1560
1024.838	-1239
1024.907	-1356
1024.975	-1018
1025.043	-997
1025.111	-1064
1025.179	-1409
1025.247	-1821
1025.315	-1983
1025.383	-917
1025.451	-1143
1025.519	-754
1025.587	-1971
1025.655	-708
1025.723	-1502
1025.791	-1212
1025.859	77
1025.927	-1625
1025.995	-1773
1026.062	-718
1026.130	-1244
1026.198	-1185
1026.266	-2066
1026.333	-744
1026.401	-871
1026.469	-1180
1026.536	-1006
1026.604	-1394
1026.671	-1577
1026.739	-136
1026.806	-1653
1026.874	-798
1026.941	-944
1027.009	-735
1027.076	-1752
1027.144	-1411
1027.211	-1808
1027.278	-737
1027.345	-835
1027.413	-855
1027.480	-1459
1027.547	-1115
1027.614	-1395
1027.682	-1078
1027.749	-934
1027.816	-920
1027.883	-810
1027.950	-250
1028.017	-1552
1028.084	-1175
1028.151	-1235
1028.218	-154
1028.285	-1579
1028.352	-1331
1028.419	-1482
1028.486	-1038
1028.553	-1308
1028.619	-1221
1028.686	-1431
1028.753	-1029
1028.820	-350
1028.886	-1267
1028.953	-1566
1029.020	-936
1029.086	-1332
1029.153	-1575
1029.220	-1401
1029.286	-709
1029.353	-1108
1029.419	-1418
1029.486	-1332
1029.552	-893
1029.619	-999
1029.685	-1646
1029.751	-1754
1029.818	-104
1029.884	-1576
1029.951	-747
1030.017	-1325
1030.083	-1339
1030.149	-1501
1030.216	-119
1030.282	-1567
1030.348	-962
1030.414	-941
1030.480	-892
1030.546	-713
1030.612	-1065
1030.678	-1895
1030.744	-525
1030.810	-875
1030.876	-263
1030.942	-1741
1031.008	-635
1031.074	-1531
1031.140	-792
1031.206	-1685
1031.272	-1425
1031.337	-2078
1031.403	-1567
1031.469	-1433
1031.534	-1155
1031.600	-1136
1031.666	-260
1031.731	-1518
1031.797	-1131
1031.863	-1926
1031.928	-653
1031.994	-1249
1032.059	-1088
1032.125	-1201
1032.190	-1674
1032.256	-1020
1032.321	-1092
1032.386	-644
1032.452	-1340
1032.517	-2254
1032.582	-1485
1032.647	-1728
1032.713	-1000
1032.778	-1224
1032.843	-1118
1032.908	-1624
1032.974	-385
1033.039	-1135
1033.104	-575
1033.169	-1411
1033.234	-705
1033.299	-558
1033.364	377
1033.429	-1126
1033.494	122
1033.559	620
1033.624	-751
1033.688	-414
1033.753	-397
1033.818	-980
1033.883	-1060
1033.948	-418
1034.013	527
1034.077	-498
1034.142	-98
1034.207	359
1034.271	1268
1034.336	2484
1034.400	3461
1034.465	3965
1034.530	3605
1034.594	3016
1034.658	1422
1034.723	-551
1034.787	-20
1034.852	-577
1034.916	-440
1034.981	-785
1035.045	-1023
1035.109	-1858
1035.173	-955
1035.238	-1639
1035.302	-442
1035.366	-193
1035.430	-325
1035.495	-1054
1035.559	-1720
1035.623	-1318
1035.687	-1310
1035.751	-1278
1035.815	-1218
1035.879	-567
1035.943	-983
1036.007	-883
1036.071	-969
1036.135	-1380
1036.198	-1118
1036.262	-471
1036.326	-351
1036.390	-863
1036.454	360
1036.517	-650
1036.581	-180
1036.645	-70
1036.709	972
1036.772	1484
1036.836	1490
1036.900	-460
1036.963	-1169
1037.026	-1075
1037.090	-566
1037.154	-1260
1037.217	-1650
1037.280	-1487
1037.344	-1311
1037.407	-1441
1037.471	-562
1037.534	-663
1037.597	-291
1037.661	-1248
1037.724	19
1037.787	-877
1037.850	-1229
1037.913	-353
1037.977	-883
1038.040	-1196
1038.103	-200
1038.166	-820
1038.229	-996
1038.292	-1198
1038.355	-1215
1038.418	-769
1038.481	-242
1038.544	-1485
1038.607	-751
1038.670	-1185
1038.732	-1177
1038.795	-1463
1038.858	-1015
1038.921	-1494
1038.984	-770
1039.046	-1370
1039.109	-1300
1039.172	-846
1039.234	-1237
1039.297	-1538
1039.360	-1242
1039.422	-1937
1039.485	-683
1039.547	-1781
1039.610	-1170
1039.672	-1820
1039.734	-1625
1039.797	-1655
1039.859	-1556
1039.922	-1378
1039.984	-710
1040.046	-591
1040.109	-724
1040.171	-1444
1040.233	-1382
1040.295	-1821
1040.358	-1815
1040.420	-2221
1040.482	-1392
1040.544	-2046
1040.606	-1405
1040.668	-1704
1040.730	-1510
1040.792	-1404
1040.854	-141
1040.916	-1267
1040.978	-1635
1041.040	-1221
1041.102	-1628
1041.164	-1403
1041.225	-478
1041.287	-929
1041.349	-1789
1041.411	-1371
1041.472	-904
1041.534	-1234
1041.596	-923
1041.657	-285
1041.719	-387
1041.781	-1855
1041.842	-477
1041.904	-651
1041.965	-1194
1042.027	-1600
1042.088	-928
1042.150	-445
1042.211	-405
1042.272	-547
1042.334	-715
1042.395	-1334
1042.456	-1363
1042.518	-1248
1042.579	-1649
1042.640	-1327
1042.701	-2140
1042.763	-1389
1042.824	-327
1042.885	-1261
1042.946	-1144
1043.007	-1185
1043.068	-1481
1043.129	-588
1043.190	-1414
1043.251	-1154
1043.312	-1527
1043.373	-1317
1043.434	-1039
1043.495	-1667
1043.556	-1087
1043.616	-1503
1043.677	-1770
1043.738	-1609
1043.799	-1280
1043.859	-1413
1043.920	-1303
1043.981	-2016
1044.041	-992
1044.102	-2086
1044.162	-638
1044.223	-1117
1044.284	-777
1044.344	-1550
1044.405	-1192
1044.465	-1606
1044.525	-717
1044.586	-2041
1044.646	-807
1044.707	-2159
1044.767	-3
1044.827	-1508
1044.887	-1204
1044.948	-1274
1045.008	-883
1045.068	-1804
1045.128	-197
1045.188	-1183
1045.249	-1022
1045.309	-964
1045.369	-279
1045.429	-1419
1045.489	-930
1045.549	47
1045.609	-1167
1045.669	-816
1045.729	-835
1045.789	-1547
1045.848	517
1045.908	-759
1045.968	-943
1046.028	-1342
1046.088	-556
1046.147	-1489
1046.207	-699
1046.267	-827
1046.326	-665
1046.386	-2052
1046.446	-187
1046.505	-906
1046.565	-260
1046.624	-1337
1046.684	-58
1046.743	193
1046.803	-478
1046.862	148
1046.922	0
