'Start Wavelength	183.907
'End Wavelength	1046.922
'Gate Delay	5.000
'Gate Width (ms)	1.050
'Laser Output Level	0.000
'X Position	0.000
'Y Position	0.000
'Z Position	0.000
'Grid Point Number	1.000
'Shot Number	100.000
183.907	123.000
183.977	-638.000
184.047	642
184.116	254
184.186	-302
184.256	-348
184.325	180
184.395	-799
184.465	399
184.534	121
184.604	426
184.674	57
184.743	129
184.813	506
184.883	374
184.952	-119
185.022	401
185.092	-398
185.161	-77
185.231	447
185.301	-346
185.370	-55
185.440	173
185.509	376
185.579	-307
185.649	-584
185.718	-342
185.788	-373
185.857	-90
185.927	70
185.996	-247
186.066	-294
186.136	363
186.205	105
186.275	608
186.344	791
186.414	589
186.483	-29
186.553	1663
186.622	545
186.692	408
186.761	87
186.831	-50
186.900	145
186.970	444
187.039	337
187.109	658
187.178	204
187.248	240
187.317	-281
187.387	-176
187.456	-55
187.526	214
187.595	829
187.664	57
187.734	585
187.803	608
187.873	601
187.942	748
188.012	-284
188.081	550
188.150	323
188.220	969
188.289	241
188.358	-177
188.428	756
188.497	461
188.567	1152
188.636	-89
188.705	89
188.775	491
188.844	432
188.913	-120
188.983	138
189.052	-401
189.121	136
189.191	604
189.260	598
189.329	987
189.399	723
189.468	575
189.537	51
189.606	393
189.676	318
189.745	253
189.814	104
189.883	244
189.953	148
190.022	980
190.091	2190
190.161	2125
190.230	1543
190.299	-95
190.368	-224
190.437	47
190.507	124
190.576	-273
190.645	-117
190.714	284
190.783	690
190.853	267
190.922	380
190.991	361
191.060	207
191.129	-894
191.198	332
191.268	296
191.337	790
191.406	1148
191.475	726
191.544	1106
191.613	389
191.682	413
191.752	84
191.821	379
191.890	-216
191.959	338
192.028	124
192.097	999
192.166	571
192.235	-108
192.304	272
192.373	378
192.442	-79
192.511	423
192.580	643
192.650	42
192.719	-122
192.788	-83
192.857	957
192.926	-96
192.995	483
193.064	366
193.133	704
193.202	715
193.271	1661
193.340	884
193.409	774
193.478	656
193.547	1546
193.615	2023
193.684	1710
193.753	1066
193.822	486
193.891	127
193.960	1432
194.029	397
194.098	674
194.167	175
194.236	-38
194.305	470
194.374	22
194.443	654
194.512	901
194.580	465
194.649	1595
194.718	178
194.787	-198
194.856	134
194.925	844
194.994	849
195.062	311
195.131	925
195.200	773
195.269	1210
195.338	1004
195.407	903
195.475	793
195.544	625
195.613	1118
195.682	1061
195.751	1812
195.819	12
195.888	540
195.957	1436
196.026	680
196.094	1419
196.163	1154
196.232	1379
196.301	1094
196.369	1493
196.438	273
196.507	887
196.576	392
196.644	207
196.713	139
196.782	277
196.850	690
196.919	394
196.988	336
197.056	-35
197.125	1360
197.194	644
197.262	994
197.331	1252
197.400	-236
197.468	842
197.537	345
197.606	213
197.674	1749
197.743	2107
197.812	1072
197.880	3069
197.949	699
198.017	3433
198.086	1524
198.155	882
198.223	467
198.292	2871
198.360	716
198.429	613
198.497	782
198.566	2011
198.635	2313
198.703	1736
198.772	1124
198.840	3732
198.909	2717
198.977	774
199.046	282
199.114	781
199.183	124
199.251	1242
199.320	-68
199.388	332
199.457	283
199.525	771
199.594	70
199.662	109
199.731	-375
199.799	539
199.867	831
199.936	772
200.004	718
200.073	595
200.141	529
200.210	272
200.278	126
200.346	709
200.415	746
200.483	480
200.552	247
200.620	564
200.688	515
200.757	516
200.825	42
200.893	612
200.962	234
201.030	691
201.098	123
201.167	852
201.235	489
201.303	571
201.372	653
201.440	883
201.508	1722
201.577	868
201.645	862
201.713	942
201.781	482
201.850	896
201.918	121
201.986	332
202.055	1109
202.123	926
202.191	828
202.259	791
202.327	311
202.396	417
202.464	1233
202.532	1061
202.600	5930
202.669	2316
202.737	1137
202.805	790
202.873	120
202.941	1232
203.009	1050
203.078	793
203.146	756
203.214	452
203.282	671
203.350	550
203.418	1146
203.487	-44
203.555	1086
203.623	625
203.691	865
203.759	-42
203.827	134
203.895	1305
203.963	845
204.031	456
204.099	1104
204.168	933
204.236	1663
204.304	1114
204.372	-59
204.440	1005
204.508	879
204.576	-65
204.644	763
204.712	758
204.780	447
204.848	880
204.916	679
204.984	379
205.052	465
205.120	773
205.188	1076
205.256	298
205.324	754
205.392	1164
205.460	884
205.528	1086
205.596	786
205.664	670
205.732	1152
205.799	4958
205.867	4263
205.935	960
206.003	964
206.071	1504
206.139	1203
206.207	1023
206.275	1451
206.343	745
206.411	870
206.478	1570
206.546	1082
206.614	804
206.682	444
206.750	471
206.818	762
206.885	1748
206.953	263
207.021	380
207.089	1375
207.157	120
207.225	539
207.292	628
207.360	758
207.428	686
207.496	475
207.563	1553
207.631	492
207.699	629
207.767	354
207.834	1072
207.902	926
207.970	1537
208.038	806
208.105	764
208.173	1107
208.241	2343
208.309	1747
208.376	1352
208.444	3611
208.512	400
208.579	882
208.647	1617
208.715	1420
208.782	1107
208.850	447
208.918	1453
208.985	932
209.053	1603
209.120	461
209.188	954
209.256	-420
209.323	1720
209.391	1490
209.459	1427
209.526	861
209.594	1588
209.661	1325
209.729	1027
209.796	1216
209.864	1237
209.932	1335
209.999	1713
210.067	2113
210.134	1272
210.202	1369
210.269	2033
210.337	1567
210.404	1513
210.472	1732
210.539	1368
210.607	1685
210.674	1642
210.742	976
210.809	1101
210.877	2003
210.944	1343
211.012	956
211.079	1560
211.146	867
211.214	918
211.281	2647
211.349	1754
211.416	1837
211.484	1563
211.551	1545
211.618	1391
211.686	737
211.753	870
211.821	1110
211.888	1838
211.955	1548
212.023	885
212.090	1643
212.157	1820
212.225	1111
212.292	2668
212.359	7488
212.427	17551
212.494	5578
212.561	2001
212.629	2417
212.696	2032
212.763	1844
212.831	1265
212.898	1354
212.965	1024
213.032	902
213.100	1612
213.167	1445
213.234	2385
213.301	2302
213.369	1425
213.436	1103
213.503	1479
213.570	1264
213.638	1504
213.705	907
213.772	1903
213.839	2491
213.906	2260
213.973	2187
214.041	1717
214.108	1241
214.175	1370
214.242	1080
214.309	1970
214.376	1171
214.444	1372
214.511	1992
214.578	1442
214.645	1626
214.712	1569
214.779	1815
214.846	2130
214.913	2003
214.980	2201
215.048	2716
215.115	2307
215.182	1971
215.249	1381
215.316	1364
215.383	1833
215.450	1535
215.517	1874
215.584	686
215.651	1479
215.718	1442
215.785	2009
215.852	1350
215.919	2568
215.986	2095
216.053	1749
216.120	1419
216.187	1329
216.254	1528
216.321	1730
216.388	1801
216.455	1778
216.522	1411
216.589	2342
216.656	5013
216.722	3987
216.789	2072
216.856	2612
216.923	2431
216.990	1902
217.057	2010
217.124	2804
217.191	2685
217.258	4249
217.324	3582
217.391	3710
217.458	2419
217.525	2261
217.592	2438
217.659	2010
217.725	2828
217.792	4801
217.859	3123
217.926	1004
217.993	754
218.059	1635
218.126	1538
218.193	1422
218.260	843
218.327	1199
218.393	1289
218.460	1622
218.527	1301
218.594	1627
218.660	4458
218.727	3597
218.794	1315
218.860	1393
218.927	1379
218.994	703
219.061	819
219.127	2575
219.194	3480
219.261	1185
219.327	696
219.394	896
219.461	582
219.527	594
219.594	2713
219.661	834
219.727	1147
219.794	2055
219.860	742
219.927	1535
219.994	3177
220.060	5602
220.127	3049
220.193	2074
220.260	1415
220.326	3009
220.393	5199
220.460	5964
220.526	3891
220.593	2658
220.659	3352
220.726	4152
220.792	9218
220.859	7220
220.925	8460
220.992	10568
221.058	12460
221.125	11266
221.191	8184
221.258	2996
221.324	1983
221.391	1488
221.457	1787
221.524	2382
221.590	3141
221.657	11423
221.723	6456
221.789	6958
221.856	5502
221.922	2753
221.989	2399
222.055	1335
222.121	1157
222.188	3135
222.254	2063
222.321	1478
222.387	1203
222.453	1084
222.520	1055
222.586	862
222.652	911
222.719	1062
222.785	1356
222.851	1418
222.918	980
222.984	1805
223.050	1410
223.116	1198
223.183	725
223.249	573
223.315	110
223.382	855
223.448	838
223.514	1181
223.580	1319
223.647	-254
223.713	-187
223.779	563
223.845	1665
223.911	797
223.978	622
224.044	-19
224.110	858
224.176	443
224.242	559
224.309	1125
224.375	871
224.441	-171
224.507	755
224.573	742
224.639	771
224.705	357
224.772	291
224.838	980
224.904	1730
224.970	461
225.036	959
225.102	604
225.168	1109
225.234	576
225.300	530
225.366	798
225.432	1254
225.499	1160
225.565	1298
225.631	1437
225.697	1585
225.763	1823
225.829	2597
225.895	2380
225.961	3855
226.027	2811
226.093	2991
226.159	3052
226.225	5266
226.291	13315
226.357	17040
226.423	9076
226.489	5208
226.554	3670
226.620	2479
226.686	4627
226.752	6499
226.818	12619
226.884	26171
226.950	18154
227.016	6589
227.082	4395
227.148	3584
227.214	3459
227.279	2707
227.345	2469
227.411	2599
227.477	2990
227.543	7518
227.609	6283
227.674	3420
227.740	1960
227.806	1809
227.872	1348
227.938	2074
228.003	3220
228.069	1724
228.135	1219
228.201	984
228.267	1362
228.332	1873
228.398	2791
228.464	1539
228.530	1180
228.595	1481
228.661	1256
228.727	3605
228.792	2087
228.858	1401
228.924	739
228.990	2836
229.055	1958
229.121	2313
229.187	1170
229.252	1225
229.318	1106
229.384	1301
229.449	2171
229.515	553
229.581	-191
229.646	1667
229.712	1940
229.777	5673
229.843	4893
229.909	3624
229.974	3623
230.040	2973
230.105	2003
230.171	2892
230.236	3486
230.302	4990
230.368	3184
230.433	1804
230.499	2157
230.564	3263
230.630	1196
230.695	1502
230.761	1143
230.826	990
230.892	2808
230.957	1316
231.023	1108
231.088	907
231.154	1471
231.219	1525
231.284	3434
231.350	2451
231.415	1488
231.481	1113
231.546	1279
231.612	1750
231.677	825
231.742	472
231.808	2090
231.873	693
231.939	35
232.004	3636
232.069	2808
232.135	1286
232.200	824
232.265	1487
232.331	682
232.396	1276
232.461	618
232.527	1210
232.592	407
232.657	1158
232.723	2911
232.788	1665
232.853	951
232.918	78
232.984	720
233.049	471
233.114	2312
233.179	1366
233.245	5376
233.310	4633
233.375	1213
233.440	371
233.506	385
233.571	-232
233.636	1236
233.701	1212
233.766	2974
233.832	2955
233.897	1771
233.962	1369
234.027	1645
234.092	1825
234.157	593
234.222	1039
234.288	4315
234.353	10874
234.418	9193
234.483	4585
234.548	2746
234.613	2217
234.678	2117
234.743	3414
234.808	11675
234.873	5706
234.938	2356
235.004	2442
235.069	2443
235.134	1590
235.199	1636
235.264	1472
235.329	753
235.394	1450
235.459	1986
235.524	1349
235.589	848
235.654	1483
235.719	1014
235.784	1776
235.849	2950
235.913	4979
235.978	7386
236.043	5809
236.108	2340
236.173	2857
236.238	1528
236.303	1244
236.368	1802
236.433	4494
236.498	6297
236.563	3983
236.627	10230
236.692	34294
236.757	20217
236.822	8865
236.887	6708
236.952	5443
237.017	4658
237.081	4930
237.146	5877
237.211	12773
237.276	37993
237.341	50322
237.405	20718
237.470	8976
237.535	6757
237.600	3256
237.664	3017
237.729	1705
237.794	4239
237.859	7265
237.923	5107
237.988	2990
238.053	5466
238.118	5486
238.182	17740
238.247	11048
238.312	5678
238.376	3767
238.441	2421
238.506	2615
238.570	440
238.635	2472
238.700	1451
238.764	1466
238.829	7299
238.893	5998
238.958	4307
239.023	3101
239.087	1583
239.152	1959
239.216	1559
239.281	2345
239.346	1418
239.410	1226
239.475	2667
239.539	17130
239.604	8356
239.668	2931
239.733	2170
239.797	3524
239.862	11431
239.926	11908
239.991	4287
240.055	1660
240.120	2140
240.184	1975
240.249	1269
240.313	810
240.378	1237
240.442	9871
240.507	11821
240.571	3389
240.635	8120
240.700	6569
240.764	2187
240.829	1424
240.893	822
240.957	2019
241.022	10138
241.086	13125
241.151	4558
241.215	1363
241.279	3932
241.344	6303
241.408	2665
241.472	1780
241.537	2554
241.601	1741
241.665	1787
241.730	1543
241.794	1970
241.858	2311
241.922	2117
241.987	1419
242.051	1503
242.115	2081
242.179	1918
242.244	985
242.308	2455
242.372	2617
242.436	2512
242.501	1970
242.565	1601
242.629	908
242.693	2219
242.757	1124
242.822	1692
242.886	1795
242.950	2107
243.014	1721
243.078	2867
243.142	3026
243.206	1481
243.271	2027
243.335	2446
243.399	4674
243.463	26284
243.527	45497
243.591	12637
243.655	5515
243.719	2902
243.783	3830
243.847	6805
243.911	7634
243.975	11162
244.040	5885
244.104	4267
244.168	2272
244.232	5492
244.296	6767
244.360	6903
244.424	4062
244.488	3228
244.552	2502
244.615	1586
244.679	1517
244.743	4056
244.807	2964
244.871	2267
244.935	2336
244.999	1119
245.063	2054
245.127	2745
245.191	5096
245.255	4502
245.319	4901
245.383	2624
245.446	2665
245.510	1221
245.574	2909
245.638	2681
245.702	3007
245.766	8509
245.829	4327
245.893	3153
245.957	2774
246.021	3134
246.085	2956
246.149	4186
246.212	13367
246.276	16534
246.340	6563
246.404	4629
246.467	5722
246.531	7433
246.595	4658
246.659	4644
246.722	3393
246.786	4772
246.850	6254
246.913	6436
246.977	3362
247.041	2818
247.104	2877
247.168	4740
247.232	13679
247.295	24542
247.359	9104
247.423	5535
247.486	8654
247.550	4782
247.614	4208
247.677	5894
247.741	3078
247.804	3066
247.868	4033
247.932	13342
247.995	20548
248.059	6378
248.122	2445
248.186	4948
248.249	11361
248.313	44455
248.376	35245
248.440	22038
248.503	7442
248.567	6550
248.630	10858
248.694	13113
248.757	21263
248.821	40414
248.884	20813
248.948	23062
249.011	30910
249.075	50532
249.138	34133
249.202	12666
249.265	8118
249.328	10800
249.392	7529
249.455	5841
249.519	5192
249.582	7032
249.645	10974
249.709	7204
249.772	4866
249.835	5017
249.899	5180
249.962	5221
250.025	4361
250.089	18543
250.152	16748
250.215	8280
250.279	5689
250.342	6299
250.405	6017
250.468	4903
250.532	7048
250.595	11842
250.658	60979
250.721	65849
250.785	23536
250.848	12925
250.911	7741
250.974	7627
251.038	13770
251.101	22862
251.164	10697
251.227	12347
251.290	9289
251.354	17057
251.417	77989
251.480	51807
251.543	50202
251.606	129773
251.669	70941
251.732	29251
251.795	34526
251.859	36744
251.922	77954
251.985	34241
252.048	14765
252.111	10533
252.174	10409
252.237	25532
252.300	44951
252.363	58943
252.426	94890
252.489	33767
252.552	18101
252.615	11975
252.678	15092
252.741	37192
252.804	55319
252.867	96604
252.930	53108
252.993	28658
253.056	17341
253.119	11223
253.182	10282
253.245	15713
253.308	11510
253.371	11885
253.434	9852
253.497	11469
253.559	22449
253.622	13691
253.685	19543
253.748	14946
253.811	7661
253.874	12718
253.937	9141
254.000	8017
254.062	18410
254.125	20395
254.188	22155
254.251	14760
254.314	8651
254.376	17831
254.439	15096
254.502	12137
254.565	18839
254.628	25370
254.690	13872
254.753	7385
254.816	6500
254.878	8141
254.941	19455
255.004	13353
255.067	7151
255.129	5733
255.192	3867
255.255	4129
255.317	4062
255.380	3162
255.443	2503
255.505	2872
255.568	2039
255.631	2392
255.693	2511
255.756	2328
255.819	3055
255.881	1936
255.944	2161
256.006	1864
256.069	2428
256.132	1908
256.194	5547
256.257	12283
256.319	8489
256.382	5779
256.444	4001
256.507	3208
256.569	2511
256.632	3330
256.694	5886
256.757	22659
256.819	44755
256.882	15072
256.944	6678
257.007	6707
257.069	5566
257.132	4747
257.194	3756
257.257	2865
257.319	2974
257.381	3763
257.444	13831
257.506	65897
257.569	53508
257.631	29199
257.693	14226
257.756	6500
257.818	5389
257.880	3745
257.943	3915
258.005	3159
258.067	2741
258.130	3184
258.192	4790
258.254	9248
258.317	4570
258.379	3148
258.441	15055
258.503	9145
258.566	20358
258.628	16015
258.690	4702
258.753	5645
258.815	8583
258.877	4283
258.939	2644
259.001	2714
259.064	2678
259.126	4736
259.188	5717
259.250	3515
259.312	6036
259.375	18270
259.437	7349
259.499	3441
259.561	3080
259.623	4017
259.685	3259
259.747	3492
259.809	19176
259.872	24053
259.934	47743
259.996	28840
260.058	7584
260.120	4291
260.182	3397
260.244	2549
260.306	2228
260.368	3619
260.430	2142
260.492	8332
260.554	16464
260.616	9651
260.678	27945
260.740	23359
260.802	6323
260.864	5439
260.926	3443
260.988	3726
261.050	3655
261.112	13018
261.174	33318
261.236	17380
261.298	6400
261.359	14934
261.421	13446
261.483	3918
261.545	4024
261.607	2185
261.669	2808
261.731	9872
261.793	17654
261.854	6436
261.916	4442
261.978	4315
262.040	3850
262.102	3479
262.164	7111
262.225	4006
262.287	3495
262.349	12575
262.411	6153
262.472	3289
262.534	10973
262.596	15177
262.658	4343
262.719	3068
262.781	6587
262.843	15996
262.904	4693
262.966	4647
263.028	5137
263.090	45226
263.151	72284
263.213	21780
263.275	11263
263.336	4955
263.398	4563
263.459	2077
263.521	3499
263.583	11108
263.644	4427
263.706	1984
263.767	1768
263.829	2190
263.891	963
263.952	1276
264.014	1477
264.075	6045
264.137	11079
264.198	4705
264.260	1312
264.321	1140
264.383	11288
264.444	16949
264.506	3922
264.567	3149
264.629	9596
264.690	13199
264.752	4528
264.813	2994
264.875	1855
264.936	2867
264.998	1851
265.059	2237
265.120	1431
265.182	4555
265.243	27716
265.305	17064
265.366	4652
265.427	2960
265.489	2372
265.550	1094
265.611	3384
265.673	2427
265.734	2170
265.795	1495
265.857	1541
265.918	1387
265.979	7596
266.040	45779
266.102	24128
266.163	9374
266.224	6777
266.286	3995
266.347	1772
266.408	3014
266.469	2435
266.530	1672
266.592	1398
266.653	7431
266.714	8864
266.775	3392
266.836	2363
266.898	2386
266.959	4603
267.020	2573
267.081	1491
267.142	2303
267.203	1661
267.264	999
267.326	1772
267.387	2000
267.448	754
267.509	2622
267.570	2251
267.631	947
267.692	949
267.753	2529
267.814	1193
267.875	7664
267.936	12669
267.997	6460
268.058	4717
268.119	2122
268.180	2499
268.241	1666
268.302	1780
268.363	1152
268.424	1966
268.485	2428
268.546	987
268.607	1376
268.668	1228
268.729	625
268.790	938
268.851	2240
268.912	10060
268.972	8917
269.033	3754
269.094	1158
269.155	1479
269.216	999
269.277	1841
269.338	1281
269.398	1922
269.459	2005
269.520	4106
269.581	6017
269.642	6047
269.702	4255
269.763	2435
269.824	1874
269.885	4058
269.945	5456
270.006	2023
270.067	1304
270.128	1323
270.188	1244
270.249	572
270.310	1301
270.370	1743
270.431	2010
270.492	435
270.553	2193
270.613	7542
270.674	12752
270.734	3378
270.795	2056
270.856	4368
270.916	2323
270.977	2243
271.038	4345
271.098	2477
271.159	6951
271.219	5132
271.280	1665
271.340	1518
271.401	4390
271.462	8486
271.522	3277
271.583	2779
271.643	2998
271.704	2584
271.764	3290
271.825	11289
271.885	44112
271.946	40065
272.006	12795
272.066	27104
272.127	32720
272.187	8973
272.248	5243
272.308	8108
272.369	27871
272.429	9705
272.489	10996
272.550	8110
272.610	11564
272.671	5644
272.731	8318
272.791	10988
272.852	5977
272.912	5444
272.972	2572
273.033	3500
273.093	6099
273.153	4972
273.214	4138
273.274	3450
273.334	25350
273.394	33165
273.455	12181
273.515	18207
273.575	29913
273.635	10963
273.696	21736
273.756	33127
273.816	11450
273.876	6930
273.936	23005
273.997	24315
274.057	5980
274.117	4997
274.177	10611
274.237	51905
274.297	30842
274.358	23204
274.418	29567
274.478	16449
274.538	6662
274.598	6046
274.658	27876
274.718	26382
274.778	8361
274.838	5282
274.898	19010
274.958	40073
275.018	39557
275.078	19359
275.138	8347
275.198	3805
275.258	3880
275.318	4986
275.378	10894
275.438	9555
275.498	6392
275.558	25476
275.618	39543
275.678	21616
275.738	15782
275.798	10164
275.858	4130
275.918	2632
275.978	5275
276.038	3143
276.098	3447
276.157	10091
276.217	23606
276.277	9421
276.337	6979
276.397	4104
276.457	5704
276.517	2967
276.576	2649
276.636	2112
276.696	6139
276.756	17122
276.815	8680
276.875	5133
276.935	5690
276.995	4427
277.055	2380
277.114	2752
277.174	7672
277.234	19929
277.293	7167
277.353	4008
277.413	3431
277.472	3885
277.532	3507
277.592	5207
277.651	29180
277.711	32583
277.771	12683
277.830	53787
277.890	28025
277.950	34665
278.009	71194
278.069	19990
278.128	34820
278.188	33979
278.248	16946
278.307	49792
278.367	18477
278.426	7161
278.486	4837
278.545	3514
278.605	3469
278.664	3631
278.724	4392
278.783	20503
278.843	34909
278.902	8987
278.962	6877
279.021	7249
279.081	12414
279.140	9402
279.199	7150
279.259	7471
279.318	7135
279.378	10328
279.437	21063
279.496	85896
279.556	226116
279.615	122977
279.675	38062
279.734	23360
279.793	42315
279.853	50648
279.912	16096
279.971	10375
280.031	8242
280.090	24393
280.149	31230
280.208	32834
280.268	165782
280.327	107145
280.386	29555
280.445	25622
280.505	17963
280.564	10072
280.623	7467
280.682	15335
280.742	16536
280.801	5110
280.860	4206
280.919	4137
280.978	4166
281.037	4085
281.097	3050
281.156	4113
281.215	2578
281.274	6119
281.333	30368
281.392	13690
281.451	4673
281.510	3957
281.569	3821
281.628	2816
281.688	2603
281.747	4385
281.806	3130
281.865	2776
281.924	3411
281.983	2185
282.042	2428
282.101	2438
282.160	1957
282.219	1724
282.278	3890
282.337	15816
282.396	6077
282.454	3560
282.513	5501
282.572	22094
282.631	8595
282.690	4191
282.749	3090
282.808	4318
282.867	4569
282.926	3902
282.985	2360
283.043	1403
283.102	2262
283.161	3012
283.220	14598
283.279	21640
283.338	6084
283.396	4798
283.455	3416
283.514	5285
283.573	7594
283.631	5936
283.690	3939
283.749	3157
283.808	11159
283.866	9546
283.925	4259
283.984	4361
284.043	7086
284.101	5976
284.160	4280
284.219	5841
284.277	5118
284.336	10609
284.395	35526
284.453	20663
284.512	9667
284.570	14723
284.629	10502
284.688	10995
284.746	11996
284.805	13664
284.863	19274
284.922	22189
284.981	27202
285.039	39976
285.098	75773
285.156	180100
285.215	271706
285.273	248151
285.332	150276
285.390	84816
285.449	52697
285.507	35086
285.566	25408
285.624	17634
285.683	14119
285.741	11480
285.799	10288
285.858	9210
285.916	8703
285.975	7459
286.033	5635
286.091	6315
286.150	5099
286.208	5452
286.267	6324
286.325	6137
286.383	10278
286.442	7423
286.500	4324
286.558	4277
286.616	4080
286.675	5709
286.733	5124
286.791	4379
286.850	5700
286.908	8672
286.966	11587
287.024	5801
287.083	3380
287.141	2510
287.199	4251
287.257	6676
287.315	3995
287.374	6029
287.432	13656
287.490	7442
287.548	5193
287.606	2927
287.664	4254
287.723	6524
287.781	6655
287.839	4272
287.897	5229
287.955	6322
288.013	8839
288.071	22498
288.129	139669
288.187	262107
288.245	92900
288.303	35204
288.361	20818
288.419	14036
288.477	9322
288.535	5863
288.593	4101
288.651	3967
288.709	2604
288.767	3788
288.825	3320
288.883	3162
288.941	2544
288.999	2286
289.057	2748
289.115	2897
289.173	2675
289.231	3332
289.289	2407
289.346	2584
289.404	4761
289.462	7427
289.520	6962
289.578	2560
289.636	1631
289.694	1931
289.751	1800
289.809	1626
289.867	2631
289.925	4264
289.983	3833
290.040	1826
290.098	2261
290.156	3107
290.214	3456
290.271	1911
290.329	2144
290.387	1484
290.444	1571
290.502	1173
290.560	1748
290.617	2290
290.675	2469
290.733	1969
290.790	3478
290.848	1770
290.906	3120
290.963	2124
291.021	2738
291.078	1862
291.136	2902
291.194	17667
291.251	24517
291.309	6306
291.366	3077
291.424	3169
291.481	3272
291.539	3567
291.596	2685
291.654	689
291.711	1886
291.769	3426
291.826	7558
291.884	3584
291.941	2578
291.999	2286
292.056	3376
292.114	2946
292.171	1971
292.228	2945
292.286	4356
292.343	8857
292.401	10592
292.458	5662
292.515	3857
292.573	4939
292.630	4320
292.687	3737
292.745	2318
292.802	6277
292.859	17910
292.917	30050
292.974	12911
293.031	4984
293.089	3809
293.146	2667
293.203	2426
293.260	1797
293.318	5794
293.375	7191
293.432	3283
293.489	2076
293.546	1670
293.604	5021
293.661	24859
293.718	46371
293.775	19884
293.832	10126
293.889	8494
293.947	8725
294.004	5291
294.061	5716
294.118	15717
294.175	30431
294.232	31480
294.289	11741
294.346	7047
294.403	6217
294.460	4644
294.517	4191
294.574	3101
294.631	3126
294.688	3808
294.745	17609
294.802	61071
294.859	47655
294.916	19807
294.973	11564
295.030	9267
295.087	7342
295.144	5683
295.201	3738
295.258	2611
295.315	5151
295.372	26478
295.429	34589
295.486	13456
295.542	8337
295.599	29680
295.656	35340
295.713	32055
295.770	33369
295.827	11672
295.883	6863
295.940	6781
295.997	12825
296.054	8947
296.111	5642
296.167	3624
296.224	2860
296.281	2502
296.338	3440
296.394	2657
296.451	3824
296.508	21135
296.564	27689
296.621	19710
296.678	55449
296.734	54589
296.791	19544
296.848	11447
296.904	13381
296.961	29088
297.018	45064
297.074	24658
297.131	10071
297.187	6704
297.244	11740
297.301	57404
297.357	64780
297.414	21757
297.470	10096
297.527	6572
297.583	6009
297.640	6601
297.696	3827
297.753	3837
297.809	3813
297.866	2306
297.922	3743
297.979	2854
298.035	3723
298.092	9592
298.148	27179
298.204	18778
298.261	9610
298.317	26453
298.374	55178
298.430	26056
298.486	12765
298.543	8389
298.599	8301
298.656	9019
298.712	20705
298.768	42822
298.824	23441
298.881	9353
298.937	5710
298.993	5012
299.050	7705
299.106	5935
299.162	5647
299.218	5231
299.275	4332
299.331	4473
299.387	14556
299.443	55639
299.500	43033
299.556	17874
299.612	9691
299.668	9374
299.724	12739
299.780	11095
299.837	5864
299.893	12042
299.949	47025
300.005	39559
300.061	47575
300.117	62952
300.173	26569
300.229	13965
300.285	18913
300.341	17831
300.397	9490
300.453	6336
300.510	5042
300.566	5630
300.622	8030
300.678	28693
300.734	42637
300.790	43754
300.845	41985
300.901	31689
300.957	44246
301.013	26276
301.069	11339
301.125	9211
301.181	8787
301.237	6953
301.293	4600
301.349	4131
301.405	3809
301.461	4432
301.516	5952
301.572	7652
301.628	11844
301.684	10309
301.740	20986
301.796	24834
301.851	18597
301.907	30239
301.963	25104
302.019	63780
302.074	143761
302.130	115720
302.186	51035
302.242	22949
302.297	14569
302.353	16815
302.409	28570
302.464	19720
302.520	22222
302.576	55336
302.631	50137
302.687	27518
302.743	12560
302.798	8183
302.854	6063
302.910	6541
302.965	8583
303.021	16240
303.076	14087
303.132	22225
303.187	21775
303.243	10617
303.299	6481
303.354	4342
303.410	4156
303.465	4600
303.521	4596
303.576	4804
303.632	5418
303.687	19019
303.743	47214
303.798	30608
303.853	13234
303.909	7338
303.964	7681
304.020	13442
304.075	15078
304.130	17467
304.186	30357
304.241	29211
304.297	21037
304.352	11770
304.358	11351
304.407	7950
304.449	7659
304.463	7568
304.518	7782
304.539	7176
304.573	6213
304.629	5830
304.630	5956
304.684	11861
304.720	31435
304.739	41433
304.794	44693
304.811	38229
304.850	22367
304.902	10688
304.905	9961
304.960	7674
304.992	7368
305.015	7158
305.071	7089
305.083	6680
305.126	5157
305.173	4420
305.181	4315
305.236	3248
305.264	4046
305.292	4854
305.347	6267
305.354	6460
305.402	7689
305.445	7613
305.457	7595
305.512	9530
305.535	9234
305.567	8802
305.622	8704
305.626	9274
305.678	20386
305.716	41617
305.733	49949
305.788	43192
305.807	39896
305.843	33577
305.897	47424
305.898	47601
305.953	37387
305.988	27054
306.008	21087
306.063	13435
306.078	11932
306.118	8883
306.168	5796
306.173	5521
306.228	4750
306.259	4308
306.283	4086
306.338	4323
306.349	4457
306.393	5023
306.440	6092
306.448	6250
306.503	5327
306.530	6469
306.558	9145
306.613	21498
306.620	23192
306.668	33859
306.711	44003
306.723	45410
306.778	31631
306.801	25410
306.833	17365
306.888	8775
306.892	8410
306.943	6470
306.982	5712
306.997	5460
307.052	5424
307.072	5296
307.107	5501
307.162	7432
307.163	7474
307.217	12541
307.253	16146
307.272	17260
307.327	16861
307.343	15613
307.381	11901
307.434	10075
307.436	10353
307.491	24731
307.524	36350
307.546	40985
307.600	37133
307.614	34017
307.655	20749
307.704	10036
307.710	9618
307.765	11342
307.795	15161
307.819	20203
307.874	31218
307.885	31286
307.929	22279
307.975	14819
307.984	14747
308.038	17478
308.065	22128
308.093	35998
308.148	87576
308.156	100226
308.202	184027
308.246	210623
308.257	200403
308.312	109160
308.336	76896
308.366	60704
308.421	38106
308.426	36515
308.475	23822
308.517	15837
308.530	14448
308.585	12008
308.607	11581
308.639	11542
308.694	11882
308.697	12227
308.748	25779
308.787	37458
308.803	38120
308.857	29031
308.877	25835
308.912	21086
308.967	16888
308.967	16860
309.021	22350
309.058	28314
309.076	34892
309.130	60675
309.148	73080
309.185	127413
309.238	233583
309.239	234914
309.293	278190
309.328	267561
309.348	226766
309.402	110226
309.418	81022
309.457	56964
309.508	35510
309.511	34904
309.566	31242
309.598	32231
309.620	37923
309.674	57439
309.688	61806
309.729	60806
309.778	52091
309.783	50633
309.837	34311
309.868	26472
309.892	28190
309.946	38601
309.959	42203
310.001	58876
310.049	71099
310.055	68681
310.109	40508
310.139	25670
310.163	20088
310.218	11408
310.229	10069
310.272	8516
310.319	7251
310.326	7111
310.381	6314
310.409	6166
310.435	5918
310.489	5338
310.499	5263
310.543	5371
310.589	5783
310.598	5815
310.652	6117
310.679	6022
310.706	5494
310.760	4682
310.769	4567
310.814	4250
310.859	3736
310.868	3658
310.923	3563
310.948	3588
310.977	4105
311.031	5193
311.038	5334
311.085	5386
311.128	5272
311.139	5110
311.193	4447
311.218	4067
311.247	3812
311.301	3512
311.308	3486
311.356	3696
311.398	3881
311.410	3866
311.464	3785
311.488	3730
311.518	3595
311.572	3479
311.578	3490
311.626	4990
311.668	6238
311.680	6263
311.734	6337
311.758	6377
311.788	6479
311.842	6646
311.847	6677
311.896	7466
311.937	8225
311.950	8517
312.004	9791
312.027	10319
312.058	8297
312.112	4741
312.117	4397
312.165	3644
312.207	3030
312.297	6260
312.386	6197
312.476	4996
312.566	11051
312.656	5000
312.745	3388
312.835	4226
312.925	4978
313.015	4071
313.104	5764
313.194	2889
313.284	3611
313.374	5043
313.463	5582
313.553	2850
313.643	3567
313.732	2610
313.822	2931
313.912	3821
314.001	4469
314.091	4914
314.180	7651
314.270	6452
314.360	7417
314.449	6720
314.539	3690
314.628	2665
314.718	4243
314.808	7279
314.897	3917
314.987	3353
315.076	5005
315.166	7045
315.255	6351
315.345	6173
315.434	6202
315.524	5283
315.613	7285
315.703	9628
315.792	13584
315.881	37814
315.971	19598
316.060	12815
316.150	20349
316.239	21763
316.328	9570
316.418	3169
316.507	3823
316.597	5886
316.686	5872
316.775	8515
316.865	24353
316.954	6038
317.043	2577
317.133	3510
317.222	3501
317.311	2948
317.400	4138
317.490	5830
317.579	6787
317.668	4822
317.757	9068
317.847	21369
317.936	70423
318.025	34527
318.114	16530
318.203	11021
318.293	11102
318.382	21898
318.471	18641
318.560	26076
318.649	49236
318.738	13304
318.828	6356
318.917	7158
319.006	8811
319.095	27439
319.184	61314
319.273	40859
319.362	19221
319.451	5569
319.540	5800
319.629	12784
319.718	23523
319.807	8362
319.896	19618
319.985	75339
320.074	35896
320.163	7640
320.252	13528
320.341	11068
320.430	10595
320.519	12242
320.608	8161
320.697	5811
320.786	5725
320.875	7238
320.964	10396
321.053	14715
321.142	23175
321.230	25862
321.319	17881
321.408	41603
321.497	20802
321.586	15629
321.675	21125
321.764	21696
321.852	12347
321.941	22132
322.030	16661
322.119	15534
322.207	44316
322.296	35638
322.385	16124
322.474	16672
322.562	49124
322.651	32562
322.740	16572
322.829	28793
322.917	31270
323.006	18794
323.095	13984
323.183	10438
323.272	14543
323.361	27044
323.449	91059
323.538	35084
323.626	59243
323.715	47696
323.804	13373
323.892	56509
323.981	39118
324.069	8485
324.158	28043
324.246	36639
324.335	8767
324.424	15460
324.512	6159
324.601	6952
324.689	17477
324.778	44343
324.866	25979
324.954	7532
325.043	4778
325.131	11296
325.220	24752
325.308	28584
325.397	19684
325.485	14807
325.574	3906
325.662	3789
325.750	4214
325.839	3280
325.927	2797
326.015	5674
326.104	8787
326.192	16311
326.280	4161
326.369	4259
326.457	5883
326.545	11951
326.634	6260
326.722	2242
326.810	3238
326.898	3509
326.987	4106
327.075	11043
327.163	14205
327.251	7394
327.340	11579
327.428	23501
327.516	4733
327.604	3297
327.692	4448
327.781	4592
327.869	10865
327.957	7496
328.045	5188
328.133	2706
328.221	4784
328.309	4322
328.397	3557
328.485	4702
328.574	6770
328.662	24731
328.750	18260
328.838	7511
328.926	5107
329.014	2583
329.102	4641
329.190	15032
329.278	12945
329.366	2316
329.454	2066
329.542	2892
329.630	2324
329.718	3229
329.806	3581
329.893	4296
329.981	4077
330.069	5175
330.157	18933
330.245	72264
330.333	43744
330.421	7222
330.509	6229
330.597	31154
330.684	25109
330.772	7335
330.860	10609
330.948	13433
331.036	7081
331.123	2833
331.211	2485
331.299	4745
331.387	8545
331.475	22903
331.562	7629
331.650	2781
331.738	4424
331.825	7490
331.913	3819
332.001	2404
332.089	3746
332.176	11239
332.264	28234
332.352	28309
332.439	6672
332.527	4584
332.614	3780
332.702	6608
332.790	4090
332.877	11496
332.965	31959
333.052	9664
333.140	7199
333.228	22280
333.315	7483
333.403	4438
333.490	15517
333.578	18618
333.665	23964
333.753	14387
333.840	4941
333.928	4454
334.015	15561
334.103	24058
334.190	84555
334.278	29145
334.365	8760
334.452	7614
334.540	4720
334.627	5086
334.715	9201
334.802	14136
334.889	93926
334.977	129044
335.064	16036
335.151	6567
335.239	5522
335.326	6857
335.413	32118
335.501	61399
335.588	9323
335.675	4910
335.762	6384
335.850	12308
335.937	7645
336.024	20495
336.111	107846
336.199	59752
336.286	10375
336.373	4737
336.460	2962
336.547	3344
336.635	5100
336.722	5062
336.809	3805
336.896	5951
336.983	18533
337.070	54825
337.157	85939
337.245	66951
337.332	63862
337.419	6119
337.506	4249
337.593	3864
337.680	13996
337.767	57811
337.854	18490
337.941	17469
338.028	24591
338.115	9887
338.202	7389
338.289	15305
338.376	70921
338.463	27959
338.550	27132
338.637	42166
338.724	11438
338.811	24473
338.898	5490
338.984	2976
339.071	4307
339.158	4614
339.245	14648
339.332	11100
339.419	11585
339.506	16968
339.593	2818
339.679	2288
339.766	3275
339.853	4735
339.940	11405
340.027	4149
340.113	3791
340.200	5438
340.287	4291
340.374	4916
340.460	10718
340.547	4515
340.634	6118
340.720	27597
340.807	23777
340.894	3084
340.980	3581
341.067	3322
341.154	3735
341.240	4377
341.327	16506
341.414	5044
341.500	3913
341.587	3497
341.674	3144
341.760	9165
341.847	12860
341.933	4470
342.020	1723
342.106	1393
342.193	2551
342.279	8421
342.366	5537
342.452	10864
342.539	5661
342.625	9909
342.712	33975
342.798	16338
342.885	6775
342.971	1563
343.058	1862
343.144	2174
343.230	2837
343.317	2129
343.403	2319
343.490	2039
343.576	2243
343.662	2524
343.749	4008
343.835	5122
343.921	7637
344.008	47195
344.094	152180
344.180	41088
344.267	9663
344.353	32495
344.439	50641
344.525	17806
344.612	6140
344.698	4513
344.784	4041
344.870	2164
344.957	2559
345.043	5679
345.129	4301
345.215	9743
345.301	6120
345.387	3668
345.474	1867
345.560	2165
345.646	3484
345.732	2961
345.818	3504
345.904	3499
345.990	4357
346.076	4435
346.162	8631
346.249	4251
346.335	2546
346.421	2991
346.507	11378
346.593	57696
346.679	19260
346.765	3802
346.851	3241
346.937	4538
347.023	3258
347.108	3702
347.194	4104
347.280	2717
347.366	3401
347.452	12885
347.538	64449
347.624	52406
347.710	45868
347.796	8427
347.882	3111
347.967	2611
348.053	4927
348.139	4754
348.225	2030
348.311	2578
348.397	2546
348.482	2818
348.568	5138
348.654	1948
348.740	3570
348.825	4816
348.911	6853
348.997	22529
349.083	68189
349.168	13503
349.254	4228
349.340	4351
349.425	2115
349.511	4297
349.597	5238
349.682	8484
349.768	34248
349.854	23073
349.939	3775
350.025	2253
350.110	1538
350.196	1715
350.282	2003
350.367	1832
350.453	5521
350.538	7702
350.624	4491
350.709	4618
350.795	2194
350.880	2699
350.966	3244
351.051	5322
351.137	5664
351.222	3734
351.308	7817
351.393	32695
351.479	10350
351.564	2683
351.649	2802
351.735	2869
351.820	1742
351.906	2121
351.991	4040
352.076	16426
352.162	37219
352.247	7560
352.332	3705
352.418	7203
352.503	9290
352.588	39133
352.673	46005
352.759	8866
352.844	4367
352.929	3650
353.014	6866
353.100	4824
353.185	8138
353.270	12121
353.355	14505
353.441	3918
353.526	3192
353.611	8697
353.696	14388
353.781	7567
353.866	4038
353.952	3378
354.037	7935
354.122	24144
354.207	23628
354.292	10620
354.377	3793
354.462	2616
354.547	4351
354.632	4434
354.717	6779
354.802	10477
354.887	4933
354.972	2097
355.057	2203
355.142	1685
355.227	3338
355.312	5896
355.397	13432
355.482	36382
355.567	24425
355.652	11785
355.737	13924
355.822	37886
355.907	46939
355.991	6934
356.076	3185
356.161	3221
356.246	2712
356.331	3166
356.416	7860
356.501	58547
356.585	93528
356.670	12816
356.755	6754
356.840	8732
356.924	37751
357.009	173116
357.094	91712
357.179	14657
357.263	10620
357.348	8864
357.433	9916
357.517	8631
357.602	7563
357.687	5851
357.771	7599
357.856	15652
357.941	12576
358.025	26068
358.110	152079
358.195	102515
358.279	13618
358.364	8323
358.448	23173
358.533	78048
358.617	67114
358.702	59640
358.787	27918
358.871	11518
358.956	10995
359.040	4266
359.125	3061
359.209	3102
359.294	6554
359.378	13095
359.462	9942
359.547	6359
359.631	4435
359.716	3173
359.800	2840
359.885	6203
359.969	4892
360.053	3789
360.138	4021
360.222	4630
360.306	12329
360.391	10316
360.475	10208
360.559	28173
360.644	29995
360.728	27690
360.812	29500
360.896	113720
360.981	54316
361.065	27731
361.149	7053
361.233	6556
361.318	5299
361.402	6583
361.486	5505
361.570	4305
361.654	5052
361.739	13266
361.823	56146
361.907	123785
361.991	27295
362.075	8776
362.159	22913
362.243	19211
362.327	14369
362.411	18882
362.495	11896
362.580	6234
362.664	3728
362.748	3717
362.832	4433
362.916	7929
363.000	23418
363.084	74340
363.168	141861
363.252	42384
363.336	11438
363.420	11766
363.503	43340
363.587	74571
363.671	15116
363.755	7945
363.839	12168
363.923	6606
364.007	10025
364.091	16128
364.175	16650
364.258	76985
364.342	67868
364.426	56159
364.510	37571
364.594	16953
364.677	17310
364.761	81981
364.845	87556
364.929	20817
365.013	19437
365.096	12874
365.180	19835
365.264	16975
365.347	79927
365.431	49765
365.515	10959
365.598	5427
365.682	4502
365.766	6790
365.849	12723
365.933	6030
366.017	8289
366.100	6762
366.184	3127
366.267	3821
366.351	3139
366.435	2757
366.518	3340
366.602	2314
366.685	3200
366.769	3817
366.852	6087
366.936	15200
367.019	9877
367.103	5538
367.186	12516
367.270	5274
367.353	2317
367.436	3134
367.520	2890
367.603	3451
367.687	6773
367.770	14242
367.853	9324
367.937	20055
368.020	50800
368.104	15258
368.187	8866
368.270	14974
368.353	12812
368.437	16023
368.520	45552
368.603	33089
368.687	26154
368.770	65764
368.853	20577
368.936	12243
369.020	15317
369.103	6519
369.186	3050
369.269	4170
369.352	7801
369.436	14542
369.519	8610
369.602	3906
369.685	5038
369.768	5836
369.851	4853
369.934	3616
370.018	4122
370.101	11494
370.184	11203
370.267	6283
370.350	11519
370.433	17213
370.516	42638
370.599	73202
370.682	24379
370.765	27691
370.848	36452
370.931	73574
371.014	39138
371.097	7045
371.180	4559
371.263	2854
371.346	2027
371.429	3115
371.511	3791
371.594	6380
371.677	12016
371.760	14470
371.843	11549
371.926	40123
372.009	132902
372.091	55421
372.174	24436
372.257	67228
372.340	37988
372.423	16169
372.505	23585
372.588	11279
372.671	17063
372.754	68853
372.836	49426
372.919	20437
373.002	53394
373.085	21822
373.167	11183
373.250	26476
373.332	67454
373.415	79219
373.498	185968
373.580	89675
373.663	72378
373.746	136821
373.828	37813
373.911	12860
373.993	11222
374.076	39554
374.159	56868
374.241	20481
374.324	54400
374.406	51621
374.489	40947
374.571	146490
374.654	85842
374.736	26266
374.819	83858
374.901	123580
374.983	157439
375.066	36244
375.148	9451
375.231	29156
375.313	78637
375.395	37153
375.478	8984
375.560	5089
375.643	7191
375.725	21614
375.807	103564
375.890	116355
375.972	53353
376.054	22359
376.136	38999
376.219	22615
376.301	24419
376.383	100852
376.465	55352
376.548	22511
376.630	26807
376.712	78500
376.794	54722
376.877	6044
376.959	3452
377.041	4733
377.123	8308
377.205	13786
377.287	3827
377.369	2902
377.452	3593
377.534	3532
377.616	2790
377.698	3764
377.780	2994
377.862	3207
377.944	4255
378.026	2992
378.108	2581
378.190	2455
378.272	2022
378.354	2188
378.436	1764
378.518	4318
378.600	18986
378.682	20167
378.764	35875
378.846	41941
378.928	10583
379.010	11968
379.091	8635
379.173	4246
379.255	2402
379.337	4759
379.419	14729
379.501	56647
379.583	34093
379.664	6415
379.746	13150
379.828	35044
379.910	55441
379.991	57098
380.073	13061
380.155	5419
380.237	4976
380.318	2910
380.400	4323
380.482	7407
380.564	15512
380.645	14433
380.727	15329
380.809	8117
380.890	6301
380.972	4909
381.053	4443
381.135	5374
381.217	11096
381.298	39653
381.380	28073
381.461	15630
381.543	67806
381.624	122999
381.706	29485
381.787	10256
381.869	11530
381.951	27470
382.032	125705
382.113	113875
382.195	24439
382.276	13483
382.358	23605
382.439	71956
382.521	85243
382.602	138967
382.684	75267
382.765	98552
382.846	135155
382.928	186301
383.009	137290
383.090	68994
383.172	218480
383.253	433776
383.334	177704
383.416	124932
383.497	87906
383.578	34688
383.659	58420
383.741	185095
383.822	553568
383.903	390521
383.984	106338
384.066	143660
384.147	116195
384.228	28571
384.309	15431
384.390	14190
384.471	9688
384.553	9477
384.634	12269
384.715	14550
384.796	8267
384.877	8573
384.958	30656
385.039	51736
385.120	21259
385.201	8124
385.282	9521
385.363	10646
385.444	9885
385.525	14257
385.606	49887
385.687	64825
385.768	16062
385.849	13630
385.930	48747
386.011	115317
386.092	44278
386.173	9009
386.254	5716
386.335	6612
386.416	7254
386.496	19192
386.577	44051
386.658	19672
386.739	9383
386.820	8767
386.901	7103
386.981	6948
387.062	4936
387.143	8321
387.224	33092
387.304	46296
387.385	15102
387.466	8422
387.547	10960
387.627	8189
387.708	11723
387.789	57269
387.869	97979
387.950	35266
388.031	5872
388.111	4246
388.192	12280
388.273	20362
388.353	14402
388.434	7084
388.514	11356
388.595	55092
388.676	96324
388.756	48699
388.837	35624
388.917	30412
388.998	6453
389.078	4762
389.159	4236
389.239	3644
389.320	7127
389.400	6221
389.480	12368
389.561	39497
389.641	29365
389.722	7259
389.802	11564
389.883	16071
389.963	47455
390.043	43834
390.124	13947
390.204	11656
390.284	41487
390.365	38014
390.445	28183
390.525	78547
390.605	88057
390.686	30178
390.766	10465
390.846	5698
390.927	3515
391.007	3373
391.087	4994
391.167	6399
391.247	5099
391.328	7830
391.408	12603
391.488	10445
391.568	3770
391.648	5200
391.728	8861
391.808	8674
391.888	9425
391.969	17341
392.049	40114
392.129	21371
392.209	16412
392.289	45912
392.369	34048
392.449	21267
392.529	17665
392.609	10861
392.689	14528
392.769	42834
392.849	52065
392.929	27646
393.009	65391
393.089	68796
393.169	47273
393.248	123340
393.328	469255
393.408	672249
393.488	237591
393.568	58362
393.648	27366
393.728	17560
393.807	12757
393.887	10626
393.967	9048
394.047	10018
394.127	12010
394.206	16897
394.286	44388
394.366	212337
394.446	335666
394.525	96195
394.605	19871
394.685	13746
394.764	26638
394.844	50305
394.924	46272
395.003	14765
395.083	8900
395.163	8276
395.242	7784
395.322	7791
395.402	5174
395.481	7561
395.561	16232
395.640	54064
395.720	51461
395.799	56743
395.879	62473
395.958	26271
396.038	64027
396.117	285513
396.197	438112
396.276	147761
396.356	42683
396.435	29234
396.515	22104
396.594	22992
396.673	41013
396.753	125567
396.832	453734
396.912	464634
396.991	133150
397.070	31847
397.150	16667
397.229	12173
397.308	11646
397.388	20236
397.467	13159
397.546	6063
397.625	5218
397.705	6904
397.784	7113
397.863	5310
397.942	3432
398.022	4526
398.101	11901
398.180	49196
398.259	37892
398.338	9433
398.417	5502
398.497	4059
398.576	4215
398.655	2973
398.734	2740
398.813	2701
398.892	10766
398.971	51325
399.050	40982
399.129	4933
399.208	2233
399.287	2585
399.366	1783
399.445	2013
399.524	2417
399.603	1834
399.682	5709
399.761	14879
399.840	52226
399.919	59936
399.998	10717
400.077	2044
400.156	1801
400.235	2949
400.313	1857
400.392	3013
400.471	15316
400.550	35602
400.629	14382
400.708	4231
400.786	3534
400.865	8709
400.944	15125
401.023	8743
401.102	1941
401.180	960
401.259	1651
401.338	2513
401.416	4005
401.495	4228
401.574	3743
401.652	2201
401.731	3919
401.810	4110
401.888	2256
401.967	1172
402.046	2054
402.124	3672
402.203	5750
402.281	3227
402.360	3454
402.438	12737
402.517	13473
402.596	4149
402.674	3135
402.753	2651
402.831	2069
402.910	2821
402.988	11473
403.066	46680
403.145	40532
403.223	13627
403.302	36525
403.380	34664
403.459	29390
403.537	16669
403.615	5878
403.694	1223
403.772	2255
403.850	900
403.929	1129
404.007	1285
404.085	5283
404.164	7347
404.242	2805
404.320	2223
404.398	4405
404.477	14216
404.555	85273
404.633	114794
404.711	22155
404.789	3565
404.868	2396
404.946	2016
405.024	1264
405.102	1002
405.180	1374
405.258	604
405.336	2031
405.415	1345
405.493	5901
405.571	6304
405.649	1973
405.727	804
405.805	3280
405.883	3536
405.961	3991
406.039	4946
406.117	2023
406.195	4509
406.273	16057
406.351	79351
406.429	73300
406.507	12946
406.585	3805
406.663	2651
406.740	4254
406.818	3894
406.896	2181
406.974	2628
407.052	5532
407.130	37693
407.208	83606
407.285	24411
407.363	2971
407.441	2195
407.519	1967
407.596	2489
407.674	5080
407.752	11332
407.830	18698
407.907	11448
407.985	3064
408.063	2668
408.141	468
408.218	3815
408.296	4583
408.373	2387
408.451	3003
408.529	3145
408.606	887
408.684	754
408.762	549
408.839	186
408.917	533
408.994	1033
409.072	743
409.149	665
409.227	2715
409.304	3662
409.382	3086
409.459	2449
409.537	4168
409.614	5018
409.692	3561
409.769	2270
409.846	4941
409.924	7147
410.001	5054
410.079	2991
410.156	2779
410.233	2094
410.311	1705
410.388	1357
410.465	2183
410.543	2359
410.620	2100
410.697	1680
410.775	2718
410.852	680
410.929	1951
411.006	4429
411.083	2206
411.161	4688
411.238	6503
411.315	3516
411.392	1139
411.469	2644
411.547	3552
411.624	850
411.701	1323
411.778	1380
411.855	5309
411.932	3640
412.009	1839
412.086	1318
412.163	1910
412.240	1768
412.317	2982
412.394	2519
412.471	1928
412.548	-116
412.625	880
412.702	2299
412.779	5309
412.856	4657
412.933	989
413.010	794
413.087	2002
413.164	13651
413.241	31331
413.318	10133
413.395	3608
413.471	4878
413.548	3696
413.625	1539
413.702	2154
413.779	2417
413.855	93
413.932	291
414.009	-109
414.086	533
414.162	589
414.239	2344
414.316	13226
414.393	41649
414.469	23976
414.546	2087
414.623	1003
414.699	-37
414.776	2178
414.853	1624
414.929	1418
415.006	1635
415.082	1710
415.159	1873
415.236	1128
415.312	1473
415.389	2595
415.465	5951
415.542	4353
415.618	787
415.695	3527
415.771	2130
415.848	1955
415.924	1987
416.000	562
416.077	1020
416.153	-231
416.230	-705
416.306	-827
416.383	147
416.459	992
416.535	-383
416.612	310
416.688	475
416.764	865
416.841	237
416.917	1050
416.993	1263
417.069	1711
417.146	1627
417.222	3077
417.298	2140
417.374	1199
417.451	1657
417.527	1461
417.603	2446
417.679	2379
417.755	1021
417.831	381
417.908	-187
417.984	0
418.060	234
418.136	3382
418.212	7960
418.288	3192
418.364	999
418.440	71
418.516	3089
418.592	4436
418.668	7870
418.744	12887
418.820	12229
418.896	3683
418.972	515
419.048	693
419.124	4320
419.200	5178
419.276	1311
419.352	-81
419.428	416
419.504	666
419.579	2198
419.655	1394
419.731	1115
419.807	6204
419.883	15202
419.959	13437
420.034	3487
420.110	4178
420.186	20571
420.262	27674
420.337	5317
420.413	2461
420.489	1513
420.565	1188
420.640	590
420.716	1567
420.792	155
420.867	1618
420.943	858
421.019	3268
421.094	2960
421.170	1826
421.245	487
421.321	1541
421.397	817
421.472	2509
421.548	5188
421.623	6901
421.699	3849
421.774	3349
421.850	2580
421.925	4956
422.001	5555
422.076	3891
422.152	3679
422.227	7582
422.302	10143
422.378	11971
422.453	21085
422.529	48247
422.604	145979
422.679	303350
422.755	246862
422.830	91203
422.905	30323
422.981	15956
423.056	9703
423.131	7219
423.207	5043
423.282	4903
423.357	8668
423.432	8194
423.508	5043
423.583	11866
423.658	13494
423.733	3628
423.808	3781
423.883	4448
423.959	4054
424.034	3147
424.109	2649
424.184	921
424.259	1190
424.334	1102
424.409	1161
424.484	885
424.559	1363
424.634	1105
424.709	2846
424.784	4025
424.859	1567
424.934	2425
425.009	13435
425.084	31246
425.159	17658
425.234	2757
425.309	104
425.384	2784
425.459	5697
425.534	2109
425.609	788
425.683	831
425.758	441
425.833	1826
425.908	2223
425.983	6950
426.058	29818
426.132	20990
426.207	3475
426.282	4303
426.357	5005
426.431	1459
426.506	1610
426.581	858
426.655	1360
426.730	1178
426.805	1081
426.879	1635
426.954	1228
427.029	3531
427.103	20398
427.178	71666
427.253	52130
427.327	7323
427.402	2818
427.476	8429
427.551	5680
427.625	2530
427.700	2078
427.774	892
427.849	1603
427.923	944
427.998	415
428.072	1535
428.147	3993
428.221	15750
428.296	59173
428.370	51481
428.444	6675
428.519	5476
428.593	9770
428.667	12385
428.742	11587
428.816	12025
428.890	30451
428.965	70282
429.039	30016
429.113	14360
429.188	7943
429.262	2661
429.336	2863
429.410	12387
429.485	12717
429.559	8985
429.633	10571
429.707	3193
429.781	5525
429.855	33614
429.930	76736
430.004	43915
430.078	51381
430.152	57242
430.226	72567
430.300	111567
430.374	26409
430.448	5292
430.522	11492
430.596	48528
430.670	43791
430.744	54314
430.818	128313
430.892	44974
430.966	4931
431.040	2113
431.114	338
431.188	437
431.262	946
431.336	551
431.410	3136
431.484	13030
431.557	13709
431.631	2249
431.705	737
431.779	7603
431.853	45316
431.927	55343
432.000	9405
432.074	1726
432.148	2039
432.222	3036
432.295	1105
432.369	699
432.443	2277
432.516	18106
432.590	74075
432.664	47841
432.737	5080
432.811	653
432.885	1
432.958	886
433.032	469
433.106	413
433.179	254
433.253	-550
433.326	191
433.400	-241
433.473	-643
433.547	-807
433.620	554
433.694	1227
433.767	3252
433.841	428
433.914	305
433.988	-771
434.061	197
434.134	434
434.208	-84
434.281	-767
434.355	-206
434.428	321
434.501	-356
434.575	-467
434.648	42
434.721	13
434.795	-34
434.868	-36
434.941	-558
435.014	-42
435.088	-639
435.161	1047
435.234	2131
435.307	4899
435.381	2327
435.454	1307
435.527	2072
435.600	1990
435.673	1457
435.746	-6
435.819	399
435.892	909
435.966	-302
436.039	-98
436.112	-15
436.185	-1122
436.258	135
436.331	-222
436.404	-939
436.477	-317
436.550	-533
436.623	-625
436.696	-523
436.769	-6
436.842	669
436.915	435
436.987	1008
437.060	913
437.133	-641
437.206	-504
437.279	-304
437.352	-183
437.425	-121
437.498	325
437.570	2234
437.643	3868
437.716	704
437.789	-43
437.861	1189
437.934	7590
438.007	7353
438.080	1003
438.152	907
438.225	2913
438.298	22876
438.370	104460
438.443	72046
438.516	13637
438.588	3534
438.661	225
438.734	890
438.806	1079
438.879	1479
438.951	1479
439.024	4411
439.096	2802
439.169	131
439.241	-246
439.314	-541
439.386	876
439.459	3461
439.531	6091
439.604	3162
439.676	239
439.749	55
439.821	-763
439.893	205
439.966	102
440.038	363
440.110	1074
440.183	464
440.255	194
440.327	1677
440.400	9004
440.472	54474
440.544	65516
440.617	9956
440.689	3008
440.761	3528
440.833	7094
440.905	7591
440.978	1676
441.050	-233
441.122	177
441.194	-622
441.266	525
441.338	804
441.411	1474
441.483	12234
441.555	34540
441.627	12378
441.699	3130
441.771	2990
441.843	1468
441.915	-133
441.987	731
442.059	-170
442.131	1354
442.203	2542
442.275	3291
442.347	3292
442.419	3161
442.491	15751
442.563	59863
442.635	43749
442.706	16479
442.778	17172
442.850	3853
442.922	995
442.994	1421
443.066	2857
443.137	2911
443.209	1068
443.281	2355
443.353	6944
443.425	21629
443.496	97211
443.568	137480
443.640	62276
443.711	12866
443.783	2249
443.855	2954
443.926	1896
443.998	1168
444.070	1678
444.141	2198
444.213	3346
444.285	4513
444.356	3263
444.428	3625
444.499	1768
444.571	70
444.642	872
444.714	511
444.785	3335
444.857	3713
444.928	8761
445.000	9162
445.071	5306
445.143	10379
445.214	6181
445.285	6438
445.357	20799
445.428	57793
445.500	179960
445.571	153424
445.642	75630
445.714	28599
445.785	22658
445.856	10014
445.928	5023
445.999	4726
446.070	3191
446.141	2952
446.213	4079
446.284	3666
446.355	2331
446.426	1208
446.497	980
446.569	2706
446.640	5023
446.711	4853
446.782	1145
446.853	1905
446.924	2384
446.995	1479
447.066	952
447.138	2772
447.209	2359
447.280	-622
447.351	-36
447.422	-69
447.493	370
447.564	1767
447.635	3353
447.706	2378
447.777	233
447.847	-280
447.918	-557
447.989	1622
448.060	1954
448.131	4902
448.202	6637
448.273	4096
448.344	2837
448.414	411
448.485	341
448.556	365
448.627	239
448.698	113
448.768	-262
448.839	-75
448.910	1630
448.981	4347
449.051	1042
449.122	-8
449.193	-634
449.263	-335
449.334	304
449.405	1490
449.475	3949
449.546	4730
449.616	3628
449.687	4466
449.758	1349
449.828	613
449.899	-91
449.969	315
450.040	661
450.110	935
450.181	1026
450.251	301
450.322	233
450.392	615
450.463	639
450.533	32
450.604	215
450.674	339
450.744	933
450.815	8
450.885	426
450.955	-367
451.026	92
451.096	-7
451.166	1026
451.237	2384
451.307	11031
451.377	7222
451.447	1567
451.518	163
451.588	-452
451.658	429
451.728	653
451.799	7923
451.869	18166
451.939	5848
452.009	628
452.079	402
452.149	848
452.219	1485
452.289	11683
452.360	14998
452.430	3513
452.500	1077
452.570	1208
452.640	3262
452.710	7203
452.780	17475
452.850	13054
452.920	12575
452.990	5681
453.060	1451
453.129	1966
453.199	4551
453.269	8964
453.339	40813
453.409	72709
453.479	46888
453.549	77895
453.619	89555
453.688	53908
453.758	9510
453.828	1711
453.898	1003
453.968	782
454.037	1227
454.087	723
454.107	481
454.168	124
454.177	26
454.247	-193
454.249	-108
454.316	890
454.330	1049
454.386	1261
454.411	3142
454.456	5298
454.492	8915
454.525	12047
454.574	7960
454.595	6281
454.655	2264
454.665	1652
454.734	3016
454.736	3206
454.804	5189
454.817	7053
454.873	11580
454.898	14458
454.943	18927
454.979	14139
455.013	10499
455.060	5920
455.082	4355
455.141	5436
455.152	5339
455.221	10620
455.222	11011
455.291	18875
455.303	17274
455.360	12137
455.384	10022
455.430	7130
455.465	8148
455.499	8178
455.546	12914
455.569	13523
455.627	12005
455.638	12179
455.707	4292
455.708	4314
455.777	1393
455.789	1533
455.846	2007
455.869	1905
455.916	1763
455.950	1875
455.985	1791
456.031	2289
456.054	2462
456.112	2537
456.124	2587
456.193	2304
456.193	2261
456.262	3646
456.274	3709
456.332	3544
456.355	4179
456.401	4498
456.436	3742
456.470	3146
456.516	2564
456.540	2440
456.597	2176
456.609	2034
456.678	2194
456.678	2168
456.747	1597
456.759	1692
456.817	2038
456.840	2125
456.886	2181
456.920	2341
456.955	2729
457.001	3130
457.024	3560
457.082	4788
457.093	4874
457.162	6326
457.163	6385
457.232	6372
457.243	6040
457.301	4414
457.324	3759
457.370	3143
457.405	3044
457.439	2990
457.485	3626
457.508	4069
457.566	4086
457.577	4179
457.646	7433
457.647	7494
457.715	11976
457.727	13031
457.784	20080
457.808	23531
457.853	25704
457.889	29056
457.922	27356
457.969	20835
457.991	22985
458.050	29441
458.060	30963
458.129	46571
458.130	47179
458.198	36879
458.211	33390
458.267	21847
458.292	15633
458.336	13002
458.372	12940
458.405	17234
458.453	25190
458.474	31889
458.533	52769
458.543	54006
458.611	70465
458.614	71251
458.680	40232
458.694	30887
458.749	17909
458.775	12850
458.818	8754
458.855	7563
458.887	7142
458.936	6661
458.955	6341
459.016	6348
459.024	6376
459.093	6499
459.097	6505
459.162	6643
459.177	6860
459.230	8123
459.257	9122
459.299	10093
459.338	10588
459.368	10869
459.418	10870
459.437	9926
459.499	7673
459.505	7664
459.574	7340
459.579	7308
459.643	6823
459.659	6761
459.711	7102
459.740	7310
459.780	7668
459.820	8636
459.849	9322
459.900	9833
459.917	9597
459.981	9125
459.986	9133
460.054	9371
460.061	9413
460.123	10134
460.141	10407
460.191	12445
460.222	13833
460.260	14752
460.302	16155
460.328	14767
460.382	11501
460.397	11459
460.462	10336
460.465	10448
460.534	14256
460.543	14739
460.602	26918
460.623	31328
460.671	48048
460.703	60570
460.739	47847
460.783	33086
460.808	28523
460.864	11795
460.876	11188
460.944	9220
460.945	9182
461.013	8927
461.024	8919
461.081	9327
461.104	9567
461.150	8973
461.184	8451
461.218	8460
461.264	8587
461.286	8862
461.345	9076
461.355	8987
461.423	9106
461.425	9106
461.491	10720
461.505	11071
461.559	20457
461.585	24867
461.628	39515
461.665	52736
461.696	53961
461.745	58594
461.764	49369
461.825	16103
461.832	16082
461.901	11639
461.905	11564
461.969	9832
461.985	9680
462.037	10065
462.065	9953
462.105	11720
462.145	13828
462.173	19279
462.225	29353
462.241	32311
462.305	45057
462.310	43477
462.378	19510
462.385	16474
462.446	12647
462.465	11316
462.514	10150
462.545	10371
462.582	10547
462.625	10569
462.650	10435
462.705	10223
462.718	10686
462.785	12721
462.786	12824
462.854	19029
462.865	19992
462.922	21953
462.945	22983
462.990	16671
463.025	11292
463.058	10834
463.104	9994
463.126	9852
463.184	9603
463.194	9705
463.262	10237
463.264	10272
463.330	11016
463.344	11131
463.398	11986
463.424	12224
463.466	12365
463.504	12652
463.533	12468
463.583	12198
463.601	12968
463.663	15162
463.669	15705
463.737	22429
463.743	23017
463.805	33432
463.823	36409
463.873	55410
463.903	66988
463.940	65875
463.982	65455
464.008	51191
464.062	19474
464.076	18495
464.142	11657
464.144	11614
464.211	11234
464.221	11228
464.279	12731
464.301	13344
464.347	14812
464.381	15855
464.414	17606
464.461	19910
464.482	20211
464.540	21151
464.550	20715
464.617	17368
464.620	17218
464.685	17897
464.699	18060
464.753	20503
464.779	21745
464.820	22974
464.859	23971
464.888	24492
464.938	25303
464.956	25064
465.018	23970
465.023	23651
465.091	19137
465.098	18619
465.158	18960
465.177	19114
465.226	19177
465.257	19058
465.293	20378
465.336	21894
465.361	23812
465.416	28054
465.428	30209
465.495	41701
465.496	41938
465.563	68018
465.575	72412
465.631	80124
465.654	83614
465.698	51202
465.734	23637
465.765	22163
465.813	19374
465.833	19236
465.893	19522
465.900	19614
465.968	20166
465.972	20173
466.035	20310
466.052	20263
466.102	21231
466.131	21749
466.170	21792
466.210	21813
466.237	22383
466.290	23301
466.304	23561
466.369	24584
466.372	24733
466.439	27649
466.449	28024
466.506	31299
466.528	32476
466.573	44727
466.607	53790
466.641	76018
466.687	106702
466.708	113448
466.766	131441
466.775	121703
466.842	46766
466.845	43107
466.909	34958
466.925	32955
466.977	32067
467.004	31624
467.044	32314
467.083	32877
467.111	35065
467.163	38983
467.178	39368
467.242	40545
467.245	40468
467.312	37102
467.321	36578
467.379	36051
467.400	35746
467.446	38762
467.480	40805
467.559	33468
467.638	29960
467.717	31637
467.796	33200
467.875	36870
467.955	34924
468.034	56145
468.113	117391
468.192	159453
468.271	39999
468.350	32012
468.429	36255
468.508	35968
468.588	29492
468.667	29502
468.746	31138
468.825	29104
468.904	25742
468.983	30698
469.062	48080
469.141	53957
469.220	23849
469.299	24219
469.378	26822
469.456	30643
469.535	28362
469.614	27379
469.693	31019
469.772	36554
469.851	54185
469.930	33104
470.009	26086
470.088	26894
470.166	33830
470.245	47348
470.324	56112
470.403	41446
470.482	30652
470.560	27041
470.639	27308
470.718	32583
470.797	26340
470.875	31952
470.954	44957
471.033	44850
471.111	20551
471.190	20641
471.269	19635
471.347	21776
471.426	22892
471.505	25767
471.583	26432
471.662	24480
471.740	22840
471.819	22810
471.898	22406
471.976	21155
472.055	20782
472.133	25665
472.212	34300
472.290	34716
472.369	22766
472.447	20438
472.526	19677
472.604	21491
472.683	22878
472.761	24491
472.839	22457
472.918	21783
472.996	23191
473.075	26720
473.153	24173
473.231	21361
473.310	26668
473.388	23911
473.466	23827
473.545	26467
473.623	34970
473.701	32488
473.780	22656
473.858	22766
473.936	24035
474.014	21599
474.093	27451
474.171	37677
474.249	52679
474.327	29934
474.405	20170
474.484	20597
474.562	20990
474.640	20778
474.718	24040
474.796	23848
474.874	22286
474.952	20661
475.030	21326
475.108	22883
475.187	27424
475.265	29230
475.343	40449
475.421	40992
475.499	21751
475.577	23079
475.655	32529
475.733	65150
475.811	107785
475.889	98671
475.966	53972
476.044	23052
476.122	30523
476.200	39597
476.278	28354
476.356	20297
476.434	21689
476.512	29035
476.590	38206
476.667	30318
476.745	20236
476.823	22180
476.901	20563
476.979	21107
477.056	21156
477.134	21719
477.212	22273
477.290	20869
477.367	18227
477.445	18156
477.523	18656
477.601	19539
477.678	20398
477.756	25510
477.834	26498
477.911	18874
477.989	18724
478.066	19195
478.144	24318
478.222	27802
478.299	46467
478.377	37032
478.454	19073
478.532	17503
478.609	20147
478.687	20862
478.764	17942
478.842	19821
478.919	22482
478.997	19892
479.074	17876
479.152	23410
479.229	29599
479.307	18263
479.384	16030
479.461	15369
479.539	19057
479.616	22731
479.694	19644
479.771	21134
479.848	22648
479.926	32617
480.003	30520
480.080	17511
480.157	16949
480.235	16639
480.312	17167
480.389	21446
480.467	35375
480.544	42435
480.621	21690
480.698	20759
480.775	24655
480.853	24117
480.930	19641
481.007	20010
481.084	23048
481.161	24075
481.238	21888
481.315	17216
481.392	16851
481.470	17750
481.547	19113
481.624	17188
481.701	16768
481.778	18700
481.855	22926
481.932	34662
482.009	60424
482.086	34842
482.163	22360
482.240	33637
482.317	59994
482.393	38371
482.470	20144
482.547	19804
482.624	18676
482.701	19990
482.778	18437
482.855	15997
482.932	16596
483.009	17059
483.085	21220
483.162	24705
483.239	22819
483.316	18912
483.393	17818
483.469	17954
483.546	21418
483.623	21879
483.699	17366
483.776	18879
483.853	23836
483.930	37760
484.006	90698
484.083	148440
484.160	63097
484.236	87491
484.313	63997
484.389	51179
484.466	45715
484.543	44864
484.619	47270
484.696	48743
484.772	51139
484.849	52914
484.925	42088
485.002	41271
485.078	44963
485.155	46330
485.231	39666
485.308	38610
485.384	42084
485.461	54438
485.537	93155
485.614	98971
485.690	39731
485.766	38267
485.843	43175
485.919	61620
485.995	58347
486.072	35677
486.148	35270
486.224	34302
486.301	38847
486.377	44797
486.453	47843
486.530	41977
486.606	53427
486.682	59129
486.758	77011
486.835	86885
486.911	72053
486.987	120460
487.063	118682
487.139	145081
487.215	95543
487.292	45516
487.368	41195
487.444	48935
487.520	61378
487.596	60250
487.672	98490
487.748	235161
487.824	331040
487.900	109408
487.976	55696
488.052	52796
488.128	61019
488.204	48117
488.280	39244
488.356	52803
488.432	107822
488.508	152891
488.584	47736
488.660	35600
488.736	35203
488.812	39151
488.888	48925
488.964	70031
489.039	150516
489.115	216929
489.191	108664
489.267	37826
489.343	35265
489.418	30442
489.494	29630
489.570	29563
489.646	30677
489.722	31757
489.797	34205
489.873	58300
489.949	120602
490.024	85521
490.100	30519
490.176	31628
490.251	39303
490.327	51681
490.403	30724
490.478	27682
490.554	24621
490.629	26127
490.705	25353
490.781	28697
490.856	28619
490.932	32571
491.007	31774
491.083	31731
491.158	29986
491.234	43591
491.309	93165
491.385	82228
491.460	29646
491.536	30674
491.611	26661
491.686	31895
491.762	45169
491.837	96205
491.913	156900
491.988	217655
492.063	250694
492.139	68884
492.214	41008
492.289	24134
492.365	25361
492.440	29165
492.515	30056
492.590	28439
492.666	22651
492.741	34789
492.816	52855
492.891	26008
492.967	22174
493.042	19869
493.117	20163
493.192	19780
493.267	23613
493.342	30338
493.418	27983
493.493	19969
493.568	18719
493.643	21823
493.718	30335
493.793	45581
493.868	47683
493.943	29581
494.018	23061
494.093	21682
494.168	21238
494.243	19855
494.318	18024
494.393	18900
494.468	18616
494.543	19564
494.618	24489
494.693	21419
494.768	22049
494.842	20555
494.917	18264
494.992	20620
495.067	18385
495.142	16861
495.217	20493
495.292	18995
495.366	23496
495.441	29927
495.516	38518
495.591	67269
495.665	209730
495.740	456830
495.815	145323
495.890	33197
495.964	27626
496.039	29433
496.114	25913
496.188	29447
496.263	29287
496.338	27344
496.412	31033
496.487	35745
496.561	37635
496.636	38574
496.710	30914
496.785	35124
496.860	40919
496.934	31801
497.009	33221
497.083	33057
497.158	37197
497.232	42444
497.307	50797
497.381	43455
497.455	51180
497.530	62044
497.604	45356
497.679	51389
497.753	78382
497.827	98464
497.902	90594
497.976	113168
498.050	248712
498.125	767177
498.199	653611
498.273	137608
498.348	110905
498.422	92530
498.496	83563
498.570	73226
498.645	55601
498.719	53107
498.793	58968
498.867	87830
498.941	126590
499.016	327549
499.090	797660
499.164	204084
499.238	38017
499.312	34338
499.386	44044
499.460	37727
499.534	34769
499.609	43081
499.683	63006
499.757	64160
499.831	158421
499.905	546263
499.979	418640
500.053	73798
500.127	72041
500.201	50664
500.275	32541
500.349	30967
500.422	38160
500.496	61226
500.570	139163
500.644	310928
500.718	528038
500.792	86465
500.866	31290
500.940	40605
501.013	32222
501.087	34347
501.161	62613
501.235	89170
501.309	196597
501.382	501814
501.456	357128
501.530	91458
501.603	156086
501.677	48352
501.751	26340
501.825	33457
501.898	72801
501.972	198781
502.046	94874
502.119	37826
502.193	92242
502.266	216175
502.340	87424
502.413	98917
502.487	177552
502.561	94752
502.634	29473
502.708	26032
502.781	25266
502.855	19571
502.928	17914
503.002	16342
503.075	18124
503.149	18092
503.222	18698
503.295	21361
503.369	27186
503.442	49128
503.516	157905
503.589	366758
503.662	204507
503.736	72762
503.809	171701
503.882	130260
503.956	203438
504.029	170586
504.102	137101
504.175	163123
504.249	60458
504.322	38967
504.395	31758
504.468	23241
504.542	22104
504.615	17307
504.688	16773
504.761	16683
504.834	21670
504.907	28634
504.980	43594
505.053	23211
505.127	31624
505.200	30553
505.273	31351
505.346	18306
505.419	16257
505.492	14202
505.565	12034
505.638	12870
505.711	13565
505.784	12842
505.857	12666
505.930	13753
506.003	15163
506.076	16412
506.149	22427
506.221	28216
506.294	30300
506.367	86656
506.440	262297
506.513	105038
506.586	28709
506.659	17560
506.731	16010
506.804	21504
506.877	29886
506.950	18989
507.022	15482
507.095	21722
507.168	25112
507.241	15530
507.313	13499
507.386	17189
507.459	22702
507.531	14561
507.604	14567
507.677	12441
507.749	12756
507.822	19454
507.894	38588
507.967	39530
508.040	22513
508.112	20007
508.185	19919
508.257	20584
508.330	29530
508.402	19408
508.475	19468
508.547	19798
508.620	21430
508.692	34221
508.765	18841
508.837	14761
508.909	15093
508.982	16926
509.054	17036
509.127	15431
509.199	14158
509.271	14102
509.344	13189
509.416	13898
509.488	14457
509.560	15899
509.633	16959
509.705	20020
509.777	19587
509.849	27064
509.922	18177
509.994	14580
510.066	15466
510.138	18135
510.210	32022
510.283	28588
510.355	22981
510.427	20860
510.499	20136
510.571	20120
510.643	22165
510.715	34125
510.787	28460
510.859	21631
510.931	26234
511.003	35159
511.076	27765
511.148	18723
511.219	19559
511.291	33540
511.363	34786
511.435	16976
511.507	15947
511.579	16276
511.651	16242
511.723	15283
511.795	16342
511.867	17625
511.939	23706
512.010	49551
512.082	33754
512.154	18434
512.226	19621
512.298	28556
512.369	40482
512.441	30081
512.513	30821
512.585	23024
512.656	23580
512.728	27272
512.800	20632
512.871	19400
512.943	20289
513.015	17902
513.086	19823
513.158	22669
513.230	25044
513.301	35071
513.373	34694
513.444	20806
513.516	18701
513.588	18808
513.659	21471
513.731	26755
513.802	26748
513.874	53491
513.945	86224
514.016	28181
514.088	18647
514.159	23217
514.231	30001
514.302	37268
514.374	25560
514.445	30173
514.516	54137
514.588	37959
514.659	29557
514.730	51855
514.802	37310
514.873	35035
514.944	32883
515.016	29561
515.087	32886
515.158	41481
515.229	52143
515.301	39763
515.372	48164
515.443	31533
515.514	25273
515.585	19548
515.656	19914
515.728	19142
515.799	19712
515.870	19768
515.941	20779
516.012	22263
516.083	28349
516.154	30362
516.225	37922
516.296	34779
516.367	30581
516.438	36207
516.509	53342
516.580	100556
516.651	299837
516.722	898533
516.793	308236
516.864	63094
516.935	58095
517.006	74307
517.077	128510
517.148	331709
517.219	1046501
517.289	1405106
517.360	359038
517.431	95871
517.502	37837
517.573	34130
517.643	33373
517.714	34422
517.785	34931
517.856	35597
517.926	40981
517.997	47946
518.068	67227
518.138	106898
518.209	225772
518.280	741132
518.350	2086876
518.421	725024
518.492	87992
518.562	54704
518.633	54726
518.703	57113
518.774	97590
518.845	198777
518.915	169853
518.986	65297
519.056	55187
519.127	90083
519.197	138060
519.268	278412
519.338	146711
519.408	43053
519.479	52913
519.549	35732
519.620	25616
519.690	20850
519.760	22540
519.831	22110
519.901	22320
519.971	19691
520.042	22332
520.112	26087
520.182	28472
520.253	31920
520.323	22788
520.393	33888
520.463	46332
520.534	35638
520.604	63156
520.674	29801
520.744	36373
520.814	78798
520.885	70730
520.955	101580
521.025	310873
521.095	93242
521.165	21889
521.235	21856
521.305	18710
521.375	18397
521.445	22016
521.515	28796
521.585	32780
521.655	30398
521.725	26111
521.795	23535
521.865	18447
521.935	28735
522.005	25920
522.075	15699
522.145	18516
522.215	23142
522.285	33027
522.355	47451
522.424	84967
522.494	67508
522.564	39309
522.634	79259
522.704	200319
522.774	63430
522.843	20094
522.913	20247
522.983	25642
523.053	21023
523.122	22499
523.192	37299
523.262	111819
523.331	94176
523.401	21511
523.471	14621
523.540	17887
523.610	13879
523.680	14725
523.749	15539
523.819	20742
523.888	20196
523.958	15127
524.027	16504
524.097	18130
524.166	15963
524.236	19805
524.305	17470
524.375	16009
524.444	14591
524.514	17194
524.583	18394
524.653	23316
524.722	24314
524.791	17086
524.861	16434
524.930	15512
524.999	18171
525.069	24997
525.138	20125
525.207	24912
525.277	17887
525.346	17773
525.415	16864
525.484	18166
525.554	22345
525.623	19674
525.692	18423
525.761	19793
525.830	20311
525.900	26446
525.969	44407
526.038	75116
526.107	154218
526.176	387375
526.245	286205
526.314	107714
526.383	218301
526.452	283240
526.522	461194
526.591	408527
526.660	116636
526.729	61877
526.797	86811
526.867	203044
526.935	686075
527.004	1032023
527.073	486341
527.142	47960
527.211	26210
527.280	27728
527.349	25990
527.418	16251
527.487	16125
527.555	14955
527.624	13673
527.693	13634
527.762	13876
527.831	12686
527.899	14775
527.968	13677
528.037	14507
528.106	19804
528.174	34787
528.243	29395
528.312	41533
528.380	49592
528.449	17257
528.518	13390
528.586	10954
528.655	11143
528.723	11926
528.792	11121
528.861	14205
528.929	12019
528.998	12332
529.066	11457
529.135	10871
529.203	11497
529.272	11624
529.340	12807
529.409	13592
529.477	12905
529.545	18998
529.614	19669
529.682	22709
529.751	25212
529.819	25036
529.887	18043
529.956	13757
530.024	14615
530.092	13597
530.161	17350
530.229	26365
530.297	16135
530.365	13257
530.434	12435
530.502	12726
530.570	11792
530.638	10723
530.707	14349
530.775	15226
530.843	11890
530.911	13336
530.979	12755
531.047	12352
531.115	13073
531.183	12983
531.252	12882
531.320	13622
531.388	12702
531.456	13174
531.524	11781
531.592	13683
531.660	15479
531.728	13189
531.796	13964
531.864	12386
531.932	13438
532.000	13468
532.067	14571
532.135	15509
532.203	18275
532.271	21179
532.339	34659
532.407	81738
532.475	44101
532.542	23217
532.610	29575
532.678	53599
532.746	170792
532.814	359918
532.881	75409
532.949	18351
533.017	16553
533.084	15306
533.152	14461
533.220	14909
533.287	16607
533.355	13764
533.423	14053
533.490	13079
533.558	14475
533.625	15456
533.693	15721
533.761	15449
533.828	17290
533.896	17112
533.963	31376
534.031	37365
534.098	50029
534.166	24283
534.233	14831
534.300	14808
534.368	15882
534.435	14924
534.503	16803
534.570	18714
534.637	18072
534.705	20699
534.772	30053
534.840	56370
534.907	184428
534.974	202449
535.041	28853
535.109	21880
535.176	16042
535.243	14987
535.310	16096
535.378	14966
535.445	12867
535.512	13434
535.579	13929
535.646	13726
535.714	15328
535.781	17954
535.848	16591
535.915	16006
535.982	15541
536.049	15005
536.116	16106
536.183	15465
536.250	15561
536.317	16131
536.384	19883
536.451	26901
536.518	27835
536.585	19899
536.652	27335
536.719	34935
536.786	28034
536.853	24605
536.920	35812
536.987	55625
537.053	65625
537.120	191704
537.187	142978
537.254	20044
537.321	16515
537.388	17221
537.454	14631
537.521	15097
537.588	14886
537.654	18383
537.721	18308
537.788	18668
537.855	15766
537.921	15945
537.988	16484
538.055	15443
538.121	16814
538.188	19975
538.254	29619
538.321	51507
538.388	29619
538.454	17396
538.521	15572
538.587	15219
538.654	14863
538.720	15224
538.787	15949
538.853	17612
538.920	20601
538.986	20713
539.053	17281
539.119	18059
539.185	18185
539.252	21837
539.318	31917
539.385	22788
539.451	22686
539.517	23108
539.583	31887
539.650	63716
539.716	138686
539.782	34622
539.849	18174
539.915	18162
539.981	19581
540.047	22647
540.114	19915
540.180	20149
540.246	20910
540.312	30622
540.378	53221
540.444	54949
540.510	66741
540.576	154297
540.643	43594
540.709	16817
540.775	17848
540.841	18702
540.907	25703
540.973	36584
541.039	30337
541.105	31049
541.171	19792
541.237	18272
541.303	20086
541.369	23221
541.435	27743
541.500	43298
541.566	27755
541.632	16885
541.698	15169
541.764	15872
541.830	15912
541.896	15816
541.961	16127
542.027	18001
542.093	16943
542.159	18597
542.224	21587
542.290	30481
542.356	44508
542.421	46129
542.487	22843
542.553	18815
542.618	20484
542.684	18482
542.750	19923
542.815	27994
542.881	48001
542.947	136837
543.012	87452
543.078	17525
543.143	17165
543.209	18402
543.274	20741
543.340	27366
543.405	54783
543.471	78154
543.536	20157
543.602	17675
543.667	17352
543.732	16389
543.798	16133
543.863	17733
543.928	14396
543.994	14726
544.059	16073
544.124	16112
544.190	15954
544.255	17285
544.320	16495
544.386	18679
544.451	26158
544.516	31727
544.581	37730
544.646	88827
544.712	122136
544.777	25972
544.842	21355
544.907	22446
544.972	19625
545.037	19563
545.102	20550
545.168	21803
545.233	21872
545.298	24500
545.363	29881
545.428	33674
545.493	55018
545.558	106737
545.623	41790
545.688	23125
545.753	21421
545.818	21892
545.883	22809
545.947	21711
546.012	24933
546.077	25344
546.142	25391
546.207	24713
546.272	30646
546.337	31143
546.401	25975
546.466	25277
546.531	25398
546.596	26431
546.661	26931
546.725	25697
546.790	25148
546.855	26457
546.919	27744
546.984	31047
547.049	32652
547.113	38636
547.178	37262
547.243	41849
547.307	47654
547.372	52105
547.436	54715
547.501	48540
547.565	51808
547.630	53635
547.695	53482
547.759	56177
547.823	51822
547.888	47214
547.952	48235
548.017	51579
548.081	55478
548.146	63006
548.210	58723
548.274	53259
548.339	50247
548.403	47508
548.468	46201
548.532	46099
548.596	46877
548.660	48068
548.725	53884
548.789	59680
548.853	59478
548.917	53837
548.982	60233
549.046	55103
549.110	42738
549.174	43152
549.238	48445
549.303	50283
549.367	53104
549.431	50658
549.495	47708
549.559	48654
549.623	55510
549.687	64230
549.751	72629
549.815	70314
549.879	68470
549.943	64937
550.007	68625
550.071	68748
550.135	69727
550.199	61796
550.263	59708
550.327	59466
550.391	67785
550.455	65718
550.519	66159
550.582	70946
550.646	88098
550.710	86736
550.774	74940
550.838	75660
550.901	78569
550.965	85321
551.029	90622
551.093	100397
551.156	119107
551.220	159967
551.284	171108
551.347	117547
551.411	144859
551.475	141263
551.538	83612
551.602	74422
551.666	70496
551.729	64880
551.793	64635
551.856	63229
551.920	61791
551.983	63126
552.047	61764
552.110	62980
552.174	61814
552.237	64251
552.301	59613
552.364	58232
552.428	56978
552.491	59131
552.554	62300
552.618	62146
552.681	66619
552.745	69969
552.808	89152
552.871	109578
552.934	78097
552.998	64178
553.061	61239
553.124	57453
553.187	55627
553.251	58064
553.314	57725
553.377	57268
553.440	62085
553.503	64498
553.567	67518
553.630	61838
553.693	59445
553.756	60265
553.819	58859
553.882	56951
553.945	56778
554.008	56137
554.071	56506
554.134	57714
554.197	53736
554.260	53622
554.323	56174
554.386	56653
554.449	57107
554.512	56997
554.575	54585
554.638	53978
554.701	54138
554.764	52386
554.827	51639
554.889	48392
554.952	46902
555.015	45934
555.078	46671
555.141	47194
555.203	46631
555.266	46231
555.329	46953
555.391	45649
555.454	45633
555.517	46005
555.580	43073
555.642	40579
555.705	40680
555.768	40826
555.830	40611
555.893	38056
555.955	37644
556.018	37256
556.080	38951
556.143	37022
556.206	38285
556.268	37909
556.330	39414
556.393	38134
556.455	37691
556.518	46531
556.580	44471
556.643	33987
556.705	33873
556.767	32419
556.830	34082
556.892	36771
556.955	47140
557.017	38385
557.079	33181
557.142	33278
557.204	37614
557.266	55905
557.328	47326
557.391	29388
557.453	28519
557.515	29339
557.577	32969
557.639	32805
557.701	28088
557.764	26144
557.826	28956
557.888	32040
557.950	33933
558.012	41675
558.074	57422
558.136	106607
558.198	233377
558.260	77723
558.322	33807
558.384	33560
558.446	36746
558.508	44361
558.570	61433
558.632	99595
558.694	158184
558.756	214011
558.818	479102
558.880	1065316
558.942	322719
559.003	238479
559.065	109729
559.127	46856
559.189	53383
559.251	74837
559.312	122427
559.374	236234
559.436	683426
559.498	313109
559.559	54290
559.621	53436
559.683	78428
559.744	132548
559.806	331451
559.868	465805
559.929	89285
559.991	63992
560.052	95187
560.114	233893
560.176	152781
560.237	133843
560.299	207486
560.360	47974
560.422	25743
560.483	25004
560.545	22774
560.606	22385
560.667	21899
560.729	20962
560.790	20017
560.852	20765
560.913	21564
560.974	20209
561.036	19015
561.097	20355
561.158	20335
561.220	20112
561.281	21933
561.342	22722
561.403	28730
561.465	34421
561.526	63021
561.587	80189
561.648	26923
561.709	21248
561.771	20184
561.832	20057
561.893	19098
561.954	19347
562.015	18689
562.076	19119
562.137	19962
562.198	18707
562.259	20382
562.320	20693
562.381	22882
562.442	30104
562.503	25144
562.564	19740
562.625	19434
562.686	19504
562.747	22550
562.808	19617
562.869	20059
562.930	24214
562.991	23188
563.051	20798
563.112	19665
563.173	19811
563.234	18426
563.294	19014
563.355	19248
563.416	19642
563.477	19437
563.537	19005
563.598	20389
563.659	19968
563.720	20497
563.780	19707
563.841	21003
563.901	20239
563.962	19466
564.023	19523
564.083	20060
564.144	19938
564.204	20307
564.265	22003
564.325	25041
564.386	40246
564.446	35817
564.507	18828
564.567	19276
564.628	19932
564.688	19997
564.749	19211
564.809	22131
564.869	25780
564.930	20089
564.990	18504
565.050	18384
565.111	19357
565.171	18887
565.231	19533
565.292	19599
565.352	18213
565.412	19773
565.472	19677
565.532	20722
565.593	20498
565.653	18555
565.713	20256
565.773	22616
565.833	24094
565.893	29802
565.953	21072
566.013	21831
566.074	23012
566.134	27675
566.194	39064
566.254	40304
566.314	28176
566.374	22494
566.434	22947
566.494	22627
566.554	23590
566.614	24124
566.673	25125
566.733	25876
566.793	27951
566.853	29805
566.913	29076
566.973	29772
567.033	30319
567.092	30848
567.152	29994
567.212	29906
567.272	31133
567.331	32295
567.391	33607
567.451	35455
567.511	41508
567.570	40806
567.630	30270
567.690	28928
567.749	28540
567.809	31039
567.868	35767
567.928	40785
567.988	48105
568.047	56914
568.107	73048
568.166	97698
568.226	143919
568.285	194429
568.345	161549
568.404	126578
568.464	108229
568.523	101673
568.582	106414
568.642	125893
568.701	160456
568.761	221998
568.820	331248
568.879	314413
568.939	231766
568.998	167122
569.057	126057
569.116	97655
569.176	79234
569.235	67657
569.294	57593
569.353	51181
569.413	45024
569.472	41113
569.531	37700
569.590	33823
569.649	32608
569.708	30905
569.767	30797
569.827	33070
569.886	29219
569.945	25956
570.004	25720
570.063	25592
570.122	24970
570.181	25697
570.240	26687
570.299	27946
570.358	27109
570.417	22495
570.475	21611
570.534	21638
570.593	21429
570.652	23395
570.711	23300
570.770	21302
570.829	23726
570.887	22021
570.946	23648
571.005	20439
571.064	20193
571.122	21584
571.181	22251
571.240	19947
571.299	18143
571.357	19495
571.416	20069
571.475	21447
571.533	22376
571.592	19896
571.650	20629
571.709	17042
571.768	19752
571.826	17391
571.885	17809
571.943	17260
572.002	17425
572.060	17889
572.119	16056
572.177	16769
572.236	15439
572.294	16677
572.352	15787
572.411	16420
572.469	16381
572.528	17430
572.586	17562
572.644	19208
572.703	23505
572.761	18078
572.819	16654
572.877	16037
572.936	15265
572.994	14812
573.052	15887
573.110	17016
573.169	16310
573.227	15472
573.285	14313
573.343	15198
573.401	15245
573.459	14160
573.517	15205
573.576	15377
573.634	15425
573.692	16873
573.750	16497
573.808	15635
573.866	16093
573.924	20451
573.982	18824
574.040	15560
574.098	14733
574.155	14714
574.213	14654
574.271	14750
574.329	15243
574.387	14611
574.445	13983
574.503	13831
574.560	13522
574.618	13608
574.676	14338
574.734	13437
574.792	14088
574.849	13416
574.907	13394
574.965	13702
575.022	12677
575.080	12940
575.138	13239
575.195	14408
575.253	14742
575.311	15101
575.368	14135
575.426	12976
575.483	13795
575.541	13469
575.598	13028
575.656	13907
575.713	13910
575.771	13790
575.828	14042
575.886	14207
575.943	14274
576.001	14533
576.058	15787
576.115	15436
576.173	17120
576.230	19240
576.287	20860
576.345	18312
576.402	15636
576.459	15443
576.517	15815
576.574	16586
576.631	16666
576.688	15508
576.746	15171
576.803	15248
576.860	13507
576.917	15210
576.974	14798
577.031	14144
577.089	14458
577.146	14791
577.203	15273
577.260	15671
577.317	15493
577.374	17498
577.431	16268
577.488	14877
577.545	13847
577.602	14650
577.659	14395
577.716	13775
577.773	13628
577.830	13334
577.886	14106
577.943	13765
578.000	13416
578.057	15366
578.114	14088
578.171	14195
578.227	13971
578.284	13723
578.341	14099
578.398	14893
578.454	15632
578.511	17479
578.568	17169
578.625	15969
578.681	13878
578.738	13970
578.794	14408
578.851	14844
578.908	14847
578.964	16426
579.021	16477
579.077	14621
579.134	13896
579.190	14259
579.247	13745
579.303	13652
579.360	13554
579.416	14385
579.473	13960
579.529	13767
579.586	14075
579.642	13376
579.698	13774
579.755	14662
579.811	14821
579.867	14517
579.924	14024
579.980	13907
580.036	14142
580.093	15006
580.149	13990
580.205	15460
580.261	15190
580.317	15882
580.374	16421
580.430	18326
580.486	17577
580.542	16878
580.598	16276
580.619	16154
580.654	15963
580.692	15977
580.710	16013
580.765	15218
580.767	15213
580.823	16001
580.838	16116
580.879	16489
580.911	15855
580.935	15419
580.984	15623
580.991	15679
581.047	15733
581.057	15614
581.103	15153
581.130	15674
581.159	16228
581.203	15795
581.215	15722
581.270	15372
581.276	15365
581.326	15376
581.349	15548
581.382	15838
581.422	16085
581.438	16205
581.494	16081
581.494	16066
581.550	16029
581.567	16084
581.606	16269
581.640	16018
581.661	15861
581.713	16466
581.717	16529
581.773	15847
581.786	15754
581.829	15555
581.859	15641
581.885	15630
581.932	16579
581.940	16805
581.996	16482
582.004	16426
582.052	16053
582.077	16095
582.107	16225
582.150	16213
582.163	16164
582.219	16667
582.223	16612
582.274	16321
582.296	16574
582.330	16988
582.368	16865
582.386	16799
582.441	16377
582.441	16382
582.497	16523
582.514	16454
582.552	16536
582.587	16138
582.608	15812
582.659	16387
582.663	16452
582.719	16740
582.732	16641
582.774	16197
582.805	16401
582.830	16669
582.877	16944
582.885	16971
582.941	16892
582.950	16897
582.996	17095
583.023	17471
583.052	17860
583.095	17690
583.107	17633
583.162	17290
583.168	17357
583.218	17897
583.240	17385
583.273	16707
583.313	16717
583.328	16720
583.384	18003
583.385	17957
583.439	16697
583.458	16846
583.494	17003
583.531	16845
583.549	16798
583.603	16913
583.605	16912
583.660	17261
583.676	17147
583.715	17070
583.748	17652
583.770	17938
583.820	17807
583.825	17797
583.881	17899
583.893	17766
583.936	17283
583.965	17312
583.991	17337
584.038	17453
584.046	17467
584.101	18188
584.110	17978
584.156	17013
584.183	17493
584.211	17822
584.255	17727
584.266	17726
584.321	17361
584.328	17440
584.376	18136
584.400	18249
584.431	18407
584.472	18135
584.486	17895
584.541	18294
584.545	18309
584.596	19235
584.617	19465
584.651	19533
584.689	19994
584.706	20205
584.761	19994
584.762	20002
584.816	19619
584.834	19836
584.871	20501
584.906	20233
584.926	19880
584.978	20595
584.980	20626
585.035	20964
585.051	21261
585.090	22144
585.123	22339
585.145	22519
585.195	24488
585.200	24622
585.254	24951
585.267	25523
585.309	27498
585.340	28629
585.364	29505
585.412	33491
585.419	34048
585.473	39882
585.484	42090
585.528	51703
585.556	58312
585.583	66949
585.628	86487
585.637	93554
585.692	171814
585.700	189292
585.747	288584
585.772	253606
585.801	169706
585.845	77479
585.856	61400
585.910	37536
585.917	35176
585.965	30728
585.989	29922
586.019	29655
586.061	29056
586.074	28966
586.128	28437
586.133	28547
586.183	30193
586.205	30674
586.237	30698
586.277	30857
586.292	30973
586.346	30963
586.349	31056
586.401	31665
586.421	31889
586.455	32683
586.493	33890
586.509	35090
586.564	40171
586.565	40502
586.618	57242
586.637	58670
586.672	53958
586.709	45423
586.727	41120
586.781	37125
586.781	37082
586.835	36245
586.853	35893
586.889	35575
586.925	35696
586.944	35694
586.996	36316
586.998	36298
587.052	38318
587.068	38774
587.106	39374
587.140	39469
587.161	39838
587.212	41784
587.215	41773
587.269	43045
587.284	43415
587.323	44673
587.356	45693
587.377	46200
587.427	48085
587.431	48129
587.485	50784
587.499	51271
587.539	52370
587.571	53626
587.593	55024
587.643	58792
587.648	58938
587.702	61179
587.715	62069
587.755	65348
587.786	68496
587.810	70194
587.858	73158
587.864	73532
587.917	79878
587.930	81679
587.971	87426
588.001	92249
588.025	95866
588.073	102737
588.079	103520
588.133	115033
588.145	118026
588.187	129007
588.217	138098
588.241	145518
588.288	162094
588.295	164401
588.348	190838
588.360	197646
588.402	222477
588.431	243237
588.456	260975
588.503	302565
588.510	308597
588.564	375022
588.575	391874
588.617	459364
588.646	515044
588.671	571111
588.718	693685
588.725	717107
588.778	932666
588.789	982380
588.832	1256718
588.861	1436100
588.886	1597910
588.932	1788796
588.939	1774177
588.993	1607278
589.004	1622790
589.047	1741678
589.075	1748258
589.100	1593090
589.147	1199327
589.154	1155238
589.207	858132
589.218	808479
589.261	719330
589.290	680955
589.314	681232
589.361	708498
589.368	722144
589.421	885642
589.433	928664
589.475	1204175
589.504	1378309
589.528	1500939
589.576	1635537
589.582	1616202
589.635	1566367
589.647	1533380
589.689	1212709
589.718	949595
589.742	786873
589.790	504727
589.795	486252
589.849	353323
589.861	327172
589.902	278738
589.932	247212
589.955	224697
590.004	183789
590.009	180428
590.062	152833
590.075	147109
590.115	131853
590.146	121672
590.168	116033
590.218	105532
590.222	104501
590.275	95365
590.289	93595
590.328	88291
590.360	84372
590.381	81411
590.431	75363
590.435	74834
590.488	70030
590.503	68928
590.541	65578
590.574	63153
590.594	61837
590.645	59202
590.647	58909
590.700	55705
590.716	54782
590.753	52471
590.787	50949
590.806	50159
590.859	48450
590.859	48291
590.912	46484
590.930	46198
590.965	45150
591.001	44344
591.018	43684
591.071	41886
591.072	41979
591.124	40603
591.143	40215
591.177	39337
591.214	38718
591.230	38647
591.283	38721
591.285	38822
591.336	38043
591.356	37913
591.389	38020
591.427	38145
591.442	37346
591.495	34697
591.498	34599
591.547	32959
591.569	32353
591.600	32358
591.640	32498
591.653	32297
591.706	31940
591.711	31980
591.759	32089
591.782	32303
591.811	33226
591.853	34788
591.864	34450
591.917	32822
591.924	32671
591.969	30641
591.995	29656
592.022	29701
592.066	29928
592.075	30066
592.127	31380
592.137	31726
592.180	34692
592.208	36651
592.233	34554
592.279	30583
592.285	30272
592.338	28372
592.350	27998
592.390	27213
592.421	26773
592.443	26725
592.491	26829
592.495	26782
592.548	27067
592.562	27216
592.600	27035
592.633	26985
592.653	26510
592.704	25305
592.705	25459
592.775	26073
592.846	25749
592.916	27013
592.987	27970
593.058	26933
593.128	24946
593.199	24877
593.270	23458
593.341	23463
593.411	24015
593.482	25877
593.553	24508
593.623	24265
593.694	24023
593.764	24985
593.835	24220
593.906	23896
593.976	24238
594.047	26148
594.117	27831
594.188	30477
594.258	25212
594.329	23690
594.399	23266
594.470	25012
594.540	25115
594.611	24724
594.681	23817
594.751	24799
594.822	25461
594.892	26597
594.963	25856
595.033	28043
595.103	27571
595.174	28414
595.244	33822
595.314	47223
595.384	32745
595.455	27367
595.525	28533
595.595	29006
595.665	28891
595.736	27725
595.806	27302
595.876	28119
595.946	27601
596.016	28218
596.087	29399
596.157	29160
596.227	29291
596.297	29844
596.367	31207
596.437	34136
596.507	39351
596.577	49432
596.647	37930
596.717	33740
596.787	34149
596.857	34256
596.927	33329
596.997	34027
597.067	34052
597.137	34933
597.207	34532
597.277	35070
597.347	35340
597.417	33452
597.487	32882
597.557	34548
597.626	34680
597.696	36119
597.766	39237
597.836	46269
597.906	39165
597.975	32549
598.045	31637
598.115	32313
598.185	33602
598.254	36249
598.324	39311
598.394	42124
598.464	39259
598.533	39710
598.603	37138
598.672	36580
598.742	35963
598.812	36524
598.881	36497
598.951	35634
599.020	35280
599.090	36036
599.159	37668
599.229	36673
599.299	35495
599.368	36231
599.437	36840
599.507	34876
599.576	33040
599.646	32594
599.715	32195
599.785	33142
599.854	33588
599.924	34270
599.993	34428
600.062	31589
600.132	31830
600.201	33195
600.270	37253
600.340	40740
600.409	38519
600.478	38711
600.547	37030
600.617	38899
600.686	32044
600.755	29747
600.824	29335
600.894	29371
600.963	26541
601.032	27263
601.101	25709
601.170	26344
601.239	24807
601.308	27364
601.378	25898
601.447	25883
601.516	25720
601.585	26357
601.654	27028
601.723	28373
601.792	25778
601.861	27808
601.930	27818
601.999	30874
602.068	27914
602.137	30128
602.206	30797
602.275	29433
602.343	31668
602.412	33935
602.481	30010
602.550	28890
602.619	28280
602.688	30249
602.756	29228
602.825	29671
602.894	28820
602.963	30608
603.032	30234
603.100	30409
603.169	30145
603.238	31059
603.307	30953
603.375	31338
603.444	30581
603.513	31562
603.581	31294
603.650	32296
603.719	31111
603.787	32143
603.856	32146
603.924	33314
603.993	34519
604.061	34660
604.130	35933
604.198	37689
604.267	37024
604.335	37529
604.404	37745
604.472	38070
604.541	38997
604.609	39721
604.678	39091
604.746	39441
604.815	40138
604.883	41139
604.951	40676
605.020	40157
605.088	42424
605.156	42025
605.225	42675
605.293	43407
605.361	43244
605.429	42781
605.498	43750
605.566	45324
605.634	47863
605.702	48914
605.771	49766
605.839	50976
605.907	48982
605.975	47282
606.043	45990
606.111	46278
606.180	46407
606.248	45618
606.316	45295
606.384	46120
606.452	50169
606.520	53773
606.588	51919
606.656	47753
606.724	46710
606.792	45021
606.860	41717
606.928	37028
606.996	36105
607.064	35336
607.132	35360
607.200	36648
607.267	38390
607.335	38547
607.403	40520
607.471	39708
607.539	38074
607.607	38652
607.674	34633
607.742	35288
607.810	35411
607.878	35067
607.946	34341
608.013	35448
608.081	37741
608.149	38264
608.216	36927
608.284	38844
608.352	38710
608.419	41120
608.487	44138
608.555	42673
608.622	37508
608.690	40437
608.757	44032
608.825	46857
608.893	44190
608.960	45758
609.028	46803
609.095	49086
609.163	44473
609.230	38830
609.298	34997
609.365	35218
609.432	37077
609.500	39567
609.567	44524
609.635	51101
609.702	55655
609.769	55875
609.837	48932
609.904	41265
609.971	39548
610.039	45809
610.106	60718
610.173	109799
610.241	270599
610.308	331663
610.375	168587
610.442	67226
610.509	44246
610.577	41602
610.644	39285
610.711	39317
610.778	40029
610.845	41687
610.912	43337
610.980	45616
611.047	45318
611.114	46278
611.181	44394
611.248	42467
611.315	44895
611.382	46824
611.449	47051
611.516	48735
611.583	49307
611.650	48363
611.717	49046
611.784	51369
611.851	53022
611.918	58711
611.984	69169
612.051	96771
612.118	193039
612.185	507115
612.252	616539
612.319	128036
612.386	68718
612.452	62621
612.519	57835
612.586	61465
612.653	60718
612.719	55933
612.786	55391
612.853	50724
612.919	49120
612.986	49916
613.053	47039
613.120	45260
613.186	41721
613.253	44358
613.319	42645
613.386	43837
613.453	44246
613.519	46609
613.586	47942
613.652	59846
613.719	53700
613.785	52989
613.852	45653
613.918	43962
613.985	43363
614.051	45765
614.118	45591
614.184	45382
614.250	42504
614.317	44202
614.383	43441
614.449	44517
614.516	43463
614.582	45336
614.648	44379
614.715	43483
614.781	43001
614.847	43644
614.914	44036
614.980	44116
615.046	42979
615.112	43226
615.179	44037
615.245	45323
615.311	48385
615.377	57634
615.443	72378
615.509	57624
615.575	50387
615.642	49279
615.708	49343
615.774	53883
615.840	59015
615.906	66315
615.972	88353
616.038	148011
616.104	282536
616.170	624816
616.236	961691
616.302	227323
616.368	101855
616.434	75671
616.500	61705
616.565	64144
616.631	80131
616.697	75102
616.763	67363
616.829	89517
616.895	164591
616.961	215549
617.026	107615
617.092	55577
617.158	48221
617.224	46270
617.289	43946
617.355	42630
617.421	41832
617.487	41844
617.552	38873
617.618	37307
617.684	37884
617.749	40129
617.815	35945
617.880	35142
617.946	36638
618.012	36019
618.077	36370
618.143	36399
618.208	36367
618.274	37844
618.339	39889
618.405	34828
618.470	32306
618.536	33936
618.601	33754
618.667	34023
618.732	31181
618.798	30921
618.863	29804
618.928	29216
618.994	30667
619.059	32377
619.124	38200
619.190	37910
619.255	30174
619.320	29896
619.386	29803
619.451	29540
619.516	28656
619.581	28681
619.647	29632
619.712	28988
619.777	28410
619.842	27627
619.907	29724
619.972	29901
620.038	29962
620.103	28787
620.168	27985
620.233	28697
620.298	27587
620.363	27903
620.428	28110
620.493	29703
620.558	29826
620.623	29809
620.688	29697
620.753	29394
620.818	29285
620.883	31044
620.948	30808
621.013	30298
621.078	30710
621.143	30328
621.207	32755
621.272	30849
621.337	31312
621.402	32437
621.467	35185
621.532	39759
621.596	34484
621.661	31079
621.726	29964
621.791	30072
621.855	30625
621.920	32212
621.985	32095
622.049	36315
622.114	35156
622.179	33836
622.243	32756
622.308	33625
622.373	34096
622.437	35035
622.502	33240
622.566	32212
622.631	31109
622.695	31813
622.760	31912
622.824	32290
622.889	31896
622.953	34813
623.018	41321
623.082	51058
623.147	35209
623.211	33738
623.276	34056
623.340	32478
623.404	30143
623.469	30108
623.533	29616
623.597	31363
623.662	28979
623.726	29187
623.790	26814
623.854	26669
623.919	26841
623.983	26868
624.047	27662
624.111	27487
624.176	27568
624.240	29301
624.304	33067
624.368	28785
624.432	27645
624.496	29308
624.560	30188
624.625	35003
624.689	30854
624.753	30367
624.817	29527
624.881	29492
624.945	26760
625.009	25284
625.073	25993
625.137	28065
625.201	32045
625.265	35248
625.329	28272
625.393	29530
625.456	28761
625.520	28988
625.584	31154
625.648	35391
625.712	42706
625.776	76365
625.839	107836
625.903	69339
625.967	29291
626.031	35938
626.095	61378
626.158	42691
626.222	23162
626.286	22006
626.349	19901
626.413	20417
626.477	20001
626.540	20437
626.604	19355
626.668	19039
626.731	18451
626.795	19549
626.858	20589
626.922	19770
626.986	18820
627.049	18924
627.113	19134
627.176	19113
627.240	17145
627.303	18461
627.366	18024
627.430	19630
627.493	18543
627.557	19044
627.620	18562
627.684	19046
627.747	19246
627.810	19065
627.874	18099
627.937	16024
628.000	17690
628.064	17634
628.127	15346
628.190	15488
628.253	15118
628.317	14473
628.380	14403
628.443	14871
628.506	15102
628.569	14105
628.632	13239
628.696	13917
628.759	13689
628.822	13561
628.885	12626
628.948	13176
629.011	13136
629.074	12909
629.137	12374
629.200	12789
629.263	13717
629.326	12344
629.389	12181
629.452	12545
629.515	12624
629.578	12778
629.641	12388
629.704	12125
629.767	12757
629.830	12577
629.892	11327
629.955	12036
630.018	12492
630.081	12853
630.144	16940
630.207	13738
630.269	14315
630.332	13811
630.395	13109
630.458	11957
630.520	10658
630.583	11547
630.646	10206
630.708	10766
630.771	10868
630.834	11280
630.896	10996
630.959	11035
631.021	10217
631.084	11037
631.146	10905
631.209	14187
631.272	11700
631.334	10803
631.397	10785
631.459	10904
631.522	11664
631.584	11698
631.646	13160
631.709	14037
631.771	15161
631.834	16046
631.896	11037
631.958	10570
632.021	10875
632.083	10942
632.145	11135
632.208	10508
632.270	11250
632.332	9923
632.395	9483
632.457	10559
632.519	9608
632.581	9560
632.643	8927
632.706	10664
632.768	9578
632.830	10456
632.892	9867
632.954	10199
633.016	10008
633.078	9669
633.141	9595
633.203	8856
633.265	10654
633.327	9505
633.389	9119
633.451	10631
633.513	12325
633.575	13871
633.637	12896
633.698	13042
633.760	10725
633.822	10113
633.884	9527
633.946	11465
634.008	10060
634.070	11408
634.132	10602
634.193	12333
634.255	12457
634.317	13977
634.379	13780
634.441	13102
634.502	11432
634.564	10758
634.626	9623
634.687	10468
634.749	9675
634.811	9251
634.873	8566
634.934	9698
634.996	9509
635.057	9633
635.119	9572
635.181	9957
635.242	9713
635.304	9120
635.365	10239
635.427	10071
635.488	9509
635.550	8631
635.611	8703
635.673	8279
635.734	11031
635.796	10145
635.857	11647
635.918	11464
635.980	12463
636.041	12952
636.102	13379
636.164	14152
636.225	13168
636.286	12811
636.348	11780
636.409	9691
636.470	9928
636.531	9302
636.593	10456
636.654	10726
636.715	8538
636.776	8224
636.838	7367
636.899	8020
636.960	6958
637.021	8286
637.082	7712
637.143	8442
637.204	7000
637.265	7289
637.326	7304
637.387	7617
637.448	6959
637.509	7277
637.570	7188
637.631	7680
637.692	7202
637.753	6385
637.814	6721
637.875	7490
637.936	7653
637.997	7918
638.058	7120
638.119	8442
638.179	7361
638.240	6798
638.301	6866
638.362	6989
638.423	6518
638.483	7366
638.544	5826
638.605	7047
638.666	5494
638.726	7255
638.787	6598
638.848	6227
638.908	5505
638.969	6935
639.030	6253
639.090	5639
639.151	6147
639.211	7406
639.272	8166
639.332	13741
639.393	11938
639.453	7401
639.514	6785
639.574	7702
639.635	6196
639.695	5920
639.756	5854
639.816	7458
639.877	7643
639.937	11587
639.997	18968
640.058	10919
640.118	6165
640.178	6533
640.239	6008
640.299	5661
640.359	4744
640.420	6468
640.480	5538
640.540	7349
640.600	7281
640.661	6944
640.721	5508
640.781	9143
640.841	6642
640.901	6584
640.961	6687
641.021	6043
641.082	7384
641.142	10560
641.202	10125
641.262	5255
641.322	5700
641.382	5284
641.442	5724
641.502	4703
641.562	5983
641.622	5694
641.682	6253
641.742	7182
641.802	6531
641.861	6059
641.921	6399
641.981	7286
642.041	7055
642.101	7808
642.161	7182
642.221	5738
642.280	5370
642.340	5321
642.400	4464
642.460	5651
642.519	5144
642.579	5551
642.639	6002
642.698	4151
642.758	6849
642.818	6067
642.877	4793
642.937	6964
642.997	7028
643.056	9219
643.116	7847
643.175	6902
643.235	5631
643.294	6417
643.354	6350
643.414	7697
643.473	7754
643.532	10877
643.592	13936
643.651	21641
643.711	38564
643.770	72621
643.830	153223
643.889	476917
643.948	289561
644.008	30047
644.067	13230
644.126	9867
644.186	8676
644.245	7145
644.304	5911
644.363	7362
644.423	4919
644.482	5684
644.541	6102
644.600	5696
644.659	6972
644.719	8246
644.778	12329
644.837	19291
644.896	35173
644.955	93569
645.014	76609
645.073	12159
645.132	6788
645.191	7333
645.250	5672
645.309	6386
645.368	5275
645.427	8816
645.486	9237
645.545	22497
645.604	12794
645.663	5554
645.722	5836
645.781	6555
645.840	6536
645.898	8675
645.957	12872
646.016	18762
646.075	34907
646.134	66081
646.192	144769
646.251	399372
646.310	137796
646.369	17446
646.427	10577
646.486	8674
646.545	6667
646.603	6668
646.662	5610
646.721	5666
646.779	4527
646.838	5056
646.896	6804
646.955	8313
647.014	11533
647.072	19169
647.131	50944
647.189	62885
647.248	8877
647.306	6544
647.365	5252
647.423	4161
647.481	4757
647.540	3111
647.598	4119
647.657	3873
647.715	4107
647.773	3448
647.832	4679
647.890	3449
647.948	4178
648.007	4963
648.065	2411
648.123	3804
648.181	4336
648.240	3652
648.298	3325
648.356	3595
648.414	3317
648.472	3612
648.531	3948
648.589	3502
648.647	4057
648.705	4028
648.763	3375
648.821	4895
648.879	3552
648.937	4524
648.995	4888
649.053	6805
649.111	9832
649.169	16056
649.227	27176
649.285	49950
649.343	147522
649.401	185116
649.459	31109
649.516	20965
649.574	6785
649.632	6561
649.690	6097
649.748	8143
649.806	8541
649.863	15157
649.921	31945
649.979	51920
650.037	10079
650.094	3546
650.152	3908
650.210	3653
650.268	3637
650.325	2879
650.383	3620
650.440	2954
650.498	3235
650.556	3964
650.613	2214
650.671	3616
650.728	3287
650.786	3715
650.843	2577
650.901	2722
650.958	2438
651.016	3030
651.073	2808
651.131	3268
651.188	1188
651.246	3167
651.303	2418
651.360	3015
651.418	2580
651.475	2742
651.532	1993
651.590	3259
651.647	1207
651.704	2565
651.762	2420
651.819	3530
651.876	1540
651.933	2287
651.990	2369
652.048	2345
652.105	1839
652.162	3185
652.219	2573
652.276	3209
652.333	2376
652.390	1450
652.448	2232
652.505	2241
652.562	2762
652.619	1923
652.676	1455
652.733	2986
652.790	1874
652.847	1497
652.904	2223
652.961	912
653.017	1569
653.074	2533
653.131	2017
653.188	1977
653.245	1565
653.302	2233
653.359	1764
653.415	2600
653.472	1568
653.529	1878
653.586	1941
653.642	2427
653.699	2349
653.756	1445
653.813	1476
653.869	3137
653.926	1186
653.983	1668
654.039	1871
654.096	2278
654.152	2359
654.209	1496
654.266	2880
654.322	1594
654.379	2399
654.435	3310
654.492	2770
654.548	4290
654.605	6829
654.661	6749
654.717	2383
654.774	3386
654.830	2734
654.887	2105
654.943	2233
655.000	2390
655.056	2579
655.112	2270
655.168	1585
655.225	3092
655.281	2424
655.337	3352
655.394	5537
655.450	6983
655.506	3772
655.562	4967
655.618	8691
655.675	2296
655.731	1722
655.787	2271
655.843	2383
655.899	2137
655.955	2451
656.011	2221
656.067	1794
656.123	3318
656.179	2099
656.235	3195
656.291	1754
656.347	3475
656.403	2163
656.459	3283
656.515	2414
656.571	3777
656.627	2747
656.683	2425
656.739	3026
656.795	3142
656.850	2190
656.906	3128
656.962	2935
657.018	2468
657.074	1905
657.129	2369
657.185	3154
657.241	5558
657.297	5401
657.352	2155
657.408	1620
657.464	3133
657.519	3250
657.575	1944
657.630	2172
657.686	1839
657.742	1091
657.797	1962
657.853	1142
657.908	3305
657.964	1327
658.019	1541
658.075	1949
658.130	2622
658.186	1445
658.241	2610
658.297	1015
658.352	1574
658.407	2954
658.463	1757
658.518	1184
658.573	1993
658.629	762
658.684	1952
658.739	1561
658.795	988
658.850	2039
658.905	1083
658.960	2221
659.016	882
659.071	1255
659.126	1752
659.181	1921
659.236	4095
659.291	5666
659.346	3729
659.401	2474
659.457	2545
659.512	2235
659.567	2883
659.622	2046
659.677	1816
659.732	1218
659.787	2229
659.842	1643
659.897	3802
659.952	2696
660.007	1830
660.061	1315
660.116	1626
660.171	1445
660.226	1877
660.281	1914
660.336	2145
660.391	1801
660.445	1634
660.500	1764
660.555	3040
660.610	1641
660.664	1679
660.719	932
660.774	1777
660.828	1893
660.883	2281
660.938	1831
660.992	675
661.047	1431
661.101	1998
661.156	1663
661.211	1807
661.265	651
661.320	1964
661.374	1815
661.429	1864
661.483	2066
661.538	1756
661.592	1682
661.647	1718
661.701	1171
661.755	1841
661.810	1721
661.864	997
661.919	1088
661.973	1986
662.027	1600
662.081	1127
662.136	1244
662.190	2466
662.244	2072
662.299	2573
662.353	1680
662.407	2232
662.461	605
662.515	2095
662.569	1838
662.624	2937
662.678	1868
662.732	1033
662.786	1312
662.840	2578
662.894	1445
662.948	1735
663.002	1247
663.056	1740
663.110	1337
663.164	2325
663.218	1577
663.272	2175
663.326	1356
663.380	2430
663.434	1371
663.488	1119
663.542	1666
663.595	2546
663.649	2098
663.703	2651
663.757	1208
663.811	1606
663.864	1181
663.918	2029
663.972	1491
664.026	1760
664.079	1240
664.133	1605
664.187	1269
664.240	1845
664.294	1142
664.348	1736
664.401	1923
664.455	2152
664.508	1249
664.562	1959
664.615	2004
664.669	1001
664.722	1986
664.776	1007
664.829	739
664.883	1645
664.936	1360
664.990	2028
665.043	2030
665.097	2127
665.150	2155
665.203	1697
665.257	1689
665.310	2632
665.363	1451
665.417	2699
665.470	2011
665.523	2551
665.576	1980
665.630	2216
665.683	1467
665.736	2188
665.789	1576
665.842	1832
665.895	1793
665.949	2695
666.002	1120
666.055	1473
666.108	1699
666.161	2019
666.214	1811
666.267	1897
666.320	1625
666.373	2561
666.426	2378
666.479	1903
666.532	2504
666.585	2790
666.638	3303
666.691	2986
666.744	2407
666.796	2797
666.849	2672
666.902	2938
666.955	1942
667.008	2473
667.060	1467
667.113	1409
667.166	1114
667.219	2448
667.271	2228
667.324	2167
667.377	1938
667.430	1290
667.482	1414
667.535	2118
667.587	1911
667.640	2736
667.693	2233
667.745	3676
667.798	6408
667.850	3130
667.903	1689
667.955	2056
668.008	1340
668.060	2405
668.113	2627
668.165	2331
668.218	2325
668.270	2087
668.322	1551
668.375	2415
668.427	2377
668.479	2527
668.532	1180
668.584	2174
668.636	2357
668.689	2092
668.741	1373
668.793	2068
668.845	1377
668.898	2887
668.950	1636
669.002	2165
669.054	1803
669.106	1414
669.158	2282
669.211	2782
669.263	2105
669.315	3063
669.367	2144
669.419	1984
669.471	2588
669.523	2630
669.575	3532
669.627	3872
669.679	2525
669.731	2507
669.783	2834
669.835	3568
669.886	2609
669.938	3393
669.990	2811
670.042	2762
670.094	2806
670.146	3520
670.197	3930
670.249	5374
670.301	5409
670.353	7767
670.404	10533
670.456	15969
670.508	24340
670.560	41907
670.611	70889
670.663	124290
670.715	242202
670.766	568834
670.818	426825
670.869	81639
670.921	25404
670.972	15885
671.024	10742
671.075	8703
671.127	6269
671.178	5053
671.230	4673
671.281	4785
671.333	3986
671.384	3156
671.436	4691
671.487	5165
671.538	5185
671.590	6836
671.641	8745
671.692	14130
671.744	27106
671.795	33900
671.846	13687
671.897	6303
671.949	3273
672.000	3657
672.051	3432
672.102	3798
672.153	2213
672.204	2961
672.256	2244
672.307	2623
672.358	2566
672.409	3226
672.460	2629
672.511	2775
672.562	2580
672.613	1597
672.664	1487
672.715	2633
672.766	1810
672.817	2541
672.868	2234
672.919	2235
672.970	1437
673.021	2441
673.071	1499
673.122	2638
673.173	1887
673.224	2391
673.275	2068
673.326	1627
673.376	1710
673.427	1764
673.478	1889
673.528	2676
673.579	976
673.630	2247
673.680	1826
673.731	1664
673.782	1918
673.832	2615
673.883	1819
673.934	2132
673.984	1063
674.035	1975
674.085	2198
674.136	1823
674.186	2082
674.237	2423
674.287	4024
674.338	4850
674.388	2386
674.438	2064
674.489	1343
674.539	2514
674.589	2112
674.640	2412
674.690	1818
674.740	2718
674.791	1906
674.841	2770
674.891	2489
674.942	2059
674.992	1607
675.042	1424
675.092	850
675.142	2458
675.193	1656
675.243	2278
675.293	1631
675.343	1935
675.393	1297
675.443	2474
675.493	1719
675.543	1240
675.593	1931
675.643	2324
675.693	1460
675.743	1637
675.793	1380
675.843	1734
675.893	1488
675.943	1350
675.993	957
676.043	1193
676.093	2209
676.142	751
676.192	1825
676.242	1845
676.292	916
676.341	816
676.391	1433
676.441	1977
676.491	2285
676.540	1525
676.590	1162
676.640	1621
676.689	1555
676.739	1191
676.789	1196
676.838	1690
676.888	1404
676.937	1210
676.987	1211
677.037	1452
677.086	723
677.136	687
677.185	1095
677.235	892
677.284	680
677.333	910
677.383	463
677.432	1611
677.482	1344
677.531	1417
677.580	677
677.630	858
677.679	621
677.728	718
677.778	992
677.827	953
677.876	-639
677.925	203
677.975	1505
678.024	1246
678.073	1115
678.122	1508
678.171	783
678.220	1182
678.269	1179
678.319	1723
678.368	1187
678.417	1939
678.466	1721
678.515	1793
678.564	1590
678.613	1474
678.662	612
678.711	964
678.760	1680
678.809	1449
678.857	530
678.906	1116
678.955	435
679.004	1609
679.053	1178
679.102	1287
679.151	858
679.199	969
679.248	1315
679.297	367
679.346	997
679.394	1328
679.443	993
679.492	808
679.540	974
679.589	570
679.638	793
679.686	1569
679.735	787
679.784	1162
679.832	964
679.881	1793
679.929	1464
679.978	932
680.026	668
680.075	1141
680.123	580
680.172	440
680.220	737
680.268	687
680.317	476
680.365	461
680.414	126
680.462	1063
680.510	916
680.559	935
680.607	530
680.655	615
680.703	81
680.752	1077
680.800	251
680.848	1335
680.896	1261
680.945	1004
680.993	426
681.041	706
681.089	85
681.137	615
681.185	598
681.233	1598
681.258	1436
681.281	1258
681.329	1065
681.377	-330
681.380	-233
681.425	1043
681.473	641
681.502	1202
681.521	1540
681.569	1089
681.617	1729
681.624	1759
681.665	1767
681.713	1215
681.745	1382
681.761	1414
681.809	777
681.857	1141
681.867	1280
681.904	1675
681.952	2080
681.989	2032
682.000	1982
682.048	1265
682.096	1367
682.111	1502
682.143	1708
682.191	2170
682.233	1583
682.239	1461
682.286	1749
682.334	1943
682.354	1806
682.382	1607
682.430	1313
682.476	2508
682.477	2509
682.525	1657
682.572	1687
682.598	1917
682.620	2093
682.667	2366
682.715	2337
682.720	2432
682.763	3063
682.810	2743
682.841	2461
682.857	2270
682.905	2159
682.952	2893
682.963	2811
683.000	2428
683.047	3164
683.085	3143
683.095	3118
683.142	3031
683.190	2932
683.206	2917
683.237	2816
683.284	2632
683.328	2497
683.332	2468
683.379	3107
683.426	2394
683.449	2607
683.473	2749
683.521	3355
683.568	2634
683.571	2679
683.615	3081
683.662	3565
683.693	3446
683.709	3334
683.757	3163
683.804	3277
683.814	3130
683.851	2604
683.898	4135
683.936	3831
683.945	3724
683.992	3264
684.039	4055
684.057	4018
684.086	3999
684.133	4274
684.179	4195
684.180	4172
684.227	3998
684.274	4718
684.300	4408
684.321	4128
684.368	4234
684.415	4039
684.422	4087
684.462	4249
684.509	3124
684.543	3881
684.556	4152
684.603	4153
684.649	4366
684.665	4455
684.696	4544
684.743	5127
684.786	4634
684.790	4594
684.837	5121
684.883	4558
684.908	4874
684.930	5112
684.977	5261
685.023	5693
685.029	5683
685.070	5318
685.117	4824
685.150	4874
685.164	4928
685.210	5256
685.257	4775
685.272	5215
685.303	6118
685.350	5674
685.393	5813
685.396	5810
685.443	5881
685.490	6314
685.514	6336
685.536	6340
685.583	6023
685.629	5662
685.636	5759
685.675	6089
685.722	5620
685.757	5745
685.768	5830
685.815	6048
685.861	6490
685.878	6197
685.908	5683
685.954	6595
686.000	6700
686.000	6698
686.047	7226
686.093	7322
686.121	7899
686.139	8155
686.185	7674
686.232	7270
686.242	7168
686.278	6596
686.324	7029
686.363	6322
686.370	6193
686.416	6276
686.463	6397
686.484	5997
686.509	5768
686.555	5805
686.601	5852
686.606	5926
686.647	6357
686.693	6439
686.727	6321
686.739	6321
686.785	6464
686.831	6379
686.848	6770
686.877	7291
686.923	6013
686.969	7068
686.969	7073
687.015	6705
687.061	6507
687.090	6321
687.107	6320
687.153	6979
687.199	6593
687.211	6838
687.245	7202
687.291	6396
687.332	6575
687.336	6638
687.382	7299
687.428	7568
687.453	7768
687.474	7663
687.520	7013
687.565	6818
687.574	6761
687.611	6784
687.657	7210
687.695	7249
687.702	7271
687.748	7335
687.794	8064
687.816	7921
687.839	7687
687.885	8093
687.931	7015
687.937	7063
687.976	7376
688.022	7352
688.058	7683
688.067	7803
688.113	7416
688.158	7576
688.179	7711
688.204	7742
688.249	7504
688.295	7637
688.300	7623
688.340	7814
688.386	7940
688.421	8149
688.431	8161
688.477	7997
688.522	8061
688.542	8027
688.567	8087
688.613	7847
688.658	7671
688.663	7741
688.703	8248
688.749	7958
688.784	8141
688.794	8227
688.839	8259
688.884	8460
688.905	8248
688.930	7854
688.975	8180
689.020	7949
689.026	7938
689.065	8224
689.110	7746
689.146	8213
689.155	8310
689.201	7834
689.246	8560
689.267	8444
689.291	8280
689.336	8882
689.381	7904
689.388	7945
689.426	8341
689.471	7851
689.509	8166
689.516	8226
689.561	7936
689.606	8037
689.630	7914
689.651	7871
689.696	8286
689.741	7818
689.750	8006
689.785	8692
689.830	8558
689.871	8465
689.875	8460
689.920	8604
689.965	8562
689.992	8115
690.010	7800
690.054	8180
690.099	7762
690.112	7722
690.144	7995
690.189	8150
690.233	8745
690.233	8759
690.278	8894
690.323	8787
690.354	8678
690.367	8634
690.412	8542
690.457	8564
690.474	8732
690.501	8985
690.546	8241
690.590	8326
690.595	8261
690.635	8027
690.680	8475
690.716	8708
690.724	8780
690.769	8676
690.813	8781
690.836	9103
690.857	9372
690.902	8595
690.946	9162
690.957	9149
690.991	9333
691.035	9394
691.077	9502
691.080	9519
691.124	9900
691.168	9668
691.198	9859
691.213	10025
691.257	10060
691.301	10534
691.318	10458
691.346	9963
691.390	9669
691.434	9311
691.439	9226
691.478	9278
691.522	9556
691.559	9537
691.567	9552
691.611	10309
691.655	10250
691.680	10205
691.699	10084
691.743	10202
691.787	10010
691.800	9860
691.831	9701
691.875	9793
691.919	10147
691.921	10126
691.964	10260
692.008	10585
692.041	10751
692.052	10813
692.096	11024
692.139	11500
692.162	11504
692.183	11209
692.227	10495
692.271	10245
692.282	10105
692.315	10298
692.359	10218
692.402	10451
692.403	10472
692.447	10469
692.490	10315
692.523	10073
692.534	10185
692.578	10561
692.622	11537
692.643	11493
692.666	11105
692.709	10782
692.753	10328
692.763	10326
692.797	10486
692.840	9893
692.884	9931
692.884	9956
692.928	10125
692.971	10466
693.004	10288
693.015	10264
693.059	10940
693.102	10958
693.124	11099
693.146	11190
693.189	11202
693.233	11130
693.245	11120
693.276	11133
693.320	11347
693.363	10906
693.365	10879
693.407	10908
693.450	10952
693.485	11004
693.493	11053
693.537	10986
693.580	11299
693.605	11273
693.624	11296
693.667	11217
693.710	11288
693.725	11242
693.753	11185
693.797	10984
693.840	11412
693.845	11370
693.883	11436
693.926	11423
693.966	11424
693.970	11399
694.013	11247
694.056	10577
694.086	10324
694.099	10416
694.142	10332
694.185	10872
694.206	10715
694.229	10781
694.272	11421
694.315	11872
694.326	11960
694.358	12222
694.401	12475
694.444	13002
694.446	12980
694.487	12883
694.530	12954
694.566	12886
694.573	12794
694.616	12090
694.659	11130
694.686	10836
694.702	11016
694.745	11229
694.787	11040
694.806	11118
694.830	11138
694.873	11161
694.916	10818
694.926	10793
694.959	10887
695.002	10792
695.044	10799
695.046	10768
695.087	11120
695.130	11412
695.166	11761
695.172	11794
695.215	11818
695.258	11788
695.286	11756
695.301	11811
695.343	11684
695.386	11995
695.406	11834
695.428	11619
695.471	11724
695.514	11439
695.526	11384
695.556	11487
695.599	11605
695.641	11502
695.646	11479
695.684	11605
695.726	11720
695.766	11770
695.769	11801
695.811	11820
695.854	11741
695.886	11677
695.896	11742
695.938	12058
695.981	12068
696.005	12148
696.023	12099
696.065	11938
696.108	11808
696.125	11713
696.150	12018
696.192	12254
696.235	12786
696.245	12823
696.277	12667
696.319	12627
696.361	12488
696.365	12441
696.404	12263
696.446	12021
696.485	11908
696.488	11958
696.530	11977
696.572	12198
696.604	12245
696.614	12273
696.656	12318
696.698	12274
696.724	12240
696.740	12294
696.783	12310
696.825	12469
696.844	12435
696.867	12441
696.909	12551
696.951	12372
696.964	12387
696.992	12387
697.034	12089
697.076	11895
697.083	11837
697.118	11973
697.160	11949
697.202	12036
697.203	12004
697.244	12197
697.286	12287
697.323	12417
697.327	12466
697.369	12497
697.411	12624
697.442	12606
697.453	12565
697.494	12370
697.536	12035
697.562	11847
697.578	12007
697.620	12360
697.661	12615
697.682	12722
697.703	12948
697.744	13406
697.786	13799
697.801	13907
697.828	14065
697.869	14183
697.911	14442
697.921	14431
697.952	14341
697.994	14277
698.035	14150
698.040	14097
698.077	13589
698.118	12979
698.160	12320
698.160	12281
698.201	12709
698.243	13103
698.279	13369
698.284	13402
698.325	13418
698.367	13432
698.399	13370
698.408	13361
698.449	13161
698.491	12975
698.518	12788
698.532	12905
698.573	13189
698.614	13456
698.638	13579
698.656	13544
698.697	13353
698.738	13179
698.757	13051
698.779	13078
698.820	13075
698.862	13054
698.877	13013
698.903	13343
698.944	13808
698.985	14276
698.996	14367
699.026	14398
699.067	14392
699.116	14347
699.235	13868
699.354	13920
699.474	13482
699.593	13483
699.713	15430
699.832	13332
699.951	14377
700.070	13813
700.190	12093
700.309	13194
700.428	13092
700.547	13824
700.667	13059
700.786	12852
700.905	13721
701.024	12373
701.143	13140
701.262	12609
701.381	11952
701.500	12589
701.619	13382
701.738	13279
701.857	11733
701.976	11521
702.095	11369
702.214	12316
702.333	12640
702.452	12949
702.571	12520
702.690	11838
702.809	11307
702.928	11434
703.047	10953
703.165	11622
703.284	11257
703.403	11141
703.522	11397
703.640	13193
703.759	12712
703.878	16133
703.997	15209
704.115	11284
704.234	10731
704.353	10722
704.471	9756
704.590	10808
704.708	9702
704.827	11172
704.946	10063
705.064	11889
705.183	11128
705.301	10893
705.420	14178
705.538	16255
705.656	13793
705.775	11378
705.893	12863
706.012	13677
706.130	13595
706.249	13825
706.367	13899
706.485	13947
706.604	13182
706.722	14315
706.840	14126
706.958	16928
707.077	14214
707.195	12900
707.313	12564
707.431	12153
707.549	11821
707.668	12462
707.786	12662
707.904	12321
708.022	12413
708.140	11954
708.258	11578
708.376	11623
708.494	12344
708.612	11801
708.730	14933
708.848	18099
708.966	15916
709.084	14975
709.202	13727
709.320	14259
709.438	13993
709.556	15169
709.674	13637
709.791	14075
709.909	13478
710.027	14064
710.145	13747
710.263	13305
710.380	13803
710.498	13747
710.616	13629
710.733	12951
710.851	13451
710.969	14511
711.086	13252
711.204	14200
711.322	12908
711.439	13958
711.557	14369
711.674	13903
711.792	12860
711.909	12678
712.027	11394
712.144	12549
712.262	12800
712.379	12571
712.497	16137
712.614	20142
712.732	17348
712.849	14562
712.966	15629
713.084	18795
713.201	17948
713.318	16311
713.436	15596
713.553	15673
713.670	15241
713.787	16094
713.905	18689
714.022	15981
714.139	14775
714.256	17182
714.373	17682
714.490	23038
714.608	38507
714.725	121512
714.842	390830
714.959	75158
715.076	19234
715.193	16213
715.310	14867
715.427	13528
715.544	13139
715.661	12934
715.778	13796
715.895	14915
716.011	14723
716.128	14414
716.245	13492
716.362	14131
716.479	17192
716.596	14079
716.713	12513
716.829	12428
716.946	13463
717.063	12228
717.180	12067
717.296	11617
717.413	12538
717.530	12250
717.646	12244
717.763	11902
717.880	11213
717.996	11257
718.113	12214
718.229	11666
718.346	11084
718.462	10717
718.579	11955
718.695	16757
718.812	21423
718.928	15203
719.045	15450
719.161	10214
719.277	11238
719.394	10277
719.510	10006
719.626	10794
719.743	12619
719.859	13813
719.975	16556
720.092	36856
720.208	137923
720.324	78661
720.440	14485
720.557	11724
720.673	14774
720.789	21914
720.905	33451
721.021	37286
721.137	10593
721.253	10732
721.369	10130
721.486	10961
721.602	14037
721.718	13030
721.834	8981
721.950	10276
722.066	9386
722.181	8643
722.297	9680
722.413	10834
722.529	8628
722.645	9830
722.761	8444
722.877	8912
722.993	8703
723.108	9016
723.224	9761
723.340	9432
723.456	9181
723.571	8575
723.687	8309
723.803	8966
723.918	7768
724.034	8693
724.150	8503
724.265	8897
724.381	12180
724.497	27174
724.612	12050
724.728	8757
724.843	8492
724.959	9215
725.074	10795
725.190	24911
725.305	11372
725.421	9201
725.536	8253
725.651	7379
725.767	8159
725.882	7188
725.997	6783
726.113	7523
726.228	7893
726.343	6924
726.459	6409
726.574	7333
726.689	7203
726.804	7410
726.920	7643
727.035	7352
727.150	7547
727.265	7260
727.380	7432
727.495	7188
727.610	6728
727.725	6664
727.841	6625
727.956	6227
728.071	7662
728.186	8020
728.301	6344
728.416	6898
728.531	6446
728.645	6557
728.760	6335
728.875	7346
728.990	6672
729.105	6609
729.220	6535
729.335	7048
729.449	6288
729.564	6406
729.679	6965
729.794	6136
729.908	6460
730.023	6642
730.138	6208
730.253	5027
730.367	6621
730.482	5532
730.596	5994
730.711	6274
730.826	6951
730.940	6001
731.055	6926
731.169	6732
731.284	5407
731.398	5973
731.513	6103
731.627	7295
731.742	7349
731.856	8495
731.970	6661
732.085	6348
732.199	7793
732.313	9845
732.428	17006
732.542	46864
732.656	81456
732.771	18394
732.885	8233
732.999	7679
733.113	7491
733.227	7164
733.342	7053
733.456	5634
733.570	6458
733.684	5654
733.798	5712
733.912	5686
734.026	4685
734.140	6007
734.254	6524
734.368	7123
734.482	14848
734.596	8124
734.710	5588
734.824	6011
734.938	5778
735.052	6304
735.166	7065
735.280	6839
735.393	5021
735.507	5388
735.621	6405
735.735	10688
735.849	10968
735.962	5906
736.076	5018
736.190	6222
736.303	6392
736.417	11027
736.531	6441
736.644	5122
736.758	5394
736.872	5045
736.985	5301
737.099	5381
737.212	4353
737.326	5560
737.439	5074
737.553	5139
737.666	5118
737.780	5034
737.893	3933
738.007	3698
738.120	4448
738.233	4434
738.347	5210
738.460	5378
738.573	4228
738.687	5725
738.800	4466
738.913	6704
739.026	7225
739.140	4635
739.253	4655
739.366	4161
739.479	4299
739.592	4106
739.705	3614
739.818	4772
739.932	4397
740.045	5145
740.158	4458
740.271	4291
740.384	4836
740.497	4969
740.610	5030
740.723	4964
740.836	4564
740.949	4399
741.062	5856
741.174	6756
741.287	4806
741.400	4111
741.513	4928
741.626	4484
741.739	4907
741.851	4571
741.964	4156
742.077	4436
742.189	4269
742.302	4598
742.415	4669
742.527	4544
742.640	3566
742.753	3845
742.865	5057
742.978	3468
743.090	4421
743.203	3339
743.316	4611
743.428	3974
743.541	3872
743.653	4243
743.766	4083
743.878	4214
743.990	5142
744.103	6113
744.215	4740
744.327	3940
744.440	5614
744.552	6170
744.664	6024
744.777	3441
744.889	3329
745.001	3918
745.113	3882
745.226	3741
745.338	3383
745.450	3595
745.562	4000
745.674	3503
745.786	2817
745.898	3086
746.010	4007
746.122	3569
746.234	3419
746.347	3453
746.459	3249
746.570	3797
746.682	3430
746.794	4315
746.906	4621
747.018	4039
747.130	3288
747.242	3394
747.354	3333
747.466	3583
747.577	3483
747.689	4073
747.801	3781
747.913	3618
748.024	3019
748.136	3685
748.248	2832
748.359	2929
748.471	3392
748.583	3383
748.694	2611
748.806	3415
748.918	2728
749.029	4133
749.141	4511
749.252	3811
749.364	3078
749.475	6844
749.587	7495
749.698	3860
749.809	3780
749.921	2838
750.032	2605
750.144	2615
750.255	3210
750.366	2488
750.478	2696
750.589	2755
750.700	2756
750.811	3891
750.923	3903
751.034	5378
751.145	11520
751.256	4236
751.367	2853
751.479	2543
751.590	3004
751.701	3076
751.812	2041
751.923	3446
752.034	2794
752.145	2833
752.256	2652
752.367	2776
752.478	1869
752.589	2292
752.700	2224
752.811	2808
752.922	2805
753.032	3498
753.143	3120
753.254	3064
753.365	2950
753.476	2751
753.586	2547
753.697	2618
753.808	2687
753.919	2734
754.029	3072
754.140	2770
754.251	2726
754.361	2543
754.472	2302
754.582	2827
754.693	3124
754.804	2605
754.914	2266
755.025	1797
755.135	1514
755.246	2590
755.356	1901
755.466	2713
755.577	2396
755.687	2856
755.798	1858
755.908	2216
756.018	2853
756.129	2233
756.239	2080
756.349	2812
756.460	2916
756.570	2560
756.680	2812
756.790	3064
756.900	3396
757.011	3100
757.121	2413
757.231	2174
757.341	2929
757.451	2402
757.561	2387
757.671	2779
757.781	2004
757.891	2756
758.001	2840
758.111	2848
758.221	2111
758.331	2763
758.441	3471
758.551	3300
758.661	4796
758.771	2510
758.880	2551
758.990	3237
759.100	2668
759.210	2557
759.320	2442
759.429	2571
759.539	3095
759.649	2793
759.758	2341
759.868	3506
759.978	2699
760.087	2855
760.197	2826
760.307	2552
760.416	2889
760.526	2335
760.635	2839
760.745	2856
760.854	2725
760.964	3476
761.073	3165
761.182	3082
761.292	2883
761.401	2750
761.511	2822
761.620	2529
761.729	2603
761.839	2336
761.948	2554
762.057	2784
762.166	3236
762.276	2212
762.385	3000
762.494	2455
762.603	2354
762.712	2446
762.822	2620
762.931	2630
763.040	2777
763.149	2418
763.258	2290
763.367	2890
763.476	2365
763.585	2172
763.694	2955
763.803	2566
763.912	2438
764.021	2939
764.130	2041
764.238	2805
764.347	2521
764.456	2814
764.565	2526
764.674	2459
764.783	2556
764.891	1832
765.000	2846
765.109	2473
765.217	2743
765.326	2581
765.435	4457
765.543	3049
765.652	2526
765.761	3290
765.869	3459
765.978	4263
766.086	6603
766.195	11924
766.303	24750
766.412	88509
766.520	239681
766.629	70396
766.737	11082
766.846	6288
766.954	4461
767.062	4579
767.171	4214
767.279	3343
767.387	2881
767.496	2994
767.604	3137
767.712	3138
767.820	3170
767.928	3385
768.037	2587
768.145	3078
768.253	3182
768.361	2688
768.469	2531
768.577	3336
768.685	2449
768.793	3239
768.901	2461
769.009	3299
769.117	3407
769.225	2060
769.333	2803
769.441	3828
769.549	5562
769.657	10713
769.765	27176
769.873	115155
769.981	124140
770.088	12916
770.196	4724
770.304	4351
770.412	2831
770.519	2729
770.627	2595
770.735	2614
770.842	2961
770.950	2419
771.058	3007
771.165	2545
771.273	2549
771.380	2923
771.488	2692
771.595	2764
771.703	3262
771.810	3244
771.918	2838
772.025	3277
772.133	2272
772.240	3708
772.348	2557
772.455	3295
772.562	3313
772.670	3190
772.777	3333
772.884	2584
772.991	3048
773.099	3194
773.206	2238
773.313	2611
773.420	3355
773.528	2573
773.635	2274
773.742	2115
773.849	2549
773.956	2730
774.063	3015
774.170	3001
774.277	2934
774.384	2358
774.491	3518
774.598	3133
774.705	2540
774.812	3306
774.919	3881
775.026	3604
775.133	3194
775.239	2494
775.346	2326
775.453	2480
775.560	2512
775.667	2284
775.773	1639
775.880	2808
775.987	2713
776.093	3137
776.200	2884
776.307	2115
776.413	2308
776.520	2379
776.627	2994
776.733	2968
776.840	2049
776.946	2970
777.053	3138
777.159	3759
777.266	3638
777.372	4111
777.478	3662
777.585	3666
777.691	2064
777.798	2099
777.904	2930
778.010	2779
778.117	4609
778.223	2563
778.329	2413
778.435	1949
778.542	2178
778.648	2255
778.754	1685
778.860	1390
778.966	2751
779.072	2657
779.178	2554
779.284	2789
779.391	1856
779.497	1597
779.603	2824
779.708	1132
779.815	2487
779.920	2453
780.026	2575
780.132	2882
780.238	1696
780.344	2164
780.450	2810
780.556	1764
780.661	1550
780.767	2019
780.873	1871
780.979	1603
781.085	1470
781.190	1871
781.296	1518
781.402	2409
781.507	2058
781.613	1633
781.719	1119
781.824	1598
781.930	2065
782.035	1927
782.141	2056
782.246	2184
782.352	2397
782.457	2222
782.563	1791
782.668	1564
782.773	1316
782.879	2383
782.984	2762
783.090	2612
783.195	2993
783.300	4156
783.405	2597
783.511	2505
783.616	2499
783.721	1918
783.826	2163
783.932	1500
784.037	1764
784.142	1621
784.247	2050
784.352	2023
784.457	2284
784.562	2014
784.667	1752
784.772	1651
784.877	1649
784.982	2686
785.087	1856
785.192	2859
785.297	1496
785.402	2147
785.507	1188
785.611	923
785.716	1751
785.821	1521
785.926	1857
786.031	1660
786.135	1512
786.240	1698
786.345	1614
786.450	1345
786.554	1232
786.659	1562
786.763	1163
786.868	1935
786.973	1457
787.077	1414
787.182	1611
787.286	1269
787.391	1533
787.495	1287
787.600	1946
787.704	778
787.809	1613
787.913	1872
788.017	1208
788.122	2028
788.226	1372
788.330	624
788.435	1165
788.539	1534
788.643	802
788.747	1268
788.852	904
788.956	1273
789.060	1254
789.164	1320
789.268	953
789.372	2506
789.476	936
789.580	699
789.684	1751
789.788	795
789.892	981
789.996	2020
790.100	958
790.204	1013
790.308	1272
790.412	1246
790.516	1060
790.620	1871
790.724	1049
790.828	2467
790.931	928
791.035	1430
791.139	1662
791.242	1132
791.346	1370
791.450	1459
791.554	1146
791.657	537
791.761	1948
791.864	1543
791.968	605
792.072	1402
792.175	920
792.279	1588
792.382	185
792.486	1121
792.589	604
792.693	1543
792.796	1183
792.899	1358
793.003	1621
793.106	688
793.209	675
793.313	1368
793.416	751
793.519	1041
793.623	2020
793.726	3742
793.829	1882
793.932	1450
794.035	1057
794.138	2290
794.242	1554
794.345	1729
794.448	2573
794.551	2504
794.654	4393
794.757	2604
794.860	2100
794.963	2175
795.066	1158
795.169	1957
795.272	788
795.375	1280
795.477	877
795.580	1774
795.683	205
795.786	1631
795.889	452
795.991	1366
796.094	1745
796.197	1107
796.300	1373
796.402	495
796.505	298
796.608	469
796.710	851
796.813	889
796.915	1428
797.018	1910
797.120	608
797.223	887
797.326	1164
797.428	1128
797.530	995
797.633	1139
797.735	2118
797.838	2159
797.940	3783
798.042	1035
798.145	1088
798.247	1442
798.349	564
798.452	1464
798.554	939
798.656	267
798.758	1987
798.860	1487
798.962	1066
799.065	572
799.167	-301
799.269	1412
799.371	827
799.473	1512
799.575	1486
799.677	2057
799.779	2210
799.881	1946
799.983	2870
800.085	1299
800.187	448
800.289	-112
800.390	961
800.492	1070
800.594	1213
800.696	805
800.798	741
800.899	52
801.001	289
801.103	1307
801.205	959
801.306	1458
801.408	652
801.509	867
801.611	579
801.713	396
801.814	710
801.916	667
802.017	94
802.119	371
802.220	903
802.322	-96
802.423	1658
802.525	757
802.626	610
802.727	1051
802.829	1241
802.930	-413
803.031	1533
803.133	974
803.234	690
803.335	479
803.436	683
803.538	588
803.639	383
803.740	851
803.841	-35
803.942	15
804.043	1097
804.144	183
804.245	1082
804.346	384
804.447	634
804.548	903
804.649	2543
804.750	609
804.851	782
804.952	318
805.053	644
805.154	-390
805.255	408
805.355	848
805.456	225
805.557	359
805.658	335
805.758	773
805.859	118
805.960	767
806.061	-61
806.161	971
806.262	832
806.362	627
806.463	707
806.564	1198
806.664	461
806.765	1420
806.865	2285
806.966	200
807.066	-57
807.166	1398
807.267	343
807.367	659
807.468	336
807.568	-573
807.668	1179
807.769	326
807.869	827
807.969	119
808.069	1169
808.170	389
808.270	668
808.370	938
808.470	861
808.570	1455
808.670	680
808.770	335
808.870	-208
808.970	1156
809.070	223
809.170	586
809.271	543
809.370	156
809.470	429
809.570	907
809.670	134
809.770	189
809.870	250
809.970	-123
810.070	34
810.169	465
810.269	-315
810.369	681
810.469	151
810.568	156
810.668	550
810.768	462
810.867	494
810.967	3
811.066	825
811.166	353
811.265	966
811.365	43
811.464	361
811.564	-338
811.663	9
811.763	355
811.862	982
811.962	653
812.061	825
812.160	340
812.260	443
812.359	704
812.458	1354
812.557	4302
812.657	11782
812.756	8990
812.855	1869
812.954	940
813.053	878
813.153	1626
813.252	887
813.351	-20
813.450	895
813.549	1301
813.648	1378
813.747	949
813.846	824
813.945	391
814.044	596
814.143	827
814.242	826
814.341	991
814.439	574
814.538	818
814.637	296
814.736	842
814.835	666
814.933	343
815.032	879
815.131	711
815.229	1456
815.328	1884
815.427	2107
815.525	1081
815.624	1291
815.722	1471
815.821	1788
815.919	2095
816.018	1439
816.116	2024
816.215	1737
816.313	1928
816.412	1691
816.510	2110
816.609	2259
816.707	2679
816.805	1783
816.904	2589
817.002	2962
817.100	3610
817.198	3419
817.296	4606
817.395	5451
817.493	5208
817.591	6344
817.689	8554
817.787	11293
817.885	16409
817.983	27869
818.081	52241
818.179	112978
818.277	257241
818.375	443808
818.473	242782
818.571	79187
818.669	40176
818.767	27659
818.865	25607
818.963	28261
819.061	36181
819.158	54825
819.256	99540
819.354	200334
819.452	421335
819.549	550867
819.647	287070
819.745	108874
819.842	54806
819.940	34585
820.038	23376
820.135	17365
820.233	14355
820.330	10299
820.428	9059
820.525	7779
820.623	6375
820.720	6038
820.818	5349
820.915	5117
821.012	4385
821.110	2843
821.207	3621
821.304	3066
821.402	2694
821.499	3395
821.596	3571
821.693	3243
821.791	2589
821.888	3161
821.985	2840
822.082	5051
822.179	3537
822.276	2133
822.373	1825
822.470	1485
822.567	1015
822.664	1758
822.761	1115
822.858	1601
822.955	1159
823.052	1026
823.149	1030
823.246	1214
823.343	1101
823.440	1139
823.536	814
823.633	1126
823.730	224
823.827	871
823.923	551
824.020	1660
824.117	404
824.213	176
824.310	1567
824.407	167
824.503	1581
824.600	1018
824.696	815
824.793	1323
824.889	241
824.986	722
825.082	882
825.179	729
825.275	608
825.371	-21
825.468	836
825.564	-191
825.660	1175
825.757	967
825.853	634
825.949	655
826.045	352
826.142	142
826.238	276
826.334	1419
826.430	154
826.526	659
826.622	514
826.718	-25
826.814	471
826.910	1362
827.006	-514
827.102	169
827.198	492
827.294	394
827.390	603
827.486	547
827.582	-630
827.678	-285
827.774	923
827.869	43
827.965	774
828.061	-828
828.157	30
828.252	530
828.348	-138
828.444	411
828.539	-171
828.635	229
828.731	508
828.826	-307
828.922	1095
829.017	160
829.113	688
829.208	-254
829.304	-109
829.399	570
829.495	93
829.590	301
829.685	-795
829.781	-420
829.876	-433
829.971	253
830.066	-130
830.162	153
830.257	-94
830.352	612
830.447	99
830.543	-283
830.638	-178
830.733	529
830.828	426
830.923	22
831.018	-267
831.113	400
831.208	632
831.303	-619
831.398	-14
831.493	222
831.588	320
831.683	-316
831.778	496
831.873	-525
831.967	695
832.062	-270
832.157	-241
832.252	-282
832.346	298
832.441	348
832.536	1241
832.631	1805
832.725	4825
832.820	944
832.914	-98
833.009	656
833.104	275
833.198	648
833.293	89
833.387	390
833.482	611
833.576	-456
833.670	292
833.765	288
833.859	-223
833.954	155
834.048	-710
834.142	-46
834.237	569
834.331	-395
834.425	-233
834.519	-497
834.613	222
834.708	-175
834.802	-450
834.896	-327
834.990	-566
835.084	91
835.178	-78
835.272	-556
835.366	-128
835.460	-315
835.554	742
835.648	81
835.742	51
835.836	33
835.930	-568
836.024	39
836.117	-527
836.211	347
836.305	929
836.399	941
836.493	296
836.586	316
836.680	-326
836.774	-40
836.867	-442
836.961	-437
837.055	-246
837.148	-467
837.242	-206
837.335	-522
837.429	188
837.522	-455
837.616	247
837.709	579
837.803	1719
837.896	147
837.989	-1276
838.083	818
838.176	1809
838.269	2381
838.363	575
838.456	-902
838.549	200
838.642	1179
838.735	2974
838.829	3282
838.922	567
839.015	-341
839.108	-301
839.201	-211
839.294	-646
839.387	-502
839.480	-462
839.573	-469
839.666	360
839.759	633
839.852	-405
839.945	-184
840.038	-36
840.131	-499
840.223	-621
840.316	-143
840.409	-698
840.502	-75
840.594	-208
840.687	-1240
840.780	235
840.873	-564
840.965	-797
841.058	181
841.150	1850
841.243	1862
841.336	966
841.428	-225
841.521	-186
841.613	-495
841.706	397
841.798	-635
841.890	-543
841.983	-982
842.075	182
842.167	672
842.260	-144
842.352	131
842.444	1430
842.537	1326
842.629	3464
842.721	2040
842.813	239
842.905	-836
842.997	274
843.090	264
843.182	-21
843.274	1061
843.366	4486
843.458	10053
843.550	14519
843.642	4341
843.734	813
843.826	117
843.918	841
844.009	639
844.101	-578
844.193	-607
844.285	133
844.377	-63
844.469	313
844.560	80
844.652	-448
844.744	-280
844.835	-390
844.927	-108
845.019	15
845.110	-63
845.202	424
845.293	-545
845.385	-775
845.476	-590
845.568	61
845.659	-113
845.751	471
845.842	-340
845.934	-143
846.025	-780
846.116	-242
846.208	-1084
846.299	-269
846.390	461
846.482	-391
846.573	-429
846.664	178
846.755	159
846.846	2203
846.937	-1228
847.029	-512
847.120	-657
847.211	-863
847.302	188
847.393	-911
847.484	-90
847.575	-893
847.666	-636
847.757	-594
847.847	-1165
847.938	785
848.029	-105
848.120	-25
848.211	-401
848.302	22
848.392	-351
848.483	-542
848.574	-320
848.664	-150
848.755	-338
848.846	-239
848.936	-466
849.027	-232
849.118	-660
849.208	-278
849.299	120
849.389	505
849.480	1409
849.570	3978
849.661	6499
849.751	14291
849.841	13818
849.932	2330
850.022	-183
850.112	-221
850.203	-156
850.293	-178
850.383	-864
850.474	-180
850.564	-634
850.654	178
850.744	-370
850.834	-824
850.924	-408
851.014	-179
851.104	-185
851.194	-931
851.284	-32
851.374	604
851.464	27
851.554	-521
851.644	-144
851.734	699
851.824	558
851.914	534
852.004	-4
852.094	-260
852.183	-848
852.273	-660
852.363	-1071
852.452	-215
852.542	-418
852.632	-843
852.721	-360
852.811	-1547
852.901	-260
852.990	-856
853.080	-41
853.169	-26
853.259	429
853.348	74
853.438	-758
853.527	496
853.617	666
853.706	2399
853.795	4551
853.885	11933
853.974	27337
854.063	44143
854.152	91228
854.242	90049
854.331	17929
854.420	3422
854.509	932
854.598	855
854.687	-53
854.777	524
854.866	981
854.955	165
855.044	-396
855.133	139
855.222	101
855.311	-632
855.400	-788
855.488	-392
855.577	-282
855.666	6
855.755	-277
855.844	338
855.933	-66
856.021	-683
856.110	27
856.199	-719
856.288	-1610
856.376	-353
856.465	-925
856.554	-421
856.642	-1081
856.731	337
856.819	-182
856.908	-371
856.996	-1226
857.085	-605
857.173	-226
857.262	-1263
857.350	-509
857.438	-772
857.527	-690
857.615	-423
857.703	-23
857.792	-1011
857.880	-644
857.968	-989
858.056	221
858.145	-282
858.233	-763
858.321	-981
858.409	46
858.497	-724
858.585	-1090
858.673	-215
858.761	-595
858.849	21
858.937	-337
859.025	-884
859.113	-905
859.201	-748
859.289	-1340
859.377	-689
859.465	-161
859.552	-589
859.640	-1099
859.728	-344
859.816	-557
859.903	-701
859.991	-336
860.079	-891
860.166	-250
860.254	-441
860.342	-572
860.429	-1340
860.517	-1079
860.604	-562
860.692	-345
860.779	-1106
860.867	-1192
860.954	-582
861.042	-830
861.129	-554
861.216	94
861.304	-1037
861.391	-545
861.478	-890
861.565	-610
861.653	74
861.740	-1012
861.827	-79
861.914	-444
862.001	-213
862.089	-201
862.176	-44
862.263	-727
862.350	-655
862.437	-1140
862.524	-1135
862.611	-817
862.698	-808
862.785	-306
862.871	-872
862.958	-852
863.045	-267
863.132	-1186
863.219	-800
863.306	-729
863.392	-1057
863.479	-953
863.566	-602
863.652	-110
863.739	-340
863.826	-818
863.912	-466
863.999	-284
864.086	147
864.172	-730
864.259	-811
864.345	-494
864.432	-273
864.518	-582
864.604	-165
864.691	-467
864.777	-356
864.863	160
864.950	242
865.036	-396
865.122	279
865.209	56
865.295	338
865.381	499
865.467	424
865.553	445
865.639	1194
865.726	2378
865.812	6225
865.898	12428
865.984	21614
866.070	32094
866.156	63120
866.242	39091
866.328	6010
866.414	887
866.499	2202
866.585	548
866.671	507
866.757	141
866.843	504
866.928	-146
867.014	-64
867.100	506
867.186	-747
867.271	-34
867.357	89
867.442	1261
867.528	1664
867.614	280
867.699	-195
867.785	-128
867.870	-211
867.956	611
868.041	1671
868.127	-625
868.212	351
868.297	839
868.383	522
868.468	742
868.553	947
868.639	1803
868.724	2583
868.809	5915
868.894	3024
868.979	106
869.065	-238
869.150	-396
869.235	118
869.320	-1356
869.405	-27
869.490	-397
869.575	43
869.660	-506
869.745	86
869.830	-190
869.915	-160
870.000	-510
870.085	-297
870.169	18
870.254	-28
870.339	-1181
870.424	-577
870.509	-429
870.593	112
870.678	-124
870.763	-726
870.847	103
870.932	-690
871.016	-260
871.101	-107
871.186	-326
871.270	130
871.355	-183
871.439	-8
871.523	-739
871.608	-10
871.692	-581
871.777	515
871.861	-560
871.945	94
872.030	-562
872.114	-583
872.198	-622
872.282	-1154
872.367	41
872.451	-326
872.535	-327
872.619	4
872.703	-355
872.787	-895
872.871	-316
872.955	-783
873.039	-1018
873.123	-1287
873.207	188
873.291	-493
873.375	-493
873.459	182
873.543	159
873.627	-697
873.711	-1070
873.794	-424
873.878	-589
873.962	-908
874.045	-426
874.129	-553
874.137	-593
874.213	-998
874.245	-849
874.296	-609
874.352	-221
874.380	-29
874.460	-86
874.464	-89
874.547	-1014
874.568	-1027
874.631	-1088
874.676	-1394
874.714	-1649
874.784	-572
874.798	-353
874.881	-443
874.892	-408
874.965	-203
874.999	-485
875.048	-851
875.107	-589
875.131	-501
875.215	-441
875.215	-441
875.298	-298
875.323	-253
875.381	-188
875.430	-130
875.465	-78
875.538	-1
875.548	12
875.631	-37
875.646	-152
875.714	-696
875.753	-698
875.798	-716
875.861	-180
875.881	-27
875.964	-719
875.968	-689
876.047	-107
876.076	-128
876.130	-164
876.183	-500
876.213	-665
876.291	-346
876.296	-325
876.379	-297
876.398	-190
876.462	48
876.506	-335
876.545	-615
876.613	-535
876.628	-527
876.711	70
876.721	7
876.794	-431
876.828	-94
876.877	395
876.935	-58
876.960	-219
877.043	45
877.043	45
877.125	-3
877.150	-64
877.208	-44
877.258	201
877.291	265
877.365	384
877.374	418
877.456	234
877.472	227
877.539	96
877.579	-22
877.622	-223
877.687	-187
877.704	-118
877.787	-560
877.794	-532
877.869	-177
877.901	204
877.952	763
878.008	192
878.034	-136
878.115	-527
878.117	-530
878.199	-531
878.222	-495
878.282	-352
878.329	-2
878.364	173
878.437	-306
878.447	-333
878.529	-59
878.544	37
878.611	256
878.651	-28
878.694	-238
878.758	240
878.776	288
878.858	-193
878.865	-239
878.941	-422
878.972	-354
879.023	-279
879.078	-189
879.105	-106
879.185	-395
879.187	-406
879.269	367
879.292	94
879.351	-242
879.399	-174
879.433	-319
879.506	-75
879.516	9
879.598	-104
879.613	-99
879.680	-351
879.720	-8
879.762	395
879.827	-66
879.844	-146
879.926	-18
879.933	-4
880.007	163
880.040	267
880.089	281
880.147	447
880.171	575
880.253	1453
880.254	1455
880.335	1894
880.360	2325
880.417	3651
880.467	4491
880.499	5943
880.574	12070
880.580	12224
880.662	7935
880.680	6759
880.744	2384
880.787	887
880.825	552
880.893	295
880.907	227
880.989	121
881.000	113
881.070	541
881.106	509
881.152	13
881.213	33
881.233	221
881.315	-3
881.319	17
881.396	120
881.426	3
881.478	-112
881.532	-227
881.559	-268
881.639	102
881.641	113
881.722	270
881.745	181
881.803	-93
881.852	-28
881.885	40
881.958	-28
881.966	-28
882.047	167
882.064	156
882.129	360
882.171	643
882.210	816
882.277	1258
882.291	1388
882.372	1335
882.383	1336
882.454	769
882.489	537
882.535	443
882.596	296
882.616	263
882.697	345
882.702	316
882.778	-59
882.808	-14
882.859	-125
882.914	-265
882.940	-119
883.020	-57
883.021	-56
883.102	117
883.127	60
883.183	210
883.233	431
883.264	513
883.339	360
883.345	325
883.426	95
883.445	68
883.507	209
883.551	165
883.587	218
883.657	243
883.668	259
883.749	487
883.763	562
883.830	591
883.869	380
883.910	155
883.975	22
883.991	85
884.072	432
884.081	460
884.152	280
884.187	63
884.233	180
884.292	606
884.314	593
884.394	336
884.398	318
884.475	-176
884.504	-273
884.555	75
884.610	212
884.636	229
884.716	478
884.716	485
884.797	767
884.821	875
884.877	653
884.927	413
884.958	348
885.033	166
885.038	153
885.118	-113
885.139	-120
885.199	379
885.244	563
885.279	546
885.350	625
885.359	656
885.439	986
885.456	993
885.520	714
885.561	553
885.600	442
885.667	209
885.680	300
885.760	1035
885.773	1133
885.840	704
885.878	493
885.920	644
885.984	768
886.000	743
886.080	426
886.089	402
886.160	643
886.195	797
886.240	664
886.300	393
886.320	371
886.400	442
886.406	429
886.480	546
886.511	651
886.560	855
886.616	911
886.640	849
886.720	876
886.722	866
886.800	796
886.827	821
886.879	490
886.932	219
886.959	541
887.038	1119
887.039	1114
887.119	239
887.143	-26
887.198	113
887.248	269
887.278	271
887.354	161
887.358	189
887.437	783
887.459	907
887.517	929
887.564	944
887.596	903
887.669	841
887.676	865
887.755	1098
887.774	1127
887.835	785
887.880	588
887.914	331
887.985	-239
887.994	-116
888.073	880
888.090	1102
888.153	1177
888.195	1179
888.232	1126
888.300	1093
888.311	1028
888.391	457
888.405	359
888.470	848
888.510	1080
888.549	907
888.615	734
888.628	711
888.708	445
888.720	407
888.787	917
888.825	1184
888.866	1035
888.930	830
888.945	875
889.024	1026
889.035	1048
889.103	1069
889.140	1073
889.182	982
889.245	827
889.261	854
889.340	965
889.349	975
889.419	880
889.454	825
889.498	951
889.559	1124
889.577	984
889.656	366
889.664	306
889.735	1035
889.768	1382
889.814	1121
889.873	769
889.978	1186
890.083	1129
890.187	1546
890.292	688
890.397	1080
890.501	1048
890.606	1080
890.710	440
890.815	602
890.919	1349
891.024	1820
891.128	1251
891.233	742
891.337	1524
891.442	259
891.546	728
891.650	1270
891.755	1235
891.859	1490
891.963	1283
892.068	1402
892.172	1034
892.276	880
892.380	1091
892.484	1524
892.589	1034
892.693	1950
892.797	1234
892.901	1293
893.005	174
893.109	835
893.213	671
893.317	1123
893.421	831
893.525	1106
893.629	1110
893.733	1399
893.837	862
893.941	1237
894.045	1218
894.148	1079
894.252	341
894.356	1212
894.460	1820
894.564	804
894.667	1399
894.771	955
894.875	288
894.978	1100
895.082	274
895.186	668
895.289	842
895.393	144
895.496	892
895.600	492
895.703	628
895.807	740
895.910	1797
896.014	785
896.117	540
896.221	902
896.324	387
896.427	744
896.531	364
896.634	733
896.737	1441
896.840	670
896.944	1323
897.047	790
897.150	598
897.253	732
897.356	461
897.460	1187
897.563	990
897.666	71
897.769	606
897.872	565
897.975	292
898.078	1123
898.181	-201
898.284	348
898.387	118
898.490	1218
898.593	512
898.695	489
898.798	306
898.901	1017
899.004	1055
899.107	1379
899.209	736
899.312	754
899.415	850
899.518	652
899.620	887
899.723	1666
899.826	602
899.928	2959
900.031	1163
900.133	462
900.236	1071
900.338	554
900.441	716
900.543	681
900.646	897
900.748	254
900.851	312
900.953	1028
901.055	1296
901.158	912
901.260	980
901.362	400
901.465	575
901.567	1002
901.669	819
901.771	775
901.873	-5
901.976	1031
902.078	436
902.180	703
902.282	1333
902.384	471
902.486	618
902.588	1712
902.690	1068
902.792	601
902.894	1077
902.996	593
903.098	1013
903.200	566
903.302	902
903.404	777
903.505	328
903.607	629
903.709	619
903.811	535
903.913	503
904.014	527
904.116	405
904.218	939
904.319	-173
904.421	705
904.523	758
904.624	748
904.726	127
904.827	1380
904.929	711
905.030	938
905.132	-429
905.233	618
905.335	-142
905.436	604
905.537	61
905.639	467
905.740	1036
905.841	88
905.943	1264
906.044	110
906.145	842
906.247	793
906.348	1060
906.449	-41
906.550	586
906.651	651
906.752	1301
906.854	354
906.955	292
907.056	201
907.157	431
907.258	372
907.359	621
907.460	500
907.561	418
907.662	0
907.762	-243
907.863	504
907.964	1056
908.065	496
908.166	251
908.267	289
908.367	-194
908.468	-96
908.569	1110
908.670	560
908.770	187
908.871	1806
908.971	300
909.072	1385
909.173	433
909.273	445
909.374	43
909.474	923
909.575	204
909.675	84
909.776	1578
909.876	834
909.977	565
910.077	213
910.177	-40
910.278	718
910.378	269
910.478	546
910.579	364
910.679	680
910.779	39
910.879	661
910.980	471
911.080	637
911.180	-128
911.280	419
911.380	743
911.480	538
911.580	144
911.680	579
911.780	823
911.880	382
911.980	691
912.080	285
912.180	611
912.280	-370
912.380	502
912.480	116
912.580	148
912.679	-103
912.779	640
912.879	762
912.979	795
913.078	646
913.178	-145
913.278	55
913.377	29
913.477	-393
913.577	-12
913.676	1091
913.776	913
913.875	43
913.975	499
914.074	1051
914.174	732
914.273	125
914.373	355
914.472	990
914.572	219
914.671	306
914.770	650
914.870	136
914.969	-218
915.068	-7
915.167	820
915.267	291
915.366	201
915.465	269
915.564	499
915.663	679
915.763	-477
915.862	503
915.961	304
916.060	240
916.159	88
916.258	505
916.357	-411
916.456	465
916.555	196
916.654	447
916.752	550
916.851	804
916.950	128
917.049	216
917.148	756
917.247	972
917.345	766
917.444	234
917.543	-128
917.642	142
917.740	8
917.839	641
917.937	452
918.036	341
918.135	-97
918.233	272
918.332	-395
918.430	0
918.529	127
918.627	498
918.726	-43
918.824	623
918.923	201
919.021	339
919.119	701
919.218	407
919.316	714
919.414	-147
919.512	170
919.611	633
919.709	260
919.807	545
919.905	540
920.003	-64
920.102	-348
920.200	652
920.298	784
920.396	771
920.494	284
920.592	-370
920.690	679
920.788	404
920.886	885
920.984	321
921.082	789
921.180	343
921.277	670
921.375	919
921.473	629
921.571	1099
921.669	1129
921.766	114
921.864	1527
921.962	982
922.060	663
922.157	569
922.255	737
922.352	221
922.450	1070
922.548	932
922.645	992
922.743	695
922.840	1036
922.938	1875
923.035	663
923.133	2393
923.230	2131
923.327	843
923.425	2035
923.522	1077
923.619	1854
923.717	1178
923.814	1222
923.911	1186
924.008	1722
924.106	1504
924.203	1547
924.300	1205
924.397	2005
924.494	1175
924.591	1411
924.688	1910
924.786	1689
924.883	2000
924.979	2080
925.077	1842
925.173	1142
925.270	1256
925.367	1406
925.464	1869
925.561	2302
925.658	2847
925.755	1853
925.852	2394
925.948	2645
926.045	2889
926.142	1142
926.239	2561
926.335	1981
926.432	1534
926.529	1569
926.625	987
926.722	1556
926.818	2648
926.915	1718
927.011	496
927.108	1898
927.204	1828
927.301	1438
927.397	1003
927.494	1904
927.590	1798
927.687	1484
927.783	1472
927.879	1882
927.976	1211
928.072	280
928.168	1667
928.264	1710
928.361	999
928.457	980
928.553	1233
928.649	1300
928.745	1355
928.841	1002
928.937	1146
929.033	1257
929.129	1137
929.225	1134
929.321	1493
929.417	1128
929.513	1326
929.609	1144
929.705	701
929.801	1445
929.897	787
929.993	1132
930.089	888
930.184	1040
930.280	1308
930.376	1277
930.471	1420
930.567	859
930.663	1310
930.758	817
930.854	890
930.950	739
931.045	991
931.141	642
931.236	1272
931.332	1358
931.427	1391
931.523	1645
931.618	1305
931.714	1987
931.809	988
931.905	1011
932.000	616
932.095	905
932.191	940
932.286	1637
932.381	939
932.476	487
932.572	971
932.667	997
932.762	1038
932.857	343
932.952	910
933.047	1225
933.142	717
933.237	686
933.332	770
933.427	1315
933.522	1980
933.617	547
933.712	572
933.807	6
933.902	1490
933.997	926
934.092	700
934.187	859
934.282	570
934.376	747
934.471	1071
934.566	1337
934.661	1039
934.755	602
934.850	954
934.945	2120
935.039	464
935.134	859
935.228	1057
935.323	1900
935.417	1598
935.512	1222
935.606	1055
935.701	603
935.795	140
935.890	844
935.984	1212
936.079	576
936.173	1615
936.267	1333
936.362	87
936.456	815
936.550	803
936.644	1559
936.738	841
936.833	1097
936.927	660
937.021	401
937.115	285
937.209	747
937.303	1514
937.397	996
937.491	1054
937.585	1145
937.679	872
937.773	1047
937.867	265
937.961	949
938.055	932
938.149	1468
938.243	932
938.337	229
938.430	964
938.524	608
938.618	733
938.712	856
938.805	767
938.899	224
938.993	592
939.086	832
939.180	923
939.274	973
939.367	988
939.461	27
939.554	674
939.648	825
939.741	875
939.835	551
939.928	439
940.022	1349
940.115	706
940.208	907
940.302	1320
940.395	871
940.488	257
940.582	268
940.675	109
940.768	766
940.861	1020
940.954	183
941.048	551
941.141	537
941.234	1406
941.327	1717
941.420	1925
941.513	996
941.606	1374
941.699	885
941.792	1343
941.885	735
941.978	1805
942.071	728
942.164	466
942.257	518
942.349	88
942.442	1007
942.535	427
942.628	924
942.721	235
942.813	559
942.906	321
942.999	94
943.091	376
943.184	327
943.277	188
943.369	548
943.462	-49
943.554	-220
943.647	608
943.739	58
943.832	360
943.924	-91
944.017	83
944.109	-605
944.201	352
944.294	165
944.386	443
944.478	761
944.571	226
944.663	886
944.755	-29
944.847	488
944.940	448
945.032	301
945.124	760
945.216	658
945.308	551
945.400	302
945.492	355
945.584	-532
945.676	791
945.768	677
945.860	693
945.952	409
946.044	832
946.136	323
946.228	520
946.320	-824
946.412	533
946.503	317
946.595	222
946.687	-401
946.779	-579
946.870	-306
946.962	-93
947.054	960
947.145	289
947.237	362
947.329	-341
947.420	584
947.512	762
947.603	-499
947.695	-136
947.786	-556
947.878	-508
947.969	30
948.061	722
948.152	-114
948.243	-202
948.335	-290
948.426	-841
948.517	-435
948.609	-277
948.700	-6
948.791	525
948.882	256
948.973	411
949.065	-73
949.156	-102
949.247	-399
949.338	752
949.429	25
949.520	749
949.611	-1158
949.702	421
949.793	134
949.884	410
949.975	340
950.066	43
950.157	-786
950.247	29
950.338	-168
950.429	-1122
950.520	493
950.611	114
950.701	621
950.792	185
950.883	233
950.973	-746
951.064	-414
951.155	445
951.245	-98
951.336	-236
951.427	-695
951.517	493
951.608	-520
951.698	-51
951.788	-217
951.879	-1237
951.969	345
952.060	-376
952.150	538
952.240	-122
952.331	-753
952.421	-91
952.511	-614
952.602	-161
952.692	-227
952.782	1005
952.872	-717
952.962	-1160
953.052	-707
953.143	-227
953.233	90
953.323	359
953.413	-424
953.503	96
953.593	-16
953.683	-507
953.773	-90
953.863	74
953.953	-482
954.042	-566
954.132	-645
954.222	30
954.312	-181
954.402	-488
954.492	-22
954.581	61
954.671	450
954.761	-986
954.850	-692
954.940	-194
955.030	-212
955.119	-213
955.209	168
955.298	199
955.388	-259
955.477	-379
955.567	-331
955.656	-406
955.746	-8
955.835	-519
955.925	-99
956.014	-553
956.103	-229
956.193	299
956.282	565
956.371	-130
956.461	-670
956.550	-313
956.639	-970
956.728	-961
956.817	-791
956.906	-17
956.995	-400
957.085	-32
957.174	-30
957.263	-42
957.352	228
957.441	-376
957.530	-204
957.619	376
957.708	-1035
957.796	-875
957.885	379
957.974	-40
958.063	16
958.152	-35
958.241	542
958.329	-244
958.418	-309
958.507	-797
958.596	-116
958.684	-692
958.773	-196
958.861	52
958.950	-219
959.039	-944
959.127	-577
959.216	379
959.304	168
959.393	-67
959.481	-370
959.570	-679
959.658	-383
959.746	232
959.835	-193
959.923	1104
960.011	907
960.100	83
960.188	226
960.276	-391
960.365	-228
960.453	-732
960.541	-1006
960.629	-288
960.717	-1153
960.805	-489
960.893	-143
960.981	-803
961.069	-347
961.158	37
961.245	-372
961.333	-325
961.421	-457
961.509	-770
961.597	-588
961.685	283
961.773	-582
961.861	-400
961.949	475
962.036	-261
962.124	224
962.212	-441
962.299	75
962.387	-713
962.475	-1093
962.562	-645
962.650	3
962.738	-272
962.825	-513
962.913	-269
963.000	-444
963.088	-269
963.175	-141
963.263	-711
963.350	-554
963.438	191
963.525	419
963.612	-181
963.700	1178
963.787	5399
963.874	6002
963.962	884
964.049	-120
964.136	71
964.223	-1062
964.310	-58
964.398	-998
964.485	-739
964.572	-434
964.659	-324
964.746	868
964.833	-37
964.920	-536
965.007	-613
965.094	-912
965.181	-494
965.268	205
965.355	7
965.441	306
965.528	126
965.615	-1073
965.702	-63
965.789	-515
965.875	-109
965.962	-409
966.049	404
966.136	-488
966.222	107
966.309	-149
966.395	-298
966.482	304
966.569	339
966.655	-937
966.742	384
966.828	-774
966.915	26
967.001	-1201
967.087	563
967.174	-1086
967.260	-348
967.347	-228
967.433	1522
967.519	3368
967.605	3708
967.692	823
967.778	-43
967.864	-474
967.950	-314
968.036	-685
968.123	-65
968.209	-437
968.295	-443
968.381	233
968.467	167
968.553	-819
968.639	473
968.725	-863
968.811	418
968.897	509
968.983	286
969.069	-538
969.154	-206
969.240	-467
969.326	-231
969.412	-858
969.497	-231
969.583	-399
969.669	-260
969.755	-688
969.840	-530
969.926	-264
970.012	-592
970.097	777
970.183	1271
970.268	478
970.354	-281
970.439	830
970.525	1609
970.610	2132
970.696	618
970.781	110
970.866	646
970.952	-358
971.037	-82
971.122	-841
971.208	586
971.293	-746
971.378	-901
971.463	-692
971.549	17
971.634	-795
971.719	14
971.804	-54
971.889	143
971.974	-665
972.059	148
972.144	-346
972.229	-899
972.314	-233
972.399	-362
972.484	-57
972.569	59
972.654	693
972.739	1011
972.824	1300
972.908	1391
972.993	329
973.078	275
973.163	-720
973.247	151
973.332	-542
973.417	270
973.501	-700
973.586	157
973.671	-993
973.755	-895
973.840	-337
973.924	-783
974.009	177
974.093	-15
974.178	191
974.262	875
974.346	742
974.431	517
974.515	-89
974.600	-201
974.684	-497
974.768	225
974.852	-372
974.937	-702
975.021	189
975.105	-489
975.189	-653
975.273	-553
975.358	-463
975.442	-628
975.526	-673
975.610	-954
975.694	-758
975.778	-47
975.862	-108
975.946	-1647
976.030	-474
976.114	-181
976.198	-73
976.281	201
976.365	-406
976.449	-758
976.533	-658
976.617	-237
976.700	-513
976.784	-694
976.868	-592
976.951	948
977.035	837
977.119	-603
977.202	-894
977.286	-808
977.369	248
977.453	-460
977.536	140
977.620	-533
977.703	34
977.787	-596
977.870	33
977.953	432
978.037	-376
978.120	-128
978.203	-271
978.287	550
978.370	631
978.453	408
978.536	-213
978.620	-23
978.703	-435
978.786	358
978.869	-799
978.952	-1612
979.035	-130
979.118	-422
979.201	-1141
979.284	-5
979.367	-948
979.450	54
979.533	-504
979.616	-885
979.699	-1004
979.782	129
979.865	-1022
979.948	-414
980.030	97
980.113	309
980.196	-393
980.279	474
980.361	-789
980.444	-179
980.526	127
980.609	-690
980.692	-452
980.774	338
980.857	-1534
980.939	-308
981.022	-727
981.104	-452
981.187	-810
981.269	-1114
981.352	77
981.434	-1576
981.516	-416
981.599	164
981.681	391
981.763	-235
981.846	-886
981.928	-518
982.010	-1305
982.092	-1288
982.174	-772
982.256	-945
982.339	-985
982.421	-518
982.503	245
982.585	-976
982.667	-842
982.749	-631
982.831	-817
982.913	-845
982.995	-376
983.077	-706
983.158	-429
983.240	-167
983.322	-268
983.404	-378
983.486	-309
983.568	-450
983.649	-1098
983.731	712
983.813	-582
983.894	-611
983.976	-748
984.058	-345
984.139	-271
984.221	-747
984.302	78
984.384	-398
984.465	-1076
984.547	-517
984.628	-1123
984.710	-462
984.791	-701
984.872	-154
984.954	-70
985.035	-670
985.116	-630
985.198	-180
985.279	-672
985.360	-759
985.441	-484
985.522	-130
985.604	-1076
985.685	-1506
985.766	-34
985.847	176
985.928	-1438
986.009	-1116
986.090	-1091
986.171	-400
986.252	-609
986.333	-1218
986.414	-493
986.495	-1185
986.576	-838
986.656	-900
986.737	-546
986.818	-938
986.899	-982
986.980	-1213
987.060	-940
987.141	-506
987.222	-180
987.302	-201
987.383	-567
987.464	-51
987.544	-636
987.625	-1131
987.705	-794
987.786	-737
987.866	-1145
987.947	73
988.027	-889
988.108	-1038
988.188	-1133
988.268	-671
988.349	-1094
988.429	-666
988.509	-643
988.589	-771
988.670	-1116
988.750	-86
988.830	-566
988.910	-561
988.990	-899
989.070	-626
989.151	-429
989.231	-828
989.311	-613
989.391	-467
989.471	-1105
989.551	-872
989.631	-344
989.711	-820
989.791	-1230
989.870	-630
989.950	-778
990.030	-193
990.110	-618
990.190	-1970
990.269	-1366
990.349	-1006
990.429	-476
990.509	-628
990.588	-571
990.668	-384
990.747	-257
990.827	-709
990.907	-884
990.986	-600
991.066	-421
991.145	-709
991.225	-875
991.304	-816
991.383	-743
991.463	-792
991.542	-516
991.622	-597
991.701	-1114
991.780	-940
991.859	-1422
991.939	-1187
992.018	-1337
992.097	-267
992.176	-1184
992.256	-1131
992.335	-1971
992.414	-603
992.493	-1445
992.572	-853
992.651	-566
992.730	-746
992.809	-588
992.888	-1358
992.967	-635
993.046	-392
993.125	-1214
993.203	-838
993.282	-928
993.361	-517
993.440	-1554
993.519	-1715
993.597	-635
993.676	-1278
993.755	-219
993.834	-1528
993.912	-1191
993.991	-857
994.069	-798
994.148	-1218
994.226	-1500
994.305	-619
994.384	-1185
994.462	-290
994.540	-1107
994.619	-801
994.697	-1533
994.776	-1391
994.854	-542
994.932	-852
995.011	-810
995.089	-1008
995.167	-856
995.245	-1224
995.324	-1568
995.402	-1415
995.480	-1364
995.558	-1106
995.636	-1479
995.714	-985
995.792	-744
995.870	-1232
995.948	-895
996.026	-1566
996.104	-1937
996.182	-433
996.260	-1160
996.338	-1195
996.416	-2123
996.494	-1571
996.572	-731
996.649	-1882
996.727	-1369
996.805	-873
996.883	-1848
996.960	-749
997.038	-1102
997.116	-976
997.193	-2424
997.271	-789
997.348	-1596
997.426	-702
997.504	-1636
997.581	-1228
997.658	-1424
997.736	-1379
997.813	-1547
997.891	-383
997.968	-1844
998.046	-1309
998.123	-766
998.200	-904
998.277	-2064
998.355	-452
998.432	-1640
998.509	-1635
998.586	-1272
998.663	-1783
998.741	-1243
998.818	-1089
998.895	-1663
998.972	-1274
999.049	-1032
999.126	-1783
999.203	-671
999.280	-1347
999.357	-1670
999.434	-1326
999.511	-1903
999.587	-656
999.664	-735
999.741	-1085
999.818	-933
999.895	-1047
999.971	-745
1000.048	-967
1000.125	-678
1000.202	-1756
1000.278	-1124
1000.355	-1292
1000.431	-1834
1000.508	-2124
1000.584	-1332
1000.661	-1066
1000.738	-1167
1000.814	-1647
1000.890	-913
1000.967	-1678
1001.043	-1543
1001.120	-2414
1001.196	-1088
1001.272	-1671
1001.349	-969
1001.425	-1555
1001.501	-1419
1001.577	-1383
1001.654	-1126
1001.730	-1319
1001.806	-1621
1001.882	-1790
1001.958	-775
1002.034	-1561
1002.110	-1266
1002.186	-651
1002.262	-2034
1002.338	-925
1002.414	135
1002.490	-1082
1002.566	-885
1002.642	-1350
1002.718	-712
1002.794	-1088
1002.870	-1536
1002.945	-1023
1003.021	-1739
1003.097	-1796
1003.173	-1124
1003.248	-1773
1003.324	-1593
1003.400	-851
1003.475	-840
1003.551	-1691
1003.626	-1138
1003.702	-1543
1003.777	-1458
1003.853	-1955
1003.928	-1389
1004.004	-702
1004.079	-1038
1004.155	-953
1004.230	-1948
1004.305	-74
1004.381	-2132
1004.456	-1390
1004.531	-1194
1004.607	-1256
1004.682	-1073
1004.757	-1097
1004.832	-1395
1004.907	-1117
1004.982	-1171
1005.057	-1656
1005.133	-791
1005.208	-1557
1005.283	-967
1005.358	-122
1005.433	-1827
1005.508	-1280
1005.583	-1660
1005.657	-2325
1005.732	-1231
1005.807	-1075
1005.882	-1810
1005.957	-791
1006.032	-779
1006.106	-1313
1006.181	-1484
1006.256	-1209
1006.331	-1927
1006.405	-1296
1006.480	-929
1006.554	-1391
1006.629	-1812
1006.704	-1540
1006.778	-1300
1006.853	-1615
1006.927	-1585
1007.002	-216
1007.076	-1144
1007.150	-602
1007.225	-814
1007.299	-809
1007.373	-2113
1007.448	-1558
1007.522	-23
1007.596	-819
1007.671	-1884
1007.745	-1626
1007.819	-1117
1007.893	-853
1007.967	-1062
1008.041	-1731
1008.115	-1086
1008.190	-1473
1008.264	-922
1008.338	-1980
1008.412	-1367
1008.486	-902
1008.560	-1879
1008.633	-1265
1008.707	-2001
1008.781	-1242
1008.855	-2064
1008.929	-1692
1009.003	-1559
1009.076	-817
1009.150	-1078
1009.224	-927
1009.298	-1208
1009.371	-976
1009.445	-1532
1009.519	-1470
1009.592	-1300
1009.666	-1533
1009.739	-1295
1009.813	-1196
1009.886	-1581
1009.960	-1787
1010.033	-1456
1010.107	-743
1010.180	-1705
1010.253	-1709
1010.327	-1663
1010.400	-1530
1010.473	-2053
1010.547	-708
1010.620	-1155
1010.693	-860
1010.766	-1382
1010.840	-1205
1010.913	-953
1010.986	-2021
1011.059	-1119
1011.132	-1165
1011.205	-1342
1011.278	-1078
1011.351	-2115
1011.424	-1007
1011.497	-1088
1011.570	-1109
1011.643	-1006
1011.716	-2093
1011.789	-1442
1011.862	-2144
1011.934	-406
1012.007	-1590
1012.080	-1052
1012.153	-1196
1012.225	-1075
1012.298	-848
1012.371	-1166
1012.443	-775
1012.516	-2039
1012.588	-1380
1012.661	-1394
1012.733	-1367
1012.806	-805
1012.879	-1056
1012.951	-986
1013.023	-596
1013.096	-1790
1013.168	-1453
1013.241	-1269
1013.313	-666
1013.385	-1493
1013.458	-1061
1013.530	-1395
1013.602	-2107
1013.674	-1230
1013.746	-1507
1013.819	-1951
1013.891	-1011
1013.963	-1620
1014.035	-1153
1014.107	-905
1014.179	-1991
1014.251	-1813
1014.323	-1149
1014.395	-1543
1014.467	-1263
1014.539	-1541
1014.611	-528
1014.683	-1228
1014.754	-802
1014.826	-1589
1014.898	-1729
1014.970	-1934
1015.042	-769
1015.113	-1125
1015.185	-899
1015.257	-1891
1015.328	-1247
1015.400	-658
1015.471	-1314
1015.543	-1501
1015.615	-999
1015.686	-1412
1015.757	-1438
1015.829	-2158
1015.901	-1279
1015.972	-1166
1016.043	-1883
1016.115	-1418
1016.186	-1308
1016.257	-1861
1016.328	-1700
1016.400	-629
1016.471	-1284
1016.542	-1142
1016.613	-1847
1016.685	-1702
1016.756	-1150
1016.827	-818
1016.898	-2909
1016.969	-1265
1017.040	-716
1017.111	-1938
1017.182	-1038
1017.253	-944
1017.324	-1464
1017.395	-1107
1017.466	-1826
1017.537	-862
1017.608	-2640
1017.678	-1203
1017.749	-1815
1017.820	-1304
1017.891	-1163
1017.961	-1215
1018.032	-1404
1018.103	-1316
1018.173	-2193
1018.244	-1532
1018.315	-1793
1018.385	-1321
1018.456	-1766
1018.526	-1535
1018.597	-1701
1018.667	-1095
1018.738	-2252
1018.808	-1910
1018.878	-2489
1018.949	-1697
1019.019	-1897
1019.089	-1174
1019.160	-1662
1019.230	-1657
1019.300	-1326
1019.371	-1810
1019.441	-1503
1019.511	-1190
1019.581	-1493
1019.651	-1993
1019.721	-1041
1019.791	-1518
1019.861	-1416
1019.931	-1548
1020.001	-1679
1020.071	-896
1020.141	-1719
1020.211	-2187
1020.281	-1462
1020.351	-2361
1020.421	-929
1020.491	-1835
1020.560	-1670
1020.630	-2087
1020.700	-2254
1020.770	-2106
1020.839	-1435
1020.909	-1794
1020.979	-1627
1021.048	-1774
1021.118	-1896
1021.187	-2184
1021.257	-1258
1021.326	-835
1021.396	-1900
1021.465	-1981
1021.535	-1608
1021.604	-2336
1021.674	-1054
1021.743	-1794
1021.812	-2565
1021.882	-1746
1021.951	-1031
1022.020	-1695
1022.089	-1476
1022.159	-2312
1022.228	-1402
1022.297	-1964
1022.366	-979
1022.435	-2042
1022.504	-1882
1022.573	-2097
1022.642	-2021
1022.711	-2453
1022.781	-1529
1022.849	-1695
1022.918	-1949
1022.987	-1911
1023.056	-1398
1023.125	-3050
1023.194	-1336
1023.263	-1862
1023.331	-1590
1023.400	-1994
1023.469	-2098
1023.538	-1150
1023.606	-1657
1023.675	-1875
1023.744	-1658
1023.812	-1740
1023.881	-1134
1023.949	-1740
1024.018	-1477
1024.086	-1498
1024.155	-1396
1024.223	-2785
1024.292	-2063
1024.360	-672
1024.429	-1249
1024.497	-2286
1024.565	-454
1024.634	-2275
1024.702	-1290
1024.770	-2430
1024.838	-2607
1024.907	-1464
1024.975	-1415
1025.043	-2250
1025.111	-1464
1025.179	-1407
1025.247	-1737
1025.315	-1405
1025.383	-1250
1025.451	-1854
1025.519	-2130
1025.587	-1974
1025.655	-433
1025.723	-1348
1025.791	-2166
1025.859	-1676
1025.927	-1213
1025.995	-1619
1026.062	-1579
1026.130	-1446
1026.198	-1507
1026.266	-1438
1026.333	-1445
1026.401	-1838
1026.469	-2050
1026.536	-1687
1026.604	-1911
1026.671	-2286
1026.739	-1848
1026.806	-2165
1026.874	-1640
1026.941	-2255
1027.009	-2266
1027.076	-1294
1027.144	-974
1027.211	-2286
1027.278	-1845
1027.345	-1977
1027.413	-1500
1027.480	-2883
1027.547	-2486
1027.614	-1699
1027.682	-1649
1027.749	-1855
1027.816	-972
1027.883	-1399
1027.950	-1349
1028.017	-2036
1028.084	-1070
1028.151	-1848
1028.218	-2146
1028.285	-1702
1028.352	-1713
1028.419	-2411
1028.486	-1802
1028.553	-1294
1028.619	-2220
1028.686	-1316
1028.753	-2070
1028.820	-1867
1028.886	-1505
1028.953	-1442
1029.020	-1744
1029.086	-1711
1029.153	-1797
1029.220	-3053
1029.286	-1968
1029.353	-1990
1029.419	-1661
1029.486	-2074
1029.552	-1642
1029.619	-1479
1029.685	-1777
1029.751	-1714
1029.818	-1040
1029.884	-2483
1029.951	-1163
1030.017	-1741
1030.083	-1828
1030.149	-1976
1030.216	-2001
1030.282	-2149
1030.348	-906
1030.414	-1836
1030.480	-1674
1030.546	-2068
1030.612	-1194
1030.678	-1699
1030.744	-1664
1030.810	-1643
1030.876	-1625
1030.942	-1784
1031.008	-1425
1031.074	-1892
1031.140	-1668
1031.206	-1772
1031.272	-2182
1031.337	-1794
1031.403	-1784
1031.469	-1969
1031.534	-2734
1031.600	-1457
1031.666	-2027
1031.731	-1731
1031.797	-1239
1031.863	-2185
1031.928	-1156
1031.994	-1802
1032.059	-1925
1032.125	-1725
1032.190	-2393
1032.256	-1501
1032.321	-2375
1032.386	-2700
1032.452	-1027
1032.517	-1869
1032.582	-1729
1032.647	-1831
1032.713	-2249
1032.778	-1816
1032.843	-2511
1032.908	-2063
1032.974	-2245
1033.039	-2109
1033.104	-2139
1033.169	-2095
1033.234	-2071
1033.299	-1574
1033.364	-1372
1033.429	-1151
1033.494	-1591
1033.559	-1423
1033.624	-1408
1033.688	-1940
1033.753	-2153
1033.818	-1815
1033.883	-1845
1033.948	-1606
1034.013	-2110
1034.077	-2652
1034.142	-1029
1034.207	-1689
1034.271	-785
1034.336	-488
1034.400	-1038
1034.465	-402
1034.530	-765
1034.594	-1178
1034.658	-1013
1034.723	-2025
1034.787	-1698
1034.852	-1702
1034.916	-1618
1034.981	-1859
1035.045	-1522
1035.109	-2149
1035.173	-1627
1035.238	-2361
1035.302	-1688
1035.366	-2147
1035.430	-1810
1035.495	-2089
1035.559	-1618
1035.623	-1377
1035.687	-1622
1035.751	-1893
1035.815	-1600
1035.879	-1639
1035.943	-632
1036.007	-2148
1036.071	-2168
1036.135	-970
1036.198	-1465
1036.262	-1941
1036.326	-1866
1036.390	-1393
1036.454	-1397
1036.517	-2131
1036.581	-1371
1036.645	-735
1036.709	-270
1036.772	-860
1036.836	-1820
1036.900	-1281
1036.963	-1628
1037.026	-1697
1037.090	-2334
1037.154	-1401
1037.217	-1662
1037.280	-2459
1037.344	-2216
1037.407	-2186
1037.471	-1528
1037.534	-1842
1037.597	-1576
1037.661	-2025
1037.724	-2027
1037.787	-2062
1037.850	-1387
1037.913	-2243
1037.977	-1579
1038.040	-1456
1038.103	-1992
1038.166	-2383
1038.229	-1162
1038.292	-1345
1038.355	-1893
1038.418	-1491
1038.481	-1610
1038.544	-2117
1038.607	-1754
1038.670	-1247
1038.732	-1836
1038.795	-1994
1038.858	-2126
1038.921	-1788
1038.984	-1085
1039.046	-901
1039.109	-2362
1039.172	-1794
1039.234	-2015
1039.297	-1534
1039.360	-1982
1039.422	-2313
1039.485	-1572
1039.547	-2690
1039.610	-1463
1039.672	-2031
1039.734	-1541
1039.797	-2387
1039.859	-1366
1039.922	-1452
1039.984	-1860
1040.046	-1635
1040.109	-1826
1040.171	-1804
1040.233	-1636
1040.295	-1942
1040.358	-1740
1040.420	-1361
1040.482	-1831
1040.544	-1945
1040.606	-1393
1040.668	-1432
1040.730	-1405
1040.792	-1512
1040.854	-1285
1040.916	-1708
1040.978	-2129
1041.040	-2379
1041.102	-1552
1041.164	-1572
1041.225	-1320
1041.287	-1787
1041.349	-2010
1041.411	-2261
1041.472	-2309
1041.534	-1990
1041.596	-2500
1041.657	-1704
1041.719	-2331
1041.781	-2559
1041.842	-2192
1041.904	-2205
1041.965	-1433
1042.027	-1981
1042.088	-2019
1042.150	-1993
1042.211	-1394
1042.272	-913
1042.334	-1996
1042.395	-2050
1042.456	-2119
1042.518	-2009
1042.579	-1282
1042.640	-1799
1042.701	-2203
1042.763	-1987
1042.824	-1425
1042.885	-2786
1042.946	-3294
1043.007	-1733
1043.068	-2366
1043.129	-1653
1043.190	-2263
1043.251	-1642
1043.312	-1393
1043.373	-1281
1043.434	-1607
1043.495	-2422
1043.556	-1482
1043.616	-1860
1043.677	-1510
1043.738	-1908
1043.799	-2619
1043.859	-1185
1043.920	-1835
1043.981	-2220
1044.041	-2069
1044.102	-2489
1044.162	-1803
1044.223	-2365
1044.284	-1856
1044.344	-2326
1044.405	-1297
1044.465	-2129
1044.525	-1809
1044.586	-1356
1044.646	-1763
1044.707	-2276
1044.767	-2332
1044.827	-2089
1044.887	-2080
1044.948	-1961
1045.008	-1141
1045.068	-1726
1045.128	-1242
1045.188	-1861
1045.249	-1966
1045.309	-2461
1045.369	-2251
1045.429	-1612
1045.489	-1188
1045.549	-2142
1045.609	-2250
1045.669	-2207
1045.729	-721
1045.789	-1697
1045.848	-2350
1045.908	-1955
1045.968	-1891
1046.028	-1719
1046.088	-1909
1046.147	-2116
1046.207	-1993
1046.267	-813
1046.326	-1331
1046.386	-1024
1046.446	-548
1046.505	-1118
1046.565	-953
1046.624	-875
1046.684	-621
1046.743	-934
1046.803	-190
1046.862	-609
1046.922	0
