'Start Wavelength	183.907
'End Wavelength	1046.922
'Gate Delay	5.000
'Gate Width (ms)	1.050
'Laser Output Level	0.000
'X Position	0.000
'Y Position	0.000
'Z Position	0.000
'Grid Point Number	1.000
'Shot Number	100.000
183.907	99.000
183.977	236.000
184.047	355
184.116	503
184.186	569
184.256	-200
184.325	217
184.395	82
184.465	291
184.534	49
184.604	618
184.674	-181
184.743	300
184.813	604
184.883	322
184.952	-358
185.022	597
185.092	-577
185.161	434
185.231	1083
185.301	667
185.370	1020
185.440	122
185.509	926
185.579	-410
185.649	-49
185.718	340
185.788	222
185.857	-267
185.927	-126
185.996	522
186.066	115
186.136	87
186.205	-45
186.275	-30
186.344	865
186.414	804
186.483	805
186.553	1630
186.622	2066
186.692	439
186.761	927
186.831	-269
186.900	983
186.970	614
187.039	1566
187.109	1111
187.178	910
187.248	955
187.317	1399
187.387	511
187.456	1141
187.526	959
187.595	1337
187.664	1294
187.734	1406
187.803	888
187.873	1879
187.942	1730
188.012	1346
188.081	556
188.150	701
188.220	2323
188.289	938
188.358	1168
188.428	1255
188.497	796
188.567	1286
188.636	841
188.705	805
188.775	772
188.844	951
188.913	1248
188.983	965
189.052	501
189.121	785
189.191	304
189.260	2350
189.329	1662
189.399	1714
189.468	1063
189.537	931
189.606	826
189.676	1702
189.745	1898
189.814	1483
189.883	1562
189.953	1283
190.022	2575
190.091	7397
190.161	4537
190.230	1960
190.299	1417
190.368	591
190.437	1078
190.507	1064
190.576	1241
190.645	952
190.714	1012
190.783	1328
190.853	1232
190.922	2169
190.991	1856
191.060	1994
191.129	1391
191.198	1402
191.268	1272
191.337	1380
191.406	1473
191.475	1260
191.544	1199
191.613	704
191.682	1359
191.752	838
191.821	1455
191.890	1811
191.959	1053
192.028	1810
192.097	1889
192.166	1731
192.235	1125
192.304	1532
192.373	1447
192.442	984
192.511	1073
192.580	1553
192.650	1377
192.719	1825
192.788	1443
192.857	1612
192.926	1274
192.995	2009
193.064	2058
193.133	4612
193.202	4412
193.271	3296
193.340	2478
193.409	4287
193.478	4608
193.547	6392
193.615	6929
193.684	5593
193.753	2736
193.822	3104
193.891	1579
193.960	2214
194.029	2524
194.098	1963
194.167	1544
194.236	1571
194.305	1719
194.374	1908
194.443	1798
194.512	2143
194.580	1119
194.649	3589
194.718	2286
194.787	2087
194.856	1285
194.925	2132
194.994	2207
195.062	2789
195.131	2917
195.200	3762
195.269	3307
195.338	1828
195.407	2377
195.475	2579
195.544	3175
195.613	2529
195.682	2879
195.751	4114
195.819	3081
195.888	2641
195.957	4118
196.026	3299
196.094	3848
196.163	4826
196.232	2940
196.301	3457
196.369	2989
196.438	2643
196.507	2257
196.576	1879
196.644	2034
196.713	2016
196.782	1521
196.850	1588
196.919	2154
196.988	2431
197.056	1714
197.125	1995
197.194	1917
197.262	1572
197.331	1995
197.400	1867
197.468	1501
197.537	2353
197.606	2622
197.674	5709
197.743	5266
197.812	4186
197.880	7304
197.949	4540
198.017	6851
198.086	2863
198.155	2246
198.223	5370
198.292	6775
198.360	2997
198.429	2281
198.497	2449
198.566	7571
198.635	5034
198.703	2657
198.772	4457
198.840	11059
198.909	5343
198.977	2440
199.046	2705
199.114	2382
199.183	2389
199.251	2184
199.320	2363
199.388	2290
199.457	2463
199.525	2648
199.594	2822
199.662	2461
199.731	2242
199.799	2855
199.867	2814
199.936	2396
200.004	3003
200.073	2069
200.141	2114
200.210	1905
200.278	2647
200.346	3202
200.415	4597
200.483	2902
200.552	2229
200.620	2278
200.688	2632
200.757	2004
200.825	2668
200.893	2740
200.962	3004
201.030	1806
201.098	3051
201.167	2731
201.235	2837
201.303	2780
201.372	2752
201.440	3267
201.508	4185
201.577	3178
201.645	2709
201.713	2407
201.781	4339
201.850	3591
201.918	3593
201.986	2264
202.055	3372
202.123	2738
202.191	2895
202.259	3002
202.327	2501
202.396	2941
202.464	3885
202.532	6827
202.600	12574
202.669	5816
202.737	4334
202.805	2952
202.873	3422
202.941	3431
203.009	3336
203.078	3095
203.146	3241
203.214	2879
203.282	2836
203.350	2407
203.418	3797
203.487	3224
203.555	2862
203.623	3062
203.691	3370
203.759	2265
203.827	3042
203.895	3681
203.963	2512
204.031	2467
204.099	3098
204.168	3332
204.236	2920
204.304	3699
204.372	3127
204.440	3334
204.508	2973
204.576	2582
204.644	3725
204.712	2776
204.780	3272
204.848	3223
204.916	3325
204.984	2975
205.052	2520
205.120	3978
205.188	3345
205.256	2368
205.324	3583
205.392	3104
205.460	4530
205.528	3566
205.596	2730
205.664	2673
205.732	4866
205.799	15958
205.867	10314
205.935	3623
206.003	4569
206.071	3550
206.139	5012
206.207	3404
206.275	3055
206.343	2931
206.411	2938
206.478	3430
206.546	4164
206.614	3222
206.682	3571
206.750	3149
206.818	4666
206.885	3716
206.953	3233
207.021	3630
207.089	3467
207.157	2628
207.225	3413
207.292	3727
207.360	4474
207.428	3458
207.496	3354
207.563	3897
207.631	3940
207.699	3508
207.767	3578
207.834	4112
207.902	3619
207.970	3210
208.038	3920
208.105	3837
208.173	5226
208.241	5586
208.309	5553
208.376	6334
208.444	9453
208.512	4687
208.579	5008
208.647	4914
208.715	5378
208.782	3815
208.850	4135
208.918	4104
208.985	4560
209.053	4516
209.120	4511
209.188	4211
209.256	3662
209.323	4959
209.391	6266
209.459	4495
209.526	4707
209.594	4923
209.661	3551
209.729	4037
209.796	4871
209.864	5349
209.932	5118
209.999	4551
210.067	5907
210.134	4780
210.202	6256
210.269	6228
210.337	6542
210.404	4889
210.472	4602
210.539	5288
210.607	6968
210.674	5444
210.742	5323
210.809	5191
210.877	6864
210.944	5438
211.012	6393
211.079	5246
211.146	5099
211.214	5749
211.281	8105
211.349	4847
211.416	5794
211.484	5805
211.551	4913
211.618	4989
211.686	5776
211.753	4934
211.821	4997
211.888	4664
211.955	5333
212.023	5239
212.090	6334
212.157	5753
212.225	8216
212.292	12832
212.359	27713
212.427	34380
212.494	13743
212.561	7857
212.629	7290
212.696	6783
212.763	5936
212.831	5283
212.898	4894
212.965	5573
213.032	5983
213.100	7140
213.167	7488
213.234	5694
213.301	4789
213.369	5579
213.436	5310
213.503	5629
213.570	6525
213.638	6567
213.705	4518
213.772	5139
213.839	8545
213.906	6111
213.973	6992
214.041	5445
214.108	5907
214.175	5445
214.242	5554
214.309	5054
214.376	6718
214.444	6700
214.511	7681
214.578	6407
214.645	6120
214.712	7368
214.779	6904
214.846	7190
214.913	7481
214.980	7721
215.048	9505
215.115	8844
215.182	8524
215.249	6741
215.316	6415
215.383	5716
215.450	6042
215.517	5633
215.584	5459
215.651	5438
215.718	6590
215.785	7180
215.852	7848
215.919	8069
215.986	6868
216.053	4610
216.120	5777
216.187	6426
216.254	6812
216.321	6987
216.388	7486
216.455	6760
216.522	7604
216.589	10168
216.656	15586
216.722	10879
216.789	10514
216.856	9103
216.923	8822
216.990	7741
217.057	8524
217.124	9939
217.191	10596
217.258	12252
217.324	14529
217.391	12288
217.458	9899
217.525	7695
217.592	7761
217.659	8109
217.725	8103
217.792	12335
217.859	8217
217.926	5907
217.993	5062
218.059	5431
218.126	5467
218.193	5368
218.260	4885
218.327	4288
218.393	5758
218.460	4456
218.527	4038
218.594	7262
218.660	12142
218.727	8615
218.794	5545
218.860	4591
218.927	4866
218.994	4215
219.061	5908
219.127	7825
219.194	8493
219.261	4161
219.327	4125
219.394	3915
219.461	3910
219.527	4677
219.594	7847
219.661	4473
219.727	3545
219.794	4472
219.860	5023
219.927	5686
219.994	10663
220.060	13553
220.127	7955
220.193	7470
220.260	8332
220.326	12140
220.393	19988
220.460	19577
220.526	11768
220.593	9670
220.659	10017
220.726	13870
220.792	24237
220.859	22449
220.925	31556
220.992	33173
221.058	35035
221.125	26446
221.191	18415
221.258	8320
221.324	8447
221.391	7030
221.457	6894
221.524	6467
221.590	13724
221.657	28866
221.723	14478
221.789	18520
221.856	12691
221.922	8184
221.989	5921
222.055	5481
222.121	6257
222.188	7211
222.254	6978
222.321	4181
222.387	4399
222.453	4623
222.520	4213
222.586	3751
222.652	4799
222.719	4724
222.785	4644
222.851	4056
222.918	4215
222.984	5569
223.050	4797
223.116	4759
223.183	4562
223.249	3439
223.315	3606
223.382	3485
223.448	4368
223.514	3661
223.580	4608
223.647	3503
223.713	3448
223.779	3343
223.845	4637
223.911	3748
223.978	3325
224.044	4255
224.110	3763
224.176	3522
224.242	3818
224.309	2752
224.375	2694
224.441	3288
224.507	3828
224.573	4087
224.639	3474
224.705	3647
224.772	3518
224.838	4518
224.904	5620
224.970	3374
225.036	4940
225.102	4810
225.168	4526
225.234	3286
225.300	4607
225.366	4519
225.432	3569
225.499	3727
225.565	5180
225.631	5444
225.697	5850
225.763	7178
225.829	7723
225.895	9427
225.961	12251
226.027	10008
226.093	10343
226.159	11488
226.225	20208
226.291	47757
226.357	47750
226.423	24237
226.489	16175
226.554	11127
226.620	11483
226.686	18513
226.752	24244
226.818	45354
226.884	73428
226.950	42841
227.016	20912
227.082	13904
227.148	12608
227.214	11871
227.279	10490
227.345	8790
227.411	8120
227.477	11292
227.543	18949
227.609	13934
227.674	10079
227.740	8471
227.806	7307
227.872	5662
227.938	9657
228.003	10084
228.069	6117
228.135	4861
228.201	4502
228.267	5740
228.332	8522
228.398	9660
228.464	5289
228.530	3651
228.595	4020
228.661	7654
228.727	9955
228.792	6317
228.858	6694
228.924	6831
228.990	7920
229.055	8795
229.121	7228
229.187	5605
229.252	6774
229.318	4538
229.384	7233
229.449	6698
229.515	3758
229.581	3341
229.646	5135
229.712	7856
229.777	17448
229.843	11353
229.909	11920
229.974	11394
230.040	8873
230.105	8474
230.171	9903
230.236	13348
230.302	19045
230.368	11393
230.433	8842
230.499	6616
230.564	8874
230.630	6574
230.695	6126
230.761	5023
230.826	6443
230.892	9571
230.957	5999
231.023	5211
231.088	6112
231.154	4861
231.219	7614
231.284	11501
231.350	8023
231.415	5837
231.481	4649
231.546	4077
231.612	4332
231.677	4136
231.742	4966
231.808	5369
231.873	5513
231.939	5848
232.004	12516
232.069	7203
232.135	6845
232.200	3720
232.265	3914
232.331	4158
232.396	4417
232.461	3897
232.527	5202
232.592	4447
232.657	6366
232.723	12378
232.788	6175
232.853	4626
232.918	4809
232.984	4163
233.049	6350
233.114	12778
233.179	8854
233.245	20320
233.310	11204
233.375	5799
233.440	5000
233.506	4813
233.571	4386
233.636	4725
233.701	5636
233.766	16624
233.832	10076
233.897	7360
233.962	8517
234.027	7789
234.092	7156
234.157	7197
234.222	7861
234.288	20105
234.353	34130
234.418	25841
234.483	14375
234.548	11414
234.613	9230
234.678	8189
234.743	17911
234.808	38590
234.873	15089
234.938	9240
235.004	8752
235.069	8106
235.134	7006
235.199	6335
235.264	5658
235.329	5497
235.394	7038
235.459	10472
235.524	7649
235.589	6393
235.654	6137
235.719	5426
235.784	6080
235.849	12579
235.913	18599
235.978	27149
236.043	17676
236.108	8495
236.173	12142
236.238	7471
236.303	7437
236.368	6960
236.433	19189
236.498	19420
236.563	15387
236.627	45604
236.692	93027
236.757	47386
236.822	29338
236.887	21007
236.952	16163
237.017	15556
237.081	15960
237.146	26250
237.211	50336
237.276	112937
237.341	112262
237.405	47210
237.470	26986
237.535	18141
237.600	11628
237.664	10328
237.729	11127
237.794	19811
237.859	24505
237.923	17612
237.988	12276
238.053	19540
238.118	20934
238.182	50448
238.247	25277
238.312	20825
238.376	13412
238.441	11977
238.506	9218
238.570	6320
238.635	5697
238.700	6498
238.764	8707
238.829	28603
238.893	16274
238.958	12288
239.023	9437
239.087	7547
239.152	7541
239.216	6362
239.281	6706
239.346	5540
239.410	6750
239.475	17290
239.539	49991
239.604	18099
239.668	9054
239.733	7670
239.797	15729
239.862	33071
239.926	29720
239.991	10969
240.055	8135
240.120	7649
240.184	7400
240.249	6621
240.313	6029
240.378	10332
240.442	39109
240.507	27052
240.571	11792
240.635	29256
240.700	16888
240.764	8644
240.829	6361
240.893	5619
240.957	8038
241.022	35702
241.086	36657
241.151	14166
241.215	8087
241.279	18914
241.344	18449
241.408	10275
241.472	9097
241.537	8712
241.601	8636
241.665	6973
241.730	7515
241.794	8409
241.858	8249
241.922	7922
241.987	8741
242.051	6980
242.115	7907
242.179	6401
242.244	7038
242.308	7938
242.372	10485
242.436	10580
242.501	7909
242.565	6973
242.629	6206
242.693	6952
242.757	6444
242.822	7563
242.886	8278
242.950	8400
243.014	8838
243.078	11565
243.142	9330
243.206	9688
243.271	9719
243.335	10550
243.399	19673
243.463	99424
243.527	94916
243.591	29413
243.655	16917
243.719	10328
243.783	14525
243.847	24687
243.911	26334
243.975	34113
244.040	16795
244.104	9366
244.168	9934
244.232	23206
244.296	23489
244.360	19509
244.424	13672
244.488	10648
244.552	8759
244.615	7675
244.679	8009
244.743	14037
244.807	9026
244.871	7820
244.935	7201
244.999	7787
245.063	8262
245.127	11461
245.191	21735
245.255	13327
245.319	16457
245.383	11209
245.446	8367
245.510	8379
245.574	9702
245.638	8382
245.702	16320
245.766	21022
245.829	13063
245.893	10540
245.957	9759
246.021	10356
246.085	12314
246.149	17185
246.212	41978
246.276	35128
246.340	19103
246.404	12746
246.467	22425
246.531	20299
246.595	13361
246.659	13604
246.722	15627
246.786	15627
246.850	23007
246.913	16155
246.977	10934
247.041	12130
247.104	11612
247.168	15593
247.232	44302
247.295	52659
247.359	18760
247.423	20892
247.486	25239
247.550	14291
247.614	15689
247.677	16107
247.741	10359
247.804	10639
247.868	14562
247.932	45509
247.995	41868
248.059	16652
248.122	12639
248.186	17985
248.249	44220
248.313	106585
248.376	77252
248.440	44042
248.503	19762
248.567	21526
248.630	35535
248.694	40484
248.757	67640
248.821	85123
248.884	47559
248.948	66430
249.011	83618
249.075	117643
249.138	67633
249.202	31579
249.265	28162
249.328	29789
249.392	22442
249.455	14949
249.519	15989
249.582	24022
249.645	32581
249.709	19091
249.772	17652
249.835	17975
249.899	17556
249.962	13991
250.025	17870
250.089	52359
250.152	39169
250.215	23253
250.279	18990
250.342	19559
250.405	16814
250.468	17487
250.532	25380
250.595	49358
250.658	178102
250.721	124539
250.785	54860
250.848	29580
250.911	21919
250.974	18811
251.038	44139
251.101	46555
251.164	31639
251.227	32687
251.290	28914
251.354	71684
251.417	193850
251.480	110470
251.543	167493
251.606	280582
251.669	140150
251.732	79893
251.795	86490
251.859	115320
251.922	173534
251.985	66483
252.048	37470
252.111	29886
252.174	35399
252.237	83837
252.300	105407
252.363	182236
252.426	180000
252.489	78737
252.552	49979
252.615	36217
252.678	51706
252.741	92266
252.804	171000
252.867	203683
252.930	117438
252.993	63095
253.056	46113
253.119	33391
253.182	36619
253.245	50693
253.308	35144
253.371	40176
253.434	32593
253.497	39797
253.559	55423
253.622	40466
253.685	66938
253.748	40518
253.811	26414
253.874	39355
253.937	27844
254.000	25524
254.062	57912
254.125	48664
254.188	66342
254.251	32964
254.314	29137
254.376	56584
254.439	44939
254.502	37846
254.565	60853
254.628	63017
254.690	39124
254.753	24786
254.816	23575
254.878	27600
254.941	55238
255.004	29732
255.067	24110
255.129	19214
255.192	11797
255.255	14442
255.317	15489
255.380	10195
255.443	9512
255.505	10541
255.568	11043
255.631	11667
255.693	11742
255.756	8239
255.819	9710
255.881	8576
255.944	8900
256.006	8687
256.069	8639
256.132	9458
256.194	23687
256.257	38577
256.319	32613
256.382	19742
256.444	13783
256.507	10713
256.569	10236
256.632	13249
256.694	24746
256.757	89137
256.819	107487
256.882	37887
256.944	21531
257.007	20724
257.069	21370
257.132	12737
257.194	10630
257.257	13761
257.319	11910
257.381	17156
257.444	64930
257.506	190189
257.569	134527
257.631	76681
257.693	37612
257.756	24838
257.818	18651
257.880	12495
257.943	11675
258.005	11029
258.067	10708
258.130	10444
258.192	22865
258.254	31604
258.317	14281
258.379	17344
258.441	42270
258.503	23301
258.566	69477
258.628	32336
258.690	13438
258.753	21271
258.815	28128
258.877	13368
258.939	9790
259.001	10310
259.064	11036
259.126	20504
259.188	16035
259.250	14924
259.312	30162
259.375	55767
259.437	20726
259.499	12356
259.561	12577
259.623	12615
259.685	11396
259.747	14618
259.809	70641
259.872	67541
259.934	135952
259.996	58857
260.058	20838
260.120	12823
260.182	10795
260.244	9347
260.306	9012
260.368	9217
260.430	12029
260.492	33885
260.554	53538
260.616	32599
260.678	92307
260.740	48291
260.802	19053
260.864	16079
260.926	13771
260.988	12244
261.050	16617
261.112	51172
261.174	93827
261.236	34730
261.298	20893
261.359	59275
261.421	32076
261.483	14076
261.545	11955
261.607	8428
261.669	10536
261.731	45579
261.793	48115
261.854	20002
261.916	14228
261.978	16383
262.040	14137
262.102	14752
262.164	28437
262.225	12395
262.287	16961
262.349	36724
262.411	16439
262.472	11370
262.534	49074
262.596	36168
262.658	14128
262.719	10965
262.781	33271
262.843	45470
262.904	16699
262.966	16043
263.028	25993
263.090	183993
263.151	154082
263.213	55607
263.275	29784
263.336	15087
263.398	10982
263.459	9535
263.521	15795
263.583	29989
263.644	14360
263.706	8780
263.767	6969
263.829	7166
263.891	5431
263.952	6046
264.014	7579
264.075	26396
264.137	28352
264.198	12083
264.260	7205
264.321	9081
264.383	44878
264.444	37823
264.506	12790
264.567	10881
264.629	35988
264.690	30822
264.752	15096
264.813	9560
264.875	8355
264.936	8886
264.998	7086
265.059	6956
265.120	8977
265.182	25167
265.243	92798
265.305	36706
265.366	13538
265.427	10050
265.489	8983
265.550	7421
265.611	12348
265.673	9486
265.734	7446
265.795	7141
265.857	7692
265.918	8368
265.979	42426
266.040	138473
266.102	49904
266.163	26561
266.224	20076
266.286	11945
266.347	9131
266.408	10182
266.469	9670
266.530	7418
266.592	9457
266.653	30904
266.714	23046
266.775	9675
266.836	7948
266.898	10420
266.959	16025
267.020	8030
267.081	8656
267.142	7158
267.203	7267
267.264	7599
267.326	8920
267.387	7234
267.448	6943
267.509	7914
267.570	7594
267.631	6608
267.692	6097
267.753	6939
267.814	6788
267.875	32306
267.936	29370
267.997	19511
268.058	14641
268.119	10161
268.180	10531
268.241	6951
268.302	7371
268.363	7961
268.424	9703
268.485	8414
268.546	5772
268.607	4874
268.668	5567
268.729	6170
268.790	7857
268.851	11069
268.912	35759
268.972	23490
269.033	11600
269.094	7480
269.155	6915
269.216	7198
269.277	8340
269.338	5698
269.398	8434
269.459	10728
269.520	15509
269.581	21637
269.642	19581
269.702	13275
269.763	9253
269.824	8348
269.885	18752
269.945	13974
270.006	6798
270.067	6769
270.128	5796
270.188	7171
270.249	6956
270.310	5920
270.370	7908
270.431	7552
270.492	6022
270.553	10975
270.613	30857
270.674	32672
270.734	12179
270.795	10279
270.856	18256
270.916	9034
270.977	8842
271.038	13289
271.098	12611
271.159	24894
271.219	12024
271.280	7582
271.340	7023
271.401	21490
271.462	27805
271.522	13032
271.583	10042
271.643	9229
271.704	9324
271.764	13971
271.825	45337
271.885	119470
271.946	71754
272.006	32829
272.066	81287
272.127	55323
272.187	20245
272.248	14332
272.308	30872
272.369	55404
272.429	21602
272.489	35565
272.550	24856
272.610	32766
272.671	17936
272.731	36529
272.791	31922
272.852	18822
272.912	15609
272.972	9475
273.033	15135
273.093	21462
273.153	15571
273.214	12179
273.274	18532
273.334	82169
273.394	65916
273.455	31866
273.515	62063
273.575	63100
273.635	29358
273.696	74162
273.756	66403
273.816	26232
273.876	23711
273.936	88343
273.997	52738
274.057	19524
274.117	18363
274.177	47295
274.237	124797
274.297	77102
274.358	67520
274.418	72226
274.478	37515
274.538	18713
274.598	35409
274.658	98047
274.718	69112
274.778	23469
274.838	18281
274.898	93745
274.958	112303
275.018	88258
275.078	38834
275.138	20445
275.198	12968
275.258	10839
275.318	22643
275.378	33874
275.438	24645
275.498	21740
275.558	97774
275.618	95546
275.678	42792
275.738	43344
275.798	25888
275.858	12942
275.918	10798
275.978	15411
276.038	10186
276.098	10931
276.157	48735
276.217	53372
276.277	25199
276.337	19074
276.397	14452
276.457	15523
276.517	10167
276.576	7892
276.636	11091
276.696	24747
276.756	47673
276.815	19986
276.875	16591
276.935	19244
276.995	11113
277.055	10239
277.114	10015
277.174	32845
277.234	42819
277.293	17184
277.353	12317
277.413	10704
277.472	13879
277.532	9909
277.592	17691
277.651	94450
277.711	55453
277.771	49047
277.830	132380
277.890	50879
277.950	116035
278.009	125221
278.069	42592
278.128	100692
278.188	60063
278.248	60132
278.307	112982
278.367	34703
278.426	19548
278.486	13845
278.545	11659
278.605	10000
278.664	10595
278.724	13126
278.783	66254
278.843	57517
278.902	20190
278.962	19970
279.021	21691
279.081	36255
279.140	24235
279.199	20339
279.259	20889
279.318	22012
279.378	30940
279.437	80396
279.496	279337
279.556	526915
279.615	225583
279.675	89113
279.734	67519
279.793	128136
279.853	91661
279.912	34529
279.971	27781
280.031	27022
280.090	71591
280.149	62185
280.208	141477
280.268	426909
280.327	187431
280.386	69674
280.445	70028
280.505	38351
280.564	25341
280.623	21288
280.682	47646
280.742	30830
280.801	16198
280.860	12418
280.919	14118
280.978	13053
281.037	11923
281.097	11036
281.156	11185
281.215	10421
281.274	25066
281.333	68714
281.392	21459
281.451	11505
281.510	11186
281.569	10609
281.628	8667
281.688	9162
281.747	13222
281.806	9735
281.865	8426
281.924	9849
281.983	8188
282.042	7802
282.101	7519
282.160	7275
282.219	7201
282.278	17198
282.337	38720
282.396	13871
282.454	10475
282.513	27371
282.572	53751
282.631	17854
282.690	11321
282.749	11486
282.808	12497
282.867	14857
282.926	10451
282.985	7641
283.043	7692
283.102	8995
283.161	12973
283.220	48994
283.279	39918
283.338	14033
283.396	12843
283.455	11716
283.514	15560
283.573	19272
283.631	11956
283.690	9607
283.749	12788
283.808	35376
283.866	17675
283.925	10868
283.984	12615
284.043	19932
284.101	14354
284.160	14343
284.219	17270
284.277	15085
284.336	39254
284.395	82135
284.453	35039
284.512	26971
284.570	35004
284.629	26223
284.688	28662
284.746	30623
284.805	37432
284.863	50892
284.922	57267
284.981	70626
285.039	107045
285.098	211843
285.156	415289
285.215	403713
285.273	429136
285.332	270150
285.390	161409
285.449	105059
285.507	72601
285.566	54288
285.624	41614
285.683	31686
285.741	27401
285.799	24638
285.858	22952
285.916	18487
285.975	16446
286.033	14006
286.091	12174
286.150	11939
286.208	14885
286.267	15087
286.325	18360
286.383	24405
286.442	14130
286.500	11219
286.558	9832
286.616	11690
286.675	14961
286.733	12640
286.791	11710
286.850	15044
286.908	26316
286.966	23102
287.024	11014
287.083	10067
287.141	8003
287.199	11767
287.257	14241
287.315	10677
287.374	20638
287.432	30624
287.490	15222
287.548	13010
287.606	8976
287.664	11547
287.723	21742
287.781	16038
287.839	12082
287.897	15033
287.955	16511
288.013	27589
288.071	86769
288.129	411738
288.187	452409
288.245	153591
288.303	70245
288.361	45418
288.419	35640
288.477	20898
288.535	16065
288.593	12579
288.651	10532
288.709	8892
288.767	10200
288.825	8221
288.883	8461
288.941	8784
288.999	8757
289.057	8445
289.115	8750
289.173	8198
289.231	10464
289.289	9094
289.346	9479
289.404	11866
289.462	22051
289.520	15313
289.578	7356
289.636	6264
289.694	6852
289.751	5394
289.809	6764
289.867	6470
289.925	12529
289.983	8472
290.040	5868
290.098	8136
290.156	10582
290.214	10553
290.271	6471
290.329	5333
290.387	6027
290.444	5460
290.502	5062
290.560	5715
290.617	6534
290.675	5799
290.733	8028
290.790	7103
290.848	7253
290.906	8856
290.963	7880
291.021	6611
291.078	6787
291.136	9977
291.194	54056
291.251	39191
291.309	12043
291.366	7624
291.424	8865
291.481	9064
291.539	10010
291.596	7064
291.654	4599
291.711	4866
291.769	14774
291.826	19667
291.884	8271
291.941	6878
291.999	8510
292.056	11364
292.114	8213
292.171	5889
292.228	8500
292.286	14261
292.343	27150
292.401	23650
292.458	13346
292.515	11341
292.573	13053
292.630	13039
292.687	12329
292.745	8946
292.802	22183
292.859	49372
292.917	58734
292.974	21061
293.031	11213
293.089	9265
293.146	7954
293.203	7217
293.260	8510
293.318	16484
293.375	13894
293.432	7500
293.489	6179
293.546	6947
293.604	17048
293.661	71045
293.718	75634
293.775	32842
293.832	22874
293.889	21740
293.947	21823
294.004	12698
294.061	16317
294.118	44574
294.175	71427
294.232	52773
294.289	21592
294.346	14596
294.403	13508
294.460	12729
294.517	10116
294.574	8147
294.631	6734
294.688	12095
294.745	56226
294.802	123070
294.859	73577
294.916	41071
294.973	26192
295.030	23129
295.087	14640
295.144	11431
295.201	9270
295.258	7243
295.315	17418
295.372	66484
295.429	51884
295.486	20633
295.542	22065
295.599	72856
295.656	59070
295.713	69034
295.770	48411
295.827	18556
295.883	14264
295.940	18380
295.997	30542
296.054	17095
296.111	10537
296.167	8326
296.224	7935
296.281	7833
296.338	7066
296.394	7178
296.451	14366
296.508	54372
296.564	47456
296.621	44873
296.678	116240
296.734	73458
296.791	28218
296.848	19569
296.904	34330
296.961	66758
297.018	81874
297.074	34955
297.131	16919
297.187	13824
297.244	32041
297.301	127514
297.357	86638
297.414	28837
297.470	17675
297.527	11707
297.583	12783
297.640	10900
297.696	9544
297.753	7931
297.809	6461
297.866	6690
297.922	7227
297.979	6543
298.035	10396
298.092	25794
298.148	56199
298.204	27843
298.261	19420
298.317	68094
298.374	84376
298.430	34601
298.486	28037
298.543	18958
298.599	14521
298.656	18273
298.712	60962
298.768	89972
298.824	36209
298.881	16090
298.937	12228
298.993	13821
299.050	17362
299.106	12109
299.162	12529
299.218	9943
299.275	8277
299.331	10186
299.387	42695
299.443	102698
299.500	57215
299.556	24600
299.612	17082
299.668	17662
299.724	24324
299.780	15743
299.837	11705
299.893	37489
299.949	96441
300.005	63112
300.061	101473
300.117	92143
300.173	36541
300.229	28281
300.285	42351
300.341	29100
300.397	15197
300.453	11626
300.510	11015
300.566	9488
300.622	20639
300.678	65352
300.734	73578
300.790	81420
300.845	63489
300.901	64042
300.957	83431
301.013	38870
301.069	19348
301.125	21042
301.181	18273
301.237	11934
301.293	9011
301.349	8071
301.405	7676
301.461	8325
301.516	9395
301.572	18520
301.628	24809
301.684	21578
301.740	46704
301.796	37952
301.851	41808
301.907	56598
301.963	48671
302.019	150410
302.074	247106
302.130	151659
302.186	60444
302.242	32762
302.297	24743
302.353	36834
302.409	51350
302.464	29327
302.520	55090
302.576	107185
302.631	79801
302.687	40195
302.743	20427
302.798	13109
302.854	11493
302.910	13006
302.965	24457
303.021	32058
303.076	30725
303.132	48485
303.187	36088
303.243	17541
303.299	12317
303.354	11149
303.410	9993
303.465	9487
303.521	9095
303.576	8569
303.632	12631
303.687	46637
303.743	77265
303.798	38478
303.853	18919
303.909	12326
303.964	14825
304.020	30059
304.075	27139
304.130	40734
304.186	60049
304.241	51278
304.297	34520
304.352	20419
304.358	19890
304.407	15597
304.449	15993
304.463	16141
304.518	15417
304.539	13828
304.573	11290
304.629	12870
304.630	13264
304.684	31127
304.720	63771
304.739	80608
304.794	59636
304.811	50837
304.850	28822
304.902	16794
304.905	16073
304.960	15246
304.992	14940
305.015	14786
305.071	12617
305.083	11929
305.126	9296
305.173	7572
305.181	7308
305.236	8117
305.264	9755
305.292	11484
305.347	13103
305.354	13078
305.402	12892
305.445	15479
305.457	16214
305.512	19142
305.535	17462
305.567	15018
305.622	18430
305.626	20139
305.678	49768
305.716	83844
305.733	97930
305.788	66921
305.807	64558
305.843	57660
305.897	78934
305.898	79256
305.953	53172
305.988	40442
306.008	32200
306.063	21759
306.078	19338
306.118	14691
306.168	10675
306.173	10346
306.228	9071
306.259	8282
306.283	7702
306.338	8574
306.349	9068
306.393	11332
306.440	11274
306.448	11175
306.503	10433
306.530	15309
306.558	22148
306.613	50834
306.620	53239
306.668	69122
306.711	79012
306.723	79924
306.778	49380
306.801	41017
306.833	28858
306.888	15014
306.892	14454
306.943	11765
306.982	10573
306.997	10276
307.052	9545
307.072	9921
307.107	11076
307.162	18058
307.163	18155
307.217	27190
307.253	35445
307.272	38939
307.327	32297
307.343	30071
307.381	22620
307.434	21407
307.436	21818
307.491	55187
307.524	70200
307.546	77676
307.600	60958
307.614	56494
307.655	33427
307.704	17883
307.710	17413
307.765	21672
307.795	33850
307.819	46652
307.874	57678
307.885	56342
307.929	38085
307.975	26857
307.984	26402
308.038	30624
308.065	41325
308.093	63772
308.148	166316
308.156	183987
308.202	313682
308.246	329208
308.257	306328
308.312	170436
308.336	126292
308.366	103007
308.421	62411
308.426	59474
308.475	38767
308.517	25857
308.530	23916
308.585	20433
308.607	19542
308.639	19121
308.694	21679
308.697	22788
308.748	50122
308.787	65265
308.803	67250
308.857	50187
308.877	46936
308.912	38184
308.967	30559
308.967	30526
309.021	39194
309.058	50738
309.076	61643
309.130	106675
309.148	130211
309.185	214445
309.238	371899
309.239	374330
309.293	442029
309.328	435974
309.348	366576
309.402	184377
309.418	139096
309.457	98719
309.508	59123
309.511	58209
309.566	53849
309.598	57200
309.620	68130
309.674	106690
309.688	112624
309.729	112538
309.778	100803
309.783	97474
309.837	61929
309.868	45906
309.892	46684
309.946	63556
309.959	68331
310.001	97270
310.049	112771
310.055	108600
310.109	66028
310.139	45617
310.163	35851
310.218	20315
310.229	17454
310.272	14580
310.319	12703
310.326	12383
310.381	10921
310.409	10091
310.435	9678
310.489	9653
310.499	9617
310.543	9784
310.589	10615
310.598	10674
310.652	10833
310.679	10590
310.706	9379
310.760	7218
310.769	6924
310.814	5969
310.859	5318
310.868	5338
310.923	5552
310.948	5827
310.977	6585
311.031	8298
311.038	8489
311.085	8653
311.128	8614
311.139	8438
311.193	7942
311.218	7629
311.247	7170
311.301	6516
311.308	6450
311.356	6359
311.398	6361
311.410	6273
311.464	5702
311.488	5534
311.518	5418
311.572	5387
311.578	5419
311.626	7795
311.668	9763
311.680	9790
311.734	9993
311.758	10086
311.788	10287
311.842	10664
311.847	10742
311.896	11449
311.937	12208
311.950	12509
312.004	13810
312.027	14404
312.058	12174
312.112	8293
312.117	7917
312.165	6850
312.207	5968
312.297	8830
312.386	8527
312.476	7475
312.566	14811
312.656	11388
312.745	5361
312.835	6002
312.925	7020
313.015	7112
313.104	8981
313.194	5694
313.284	6474
313.374	7739
313.463	9324
313.553	5271
313.643	5387
313.732	4982
313.822	5199
313.912	6413
314.001	6819
314.091	8406
314.180	10273
314.270	10596
314.360	10927
314.449	10559
314.539	6057
314.628	6101
314.718	7116
314.808	10337
314.897	6754
314.987	6199
315.076	8017
315.166	12082
315.255	11820
315.345	10348
315.434	10546
315.524	9061
315.613	11996
315.703	13772
315.792	21116
315.881	60516
315.971	42813
316.060	18771
316.150	30328
316.239	33695
316.328	17743
316.418	7280
316.507	7057
316.597	9336
316.686	9681
316.775	13328
316.865	35239
316.954	12741
317.043	5510
317.133	6580
317.222	7243
317.311	5335
317.400	6720
317.490	8875
317.579	12220
317.668	7814
317.757	13209
317.847	32610
317.936	110997
318.025	69531
318.114	26542
318.203	20348
318.293	16882
318.382	35158
318.471	31278
318.560	39563
318.649	63391
318.738	26103
318.828	9951
318.917	11974
319.006	12778
319.095	36023
319.184	76944
319.273	64067
319.362	32266
319.451	10152
319.540	8667
319.629	16860
319.718	36174
319.807	14652
319.896	27483
319.985	95158
320.074	61756
320.163	12349
320.252	19651
320.341	15900
320.430	15146
320.519	16303
320.608	14513
320.697	8907
320.786	8938
320.875	11833
320.964	15063
321.053	22282
321.142	32254
321.230	42197
321.319	25729
321.408	59128
321.497	37718
321.586	23790
321.675	31038
321.764	35221
321.852	19255
321.941	30224
322.030	29578
322.119	20750
322.207	60735
322.296	56686
322.385	25795
322.474	25440
322.562	67301
322.651	58081
322.740	25437
322.829	46834
322.917	46068
323.006	32490
323.095	22163
323.183	16472
323.272	21399
323.361	38364
323.449	128807
323.538	68737
323.626	79460
323.715	87027
323.804	20851
323.892	73208
323.981	67833
324.069	14847
324.158	37181
324.246	59166
324.335	14559
324.424	24369
324.512	11741
324.601	10802
324.689	22265
324.778	59485
324.866	39815
324.954	14237
325.043	8321
325.131	17222
325.220	36217
325.308	45805
325.397	28935
325.485	25400
325.574	7100
325.662	7616
325.750	7640
325.839	6690
325.927	5286
326.015	8132
326.104	12987
326.192	26285
326.280	7688
326.369	6300
326.457	8895
326.545	17435
326.634	11688
326.722	4742
326.810	6127
326.898	6556
326.987	7096
327.075	15059
327.163	22050
327.251	12648
327.340	14829
327.428	33787
327.516	8753
327.604	6789
327.692	7700
327.781	7352
327.869	15276
327.957	12304
328.045	9707
328.133	5961
328.221	7818
328.309	7853
328.397	4666
328.485	7567
328.574	10024
328.662	35325
328.750	33694
328.838	12302
328.926	5546
329.014	4914
329.102	7544
329.190	18870
329.278	20540
329.366	5835
329.454	4219
329.542	4938
329.630	5047
329.718	4565
329.806	6885
329.893	6772
329.981	6557
330.069	6087
330.157	22836
330.245	94178
330.333	76113
330.421	13143
330.509	9961
330.597	39501
330.684	43689
330.772	12142
330.860	14247
330.948	19012
331.036	11092
331.123	4406
331.211	4186
331.299	6033
331.387	11435
331.475	29832
331.562	12868
331.650	5674
331.738	6921
331.825	10507
331.913	5572
332.001	5012
332.089	6062
332.176	15115
332.264	36536
332.352	46983
332.439	10491
332.527	7606
332.614	6306
332.702	10299
332.790	6152
332.877	14671
332.965	46342
333.052	20239
333.140	10684
333.228	34315
333.315	14653
333.403	6608
333.490	20513
333.578	29335
333.665	36827
333.753	29115
333.840	8000
333.928	8255
334.015	21051
334.103	34969
334.190	109986
334.278	53533
334.365	13202
334.452	14060
334.540	7959
334.627	8968
334.715	13968
334.802	20375
334.889	120535
334.977	218641
335.064	34869
335.151	11255
335.239	9698
335.326	12048
335.413	37950
335.501	91748
335.588	16065
335.675	8282
335.762	9417
335.850	17360
335.937	13310
336.024	27301
336.111	144781
336.199	116224
336.286	18591
336.373	8824
336.460	5950
336.547	6428
336.635	7714
336.722	8146
336.809	7141
336.896	8775
336.983	24928
337.070	70022
337.157	118851
337.245	96561
337.332	109645
337.419	12628
337.506	6557
337.593	6416
337.680	16059
337.767	72183
337.854	30680
337.941	23842
338.028	33821
338.115	18962
338.202	9908
338.289	21317
338.376	95392
338.463	54589
338.550	31812
338.637	59256
338.724	16859
338.811	36271
338.898	11544
338.984	5519
339.071	6288
339.158	8207
339.245	20645
339.332	19497
339.419	15596
339.506	27981
339.593	5301
339.679	4688
339.766	4774
339.853	6407
339.940	16968
340.027	9186
340.113	5356
340.200	9152
340.287	7848
340.374	7049
340.460	16049
340.547	8442
340.634	8454
340.720	36749
340.807	43190
340.894	5894
340.980	6201
341.067	6175
341.154	5518
341.240	7939
341.327	23527
341.414	10824
341.500	8086
341.587	6268
341.674	4573
341.760	11690
341.847	20780
341.933	9092
342.020	3835
342.106	3656
342.193	4150
342.279	11981
342.366	7991
342.452	15858
342.539	10459
342.625	13456
342.712	48886
342.798	30086
342.885	12036
342.971	4117
343.058	3256
343.144	3774
343.230	5002
343.317	4924
343.403	4643
343.490	2753
343.576	4073
343.662	4184
343.749	5970
343.835	7375
343.921	10485
344.008	54026
344.094	213080
344.180	81120
344.267	15991
344.353	40548
344.439	81092
344.525	29399
344.612	11854
344.698	8059
344.784	8224
344.870	3807
344.957	4662
345.043	8762
345.129	6245
345.215	14068
345.301	10689
345.387	6713
345.474	3739
345.560	3699
345.646	5937
345.732	5530
345.818	5635
345.904	6746
345.990	6877
346.076	7239
346.162	14477
346.249	8124
346.335	4330
346.421	4886
346.507	13938
346.593	79277
346.679	38551
346.765	6007
346.851	4431
346.937	6676
347.023	4194
347.108	5634
347.194	6725
347.280	4472
347.366	5767
347.452	15950
347.538	86106
347.624	83271
347.710	71136
347.796	16919
347.882	5807
347.967	4568
348.053	6293
348.139	6073
348.225	4697
348.311	5223
348.397	4494
348.482	4967
348.568	8203
348.654	5123
348.740	5612
348.825	9187
348.911	8843
348.997	27825
349.083	100397
349.168	30046
349.254	5739
349.340	6719
349.425	4834
349.511	5776
349.597	9142
349.682	12793
349.768	47132
349.854	43732
349.939	6486
350.025	3566
350.110	4717
350.196	4196
350.282	4411
350.367	3178
350.453	6930
350.538	13485
350.624	7305
350.709	7350
350.795	4214
350.880	5037
350.966	5312
351.051	8087
351.137	10252
351.222	4972
351.308	10596
351.393	47821
351.479	22217
351.564	6393
351.649	5128
351.735	4796
351.820	2989
351.906	4428
351.991	5967
352.076	20906
352.162	57305
352.247	15395
352.332	5872
352.418	11722
352.503	14413
352.588	48352
352.673	79807
352.759	17194
352.844	8320
352.929	5809
353.014	11427
353.100	6832
353.185	12001
353.270	19177
353.355	22693
353.441	6881
353.526	7005
353.611	12577
353.696	23678
353.781	12308
353.866	7395
353.952	4321
354.037	10679
354.122	33282
354.207	36202
354.292	20207
354.377	5446
354.462	4634
354.547	6607
354.632	6953
354.717	8438
354.802	17564
354.887	10379
354.972	4210
355.057	3474
355.142	4328
355.227	5339
355.312	8748
355.397	18704
355.482	49470
355.567	43675
355.652	15997
355.737	22428
355.822	45469
355.907	79623
355.991	12883
356.076	6133
356.161	6024
356.246	4688
356.331	5066
356.416	9972
356.501	67231
356.585	153904
356.670	27563
356.755	10698
356.840	11094
356.924	42052
357.009	229031
357.094	171157
357.179	24088
357.263	18212
357.348	12525
357.433	15269
357.517	12443
357.602	11762
357.687	8712
357.771	9642
357.856	18669
357.941	18468
358.025	28397
358.110	189961
358.195	180993
358.279	24684
358.364	11375
358.448	28058
358.533	106909
358.617	110547
358.702	87146
358.787	51733
358.871	16897
358.956	18439
359.040	7756
359.125	4455
359.209	5114
359.294	7791
359.378	15655
359.462	14777
359.547	10637
359.631	8181
359.716	6007
359.800	5050
359.885	8343
359.969	7642
360.053	6189
360.138	6011
360.222	7624
360.306	16193
360.391	16021
360.475	12100
360.559	38168
360.644	40180
360.728	47290
360.812	33169
360.896	156317
360.981	95150
361.065	45241
361.149	12253
361.233	9662
361.318	8049
361.402	10714
361.486	9546
361.570	7272
361.654	7993
361.739	15870
361.823	65395
361.907	186501
361.991	55040
362.075	12846
362.159	32558
362.243	32060
362.327	21162
362.411	32783
362.495	22355
362.580	11722
362.664	6583
362.748	6527
362.832	7814
362.916	11382
363.000	30872
363.084	107070
363.168	220064
363.252	82727
363.336	17430
363.420	18537
363.503	51871
363.587	111746
363.671	27795
363.755	12090
363.839	17958
363.923	11187
364.007	14273
364.091	25676
364.175	22256
364.258	97249
364.342	109485
364.426	98050
364.510	85108
364.594	29482
364.677	22836
364.761	99323
364.845	148959
364.929	33842
365.013	31254
365.096	19061
365.180	30038
365.264	22113
365.347	103848
365.431	84246
365.515	16968
365.598	9827
365.682	7188
365.766	9268
365.849	17737
365.933	9096
366.017	10479
366.100	10238
366.184	5329
366.267	5970
366.351	5695
366.435	4475
366.518	4962
366.602	3599
366.685	4329
366.769	6628
366.852	8635
366.936	19488
367.019	16146
367.103	8665
367.186	16685
367.270	9038
367.353	3861
367.436	4801
367.520	5028
367.603	5836
367.687	9634
367.770	20832
367.853	15003
367.937	23299
368.020	76655
368.104	27837
368.187	11969
368.270	21338
368.353	21138
368.437	21548
368.520	61748
368.603	55660
368.687	32962
368.770	98235
368.853	40390
368.936	16432
369.020	22657
369.103	10502
369.186	6056
369.269	6832
369.352	9726
369.436	21347
369.519	15987
369.602	9550
369.685	6181
369.768	9041
369.851	7135
369.934	6020
370.018	6422
370.101	16163
370.184	16679
370.267	8927
370.350	13962
370.433	24578
370.516	51022
370.599	115449
370.682	47202
370.765	37074
370.848	54228
370.931	103332
371.014	74104
371.097	12811
371.180	8368
371.263	5187
371.346	4825
371.429	5632
371.511	6108
371.594	9532
371.677	16617
371.760	20047
371.843	15521
371.926	42992
372.009	188491
372.091	104113
372.174	33135
372.257	92779
372.340	71031
372.423	22845
372.505	34436
372.588	18816
372.671	19575
372.754	91932
372.836	91624
372.919	26525
373.002	70072
373.085	37771
373.167	15248
373.250	33250
373.332	90389
373.415	104053
373.498	253897
373.580	161523
373.663	86657
373.746	216091
373.828	73450
373.911	20546
373.993	16775
374.076	46492
374.159	84624
374.241	30230
374.324	69777
374.406	88817
374.489	46352
374.571	196496
374.654	154384
374.736	36926
374.819	104458
374.901	170307
374.983	240681
375.066	73616
375.148	14610
375.231	32225
375.313	110417
375.395	60680
375.478	16202
375.560	8492
375.643	9867
375.725	23365
375.807	129246
375.890	186800
375.972	86524
376.054	35333
376.136	54535
376.219	39621
376.301	25602
376.383	135477
376.465	103791
376.548	32342
376.630	36654
376.712	101411
376.794	105241
376.877	14096
376.959	5129
377.041	6192
377.123	10083
377.205	19334
377.287	7369
377.369	4407
377.452	5779
377.534	6609
377.616	5460
377.698	5657
377.780	4339
377.862	5419
377.944	5579
378.026	4439
378.108	4177
378.190	4198
378.272	4402
378.354	3814
378.436	4143
378.518	5786
378.600	24161
378.682	29372
378.764	44250
378.846	71603
378.928	17253
379.010	18229
379.091	15627
379.173	6298
379.255	5737
379.337	6844
379.419	16621
379.501	77128
379.583	64770
379.664	11371
379.746	15972
379.828	45750
379.910	80638
379.991	93485
380.073	28207
380.155	8419
380.237	8203
380.318	5496
380.400	6537
380.482	10193
380.564	23576
380.645	22412
380.727	25949
380.809	14697
380.890	9590
380.972	9283
381.053	7920
381.135	7901
381.217	13317
381.298	54953
381.380	51396
381.461	21594
381.543	75284
381.624	197466
381.706	61423
381.787	16737
381.869	16821
381.951	28709
382.032	158276
382.113	194895
382.195	46372
382.276	20680
382.358	29598
382.439	96485
382.521	121592
382.602	196731
382.684	129486
382.765	122600
382.846	201737
382.928	282105
383.009	272872
383.090	98337
383.172	254943
383.253	718725
383.334	364175
383.416	182846
383.497	156899
383.578	55377
383.659	73109
383.741	201916
383.822	791323
383.903	759654
383.984	187791
384.066	201940
384.147	201355
384.228	56775
384.309	24964
384.390	24591
384.471	17163
384.553	15686
384.634	18784
384.715	23479
384.796	14164
384.877	12964
384.958	36424
385.039	85023
385.120	40328
385.201	14129
385.282	14228
385.363	16888
385.444	16123
385.525	17331
385.606	61134
385.687	106729
385.768	30657
385.849	19173
385.930	50325
386.011	166414
386.092	85060
386.173	15604
386.254	8938
386.335	10278
386.416	10271
386.496	22002
386.577	67432
386.658	37228
386.739	15369
386.820	13163
386.901	11328
386.981	10603
387.062	8059
387.143	11056
387.224	40846
387.304	75229
387.385	28462
387.466	15100
387.547	16508
387.627	14541
387.708	14590
387.789	66257
387.869	154097
387.950	71159
388.031	10730
388.111	6194
388.192	13803
388.273	24720
388.353	21970
388.434	11699
388.514	12813
388.595	61317
388.676	145698
388.756	87692
388.837	49594
388.917	53846
388.998	13439
389.078	9252
389.159	7508
389.239	7548
389.320	9171
389.400	12267
389.480	12692
389.561	54297
389.641	54468
389.722	12795
389.802	17041
389.883	20641
389.963	59976
390.043	75174
390.124	25100
390.204	14340
390.284	54425
390.365	66591
390.445	34943
390.525	103653
390.605	166069
390.686	65296
390.766	20365
390.846	10128
390.927	6130
391.007	7427
391.087	8113
391.167	11297
391.247	9876
391.328	11088
391.408	17495
391.488	16123
391.568	7754
391.648	8417
391.728	14209
391.808	12109
391.888	15057
391.969	22316
392.049	61717
392.129	39767
392.209	20487
392.289	61218
392.369	63050
392.449	30363
392.529	27340
392.609	19125
392.689	19650
392.769	52608
392.849	88319
392.929	40589
393.009	82635
393.089	113019
393.169	68852
393.248	139963
393.328	587352
393.408	1136356
393.488	502174
393.568	115991
393.648	50834
393.728	31389
393.807	22698
393.887	19070
393.967	15785
394.047	16371
394.127	19449
394.206	24886
394.286	52460
394.366	268061
394.446	587765
394.525	217482
394.605	40228
394.685	21595
394.764	33245
394.844	63580
394.924	73643
395.003	28142
395.083	15037
395.163	13892
395.242	12357
395.322	13875
395.402	11034
395.481	11569
395.561	19379
395.640	68420
395.720	83398
395.799	77691
395.879	98579
395.958	43211
396.038	73635
396.117	359694
396.197	762341
396.276	320302
396.356	79861
396.435	46268
396.515	34797
396.594	33846
396.673	54308
396.753	133857
396.832	599059
396.912	843255
396.991	284711
397.070	62962
397.150	30116
397.229	20696
397.308	18648
397.388	36156
397.467	29153
397.546	11692
397.625	9449
397.705	11107
397.784	12698
397.863	10795
397.942	6698
398.022	6919
398.101	12719
398.180	62687
398.259	61265
398.338	15943
398.417	9126
398.497	7982
398.576	6417
398.655	5779
398.734	4808
398.813	5441
398.892	10579
398.971	62769
399.050	71000
399.129	11392
399.208	4047
399.287	4390
399.366	2861
399.445	3734
399.524	4346
399.603	3630
399.682	6179
399.761	17429
399.840	60472
399.919	99205
399.998	23544
400.077	3526
400.156	3183
400.235	4947
400.313	3070
400.392	4881
400.471	14212
400.550	54032
400.629	30480
400.708	7447
400.786	5479
400.865	11121
400.944	20810
401.023	13156
401.102	3581
401.180	2609
401.259	2742
401.338	3745
401.416	5805
401.495	7209
401.574	5178
401.652	4576
401.731	4617
401.810	7042
401.888	4626
401.967	2463
402.046	4092
402.124	4962
402.203	8519
402.281	6806
402.360	5317
402.438	15857
402.517	22201
402.596	7111
402.674	5719
402.753	4109
402.831	2618
402.910	4633
402.988	10544
403.066	63962
403.145	85280
403.223	21699
403.302	53781
403.380	69663
403.459	52766
403.537	37938
403.615	11008
403.694	4816
403.772	3036
403.850	2022
403.929	2156
404.007	2426
404.085	5711
404.164	13194
404.242	7595
404.320	3934
404.398	9148
404.477	19128
404.555	89729
404.633	198418
404.711	56215
404.789	9892
404.868	6145
404.946	5659
405.024	2931
405.102	2367
405.180	1785
405.258	2151
405.336	3103
405.415	2302
405.493	5984
405.571	10730
405.649	4730
405.727	2376
405.805	4465
405.883	5934
405.961	5991
406.039	6717
406.117	5436
406.195	5419
406.273	14579
406.351	92786
406.429	136383
406.507	28719
406.585	7121
406.663	3932
406.740	6413
406.818	7412
406.896	4830
406.974	3012
407.052	5496
407.130	35345
407.208	128635
407.285	57751
407.363	5640
407.441	4362
407.519	4335
407.596	3770
407.674	9017
407.752	34584
407.830	70506
407.907	28296
407.985	8940
408.063	4146
408.141	2566
408.218	3900
408.296	7639
408.373	6555
408.451	5154
408.529	5763
408.606	3632
408.684	2081
408.762	1808
408.839	1695
408.917	1177
408.994	1429
409.072	2571
409.149	2939
409.227	3510
409.304	7618
409.382	6679
409.459	5167
409.537	7968
409.614	10171
409.692	6762
409.769	4902
409.846	7364
409.924	12708
410.001	11979
410.079	6967
410.156	4058
410.233	3926
410.311	3613
410.388	3397
410.465	2633
410.543	5421
410.620	2894
410.697	2531
410.775	4796
410.852	3172
410.929	3719
411.006	7073
411.083	4730
411.161	6295
411.238	12912
411.315	7962
411.392	3223
411.469	4006
411.547	6509
411.624	3970
411.701	3733
411.778	2449
411.855	7588
411.932	9557
412.009	2884
412.086	2275
412.163	2491
412.240	3920
412.317	4629
412.394	6518
412.471	3209
412.548	1320
412.625	2546
412.702	3045
412.779	6396
412.856	8116
412.933	2997
413.010	2110
413.087	2600
413.164	11798
413.241	48007
413.318	24443
413.395	5403
413.471	7900
413.548	8564
413.625	2726
413.702	3319
413.779	3733
413.855	1292
413.932	1022
414.009	1252
414.086	1057
414.162	879
414.239	2785
414.316	11568
414.393	53770
414.469	52090
414.546	7144
414.623	1214
414.699	1024
414.776	2740
414.853	2331
414.929	3031
415.006	2573
415.082	3027
415.159	2659
415.236	2277
415.312	1945
415.389	3489
415.465	9495
415.542	7832
415.618	2457
415.695	5127
415.771	4527
415.848	3927
415.924	3793
416.000	2913
416.077	1815
416.153	743
416.230	720
416.306	1064
416.383	1276
416.459	1942
416.535	233
416.612	833
416.688	1717
416.764	1464
416.841	1428
416.917	2356
416.993	2154
417.069	1756
417.146	3610
417.222	5233
417.298	4468
417.374	2122
417.451	2965
417.527	2732
417.603	5020
417.679	4882
417.755	2854
417.831	1326
417.908	1405
417.984	677
418.060	739
418.136	3178
418.212	11227
418.288	8079
418.364	2771
418.440	1213
418.516	4219
418.592	5029
418.668	9338
418.744	17488
418.820	19742
418.896	8731
418.972	1704
419.048	736
419.124	3836
419.200	9822
419.276	3740
419.352	869
419.428	648
419.504	1624
419.579	4061
419.655	3753
419.731	2505
419.807	6295
419.883	20012
419.959	25596
420.034	9311
420.110	4312
420.186	21622
420.262	49588
420.337	14093
420.413	4745
420.489	3735
420.565	2069
420.640	1770
420.716	2988
420.792	2193
420.867	2198
420.943	2688
421.019	4337
421.094	7246
421.170	3886
421.245	2416
421.321	3147
421.397	3105
421.472	4986
421.548	19817
421.623	33971
421.699	11510
421.774	5732
421.850	5252
421.925	7669
422.001	10601
422.076	9055
422.152	8543
422.227	11992
422.302	17223
422.378	19661
422.453	33766
422.529	65868
422.604	185658
422.679	464418
422.755	476838
422.830	230382
422.905	78705
422.981	37429
423.056	23055
423.131	16358
423.207	11790
423.282	9704
423.357	13990
423.432	16987
423.508	10013
423.583	15565
423.658	25423
423.733	10213
423.808	6414
423.883	8267
423.959	8926
424.034	7424
424.109	6166
424.184	3803
424.259	2805
424.334	2996
424.409	1666
424.484	1606
424.559	4007
424.634	2717
424.709	4575
424.784	6369
424.859	4937
424.934	3723
425.009	13636
425.084	42563
425.159	40257
425.234	7615
425.309	2160
425.384	2026
425.459	4987
425.534	4608
425.609	2107
425.683	3122
425.758	1523
425.833	2125
425.908	3557
425.983	5694
426.058	34889
426.132	45399
426.207	10045
426.282	4473
426.357	6827
426.431	4324
426.506	922
426.581	2916
426.655	2861
426.730	1950
426.805	2514
426.879	2577
426.954	2409
427.029	3879
427.103	17124
427.178	86982
427.253	112141
427.327	22211
427.402	5033
427.476	8280
427.551	11265
427.625	3757
427.700	3640
427.774	2732
427.849	3761
427.923	2988
427.998	1884
428.072	2311
428.147	5677
428.221	14567
428.296	71547
428.370	112012
428.444	26544
428.519	7588
428.593	12449
428.667	19101
428.742	14539
428.816	18649
428.890	27980
428.965	107019
429.039	77243
429.113	23925
429.188	16524
429.262	5102
429.336	4442
429.410	13821
429.485	24786
429.559	12590
429.633	16990
429.707	7708
429.781	6325
429.855	30741
429.930	115858
430.004	93073
430.078	63411
430.152	86331
430.226	84553
430.300	192269
430.374	84077
430.448	12590
430.522	11441
430.596	52640
430.670	77788
430.744	56423
430.818	195185
430.892	129837
430.966	15681
431.040	5453
431.114	2762
431.188	2310
431.262	2255
431.336	3114
431.410	3579
431.484	13711
431.557	25616
431.631	8532
431.705	3538
431.779	6045
431.853	47008
431.927	113162
432.000	37090
432.074	4577
432.148	2746
432.222	4293
432.295	1824
432.369	1630
432.443	2829
432.516	12845
432.590	86372
432.664	109214
432.737	19621
432.811	2677
432.885	538
432.958	806
433.032	735
433.106	592
433.179	688
433.253	893
433.326	511
433.400	651
433.473	474
433.547	552
433.620	383
433.694	2029
433.767	6338
433.841	3855
433.914	1673
433.988	250
434.061	400
434.134	1001
434.208	1106
434.281	243
434.355	-394
434.428	1533
434.501	1262
434.575	1081
434.648	422
434.721	590
434.795	1350
434.868	608
434.941	545
435.014	541
435.088	585
435.161	2247
435.234	4362
435.307	7501
435.381	7010
435.454	3508
435.527	3912
435.600	5380
435.673	5463
435.746	3146
435.819	2350
435.892	1605
435.966	1823
436.039	745
436.112	1691
436.185	409
436.258	1073
436.331	144
436.404	437
436.477	280
436.550	543
436.623	699
436.696	-53
436.769	912
436.842	1633
436.915	1222
436.987	2223
437.060	3072
437.133	795
437.206	-168
437.279	767
437.352	1088
437.425	1184
437.498	1220
437.570	2885
437.643	7711
437.716	4646
437.789	884
437.861	2150
437.934	10663
438.007	18578
438.080	5631
438.152	2247
438.225	3426
438.298	15007
438.370	116289
438.443	165320
438.516	44499
438.588	12791
438.661	2321
438.734	1813
438.806	1435
438.879	3725
438.951	3449
439.024	7306
439.096	8951
439.169	2455
439.241	1479
439.314	1060
439.386	1611
439.459	5381
439.531	8633
439.604	9650
439.676	3387
439.749	1420
439.821	1362
439.893	1228
439.966	1136
440.038	2148
440.110	4088
440.183	3028
440.255	1321
440.327	2386
440.400	5532
440.472	51626
440.544	126906
440.617	46285
440.689	7560
440.761	6886
440.833	11733
440.905	16321
440.978	7982
441.050	1698
441.122	739
441.194	901
441.266	1920
441.338	1887
441.411	2550
441.483	9579
441.555	50128
441.627	41530
441.699	8130
441.771	6816
441.843	5767
441.915	1656
441.987	1498
442.059	2529
442.131	2102
442.203	3949
442.275	6132
442.347	7174
442.419	6522
442.491	15401
442.563	82266
442.635	123687
442.706	43250
442.778	30479
442.850	17028
442.922	3876
442.994	2935
443.066	5437
443.137	7653
443.209	5640
443.281	5093
443.353	9696
443.425	23251
443.496	109268
443.568	272658
443.640	196712
443.711	61422
443.783	12855
443.855	6713
443.926	4198
443.998	3101
444.070	4701
444.141	4496
444.213	5577
444.285	8521
444.356	8841
444.428	9799
444.499	5820
444.571	2942
444.642	1741
444.714	2257
444.785	4685
444.857	8208
444.928	12003
445.000	18497
445.071	11029
445.143	16020
445.214	15559
445.285	11490
445.357	24169
445.428	62097
445.500	236628
445.571	352338
445.642	206678
445.714	96644
445.785	43954
445.856	30242
445.928	12873
445.999	11058
446.070	10469
446.141	7455
446.213	9082
446.284	9737
446.355	5107
446.426	5049
446.497	3992
446.569	4326
446.640	7535
446.711	12013
446.782	7564
446.853	3481
446.924	6679
446.995	5632
447.066	3746
447.138	5039
447.209	6567
447.280	3276
447.351	1458
447.422	1200
447.493	1981
447.564	4118
447.635	6015
447.706	7404
447.777	2978
447.847	848
447.918	1114
447.989	1513
448.060	4025
448.131	6919
448.202	13144
448.273	11679
448.344	9200
448.414	3734
448.485	1812
448.556	1992
448.627	843
448.698	1952
448.768	553
448.839	1354
448.910	3001
448.981	7293
449.051	5833
449.122	2882
449.193	1177
449.263	1751
449.334	2102
449.405	1677
449.475	4982
449.546	10563
449.616	7205
449.687	8277
449.758	6037
449.828	2620
449.899	1761
449.969	1538
450.040	1229
450.110	2908
450.181	4021
450.251	3326
450.322	2511
450.392	1929
450.463	1783
450.533	1900
450.604	2379
450.674	1641
450.744	1600
450.815	2112
450.885	2144
450.955	2328
451.026	2093
451.096	1935
451.166	2456
451.237	2993
451.307	12496
451.377	20001
451.447	7642
451.518	2957
451.588	2139
451.658	2159
451.728	2137
451.799	7447
451.869	25973
451.939	22358
452.009	5357
452.079	2263
452.149	1560
452.219	3008
452.289	9816
452.360	27343
452.430	18057
452.500	3942
452.570	5045
452.640	6355
452.710	10480
452.780	28458
452.850	32403
452.920	24705
452.990	19773
453.060	6857
453.129	5548
453.199	7865
453.269	10080
453.339	67990
453.409	125948
453.479	92537
453.549	104022
453.619	145098
453.688	136192
453.758	50429
453.828	7881
453.898	4365
453.968	3349
454.037	3106
454.087	2748
454.107	2575
454.168	2851
454.177	2861
454.247	2484
454.249	2511
454.316	2441
454.330	2710
454.386	3575
454.411	4643
454.456	5399
454.492	11219
454.525	16262
454.574	18153
454.595	19204
454.655	8573
454.665	6875
454.734	4119
454.736	4290
454.804	7017
454.817	8605
454.873	12175
454.898	18636
454.943	29224
454.979	28013
455.013	27755
455.060	16358
455.082	11757
455.141	8370
455.152	7642
455.221	12316
455.222	12771
455.291	24455
455.303	26342
455.360	36362
455.384	35090
455.430	29836
455.465	33012
455.499	36702
455.546	28852
455.569	23692
455.627	22595
455.638	22894
455.707	14598
455.708	14561
455.777	5123
455.789	5045
455.846	4341
455.869	4141
455.916	3841
455.950	3874
455.985	3791
456.031	4245
456.054	4352
456.112	4285
456.124	4347
456.193	3748
456.193	3714
456.262	4549
456.274	4851
456.332	5964
456.355	6435
456.401	6024
456.436	6134
456.470	6473
456.516	4769
456.540	4170
456.597	3817
456.609	3683
456.678	2870
456.678	2847
456.747	3440
456.759	3429
456.817	3054
456.840	2878
456.886	2751
456.920	3385
456.955	4030
457.001	4063
457.024	4509
457.082	6465
457.093	6793
457.162	9243
457.163	9314
457.232	8999
457.243	9054
457.301	8518
457.324	6906
457.370	5403
457.405	4897
457.439	4348
457.485	4609
457.508	4836
457.566	5300
457.577	5411
457.646	6339
457.647	6391
457.715	11276
457.727	12270
457.784	19537
457.808	23321
457.853	25818
457.889	30661
457.922	30639
457.969	28289
457.991	32308
458.050	33482
458.060	34153
458.129	45808
458.130	46452
458.198	40390
458.211	38854
458.267	37398
458.292	29189
458.336	22254
458.372	18698
458.405	19078
458.453	24063
458.474	29804
458.533	50323
458.543	51280
458.611	65876
458.614	67059
458.680	53832
458.694	45778
458.749	37933
458.775	28614
458.818	16284
458.855	12014
458.887	8858
458.936	7845
458.955	7544
459.016	7482
459.024	7380
459.093	7173
459.097	7156
459.162	7308
459.177	7595
459.230	8682
459.257	9045
459.299	9382
459.338	10159
459.368	10601
459.418	10675
459.437	9959
459.499	8661
459.505	8731
459.574	8552
459.579	8484
459.643	7424
459.659	7361
459.711	7266
459.740	7271
459.780	7996
459.820	8926
459.849	9033
459.900	9763
459.917	9819
459.981	9300
459.986	9271
460.054	9238
460.061	9218
460.123	10170
460.141	10483
460.191	12062
460.222	13150
460.260	14434
460.302	16303
460.328	15008
460.382	13233
460.397	13644
460.462	12859
460.465	13019
460.534	16711
460.543	17335
460.602	36826
460.623	43898
460.671	71823
460.703	92440
460.739	73370
460.783	59502
460.808	55601
460.864	28060
460.876	27314
460.944	11527
460.945	11339
461.013	8876
461.024	8765
461.081	8943
461.104	9299
461.150	8728
461.184	8369
461.218	8517
461.264	8244
461.286	8013
461.345	7489
461.355	7566
461.423	8565
461.425	8588
461.491	9959
461.505	10250
461.559	18182
461.585	21873
461.628	37285
461.665	51204
461.696	53223
461.745	58787
461.764	48986
461.825	19925
461.832	20608
461.901	16362
461.905	15971
461.969	9972
461.985	9877
462.037	9641
462.065	9349
462.105	11020
462.145	12797
462.173	18075
462.225	27848
462.241	30927
462.305	43720
462.310	42138
462.378	19828
462.385	17240
462.446	15931
462.465	13703
462.514	10685
462.545	10426
462.582	9973
462.625	9648
462.650	9260
462.705	8865
462.718	9310
462.785	11366
462.786	11475
462.854	17740
462.865	18727
462.922	20940
462.945	22158
462.990	16125
463.025	11581
463.058	11398
463.104	9474
463.126	9184
463.184	8773
463.194	8776
463.262	9163
463.264	9203
463.330	10407
463.344	10557
463.398	11415
463.424	11735
463.466	11776
463.504	11956
463.533	11530
463.583	10630
463.601	11212
463.663	13526
463.669	14082
463.737	20111
463.743	20660
463.805	30566
463.823	33514
463.873	53717
463.903	65851
463.940	65158
463.982	65168
464.008	50495
464.062	20768
464.076	20394
464.142	12913
464.144	12858
464.211	10591
464.221	10616
464.279	11307
464.301	11625
464.347	12899
464.381	14085
464.414	16007
464.461	18353
464.482	18414
464.540	18587
464.550	17881
464.617	13251
464.620	13061
464.685	16115
464.699	16696
464.753	18355
464.779	19293
464.820	19948
464.859	20694
464.888	21326
464.938	22033
464.956	21726
465.018	20614
465.023	20318
465.091	16123
465.098	15671
465.158	15342
465.177	15123
465.226	15337
465.257	15551
465.293	16784
465.336	18212
465.361	20146
465.416	24484
465.428	26017
465.495	34004
465.496	34231
465.563	61759
465.575	66387
465.631	76707
465.654	81215
465.698	48325
465.734	21470
465.765	19975
465.813	15756
465.833	15899
465.893	16443
465.900	16179
465.968	14827
465.972	14708
466.035	15796
466.052	16085
466.102	16174
466.131	16194
466.170	16264
466.210	16150
466.237	16579
466.290	17584
466.304	17768
466.369	18326
466.372	18416
466.439	20248
466.449	20476
466.506	23161
466.528	24152
466.573	33600
466.607	40576
466.641	63566
466.687	95460
466.708	102971
466.766	123045
466.775	113322
466.842	39177
466.845	35605
466.909	28288
466.925	26271
466.977	23800
467.004	22750
467.044	23318
467.083	23927
467.111	25928
467.163	29566
467.178	30234
467.242	32765
467.245	32673
467.312	29518
467.321	29048
467.379	28436
467.400	28127
467.446	31215
467.480	33353
467.559	27239
467.638	24197
467.717	24748
467.796	27099
467.875	31373
467.955	28858
468.034	44610
468.113	105595
468.192	156136
468.271	35304
468.350	26996
468.429	32279
468.508	32548
468.588	26540
468.667	25085
468.746	27389
468.825	24880
468.904	20733
468.983	26023
469.062	43371
469.141	51323
469.220	21679
469.299	20319
469.378	23402
469.456	26486
469.535	23665
469.614	24091
469.693	25847
469.772	31980
469.851	50533
469.930	29907
470.009	23989
470.088	24362
470.166	30438
470.245	47803
470.324	59191
470.403	38199
470.482	27066
470.560	23267
470.639	24585
470.718	28661
470.797	23432
470.875	28157
470.954	42665
471.033	42915
471.111	18812
471.190	17522
471.269	17341
471.347	17744
471.426	19930
471.505	21856
471.583	23147
471.662	21453
471.740	19948
471.819	19450
471.898	19556
471.976	18899
472.055	20170
472.133	22486
472.212	30472
472.290	31899
472.369	19777
472.447	17528
472.526	16816
472.604	18613
472.683	20533
472.761	22728
472.839	20542
472.918	18714
472.996	20619
473.075	23075
473.153	21611
473.231	19060
473.310	24512
473.388	22594
473.466	20841
473.545	23150
473.623	32436
473.701	30754
473.780	20031
473.858	19867
473.936	21130
474.014	19630
474.093	24708
474.171	33563
474.249	53964
474.327	29667
474.405	18208
474.484	17047
474.562	19024
474.640	18066
474.718	21502
474.796	19786
474.874	17736
474.952	15490
475.030	17266
475.108	17124
475.187	20964
475.265	22403
475.343	35389
475.421	39706
475.499	18270
475.577	18156
475.655	27323
475.733	58362
475.811	106892
475.889	98474
475.966	55481
476.044	20348
476.122	28400
476.200	37960
476.278	27434
476.356	17723
476.434	20872
476.512	25077
476.590	37243
476.667	28223
476.745	17747
476.823	19291
476.901	18701
476.979	20164
477.056	18998
477.134	19613
477.212	21448
477.290	18014
477.367	17294
477.445	15739
477.523	16061
477.601	17258
477.678	16576
477.756	22377
477.834	26183
477.911	16562
477.989	17893
478.066	16640
478.144	22393
478.222	25978
478.299	45639
478.377	36852
478.454	17067
478.532	14999
478.609	17285
478.687	18618
478.764	15344
478.842	17317
478.919	19449
478.997	17759
479.074	15802
479.152	20280
479.229	28288
479.307	16535
479.384	12960
479.461	13055
479.539	16312
479.616	21165
479.694	16919
479.771	19072
479.848	20878
479.926	31202
480.003	29874
480.080	14822
480.157	14992
480.235	14415
480.312	15416
480.389	18968
480.467	34568
480.544	43365
480.621	20806
480.698	19142
480.775	22906
480.853	22018
480.930	17216
481.007	18178
481.084	22415
481.161	24634
481.238	21570
481.315	15286
481.392	14843
481.470	16243
481.547	17544
481.624	16206
481.701	15579
481.778	16801
481.855	20649
481.932	30252
482.009	59449
482.086	34161
482.163	19944
482.240	30652
482.317	59075
482.393	39829
482.470	18462
482.547	18425
482.624	17367
482.701	17667
482.778	18018
482.855	14405
482.932	14115
483.009	13888
483.085	17920
483.162	23234
483.239	21593
483.316	17306
483.393	17041
483.469	15422
483.546	19456
483.623	21310
483.699	15059
483.776	15805
483.853	19259
483.930	32260
484.006	81957
484.083	150880
484.160	57065
484.236	79339
484.313	61069
484.389	46732
484.466	40558
484.543	40141
484.619	42681
484.696	45097
484.772	46622
484.849	50358
484.925	38014
485.002	37599
485.078	40578
485.155	42196
485.231	35743
485.308	35268
485.384	37594
485.461	49390
485.537	87078
485.614	101812
485.690	38411
485.766	34536
485.843	38456
485.919	54045
485.995	56728
486.072	32646
486.148	31308
486.224	31219
486.301	33182
486.377	42778
486.453	42990
486.530	37072
486.606	47468
486.682	54102
486.758	70171
486.835	86613
486.911	64569
486.987	116699
487.063	111765
487.139	142814
487.215	95227
487.292	42521
487.368	36340
487.444	42217
487.520	54931
487.596	53599
487.672	82285
487.748	211293
487.824	324580
487.900	96498
487.976	45839
488.052	45359
488.128	55032
488.204	42365
488.280	35781
488.356	46773
488.432	100186
488.508	163340
488.584	46518
488.660	32439
488.736	31535
488.812	34830
488.888	46065
488.964	61301
489.039	137885
489.115	210723
489.191	112955
489.267	34586
489.343	33003
489.418	26871
489.494	27602
489.570	26142
489.646	27053
489.722	26942
489.797	30423
489.873	49413
489.949	122219
490.024	91906
490.100	27840
490.176	27694
490.251	35114
490.327	48440
490.403	28380
490.478	25219
490.554	21959
490.629	23055
490.705	22802
490.781	26793
490.856	24511
490.932	29308
491.007	29649
491.083	29425
491.158	26579
491.234	38636
491.309	88047
491.385	87283
491.460	27166
491.536	27229
491.611	24324
491.686	27016
491.762	39746
491.837	85148
491.913	149931
491.988	203013
492.063	260469
492.139	68800
492.214	40940
492.289	21352
492.365	22192
492.440	27859
492.515	28671
492.590	26525
492.666	20741
492.741	33059
492.816	54358
492.891	25612
492.967	20307
493.042	17369
493.117	19803
493.192	19781
493.267	34280
493.342	87947
493.418	120960
493.493	26363
493.568	17740
493.643	18590
493.718	26396
493.793	43306
493.868	48186
493.943	26462
494.018	21083
494.093	19374
494.168	19086
494.243	16946
494.318	16541
494.393	15625
494.468	17116
494.543	15312
494.618	22177
494.693	18910
494.768	18646
494.842	19295
494.917	16234
494.992	17081
495.067	15370
495.142	14654
495.217	17996
495.292	15413
495.366	20304
495.441	25633
495.516	33263
495.591	54461
495.665	178950
495.740	460471
495.815	157881
495.890	29798
495.964	25156
496.039	23952
496.114	22701
496.188	26648
496.263	27521
496.338	23061
496.412	27023
496.487	31391
496.561	32709
496.636	34786
496.710	25460
496.785	30975
496.860	35560
496.934	26158
497.009	26099
497.083	25860
497.158	28311
497.232	32774
497.307	41874
497.381	32491
497.455	39397
497.530	53877
497.604	34526
497.679	34806
497.753	59100
497.827	78645
497.902	65816
497.976	82771
498.050	200930
498.125	750655
498.199	739279
498.273	113064
498.348	82422
498.422	65463
498.496	61051
498.570	52543
498.645	37959
498.719	36195
498.793	44626
498.867	73894
498.941	112123
499.016	286917
499.090	853510
499.164	244342
499.238	29676
499.312	27208
499.386	35014
499.460	31912
499.534	27715
499.609	35062
499.683	57674
499.757	57086
499.831	136575
499.905	545219
499.979	493544
500.053	73893
500.127	71364
500.201	51280
500.275	29095
500.349	27273
500.422	32796
500.496	53688
500.570	127797
500.644	286740
500.718	585001
500.792	103544
500.866	27414
500.940	37671
501.013	29417
501.087	27833
501.161	54390
501.235	79579
501.309	176227
501.382	496782
501.456	412952
501.530	85764
501.603	163367
501.677	52415
501.751	23918
501.825	30899
501.898	63597
501.972	199536
502.046	111567
502.119	34272
502.193	82019
502.266	220561
502.340	93124
502.413	87578
502.487	185327
502.561	103381
502.634	29592
502.708	25882
502.781	23104
502.855	17587
502.928	16099
503.002	14579
503.075	15422
503.149	15796
503.222	16314
503.295	18080
503.369	23689
503.442	41563
503.516	139413
503.589	380447
503.662	231375
503.736	64818
503.809	169052
503.882	134441
503.956	192651
504.029	179426
504.102	126685
504.175	167268
504.249	55577
504.322	33430
504.395	28202
504.468	19268
504.542	20992
504.615	13996
504.688	13872
504.761	15254
504.834	20530
504.907	23627
504.980	42146
505.053	21062
505.127	27016
505.200	29093
505.273	32397
505.346	17732
505.419	15954
505.492	13203
505.565	12232
505.638	11235
505.711	12533
505.784	12180
505.857	11318
505.930	11788
506.003	11991
506.076	13514
506.149	19551
506.221	28413
506.294	26287
506.367	74399
506.440	261723
506.513	126796
506.586	29605
506.659	16627
506.731	14950
506.804	18770
506.877	30744
506.950	19045
507.022	14212
507.095	20799
507.168	25621
507.241	14552
507.313	13071
507.386	14841
507.459	23456
507.531	14598
507.604	13830
507.677	11633
507.749	11318
507.822	16739
507.894	34668
507.967	37041
508.040	22061
508.112	19010
508.185	18693
508.257	17783
508.330	26531
508.402	17576
508.475	17562
508.547	19560
508.620	19307
508.692	34384
508.765	20131
508.837	14271
508.909	13647
508.982	14291
509.054	17825
509.127	14810
509.199	13418
509.271	13114
509.344	12441
509.416	12470
509.488	13506
509.560	13126
509.633	15233
509.705	19691
509.777	17947
509.849	25143
509.922	18890
509.994	13154
510.066	13204
510.138	16060
510.210	28454
510.283	28151
510.355	22454
510.427	19607
510.499	18526
510.571	17813
510.643	20063
510.715	29658
510.787	28496
510.859	19114
510.931	24896
511.003	30491
511.076	26827
511.148	17112
511.219	18768
511.291	29674
511.363	38820
511.435	16575
511.507	15104
511.579	14744
511.651	14804
511.723	14987
511.795	14963
511.867	17002
511.939	21895
512.010	49176
512.082	37306
512.154	18574
512.226	17953
512.298	23821
512.369	37534
512.441	28802
512.513	30483
512.585	23860
512.656	22060
512.728	25247
512.800	19164
512.871	18594
512.943	19127
513.015	16200
513.086	18273
513.158	20473
513.230	22650
513.301	33378
513.373	39750
513.444	21177
513.516	16069
513.588	17918
513.659	19567
513.731	26842
513.802	25896
513.874	47040
513.945	89403
514.016	28224
514.088	18085
514.159	20505
514.231	27387
514.302	34757
514.374	24753
514.445	27401
514.516	52297
514.588	39605
514.659	25608
514.730	48453
514.802	35737
514.873	27598
514.944	25418
515.016	23138
515.087	27884
515.158	34387
515.229	49437
515.301	28698
515.372	35631
515.443	23190
515.514	19152
515.585	17643
515.656	18250
515.728	16559
515.799	17332
515.870	18029
515.941	19847
516.012	20395
516.083	25579
516.154	29953
516.225	38468
516.296	32475
516.367	28661
516.438	32643
516.509	47494
516.580	87800
516.651	255975
516.722	885180
516.793	386300
516.864	57831
516.935	54879
517.006	64922
517.077	113633
517.148	292307
517.219	951725
517.289	1597938
517.360	398894
517.431	111592
517.502	36425
517.573	32374
517.643	31053
517.714	31885
517.785	32562
517.856	33079
517.926	37283
517.997	41410
518.068	58628
518.138	95508
518.209	200189
518.280	650539
518.350	2210191
518.421	920017
518.492	90508
518.562	50641
518.633	50569
518.703	51045
518.774	83786
518.845	185324
518.915	188270
518.986	61152
519.056	48272
519.127	81149
519.197	127530
519.268	272863
519.338	176163
519.408	43151
519.479	48449
519.549	38263
519.620	24822
519.690	19704
519.760	20374
519.831	21346
519.901	22420
519.971	17171
520.042	20160
520.112	25565
520.182	25759
520.253	29874
520.323	19438
520.393	21426
520.463	26812
520.534	22551
520.604	35377
520.674	23492
520.744	25833
520.814	44402
520.885	52573
520.955	89078
521.025	309673
521.095	125019
521.165	21836
521.235	20600
521.305	18930
521.375	16291
521.445	19451
521.515	27242
521.585	30073
521.655	30914
521.725	24153
521.795	22257
521.865	18214
521.935	26318
522.005	25411
522.075	15204
522.145	17060
522.215	21727
522.285	32399
522.355	44510
522.424	84534
522.494	74990
522.564	38378
522.634	69053
522.704	185789
522.774	76510
522.843	19238
522.913	18698
522.983	25338
523.053	18831
523.122	20655
523.192	32844
523.262	102506
523.331	106517
523.401	21357
523.471	13894
523.540	16537
523.610	13273
523.680	13411
523.749	14509
523.819	18932
523.888	20673
523.958	13638
524.027	14316
524.097	16365
524.166	14782
524.236	18846
524.305	16563
524.375	15164
524.444	13404
524.514	15109
524.583	16196
524.653	21772
524.722	22613
524.791	16610
524.861	15099
524.930	15046
524.999	16021
525.069	23015
525.138	18843
525.207	24914
525.277	15797
525.346	16006
525.415	14869
525.484	16936
525.554	21237
525.623	20455
525.692	17169
525.761	18295
525.830	17633
525.900	22439
525.969	36169
526.038	67369
526.107	125149
526.176	348393
526.245	304487
526.314	99947
526.383	183954
526.452	278026
526.522	391478
526.591	447075
526.660	119434
526.729	58506
526.797	71325
526.867	167890
526.935	581506
527.004	971742
527.073	569528
527.142	50359
527.211	23722
527.280	24305
527.349	24911
527.418	15047
527.487	14891
527.555	13121
527.624	12635
527.693	12563
527.762	13051
527.831	12703
527.899	11384
527.968	13446
528.037	13990
528.106	17304
528.174	33101
528.243	29647
528.312	37559
528.380	53885
528.449	18215
528.518	11736
528.586	9805
528.655	10582
528.723	10369
528.792	11370
528.861	12971
528.929	11326
528.998	10051
529.066	9327
529.135	9065
529.203	10295
529.272	10151
529.340	10289
529.409	10804
529.477	11688
529.545	16188
529.614	18165
529.682	18766
529.751	24620
529.819	18792
529.887	16225
529.956	10591
530.024	12642
530.092	10929
530.161	14432
530.229	23966
530.297	15820
530.365	9540
530.434	10858
530.502	9626
530.570	10355
530.638	9326
530.707	12627
530.775	12447
530.843	10235
530.911	10072
530.979	9594
531.047	10116
531.115	10966
531.183	10111
531.252	10473
531.320	11328
531.388	11278
531.456	11066
531.524	10935
531.592	10439
531.660	11808
531.728	11363
531.796	10806
531.864	10031
531.932	11573
532.000	10615
532.067	12472
532.135	11645
532.203	14852
532.271	17751
532.339	28802
532.407	76588
532.475	48942
532.542	20156
532.610	24881
532.678	45010
532.746	128528
532.814	345523
532.881	93304
532.949	16088
533.017	13280
533.084	12416
533.152	11419
533.220	10989
533.287	15204
533.355	12562
533.423	10889
533.490	10796
533.558	10780
533.625	12595
533.693	15248
533.761	13370
533.828	14744
533.896	15525
533.963	27000
534.031	35101
534.098	46750
534.166	26101
534.233	13963
534.300	13507
534.368	15399
534.435	13225
534.503	13198
534.570	13393
534.637	15636
534.705	16662
534.772	25559
534.840	47106
534.907	148853
534.974	221639
535.041	31591
535.109	20961
535.176	14705
535.243	12735
535.310	14104
535.378	13918
535.445	11653
535.512	12530
535.579	11964
535.646	12062
535.714	13305
535.781	15988
535.848	16581
535.915	14969
535.982	14286
536.049	13855
536.116	15400
536.183	13777
536.250	14509
536.317	16111
536.384	18396
536.451	26871
536.518	30288
536.585	20865
536.652	24603
536.719	34259
536.786	31332
536.853	22704
536.920	33065
536.987	57439
537.053	61873
537.120	153234
537.187	161294
537.254	21337
537.321	14844
537.388	16597
537.454	14673
537.521	13969
537.588	14746
537.654	15230
537.721	19489
537.788	17782
537.855	15276
537.921	15017
537.988	16272
538.055	15670
538.121	16661
538.188	18850
538.254	28002
538.321	52782
538.388	37653
538.454	17574
538.521	16068
538.587	15078
538.654	14496
538.720	14553
538.787	15167
538.853	15350
538.920	20451
538.986	21696
539.053	17988
539.119	16676
539.185	17799
539.252	19157
539.318	30077
539.385	23209
539.451	21779
539.517	21153
539.583	28119
539.650	50127
539.716	126543
539.782	44388
539.849	18742
539.915	16249
539.981	18297
540.047	21236
540.114	19979
540.180	18474
540.246	21314
540.312	27957
540.378	52657
540.444	59286
540.510	53263
540.576	135470
540.643	55162
540.709	17008
540.775	16816
540.841	17305
540.907	22885
540.973	32561
541.039	29477
541.105	33749
541.171	20233
541.237	18650
541.303	19090
541.369	22071
541.435	28340
541.500	45153
541.566	35005
541.632	17128
541.698	14723
541.764	14911
541.830	15238
541.896	15349
541.961	15469
542.027	16360
542.093	16695
542.159	18478
542.224	21459
542.290	28072
542.356	44928
542.421	55440
542.487	24769
542.553	18087
542.618	19973
542.684	17118
542.750	19244
542.815	24599
542.881	43377
542.947	112064
543.012	100403
543.078	17319
543.143	15317
543.209	16971
543.274	20561
543.340	23657
543.405	43251
543.471	78801
543.536	22475
543.602	16302
543.667	17548
543.732	15774
543.798	15439
543.863	15976
543.928	15238
543.994	13802
544.059	16094
544.124	15560
544.190	15564
544.255	15853
544.320	17290
544.386	18429
544.451	24031
544.516	31137
544.581	34284
544.646	70795
544.712	123943
544.777	31429
544.842	21977
544.907	22363
544.972	20351
545.037	19134
545.102	21284
545.168	21454
545.233	21254
545.298	22751
545.363	29163
545.428	33448
545.493	48317
545.558	99891
545.623	52181
545.688	22648
545.753	21819
545.818	20934
545.883	22279
545.947	22976
546.012	23964
546.077	25407
546.142	24483
546.207	25656
546.272	30979
546.337	33791
546.401	27563
546.466	25606
546.531	25104
546.596	28374
546.661	28449
546.725	26884
546.790	26166
546.855	26587
546.919	28765
546.984	31081
547.049	34634
547.113	39826
547.178	41353
547.243	44358
547.307	50920
547.372	56720
547.436	62843
547.501	54137
547.565	59110
547.630	58301
547.695	60575
547.759	60835
547.823	59354
547.888	52358
547.952	53306
548.017	54358
548.081	63868
548.146	70205
548.210	66455
548.274	59513
548.339	58448
548.403	53738
548.468	50662
548.532	50922
548.596	52189
548.660	53075
548.725	58115
548.789	66288
548.853	68570
548.917	59718
548.982	65427
549.046	65727
549.110	48371
549.174	47122
549.238	53832
549.303	56526
549.367	59816
549.431	56749
549.495	53689
549.559	53960
549.623	61374
549.687	71734
549.751	78300
549.815	80000
549.879	79440
549.943	73539
550.007	76972
550.071	77936
550.135	78364
550.199	71114
550.263	67406
550.327	65436
550.391	76176
550.455	74230
550.519	74420
550.582	78918
550.646	92440
550.710	98960
550.774	87349
550.838	87100
550.901	88266
550.965	93403
551.029	98908
551.093	110110
551.156	126369
551.220	166195
551.284	203675
551.347	137670
551.411	147969
551.475	168449
551.538	99808
551.602	87901
551.666	81809
551.729	76305
551.793	75651
551.856	74763
551.920	71881
551.983	72287
552.047	72909
552.110	72113
552.174	72586
552.237	73345
552.301	69273
552.364	66423
552.428	65237
552.491	65575
552.554	69939
552.618	69106
552.681	75588
552.745	78354
552.808	97985
552.871	129555
552.934	92831
552.998	73677
553.061	69985
553.124	65798
553.187	64815
553.251	65869
553.314	69405
553.377	69131
553.440	78637
553.503	96865
553.567	130396
553.630	79683
553.693	68465
553.756	70322
553.819	67757
553.882	65297
553.945	65695
554.008	64788
554.071	65010
554.134	64830
554.197	62388
554.260	60208
554.323	63078
554.386	62755
554.449	66849
554.512	64150
554.575	62855
554.638	62829
554.701	61760
554.764	61961
554.827	58463
554.889	55699
554.952	52864
555.015	52705
555.078	53255
555.141	54471
555.203	52199
555.266	52649
555.329	54320
555.391	51944
555.454	52044
555.517	51768
555.580	47985
555.642	45305
555.705	46007
555.768	45102
555.830	46070
555.893	42553
555.955	41661
556.018	41093
556.080	42245
556.143	42363
556.206	43053
556.268	42748
556.330	44196
556.393	42905
556.455	42781
556.518	48820
556.580	52091
556.643	37761
556.705	36416
556.767	35384
556.830	37496
556.892	39057
556.955	50036
557.017	44108
557.079	35842
557.142	36280
557.204	40226
557.266	56221
557.328	56364
557.391	32240
557.453	30845
557.515	30735
557.577	34241
557.639	37288
557.701	30160
557.764	29119
557.826	30112
557.888	32713
557.950	35629
558.012	40971
558.074	58293
558.136	91684
558.198	230936
558.260	111598
558.322	35417
558.384	34061
558.446	36622
558.508	43371
558.570	59845
558.632	89696
558.694	158939
558.756	204219
558.818	391731
558.880	1069948
558.942	465078
559.003	226956
559.065	146278
559.127	46721
559.189	52107
559.251	72420
559.312	118217
559.374	207958
559.436	619255
559.498	443930
559.559	61140
559.621	53416
559.683	77222
559.744	124120
559.806	273121
559.868	528469
559.929	131329
559.991	63775
560.052	88801
560.114	213081
560.176	193308
560.237	115036
560.299	227630
560.360	70314
560.422	26133
560.483	23992
560.545	23050
560.606	22025
560.667	22567
560.729	21366
560.790	20474
560.852	20914
560.913	21793
560.974	19848
561.036	20167
561.097	20995
561.158	20230
561.220	21250
561.281	21482
561.342	22159
561.403	28173
561.465	33773
561.526	56704
561.587	89962
561.648	32506
561.709	21351
561.771	20222
561.832	19727
561.893	20683
561.954	19601
562.015	19270
562.076	19105
562.137	19606
562.198	19076
562.259	20136
562.320	20921
562.381	22096
562.442	28569
562.503	27557
562.564	19432
562.625	19250
562.686	19400
562.747	21652
562.808	20244
562.869	19962
562.930	23230
562.991	22034
563.051	19322
563.112	20331
563.173	19132
563.234	18141
563.294	18608
563.355	18808
563.416	18911
563.477	18302
563.537	19677
563.598	21098
563.659	19868
563.720	20395
563.780	19442
563.841	21381
563.901	18553
563.962	18690
564.023	18846
564.083	19919
564.144	20119
564.204	21479
564.265	20885
564.325	24869
564.386	36719
564.446	43040
564.507	19117
564.567	19158
564.628	18224
564.688	18617
564.749	19377
564.809	21015
564.869	24782
564.930	21016
564.990	18015
565.050	17639
565.111	18127
565.171	17192
565.231	17939
565.292	17807
565.352	18108
565.412	18799
565.472	19390
565.532	20140
565.593	19499
565.653	18563
565.713	18651
565.773	21836
565.833	23695
565.893	29464
565.953	21309
566.013	19409
566.074	21466
566.134	26108
566.194	36558
566.254	41918
566.314	28607
566.374	20932
566.434	19764
566.494	19418
566.554	19545
566.614	20251
566.673	19673
566.733	22229
566.793	22748
566.853	23697
566.913	21953
566.973	23908
567.033	23820
567.092	26110
567.152	24415
567.212	24632
567.272	24456
567.331	25735
567.391	26097
567.451	27404
567.511	33030
567.570	36007
567.630	25306
567.690	23151
567.749	23197
567.809	24092
567.868	26396
567.928	29578
567.988	34468
568.047	39147
568.107	47598
568.166	62305
568.226	88141
568.285	131817
568.345	112494
568.404	82294
568.464	66908
568.523	60885
568.582	64297
568.642	77171
568.701	98728
568.761	134727
568.820	211692
568.879	225029
568.939	155499
568.998	106874
569.057	77469
569.116	59901
569.176	48272
569.235	42074
569.294	35555
569.353	32278
569.413	29457
569.472	29966
569.531	25625
569.590	24106
569.649	23748
569.708	23186
569.767	22734
569.827	26460
569.886	25142
569.945	20790
570.004	21438
570.063	20363
570.122	22036
570.181	23682
570.240	23113
570.299	24853
570.358	24529
570.417	20883
570.475	18653
570.534	19756
570.593	21003
570.652	20617
570.711	21598
570.770	21014
570.829	22246
570.887	20866
570.946	22585
571.005	18926
571.064	18927
571.122	21575
571.181	22153
571.240	19827
571.299	17329
571.357	18910
571.416	19219
571.475	20791
571.533	23063
571.592	18382
571.650	19596
571.709	17653
571.768	18049
571.826	18556
571.885	17301
571.943	16447
572.002	16045
572.060	18064
572.119	15038
572.177	15703
572.236	15368
572.294	14991
572.352	14386
572.411	16273
572.469	15090
572.528	15079
572.586	16449
572.644	17646
572.703	23695
572.761	19261
572.819	14882
572.877	15344
572.936	14934
572.994	14721
573.052	14116
573.110	15669
573.169	15847
573.227	15561
573.285	14608
573.343	14612
573.401	14746
573.459	14979
573.517	13831
573.576	15292
573.634	15144
573.692	16364
573.750	16008
573.808	15922
573.866	15515
573.924	18941
573.982	19371
574.040	16839
574.098	14585
574.155	14618
574.213	13072
574.271	13782
574.329	15763
574.387	14294
574.445	13073
574.503	13654
574.560	12776
574.618	13400
574.676	11916
574.734	14240
574.792	12288
574.849	13711
574.907	12698
574.965	13182
575.022	12251
575.080	12185
575.138	12596
575.195	14098
575.253	13778
575.311	15375
575.368	13653
575.426	12014
575.483	12270
575.541	12900
575.598	13538
575.656	13369
575.713	13262
575.771	12956
575.828	12577
575.886	13094
575.943	13111
576.001	14031
576.058	13805
576.115	15154
576.173	16367
576.230	19733
576.287	20159
576.345	18718
576.402	15071
576.459	15146
576.517	15124
576.574	15564
576.631	17004
576.688	14739
576.746	13154
576.803	13592
576.860	12869
576.917	14034
576.974	13659
577.031	14139
577.089	13649
577.146	13749
577.203	14266
577.260	15083
577.317	15610
577.374	17386
577.431	16325
577.488	15233
577.545	14084
577.602	13608
577.659	13121
577.716	14790
577.773	13107
577.830	13488
577.886	12621
577.943	12936
578.000	12735
578.057	14211
578.114	13767
578.171	13089
578.227	14722
578.284	13949
578.341	14022
578.398	14297
578.454	15290
578.511	16739
578.568	18648
578.625	17347
578.681	14447
578.738	13088
578.794	12605
578.851	13684
578.908	13221
578.964	14551
579.021	14530
579.077	14378
579.134	13992
579.190	13944
579.247	12754
579.303	13251
579.360	12632
579.416	13671
579.473	13088
579.529	12971
579.586	12294
579.642	13288
579.698	13230
579.755	14468
579.811	13616
579.867	13778
579.924	13399
579.980	14131
580.036	13405
580.093	14264
580.149	14402
580.205	15313
580.261	15753
580.317	14618
580.374	15050
580.430	17585
580.486	17641
580.542	16582
580.598	14511
580.619	14698
580.654	15040
580.692	14981
580.710	14975
580.765	14756
580.767	14762
580.823	14872
580.838	14737
580.879	14448
580.911	14727
580.935	14942
580.984	14415
580.991	14356
581.047	13968
581.057	13932
581.103	13835
581.130	14253
581.159	14736
581.203	15626
581.215	15859
581.270	16122
581.276	16007
581.326	15135
581.349	15070
581.382	14927
581.422	15109
581.438	15216
581.494	15092
581.494	15091
581.550	16007
581.567	16058
581.606	16148
581.640	15911
581.661	15777
581.713	15069
581.717	15017
581.773	14504
581.786	14711
581.829	15462
581.859	15080
581.885	14749
581.932	15918
581.940	16138
581.996	15124
582.004	15124
582.052	15202
582.077	15208
582.107	15189
582.150	15546
582.163	15695
582.219	15498
582.223	15556
582.274	16116
582.296	16093
582.330	16172
582.368	16861
582.386	17145
582.441	15535
582.441	15536
582.497	15643
582.514	15608
582.552	15458
582.587	15877
582.608	16200
582.659	16604
582.663	16636
582.719	15795
582.732	15896
582.774	16247
582.805	16175
582.830	16112
582.877	16896
582.885	17019
582.941	15861
582.950	15910
582.996	16131
583.023	16400
583.052	16778
583.095	17005
583.107	17042
583.162	17524
583.168	17598
583.218	18409
583.240	18078
583.273	17495
583.313	17067
583.328	16954
583.384	17422
583.385	17403
583.439	16649
583.458	16733
583.494	16957
583.531	16488
583.549	16247
583.603	17120
583.605	17143
583.660	17352
583.676	17253
583.715	17180
583.748	17614
583.770	17844
583.820	17367
583.825	17309
583.881	17960
583.893	17790
583.936	17543
583.965	17732
583.991	17653
584.038	17174
584.046	17144
584.101	18500
584.110	18369
584.156	17594
584.183	17872
584.211	18285
584.255	18119
584.266	17978
584.321	17604
584.328	17622
584.376	18026
584.400	18137
584.431	18442
584.472	18484
584.486	18486
584.541	19412
584.545	19402
584.596	18831
584.617	19165
584.651	19968
584.689	20063
584.706	20106
584.761	20004
584.762	20005
584.816	20499
584.834	20830
584.871	21218
584.906	21010
584.926	20937
584.978	22205
584.980	22262
585.035	22028
585.051	22350
585.090	23491
585.123	24217
585.145	24650
585.195	25886
585.200	25998
585.254	27378
585.267	27843
585.309	30073
585.340	33075
585.364	35526
585.412	39654
585.419	40064
585.473	45042
585.484	47317
585.528	58203
585.556	66998
585.583	77400
585.628	96799
585.637	104523
585.692	176767
585.700	199382
585.747	365627
585.772	366413
585.801	295945
585.845	170280
585.856	135767
585.910	54507
585.917	46080
585.965	38409
585.989	34934
586.019	33451
586.061	32510
586.074	32392
586.128	31454
586.133	31505
586.183	32788
586.205	32950
586.237	33571
586.277	34502
586.292	34475
586.346	33366
586.349	33395
586.401	34739
586.421	35140
586.455	35774
586.493	36527
586.509	37291
586.564	40279
586.565	40502
586.618	53709
586.637	56429
586.672	60857
586.709	55851
586.727	49967
586.781	42854
586.781	42869
586.835	41821
586.853	41449
586.889	40276
586.925	39193
586.944	39186
586.996	39872
586.998	39918
587.052	41671
587.068	41877
587.106	43171
587.140	44619
587.161	44840
587.212	44768
587.215	44836
587.269	46809
587.284	47221
587.323	48716
587.356	49728
587.377	50338
587.427	51826
587.431	51968
587.485	53832
587.499	54301
587.539	56399
587.571	58304
587.593	59675
587.643	62620
587.648	62953
587.702	66221
587.715	67012
587.755	70055
587.786	72369
587.810	74035
587.858	77295
587.864	77883
587.917	83795
587.930	85207
587.971	91280
588.001	96018
588.025	99956
588.073	107029
588.079	108177
588.133	118737
588.145	121214
588.187	132585
588.217	141097
588.241	149355
588.288	166418
588.295	169209
588.348	194575
588.360	200021
588.402	224446
588.431	243519
588.456	262430
588.503	303113
588.510	310157
588.564	374552
588.575	389971
588.617	460811
588.646	516291
588.671	577671
588.718	705749
588.725	733051
588.778	964678
588.789	1018226
588.832	1335145
588.861	1566851
588.886	1810488
588.932	2224204
588.939	2239163
588.993	2142348
589.004	2155607
589.047	2187718
589.075	2166534
589.100	2087109
589.147	1821340
589.154	1752281
589.207	1243313
589.218	1147307
589.261	976762
589.290	875327
589.314	858329
589.361	844194
589.368	858553
589.421	999411
589.433	1036337
589.475	1335829
589.504	1560236
589.528	1786908
589.576	2126561
589.582	2121424
589.635	2040466
589.647	2010162
589.689	1786007
589.718	1587820
589.742	1316487
589.790	814012
589.795	786118
589.849	540699
589.861	486286
589.902	404162
589.932	345297
589.955	318308
590.004	260901
590.009	257026
590.062	215205
590.075	205053
590.115	185768
590.146	170955
590.168	163539
590.218	147017
590.222	146240
590.275	134240
590.289	131090
590.328	124511
590.360	118695
590.381	115673
590.431	108338
590.435	107958
590.488	99422
590.503	96920
590.541	93785
590.574	91214
590.594	90100
590.645	86370
590.647	86293
590.700	81462
590.716	79912
590.753	78168
590.787	76286
590.806	75797
590.859	74332
590.859	74387
590.912	70865
590.930	69749
590.965	68509
591.001	67120
591.018	67032
591.071	66250
591.072	66149
591.124	65512
591.143	65062
591.177	63694
591.214	62206
591.230	62287
591.283	62309
591.285	62220
591.336	62013
591.356	61824
591.389	61751
591.427	61409
591.442	60903
591.495	58595
591.498	58338
591.547	56409
591.569	55459
591.600	55127
591.640	54513
591.653	54412
591.706	53654
591.711	53495
591.759	53480
591.782	53352
591.811	54226
591.853	55505
591.864	55737
591.917	56075
591.924	56061
591.969	54048
591.995	52746
592.022	52493
592.066	51954
592.075	52198
592.127	53126
592.137	53265
592.180	55598
592.208	56949
592.233	57011
592.279	56607
592.285	56263
592.338	52695
592.350	51800
592.390	51717
592.421	51502
592.443	51193
592.491	50242
592.495	50357
592.548	50811
592.562	50855
592.600	50435
592.633	49913
592.653	50173
592.704	50364
592.705	50636
592.775	49738
592.846	50044
592.916	50865
592.987	52022
593.058	52977
593.128	49665
593.199	47835
593.270	48460
593.341	47540
593.411	48123
593.482	50151
593.553	48002
593.623	48496
593.694	48841
593.764	50193
593.835	50878
593.906	48313
593.976	48775
594.047	50005
594.117	51986
594.188	54829
594.258	53312
594.329	50401
594.399	50130
594.470	50331
594.540	50329
594.611	51064
594.681	51927
594.751	51890
594.822	53846
594.892	55262
594.963	57463
595.033	56572
595.103	57859
595.174	57772
595.244	61355
595.314	72422
595.384	71237
595.455	59645
595.525	60363
595.595	62180
595.665	63642
595.736	61383
595.806	62564
595.876	63058
595.946	63342
596.016	62270
596.087	65483
596.157	66891
596.227	65521
596.297	66944
596.367	70905
596.437	75088
596.507	78886
596.577	84309
596.647	84666
596.717	77234
596.787	81112
596.857	79602
596.927	79654
596.997	80303
597.067	80256
597.137	80696
597.207	82560
597.277	82249
597.347	82939
597.417	79149
597.487	77556
597.557	79605
597.626	81240
597.696	82136
597.766	85186
597.836	88388
597.906	87053
597.975	74844
598.045	72905
598.115	74511
598.185	76531
598.254	81951
598.324	89710
598.394	95343
598.464	98785
598.533	95050
598.603	90287
598.672	85219
598.742	85518
598.812	85048
598.881	86218
598.951	87026
599.020	87382
599.090	88295
599.159	90316
599.229	90411
599.299	86738
599.368	85433
599.437	89250
599.507	85647
599.576	80834
599.646	80097
599.715	78602
599.785	77591
599.854	76834
599.924	77053
599.993	77549
600.062	74095
600.132	75307
600.201	74513
600.270	83751
600.340	95212
600.409	94536
600.478	92099
600.547	92781
600.617	94274
600.686	83125
600.755	71186
600.824	66792
600.894	64960
600.963	62562
601.032	62778
601.101	61464
601.170	60226
601.239	57974
601.308	57374
601.378	60888
601.447	58378
601.516	56787
601.585	57862
601.654	60681
601.723	63441
601.792	59197
601.861	60542
601.930	62876
601.999	66779
602.068	67568
602.137	64761
602.206	70265
602.275	66728
602.343	68419
602.412	72622
602.481	69117
602.550	66335
602.619	67337
602.688	67711
602.756	69361
602.825	70093
602.894	69337
602.963	71311
603.032	71304
603.100	72853
603.169	72176
603.238	73051
603.307	73018
603.375	72512
603.444	72712
603.513	74967
603.581	75919
603.650	76408
603.719	77695
603.787	75391
603.856	79211
603.924	79628
603.993	82998
604.061	84779
604.130	87796
604.198	89899
604.267	90393
604.335	92459
604.404	93481
604.472	93647
604.541	96536
604.609	98067
604.678	97338
604.746	97842
604.815	99422
604.883	101073
604.951	102162
605.020	103272
605.088	103626
605.156	106053
605.225	108303
605.293	109089
605.361	107498
605.429	109130
605.498	111142
605.566	112339
605.634	117249
605.702	119628
605.771	126045
605.839	126488
605.907	127481
605.975	123625
606.043	118720
606.111	117873
606.180	117320
606.248	118725
606.316	117382
606.384	118368
606.452	117881
606.520	122041
606.588	129044
606.656	123660
606.724	122294
606.792	117628
606.860	110832
606.928	99320
606.996	92120
607.064	89936
607.132	88386
607.200	91263
607.267	97535
607.335	97888
607.403	101216
607.471	102153
607.539	98633
607.607	97787
607.674	95932
607.742	86892
607.810	87422
607.878	89011
607.946	87059
608.013	88348
608.081	92623
608.149	94458
608.216	93574
608.284	98109
608.352	100627
608.419	100637
608.487	101387
608.555	102439
608.622	98159
608.690	98898
608.757	106690
608.825	115495
608.893	116500
608.960	115627
609.028	112982
609.095	109300
609.163	111238
609.230	101060
609.298	90888
609.365	87410
609.432	91782
609.500	98629
609.567	109813
609.635	123876
609.702	140843
609.769	143949
609.837	135538
609.904	105412
609.971	96463
610.039	102563
610.106	117261
610.173	169132
610.241	348924
610.308	705539
610.375	429157
610.442	209750
610.509	114354
610.577	102487
610.644	98934
610.711	99007
610.778	102341
610.845	105195
610.912	108195
610.980	115454
611.047	120798
611.114	119885
611.181	114613
611.248	110259
611.315	112535
611.382	116336
611.449	121269
611.516	125754
611.583	126072
611.650	124530
611.717	125458
611.784	127047
611.851	132060
611.918	139425
611.984	153436
612.051	185779
612.118	278787
612.185	599810
612.252	1322057
612.319	478654
612.386	180177
612.452	160514
612.519	148970
612.586	142997
612.653	146204
612.719	144886
612.786	148375
612.853	138620
612.919	128689
612.986	128296
613.053	128265
613.120	122116
613.186	113821
613.253	110060
613.319	110885
613.386	112278
613.453	113524
613.519	116506
613.586	117799
613.652	123711
613.719	131601
613.785	125910
613.852	120346
613.918	116782
613.985	114525
614.051	118383
614.118	127661
614.184	143569
614.250	125429
614.317	116063
614.383	116558
614.449	114458
614.516	117536
614.582	116818
614.648	117498
614.715	115534
614.781	115370
614.847	112592
614.914	113957
614.980	113228
615.046	110696
615.112	110044
615.179	113726
615.245	115046
615.311	118450
615.377	126142
615.443	147202
615.509	137442
615.575	123232
615.642	124603
615.708	122309
615.774	127387
615.840	135088
615.906	146418
615.972	167012
616.038	227247
616.104	391143
616.170	735053
616.236	1682117
616.302	852101
616.368	238544
616.434	193235
616.500	147615
616.565	144402
616.631	162203
616.697	183671
616.763	153755
616.829	168725
616.895	265293
616.961	423687
617.026	321905
617.092	148966
617.158	123138
617.224	118502
617.289	117322
617.355	108644
617.421	105300
617.487	105524
617.552	102502
617.618	98828
617.684	98861
617.749	99677
617.815	98644
617.880	93889
617.946	92463
618.012	94005
618.077	96731
618.143	96973
618.208	93366
618.274	96141
618.339	102057
618.405	100529
618.470	85479
618.536	85332
618.601	86826
618.667	85814
618.732	80455
618.798	76593
618.863	75863
618.928	74481
618.994	75523
619.059	75879
619.124	80644
619.190	89674
619.255	77101
619.320	75737
619.386	75103
619.451	73908
619.516	74319
619.581	71339
619.647	73114
619.712	76847
619.777	73765
619.842	71028
619.907	73537
619.972	75492
620.038	76142
620.103	73546
620.168	73456
620.233	72194
620.298	73132
620.363	73167
620.428	74219
620.493	75381
620.558	79208
620.623	77274
620.688	78825
620.753	78018
620.818	78490
620.883	78692
620.948	80711
621.013	79355
621.078	79767
621.143	78179
621.207	80153
621.272	78451
621.337	80019
621.402	79450
621.467	80477
621.532	84240
621.596	83601
621.661	81371
621.726	75977
621.791	74094
621.855	76460
621.920	77342
621.985	78490
622.049	80544
622.114	81295
622.179	81237
622.243	80159
622.308	83116
622.373	84202
622.437	85682
622.502	83168
622.566	80889
622.631	78163
622.695	79419
622.760	81071
622.824	80844
622.889	79815
622.953	83046
623.018	86356
623.082	103615
623.147	93872
623.211	85100
623.276	83670
623.340	83342
623.404	77729
623.469	77191
623.533	77828
623.597	78066
623.662	75640
623.726	75382
623.790	69612
623.854	66300
623.919	67435
623.983	67548
624.047	68082
624.111	69604
624.176	69255
624.240	71832
624.304	75355
624.368	75754
624.432	71127
624.496	70641
624.560	74017
624.625	78463
624.689	80720
624.753	74939
624.817	76588
624.881	72496
624.945	72567
625.009	64720
625.073	65998
625.137	66765
625.201	72509
625.265	79063
625.329	74876
625.393	68335
625.456	71175
625.520	70494
625.584	72656
625.648	75761
625.712	80734
625.776	95210
625.839	131604
625.903	126527
625.967	70830
626.031	62745
626.095	79620
626.158	95099
626.222	65584
626.286	52985
626.349	50273
626.413	48521
626.477	47115
626.540	48121
626.604	46864
626.668	47030
626.731	45270
626.795	44511
626.858	45827
626.922	44551
626.986	45424
627.049	43765
627.113	44401
627.176	45203
627.240	44564
627.303	42718
627.366	42715
627.430	43294
627.493	45348
627.557	42704
627.620	42956
627.684	43810
627.747	44903
627.810	44660
627.874	41123
627.937	38029
628.000	37640
628.064	38734
628.127	37594
628.190	35394
628.253	33548
628.317	34146
628.380	32492
628.443	31245
628.506	31777
628.569	32024
628.632	29708
628.696	28362
628.759	28267
628.822	27881
628.885	27455
628.948	27292
629.011	27487
629.074	26745
629.137	27068
629.200	25289
629.263	26416
629.326	27379
629.389	26181
629.452	25044
629.515	25532
629.578	24727
629.641	24861
629.704	25501
629.767	26101
629.830	26066
629.892	24078
629.955	24041
630.018	24396
630.081	24980
630.144	27404
630.207	28358
630.269	26244
630.332	24856
630.395	26205
630.458	23633
630.520	22765
630.583	23311
630.646	21202
630.708	22574
630.771	22695
630.834	22525
630.896	22492
630.959	22683
631.021	21676
631.084	22730
631.146	22437
631.209	23552
631.272	24124
631.334	21849
631.397	22883
631.459	22257
631.522	23350
631.584	23631
631.646	23897
631.709	25039
631.771	26938
631.834	29850
631.896	25852
631.958	23423
632.021	21722
632.083	20912
632.145	21657
632.208	21918
632.270	23071
632.332	20999
632.395	20734
632.457	21093
632.519	20909
632.581	20655
632.643	19467
632.706	20983
632.768	20864
632.830	19574
632.892	19650
632.954	20773
633.016	20907
633.078	21032
633.141	20352
633.203	20416
633.265	20148
633.327	20464
633.389	20701
633.451	20359
633.513	22197
633.575	23971
633.637	23674
633.698	24293
633.760	23053
633.822	20201
633.884	22303
633.946	21778
634.008	22539
634.070	22667
634.132	22354
634.193	25048
634.255	26102
634.317	27574
634.379	27726
634.441	25857
634.502	24902
634.564	22650
634.626	21061
634.687	20325
634.749	19874
634.811	19508
634.873	18272
634.934	18093
634.996	18712
635.057	18467
635.119	19385
635.181	19188
635.242	19331
635.304	18718
635.365	19543
635.427	19429
635.488	19831
635.550	19000
635.611	18414
635.673	18803
635.734	20051
635.796	20792
635.857	21517
635.918	23075
635.980	23837
636.041	24648
636.102	26383
636.164	27922
636.225	27450
636.286	25230
636.348	23173
636.409	21236
636.470	19707
636.531	20199
636.593	18535
636.654	19570
636.715	18372
636.776	16783
636.838	18098
636.899	16308
636.960	16856
637.021	16753
637.082	16612
637.143	16883
637.204	16415
637.265	14695
637.326	16300
637.387	16100
637.448	16037
637.509	15356
637.570	16241
637.631	15840
637.692	15678
637.753	15089
637.814	15164
637.875	14959
637.936	15566
637.997	14628
638.058	15576
638.119	15955
638.179	14809
638.240	15203
638.301	15012
638.362	15164
638.423	15107
638.483	14388
638.544	14125
638.605	14030
638.666	14650
638.726	13296
638.787	14677
638.848	13815
638.908	14632
638.969	14400
639.030	13625
639.090	12859
639.151	13713
639.211	14016
639.272	15218
639.332	18537
639.393	25430
639.453	15576
639.514	15032
639.574	15402
639.635	13980
639.695	12972
639.756	13537
639.816	13041
639.877	14100
639.937	15158
639.997	23605
640.058	25060
640.118	14528
640.178	12160
640.239	12713
640.299	10788
640.359	12981
640.420	12430
640.480	14134
640.540	14260
640.600	15630
640.661	15887
640.721	14065
640.781	15919
640.841	17322
640.901	15285
640.961	13223
641.021	12563
641.082	13946
641.142	16552
641.202	19989
641.262	13378
641.322	12063
641.382	11771
641.442	12849
641.502	11846
641.562	11994
641.622	12233
641.682	12426
641.742	12794
641.802	14723
641.861	13052
641.921	12603
641.981	13486
642.041	13302
642.101	13400
642.161	16240
642.221	12167
642.280	11735
642.340	11358
642.400	11054
642.460	12348
642.519	11757
642.579	11819
642.639	12096
642.698	10901
642.758	12850
642.818	11608
642.877	11644
642.937	12193
642.997	12875
643.056	13579
643.116	18243
643.175	12747
643.235	12720
643.294	12574
643.354	12265
643.414	13658
643.473	15117
643.532	17276
643.592	22398
643.651	30805
643.711	51488
643.770	89794
643.830	178970
643.889	435006
643.948	816209
644.008	149221
644.067	31780
644.126	22039
644.186	17964
644.245	16040
644.304	14056
644.363	12984
644.423	12835
644.482	12255
644.541	12180
644.600	12548
644.659	14085
644.719	14843
644.778	20494
644.837	28256
644.896	47291
644.955	96739
645.014	204937
645.073	55209
645.132	17404
645.191	14649
645.250	12576
645.309	13030
645.368	13327
645.427	14391
645.486	17050
645.545	27433
645.604	40774
645.663	14837
645.722	11860
645.781	12440
645.840	14231
645.898	15334
645.957	20377
646.016	28516
646.075	46121
646.134	82628
646.192	155871
646.251	433608
646.310	547022
646.369	66795
646.427	23678
646.486	19865
646.545	15640
646.603	12361
646.662	11697
646.721	11656
646.779	11425
646.838	10029
646.896	12462
646.955	14752
647.014	17484
647.072	28519
647.131	50711
647.189	135459
647.248	54376
647.306	12458
647.365	9844
647.423	9158
647.481	9082
647.540	7952
647.598	9773
647.657	8741
647.715	8003
647.773	8446
647.832	8110
647.890	7016
647.948	8133
648.007	8651
648.065	8405
648.123	7777
648.181	8401
648.240	8360
648.298	8900
648.356	7968
648.414	7572
648.472	7984
648.531	8174
648.589	7296
648.647	7136
648.705	7249
648.763	7771
648.821	7701
648.879	8458
648.937	9120
648.995	9840
649.053	11106
649.111	14674
649.169	21340
649.227	35456
649.285	62830
649.343	128164
649.401	371625
649.459	150397
649.516	37180
649.574	22336
649.632	15766
649.690	19869
649.748	21539
649.806	16331
649.863	22573
649.921	36361
649.979	93222
650.037	54174
650.094	9936
650.152	8280
650.210	7922
650.268	6646
650.325	7051
650.383	6629
650.440	7239
650.498	6477
650.556	5509
650.613	5781
650.671	5756
650.728	6400
650.786	5607
650.843	6652
650.901	8198
650.958	6148
651.016	5816
651.073	5028
651.131	5493
651.188	5371
651.246	5926
651.303	5868
651.360	5768
651.418	4695
651.475	5317
651.532	5465
651.590	5076
651.647	5514
651.704	4916
651.762	5589
651.819	5287
651.876	5695
651.933	5770
651.990	5092
652.048	4569
652.105	5949
652.162	5001
652.219	4290
652.276	5459
652.333	4289
652.390	5354
652.448	4582
652.505	5267
652.562	5128
652.619	4926
652.676	5350
652.733	6016
652.790	6466
652.847	3876
652.904	5570
652.961	4084
653.017	4768
653.074	4790
653.131	4470
653.188	4642
653.245	4202
653.302	4995
653.359	4424
653.415	4530
653.472	4626
653.529	4647
653.586	4405
653.642	4427
653.699	4114
653.756	4523
653.813	4825
653.869	4383
653.926	4096
653.983	4261
654.039	4169
654.096	5019
654.152	4625
654.209	3565
654.266	4549
654.322	4161
654.379	4849
654.435	5133
654.492	4683
654.548	5082
654.605	7413
654.661	10563
654.717	5890
654.774	4372
654.830	4921
654.887	5504
654.943	5054
655.000	4471
655.056	4989
655.112	4066
655.168	4170
655.225	4705
655.281	4905
655.337	4630
655.394	5771
655.450	8813
655.506	7003
655.562	6025
655.618	8915
655.675	7147
655.731	5081
655.787	4088
655.843	4553
655.899	4317
655.955	4897
656.011	3436
656.067	4510
656.123	3999
656.179	4705
656.235	5144
656.291	5202
656.347	4579
656.403	4550
656.459	5489
656.515	4592
656.571	5209
656.627	5333
656.683	3843
656.739	4524
656.795	4139
656.850	4001
656.906	5463
656.962	5805
657.018	4718
657.074	4783
657.129	5067
657.185	6038
657.241	7248
657.297	13686
657.352	8587
657.408	3304
657.464	5435
657.519	4888
657.575	3535
657.630	3593
657.686	4782
657.742	4298
657.797	4356
657.853	3201
657.908	4300
657.964	4448
658.019	3689
658.075	3863
658.130	3992
658.186	3403
658.241	3864
658.297	3681
658.352	3187
658.407	3681
658.463	3544
658.518	3924
658.573	3426
658.629	3869
658.684	3862
658.739	3926
658.795	3228
658.850	3811
658.905	3777
658.960	3720
659.016	3280
659.071	4000
659.126	3845
659.181	4353
659.236	4921
659.291	7048
659.346	7323
659.401	5293
659.457	5044
659.512	4668
659.567	4815
659.622	3954
659.677	3218
659.732	4196
659.787	3626
659.842	3910
659.897	4189
659.952	5513
660.007	3568
660.061	3524
660.116	3558
660.171	3609
660.226	3414
660.281	3538
660.336	3306
660.391	3432
660.445	3092
660.500	3520
660.555	3725
660.610	2851
660.664	3971
660.719	4000
660.774	3817
660.828	3431
660.883	3439
660.938	3530
660.992	2791
661.047	3129
661.101	3602
661.156	3634
661.211	3049
661.265	3308
661.320	3542
661.374	3454
661.429	2729
661.483	3213
661.538	2982
661.592	3363
661.647	3437
661.701	4175
661.755	3786
661.810	3646
661.864	3618
661.919	3204
661.973	3689
662.027	3685
662.081	3004
662.136	3486
662.190	2729
662.244	4435
662.299	3221
662.353	3578
662.407	3015
662.461	3503
662.515	3739
662.569	4112
662.624	4842
662.678	3630
662.732	3673
662.786	3313
662.840	4001
662.894	3630
662.948	3716
663.002	4052
663.056	3256
663.110	3105
663.164	3168
663.218	3206
663.272	2867
663.326	4256
663.380	4101
663.434	4006
663.488	3454
663.542	3706
663.595	3613
663.649	2897
663.703	3158
663.757	3764
663.811	3058
663.864	3574
663.918	3956
663.972	3344
664.026	3210
664.079	2992
664.133	3268
664.187	4486
664.240	3225
664.294	3034
664.348	3867
664.401	3049
664.455	3393
664.508	2811
664.562	3188
664.615	3288
664.669	3043
664.722	3026
664.776	3220
664.829	3226
664.883	2735
664.936	3298
664.990	3686
665.043	4773
665.097	3201
665.150	4129
665.203	4319
665.257	3641
665.310	3269
665.363	3663
665.417	3668
665.470	3925
665.523	3406
665.576	3971
665.630	3426
665.683	3223
665.736	3650
665.789	3926
665.842	3567
665.895	3441
665.949	3853
666.002	3786
666.055	3818
666.108	4119
666.161	3923
666.214	4519
666.267	4112
666.320	4208
666.373	4567
666.426	3741
666.479	3087
666.532	4191
666.585	3560
666.638	5225
666.691	4508
666.744	4542
666.796	4354
666.849	4774
666.902	5042
666.955	3799
667.008	3975
667.060	3940
667.113	3668
667.166	3356
667.219	3556
667.271	3801
667.324	3692
667.377	3870
667.430	4032
667.482	3366
667.535	4355
667.587	4500
667.640	4634
667.693	3965
667.745	4760
667.798	7589
667.850	8306
667.903	5003
667.955	4496
668.008	4189
668.060	4329
668.113	4104
668.165	4156
668.218	3589
668.270	4968
668.322	4690
668.375	4463
668.427	4540
668.479	3825
668.532	3601
668.584	4082
668.636	4559
668.689	4386
668.741	3869
668.793	4257
668.845	3749
668.898	4689
668.950	4274
669.002	4256
669.054	4060
669.106	4302
669.158	4806
669.211	4279
669.263	4361
669.315	4686
669.367	4949
669.419	5093
669.471	5291
669.523	5305
669.575	5761
669.627	6922
669.679	5781
669.731	5679
669.783	5725
669.835	5150
669.886	5806
669.938	5899
669.990	5254
670.042	5815
670.094	5850
670.146	6694
670.197	7602
670.249	7187
670.301	9301
670.353	12444
670.404	16786
670.456	23607
670.508	35081
670.560	53233
670.611	87296
670.663	144085
670.715	245623
670.766	516806
670.818	900363
670.869	416769
670.921	80008
670.972	35312
671.024	23894
671.075	17131
671.127	13147
671.178	10250
671.230	9134
671.281	9427
671.333	8004
671.384	7064
671.436	7782
671.487	9289
671.538	9418
671.590	9811
671.641	13864
671.692	18820
671.744	29714
671.795	62475
671.846	44617
671.897	14699
671.949	8483
672.000	7237
672.051	5963
672.102	5128
672.153	4870
672.204	5170
672.256	5158
672.307	4761
672.358	3946
672.409	4765
672.460	4343
672.511	4849
672.562	4242
672.613	4454
672.664	3973
672.715	3992
672.766	3866
672.817	3511
672.868	3954
672.919	3880
672.970	4044
673.021	3364
673.071	3411
673.122	4105
673.173	3633
673.224	3398
673.275	3742
673.326	3372
673.376	4005
673.427	2982
673.478	3233
673.528	3524
673.579	4537
673.630	4366
673.680	3544
673.731	3164
673.782	3969
673.832	3347
673.883	3333
673.934	3623
673.984	3617
674.035	3231
674.085	3672
674.136	3787
674.186	4156
674.237	4080
674.287	4196
674.338	5916
674.388	4762
674.438	2766
674.489	4226
674.539	3179
674.589	3556
674.640	3742
674.690	3782
674.740	3420
674.791	4273
674.841	3442
674.891	3518
674.942	3528
674.992	3412
675.042	3201
675.092	3233
675.142	3669
675.193	2866
675.243	2985
675.293	4030
675.343	2951
675.393	3826
675.443	3529
675.493	4103
675.543	2461
675.593	3163
675.643	3278
675.693	3599
675.743	3055
675.793	3742
675.843	1615
675.893	3144
675.943	4013
675.993	2699
676.043	3362
676.093	3035
676.142	3096
676.192	3566
676.242	2808
676.292	2468
676.341	2405
676.391	3012
676.441	3154
676.491	2432
676.540	2652
676.590	2653
676.640	2792
676.689	3011
676.739	3222
676.789	3045
676.838	3209
676.888	2535
676.937	2123
676.987	1770
677.037	2578
677.086	2479
677.136	1977
677.185	2343
677.235	2742
677.284	2903
677.333	1888
677.383	2401
677.432	2294
677.482	2177
677.531	1569
677.580	1842
677.630	2581
677.679	2296
677.728	2025
677.778	2912
677.827	2190
677.876	2954
677.925	1723
677.975	2616
678.024	2457
678.073	3622
678.122	2496
678.171	2495
678.220	3366
678.269	2730
678.319	2714
678.368	3725
678.417	3124
678.466	3548
678.515	2920
678.564	3070
678.613	3373
678.662	2759
678.711	2063
678.760	2948
678.809	2776
678.857	2838
678.906	2535
678.955	2322
679.004	3248
679.053	2973
679.102	2062
679.151	2942
679.199	2729
679.248	2839
679.297	2667
679.346	2265
679.394	2496
679.443	2602
679.492	2421
679.540	2237
679.589	2578
679.638	3135
679.686	2578
679.735	2478
679.784	2282
679.832	2532
679.881	2710
679.929	2258
679.978	2142
680.026	2435
680.075	1323
680.123	2003
680.172	2589
680.220	2093
680.268	1829
680.317	1972
680.365	1956
680.414	2469
680.462	2504
680.510	2480
680.559	1325
680.607	1916
680.655	2443
680.703	2437
680.752	1946
680.800	2019
680.848	1884
680.896	1911
680.945	1713
680.993	2925
681.041	1957
681.089	1418
681.137	2342
681.185	1648
681.233	1645
681.258	1944
681.281	2172
681.329	1728
681.377	2374
681.380	2443
681.425	2697
681.473	3471
681.502	3391
681.521	3248
681.569	3088
681.617	3072
681.624	3196
681.665	3598
681.713	2780
681.745	3560
681.761	3841
681.809	3738
681.857	3758
681.867	3830
681.904	3844
681.952	4189
681.989	3852
682.000	3683
682.048	4276
682.096	3881
682.111	4071
682.143	4335
682.191	4215
682.233	4860
682.239	4896
682.286	4495
682.334	5126
682.354	4955
682.382	4629
682.430	4531
682.476	5351
682.477	5320
682.525	5393
682.572	5155
682.598	5391
682.620	5516
682.667	5593
682.715	5677
682.720	5733
682.763	5746
682.810	5960
682.841	5621
682.857	5434
682.905	5811
682.952	5325
682.963	5672
683.000	6558
683.047	6434
683.085	6538
683.095	6517
683.142	6186
683.190	5874
683.206	6239
683.237	6792
683.284	6340
683.328	6715
683.332	6707
683.379	6616
683.426	6760
683.449	6980
683.473	7079
683.521	7415
683.568	6884
683.571	6939
683.615	7328
683.662	8034
683.693	7963
683.709	7835
683.757	7747
683.804	7543
683.814	7503
683.851	7205
683.898	8296
683.936	8131
683.945	8051
683.992	7831
684.039	8591
684.057	8574
684.086	8504
684.133	8780
684.179	8812
684.180	8783
684.227	9765
684.274	10112
684.300	9925
684.321	9594
684.368	9527
684.415	9899
684.422	9858
684.462	9462
684.509	9643
684.543	9869
684.556	9891
684.603	9477
684.649	9773
684.665	9589
684.696	9212
684.743	10316
684.786	10167
684.790	10133
684.837	10292
684.883	10173
684.908	10343
684.930	10524
684.977	11119
685.023	11019
685.029	11126
685.070	11819
685.117	11576
685.150	11595
685.164	11389
685.210	11433
685.257	11842
685.272	11495
685.303	11169
685.350	12173
685.393	12650
685.396	12634
685.443	12220
685.490	12863
685.514	12593
685.536	12488
685.583	13449
685.629	13554
685.636	13597
685.675	13303
685.722	12980
685.757	12781
685.768	12719
685.815	13540
685.861	13321
685.878	13231
685.908	13231
685.954	13282
686.000	13787
686.000	13778
686.047	13755
686.093	14161
686.121	14167
686.139	14397
686.185	15077
686.232	15648
686.242	15724
686.278	15271
686.324	14943
686.363	14875
686.370	14828
686.416	14494
686.463	14227
686.484	14205
686.509	14268
686.555	14053
686.601	13720
686.606	13714
686.647	13948
686.693	13764
686.727	13830
686.739	13812
686.785	14042
686.831	14452
686.848	14338
686.877	14098
686.923	14535
686.969	13905
686.969	13900
687.015	14473
687.061	14763
687.090	14670
687.107	14595
687.153	15095
687.199	15424
687.211	15307
687.245	14963
687.291	14766
687.332	15002
687.336	15019
687.382	15491
687.428	15424
687.453	15245
687.474	15330
687.520	15679
687.565	16765
687.574	16793
687.611	16309
687.657	15800
687.695	15526
687.702	15569
687.748	15710
687.794	16077
687.816	16510
687.839	17068
687.885	17298
687.931	17410
687.937	17501
687.976	17377
688.022	17279
688.058	16787
688.067	16714
688.113	17212
688.158	16279
688.179	16382
688.204	16765
688.249	17008
688.295	17113
688.300	17162
688.340	17152
688.386	16976
688.421	16939
688.431	17073
688.477	17361
688.522	18004
688.542	18186
688.567	18101
688.613	17571
688.658	17657
688.663	17616
688.703	17668
688.749	17415
688.784	17782
688.794	17873
688.839	17946
688.884	17847
688.905	18083
688.930	18523
688.975	17835
689.020	18367
689.026	18334
689.065	17944
689.110	18166
689.146	17962
689.155	18026
689.201	17898
689.246	18315
689.267	18538
689.291	18443
689.336	17833
689.381	17499
689.388	17406
689.426	17669
689.471	18415
689.509	18445
689.516	18421
689.561	18474
689.606	18720
689.630	18714
689.651	18638
689.696	18451
689.741	17851
689.750	17835
689.785	18105
689.830	18201
689.871	17970
689.875	17974
689.920	18398
689.965	18378
689.992	18200
690.010	18049
690.054	18309
690.099	18203
690.112	18145
690.144	18183
690.189	18403
690.233	18631
690.233	18656
690.278	18358
690.323	18621
690.354	18397
690.367	18340
690.412	18360
690.457	18449
690.474	18500
690.501	18576
690.546	18682
690.590	18694
690.595	18623
690.635	18490
690.680	18428
690.716	18916
690.724	19032
690.769	19081
690.813	19275
690.836	19165
690.857	19265
690.902	19561
690.946	19820
690.957	19878
690.991	20323
691.035	21168
691.077	21649
691.080	21785
691.124	23782
691.168	25806
691.198	26697
691.213	26667
691.257	27158
691.301	27146
691.318	27398
691.346	26668
691.390	24890
691.434	23263
691.439	23017
691.478	22240
691.522	21335
691.559	20696
691.567	20803
691.611	21407
691.655	21762
691.680	21908
691.699	21928
691.743	21607
691.787	21797
691.800	21805
691.831	21984
691.875	22251
691.919	21686
691.921	21666
691.964	22317
692.008	22049
692.041	22138
692.052	22260
692.096	22392
692.139	22600
692.162	22633
692.183	22573
692.227	22523
692.271	22038
692.282	22076
692.315	22553
692.359	22106
692.402	22527
692.403	22574
692.447	22714
692.490	22609
692.523	22920
692.534	22974
692.578	22624
692.622	22253
692.643	22150
692.666	22462
692.709	22582
692.753	23024
692.763	23018
692.797	22653
692.840	22438
692.884	22159
692.884	22204
692.928	22361
692.971	22090
693.004	22007
693.015	22121
693.059	22465
693.102	22657
693.124	22681
693.146	22703
693.189	22874
693.233	22806
693.245	22912
693.276	23374
693.320	23407
693.363	23321
693.365	23274
693.407	23597
693.450	24076
693.485	24280
693.493	24381
693.537	24733
693.580	25099
693.605	25309
693.624	25484
693.667	25301
693.710	25668
693.725	25622
693.753	26300
693.797	27479
693.840	28949
693.845	29030
693.883	32815
693.926	37052
693.966	40518
693.970	40534
694.013	39859
694.056	39704
694.086	39176
694.099	37723
694.142	33183
694.185	28508
694.206	26198
694.229	26117
694.272	25896
694.315	25756
694.326	25588
694.358	25295
694.401	25259
694.444	24857
694.446	24782
694.487	25153
694.530	25818
694.566	25980
694.573	25976
694.616	25733
694.659	25535
694.686	25397
694.702	25212
694.745	24336
694.787	23561
694.806	23196
694.830	23186
694.873	22993
694.916	22777
694.926	22667
694.959	22947
695.002	23433
695.044	23708
695.046	23669
695.087	23821
695.130	23935
695.166	23925
695.172	24072
695.215	24459
695.258	25027
695.286	25453
695.301	25514
695.343	25332
695.386	25218
695.406	25125
695.428	25333
695.471	25567
695.514	25800
695.526	25778
695.556	25514
695.599	25136
695.641	24878
695.646	24756
695.684	25161
695.726	25723
695.766	26265
695.769	26293
695.811	25728
695.854	25156
695.886	24658
695.896	24859
695.938	25268
695.981	25982
696.005	26184
696.023	26034
696.065	25640
696.108	25287
696.125	25054
696.150	25413
696.192	25936
696.235	26468
696.245	26512
696.277	26862
696.319	27366
696.361	27759
696.365	27725
696.404	27341
696.446	26913
696.485	26354
696.488	26408
696.530	26291
696.572	26277
696.604	26110
696.614	26202
696.656	26341
696.698	26407
696.724	26453
696.740	26570
696.783	26647
696.825	26805
696.844	26770
696.867	26758
696.909	26582
696.951	26452
696.964	26341
696.992	26499
697.034	26643
697.076	26706
697.083	26667
697.118	26820
697.160	26875
697.202	26944
697.203	26877
697.244	26788
697.286	26603
697.323	26420
697.327	26547
697.369	26979
697.411	27493
697.442	27782
697.453	27756
697.494	27442
697.536	27037
697.562	26678
697.578	27081
697.620	28077
697.661	28995
697.682	29404
697.703	29314
697.744	29010
697.786	28600
697.801	28391
697.828	28884
697.869	29548
697.911	30201
697.921	30290
697.952	30686
697.994	31058
698.035	31452
698.040	31416
698.077	30601
698.118	29612
698.160	28595
698.160	28514
698.201	28436
698.243	28270
698.279	28094
698.284	28160
698.325	28054
698.367	27960
698.399	27798
698.408	28079
698.449	28998
698.491	29953
698.518	30493
698.532	30482
698.573	30232
698.614	29954
698.638	29732
698.656	29628
698.697	29163
698.738	28720
698.757	28430
698.779	28652
698.820	28935
698.862	29204
698.877	29229
698.903	29680
698.944	30273
698.985	30868
698.996	30951
699.026	31023
699.067	31008
699.116	30907
699.235	30535
699.354	30396
699.474	28969
699.593	29618
699.713	30452
699.832	29834
699.951	27935
700.070	30620
700.190	29999
700.309	29204
700.428	27962
700.547	29463
700.667	28422
700.786	27832
700.905	28130
701.024	26930
701.143	27760
701.262	28217
701.381	26159
701.500	26169
701.619	28349
701.738	28799
701.857	26905
701.976	24619
702.095	26240
702.214	27046
702.333	26464
702.452	28410
702.571	27045
702.690	25563
702.809	26061
702.928	25520
703.047	24412
703.165	25653
703.284	24060
703.403	23901
703.522	24407
703.640	26263
703.759	26816
703.878	27322
703.997	32811
704.115	26536
704.234	24046
704.353	24093
704.471	23156
704.590	22909
704.708	23457
704.827	23810
704.946	21911
705.064	22455
705.183	24517
705.301	22552
705.420	25547
705.538	34406
705.656	33037
705.775	28515
705.893	26712
706.012	31790
706.130	39776
706.249	29678
706.367	28989
706.485	28316
706.604	29010
706.722	28225
706.840	28728
706.958	32491
707.077	34452
707.195	29232
707.313	26654
707.431	26297
707.549	25258
707.668	25925
707.786	25583
707.904	25524
708.022	25366
708.140	25790
708.258	24723
708.376	25275
708.494	25184
708.612	24838
708.730	25657
708.848	35235
708.966	36265
709.084	32997
709.202	31556
709.320	30477
709.438	29774
709.556	30790
709.674	30761
709.791	30643
709.909	30409
710.027	28908
710.145	27482
710.263	29194
710.380	29632
710.498	28969
710.616	27153
710.733	28520
710.851	27263
710.969	29102
711.086	29318
711.204	27934
711.322	27218
711.439	27660
711.557	27445
711.674	27289
711.792	26897
711.909	26699
712.027	25411
712.144	26425
712.262	25856
712.379	26016
712.497	27633
712.614	36562
712.732	39325
712.849	34238
712.966	30954
713.084	32464
713.201	37041
713.318	34651
713.436	32956
713.553	31770
713.670	32484
713.787	33222
713.905	33500
714.022	34525
714.139	32423
714.256	32128
714.373	35629
714.490	41145
714.608	60008
714.725	112267
714.842	466787
714.959	807380
715.076	81666
715.193	37065
715.310	31979
715.427	32222
715.544	28648
715.661	27608
715.778	27477
715.895	27924
716.011	30450
716.128	30134
716.245	28525
716.362	29051
716.479	28338
716.596	32936
716.713	26531
716.829	27469
716.946	25730
717.063	26819
717.180	25216
717.296	25311
717.413	24536
717.530	24253
717.646	24227
717.763	24253
717.880	24743
717.996	22203
718.113	23811
718.229	24540
718.346	22263
718.462	22323
718.579	24298
718.695	26176
718.812	36167
718.928	33300
719.045	27686
719.161	25556
719.277	22330
719.394	22136
719.510	21786
719.626	22263
719.743	23035
719.859	28706
719.975	30943
720.092	46596
720.208	130838
720.324	425128
720.440	92958
720.557	27821
720.673	25648
720.789	32162
720.905	39754
721.021	64509
721.137	40050
721.253	21472
721.369	20570
721.486	21345
721.602	22196
721.718	28120
721.834	21644
721.950	19037
722.066	20442
722.181	19582
722.297	18483
722.413	20081
722.529	18444
722.645	18744
722.761	18816
722.877	19400
722.993	18372
723.108	18772
723.224	20320
723.340	19721
723.456	19889
723.571	17776
723.687	17434
723.803	17339
723.918	16893
724.034	17398
724.150	17524
724.265	18111
724.381	17535
724.497	25586
724.612	40156
724.728	17817
724.843	16630
724.959	17022
725.074	17410
725.190	25584
725.305	35605
725.421	18471
725.536	17724
725.651	15647
725.767	15410
725.882	15512
725.997	14147
726.113	15789
726.228	15417
726.343	14657
726.459	15103
726.574	13533
726.689	14915
726.804	15277
726.920	14391
727.035	15389
727.150	14507
727.265	15111
727.380	14458
727.495	15293
727.610	14643
727.725	14253
727.841	13113
727.956	15250
728.071	17654
728.186	19313
728.301	14549
728.416	13555
728.531	14020
728.645	14796
728.760	12711
728.875	14827
728.990	15282
729.105	15027
729.220	13996
729.335	14669
729.449	14286
729.564	13629
729.679	12788
729.794	11875
729.908	12975
730.023	13801
730.138	13858
730.253	12012
730.367	12776
730.482	12706
730.596	12255
730.711	12871
730.826	13335
730.940	13660
731.055	14765
731.169	14610
731.284	13758
731.398	12644
731.513	12928
731.627	14247
731.742	15305
731.856	14898
731.970	16943
732.085	14654
732.199	16901
732.313	19434
732.428	28496
732.542	57618
732.656	181869
732.771	177938
732.885	32859
732.999	19255
733.113	16205
733.227	16910
733.342	15201
733.456	15004
733.570	14736
733.684	14538
733.798	13908
733.912	14122
734.026	13762
734.140	13918
734.254	13465
734.368	13971
734.482	16946
734.596	24476
734.710	13723
734.824	12960
734.938	12468
735.052	13254
735.166	13499
735.280	14163
735.393	12909
735.507	12779
735.621	12673
735.735	14530
735.849	21220
735.962	16398
736.076	12010
736.190	12776
736.303	12490
736.417	15217
736.531	19836
736.644	13031
736.758	12701
736.872	11834
736.985	11898
737.099	11964
737.212	11116
737.326	11023
737.439	11362
737.553	11026
737.666	11013
737.780	11586
737.893	10595
738.007	10475
738.120	10558
738.233	10882
738.347	10237
738.460	11492
738.573	10254
738.687	11551
738.800	12140
738.913	11480
739.026	13330
739.140	11808
739.253	10378
739.366	10821
739.479	9775
739.592	10008
739.705	10768
739.818	10118
739.932	9626
740.045	10469
740.158	9730
740.271	11011
740.384	10907
740.497	10533
740.610	9380
740.723	10326
740.836	10394
740.949	11117
741.062	11274
741.174	14137
741.287	12070
741.400	10739
741.513	9991
741.626	10201
741.739	11674
741.851	10534
741.964	10533
742.077	9443
742.189	9905
742.302	10044
742.415	10448
742.527	11026
742.640	10280
742.753	9800
742.865	8162
742.978	8724
743.090	8989
743.203	8154
743.316	9431
743.428	9014
743.541	8736
743.653	9116
743.766	8649
743.878	9162
743.990	8860
744.103	9742
744.215	10645
744.327	9890
744.440	9080
744.552	11032
744.664	14675
744.777	11208
744.889	9445
745.001	9642
745.113	7916
745.226	8499
745.338	8922
745.450	8387
745.562	7665
745.674	8937
745.786	7743
745.898	8526
746.010	7944
746.122	8838
746.234	8833
746.347	8673
746.459	7906
746.570	8916
746.682	7749
746.794	8081
746.906	8770
747.018	8018
747.130	8483
747.242	9065
747.354	7891
747.466	8208
747.577	9374
747.689	8465
747.801	8276
747.913	8286
748.024	7472
748.136	7374
748.248	7652
748.359	7286
748.471	7257
748.583	7914
748.694	7115
748.806	8000
748.918	8398
749.029	9206
749.141	7986
749.252	7936
749.364	7976
749.475	8620
749.587	13526
749.698	13442
749.809	7561
749.921	7122
750.032	7123
750.144	7183
750.255	6662
750.366	6919
750.478	7031
750.589	7097
750.700	6672
750.811	7991
750.923	7549
751.034	8365
751.145	14287
751.256	18370
751.367	7872
751.479	6800
751.590	6686
751.701	7037
751.812	7098
751.923	6501
752.034	6062
752.145	6775
752.256	6023
752.367	6849
752.478	6029
752.589	6961
752.700	6394
752.811	6621
752.922	6772
753.032	6780
753.143	6635
753.254	7919
753.365	6630
753.476	6672
753.586	6748
753.697	6474
753.808	5811
753.919	6352
754.029	6300
754.140	5954
754.251	5308
754.361	6466
754.472	6793
754.582	5568
754.693	6356
754.804	6376
754.914	6168
755.025	6471
755.135	5883
755.246	6285
755.356	5565
755.466	7171
755.577	5504
755.687	6698
755.798	5628
755.908	6630
756.018	5071
756.129	6121
756.239	6513
756.349	5951
756.460	5266
756.570	6622
756.680	6342
756.790	6691
756.900	6327
757.011	7373
757.121	5476
757.231	5084
757.341	6010
757.451	6428
757.561	5567
757.671	5906
757.781	5740
757.891	6617
758.001	6223
758.111	6092
758.221	5707
758.331	6051
758.441	6549
758.551	7104
758.661	8639
758.771	10333
758.880	7419
758.990	6840
759.100	6911
759.210	6760
759.320	7175
759.429	7078
759.539	6115
759.649	7482
759.758	7585
759.868	7835
759.978	7383
760.087	7595
760.197	7526
760.307	8511
760.416	8097
760.526	7251
760.635	7946
760.745	7335
760.854	8147
760.964	8346
761.073	8558
761.182	7801
761.292	7819
761.401	8204
761.511	8002
761.620	7514
761.729	6425
761.839	7014
761.948	7515
762.057	6818
762.166	7349
762.276	7165
762.385	6163
762.494	6355
762.603	6185
762.712	7461
762.822	6994
762.931	8396
763.040	7051
763.149	7609
763.258	5798
763.367	6565
763.476	6527
763.585	7405
763.694	7087
763.803	7509
763.912	7529
764.021	7914
764.130	7427
764.238	7245
764.347	7281
764.456	7178
764.565	7629
764.674	8841
764.783	8295
764.891	9111
765.000	9350
765.109	9993
765.217	9679
765.326	10264
765.435	11824
765.543	14360
765.652	14854
765.761	17545
765.869	19530
765.978	27548
766.086	39570
766.195	66197
766.303	124594
766.412	289202
766.520	752250
766.629	878703
766.737	360459
766.846	120750
766.954	63070
767.062	42725
767.171	31531
767.279	25499
767.387	21483
767.496	17103
767.604	14802
767.712	13419
767.820	12549
767.928	11776
768.037	11052
768.145	10852
768.253	10462
768.361	10373
768.469	10461
768.577	10354
768.685	9768
768.793	10605
768.901	10035
769.009	11302
769.117	11635
769.225	13353
769.333	14197
769.441	20703
769.549	28415
769.657	50642
769.765	106086
769.873	298861
769.981	732339
770.088	443047
770.196	104718
770.304	45499
770.412	29139
770.519	21720
770.627	17182
770.735	14306
770.842	12507
770.950	11707
771.058	10323
771.165	10985
771.273	9865
771.380	9395
771.488	9734
771.595	9053
771.703	10067
771.810	9671
771.918	9484
772.025	8924
772.133	8359
772.240	10139
772.348	9671
772.455	9742
772.562	9709
772.670	10107
772.777	8728
772.884	9147
772.991	8441
773.099	8328
773.206	8381
773.313	7946
773.420	8245
773.528	8735
773.635	7766
773.742	7677
773.849	8043
773.956	7771
774.063	7558
774.170	7482
774.277	8119
774.384	8254
774.491	7686
774.598	7694
774.705	8479
774.812	7554
774.919	8778
775.026	8507
775.133	7550
775.239	8297
775.346	7466
775.453	8751
775.560	7360
775.667	8246
775.773	6969
775.880	7541
775.987	6972
776.093	8195
776.200	6788
776.307	7876
776.413	5563
776.520	6624
776.627	7012
776.733	7469
776.840	7016
776.946	7348
777.053	6685
777.159	6645
777.266	6982
777.372	8499
777.478	7076
777.585	7562
777.691	7229
777.798	7196
777.904	7487
778.010	7227
778.117	8264
778.223	9672
778.329	6354
778.435	6883
778.542	6235
778.648	7187
778.754	6104
778.860	6097
778.966	6038
779.072	7099
779.178	7132
779.284	6891
779.391	6132
779.497	5450
779.603	6320
779.708	6311
779.815	7793
779.920	8193
780.026	15522
780.132	42623
780.238	14761
780.344	7271
780.450	6312
780.556	7180
780.661	6641
780.767	5842
780.873	6519
780.979	6124
781.085	5017
781.190	6405
781.296	5231
781.402	5798
781.507	5005
781.613	6146
781.719	5173
781.824	5103
781.930	6387
782.035	5468
782.141	4821
782.246	6822
782.352	5233
782.457	5821
782.563	5604
782.668	5620
782.773	5835
782.879	6056
782.984	5268
783.090	5033
783.195	6455
783.300	8240
783.405	7769
783.511	5991
783.616	6155
783.721	5832
783.826	5890
783.932	5826
784.037	6065
784.142	6007
784.247	5463
784.352	5808
784.457	5478
784.562	5172
784.667	5595
784.772	5787
784.877	5146
784.982	4908
785.087	5344
785.192	6071
785.297	4674
785.402	5195
785.507	4491
785.611	5729
785.716	5194
785.821	4771
785.926	5265
786.031	4732
786.135	4935
786.240	5258
786.345	5019
786.450	4786
786.554	4303
786.659	4762
786.763	4339
786.868	4848
786.973	3857
787.077	5182
787.182	4552
787.286	4096
787.391	4925
787.495	4982
787.600	5040
787.704	4476
787.809	4382
787.913	5058
788.017	4447
788.122	4463
788.226	4202
788.330	4065
788.435	3556
788.539	4266
788.643	4047
788.747	4096
788.852	3101
788.956	3248
789.060	3941
789.164	4694
789.268	3109
789.372	4398
789.476	3270
789.580	4562
789.684	3763
789.788	4257
789.892	4036
789.996	4510
790.100	4502
790.204	3745
790.308	4091
790.412	4682
790.516	4220
790.620	3791
790.724	4523
790.828	4121
790.931	4244
791.035	4439
791.139	3969
791.242	3720
791.346	3793
791.450	4356
791.554	3479
791.657	3636
791.761	3790
791.864	3986
791.968	3315
792.072	4240
792.175	3502
792.279	3862
792.382	3891
792.486	3870
792.589	3615
792.693	4453
792.796	4589
792.899	4129
793.003	4141
793.106	3648
793.209	4119
793.313	4221
793.416	3780
793.519	3599
793.623	4284
793.726	4846
793.829	8407
793.932	5706
794.035	3458
794.138	4200
794.242	4061
794.345	4665
794.448	4740
794.551	5638
794.654	7439
794.757	11343
794.860	19255
794.963	9707
795.066	5345
795.169	3933
795.272	3602
795.375	3542
795.477	3596
795.580	4139
795.683	2322
795.786	3439
795.889	2407
795.991	3993
796.094	3614
796.197	4075
796.300	3988
796.402	3372
796.505	3329
796.608	3126
796.710	3510
796.813	2964
796.915	3370
797.018	3328
797.120	3049
797.223	3159
797.326	3052
797.428	3935
797.530	2989
797.633	2592
797.735	3003
797.838	3682
797.940	5080
798.042	6208
798.145	3538
798.247	3280
798.349	2351
798.452	2807
798.554	2333
798.656	2255
798.758	3204
798.860	3989
798.962	2708
799.065	3290
799.167	1828
799.269	2825
799.371	2705
799.473	4148
799.575	3554
799.677	4703
799.779	5332
799.881	3889
799.983	5052
800.085	5058
800.187	2154
800.289	2600
800.390	2808
800.492	2863
800.594	2495
800.696	3388
800.798	2021
800.899	2813
801.001	2465
801.103	3153
801.205	2057
801.306	3445
801.408	2641
801.509	2536
801.611	3089
801.713	2889
801.814	2553
801.916	2721
802.017	2040
802.119	2864
802.220	2711
802.322	2545
802.423	2615
802.525	2831
802.626	4422
802.727	2890
802.829	2451
802.930	2593
803.031	2660
803.133	1845
803.234	2213
803.335	3279
803.436	2136
803.538	2595
803.639	2156
803.740	2772
803.841	1762
803.942	1801
804.043	2473
804.144	2749
804.245	1867
804.346	2406
804.447	2628
804.548	2852
804.649	3329
804.750	4225
804.851	3177
804.952	2314
805.053	2202
805.154	1830
805.255	2736
805.355	2501
805.456	1900
805.557	1362
805.658	2127
805.758	1831
805.859	1953
805.960	2549
806.061	2073
806.161	1796
806.262	2211
806.362	2560
806.463	2328
806.564	2492
806.664	1823
806.765	2808
806.865	3119
806.966	3434
807.066	2509
807.166	2942
807.267	2377
807.367	2552
807.468	2104
807.568	2460
807.668	3078
807.769	2299
807.869	2076
807.969	3170
808.069	1733
808.170	2241
808.270	1668
808.370	2598
808.470	1758
808.570	2886
808.670	4262
808.770	3006
808.870	1241
808.970	2275
809.070	1845
809.170	2514
809.271	1957
809.370	2224
809.470	2187
809.570	2360
809.670	1768
809.770	1644
809.870	1756
809.970	2186
810.070	2280
810.169	2609
810.269	1480
810.369	2624
810.469	1578
810.568	2110
810.668	1245
810.768	2267
810.867	1848
810.967	2731
811.066	1725
811.166	1730
811.265	2493
811.365	2180
811.464	1980
811.564	2380
811.663	1791
811.763	2318
811.862	2124
811.962	2360
812.061	2286
812.160	2515
812.260	2854
812.359	2880
812.458	2938
812.557	5769
812.657	12789
812.756	26085
812.855	11693
812.954	3298
813.053	2826
813.153	2611
813.252	2230
813.351	2955
813.450	1876
813.549	2412
813.648	2856
813.747	2268
813.846	1917
813.945	2491
814.044	2106
814.143	2982
814.242	2126
814.341	2168
814.439	2780
814.538	2411
814.637	2433
814.736	3208
814.835	2205
814.933	3018
815.032	2488
815.131	3148
815.229	2795
815.328	3123
815.427	5132
815.525	4780
815.624	4479
815.722	3869
815.821	3713
815.919	4637
816.018	4421
816.116	5226
816.215	4954
816.313	5224
816.412	4189
816.510	5441
816.609	5864
816.707	5756
816.805	6091
816.904	6219
817.002	6246
817.100	6826
817.198	7532
817.296	8036
817.395	8923
817.493	9832
817.591	9810
817.689	11792
817.787	14760
817.885	19158
817.983	27891
818.081	46053
818.179	90294
818.277	199448
818.375	467993
818.473	601600
818.571	228669
818.669	81088
818.767	47330
818.865	38642
818.963	35974
819.061	40886
819.158	53774
819.256	85830
819.354	165643
819.452	346289
819.549	723185
819.647	713273
819.745	274832
819.842	110206
819.940	61714
820.038	41737
820.135	30129
820.233	23844
820.330	18026
820.428	15436
820.525	12850
820.623	12309
820.720	10167
820.818	9956
820.915	8894
821.012	8586
821.110	6956
821.207	7221
821.304	7238
821.402	6049
821.499	7279
821.596	5346
821.693	5899
821.791	6667
821.888	5235
821.985	6754
822.082	8219
822.179	10340
822.276	5389
822.373	5407
822.470	4261
822.567	4570
822.664	3480
822.761	4250
822.858	3667
822.955	3807
823.052	3341
823.149	3280
823.246	4118
823.343	4602
823.440	3898
823.536	3912
823.633	3896
823.730	3847
823.827	3048
823.923	3519
824.020	3857
824.117	3128
824.213	2856
824.310	4086
824.407	2801
824.503	2969
824.600	2825
824.696	3996
824.793	2711
824.889	3570
824.986	3419
825.082	3512
825.179	2273
825.275	3010
825.371	2435
825.468	3468
825.564	2264
825.660	2281
825.757	2644
825.853	3342
825.949	2774
826.045	2528
826.142	1928
826.238	2235
826.334	2353
826.430	2466
826.526	3323
826.622	2702
826.718	1539
826.814	2542
826.910	3586
827.006	2428
827.102	2005
827.198	2450
827.294	2375
827.390	3064
827.486	3141
827.582	2798
827.678	2432
827.774	2525
827.869	2482
827.965	3073
828.061	1535
828.157	1689
828.252	2242
828.348	2702
828.444	2383
828.539	1419
828.635	2198
828.731	2234
828.826	2137
828.922	1720
829.017	1814
829.113	2856
829.208	2229
829.304	1933
829.399	2049
829.495	2684
829.590	2469
829.685	3060
829.781	2204
829.876	2083
829.971	2242
830.066	2456
830.162	816
830.257	2818
830.352	2491
830.447	3132
830.543	2342
830.638	2388
830.733	2608
830.828	2788
830.923	2092
831.018	1635
831.113	2614
831.208	2210
831.303	1997
831.398	2240
831.493	1317
831.588	1526
831.683	2542
831.778	1812
831.873	1656
831.967	2323
832.062	1408
832.157	2023
832.252	2623
832.346	2293
832.441	1235
832.536	2709
832.631	3534
832.725	6608
832.820	7582
832.914	2997
833.009	2358
833.104	2540
833.198	2552
833.293	3017
833.387	1410
833.482	2463
833.576	1713
833.670	2690
833.765	1818
833.859	2398
833.954	2394
834.048	3096
834.142	2086
834.237	1624
834.331	1590
834.425	1688
834.519	1780
834.613	1841
834.708	1375
834.802	1754
834.896	1031
834.990	1630
835.084	1832
835.178	1415
835.272	1591
835.366	2230
835.460	1718
835.554	2188
835.648	1598
835.742	1831
835.836	1539
835.930	1356
836.024	1438
836.117	2291
836.211	1848
836.305	2269
836.399	1904
836.493	2737
836.586	2160
836.680	2184
836.774	1269
836.867	2475
836.961	590
837.055	1570
837.148	1352
837.242	1565
837.335	1131
837.429	1847
837.522	1679
837.616	1778
837.709	1966
837.803	3108
837.896	3257
837.989	2345
838.083	1889
838.176	2365
838.269	4190
838.363	5318
838.456	1875
838.549	2058
838.642	2719
838.735	4365
838.829	8174
838.922	5638
839.015	1918
839.108	2376
839.201	1741
839.294	1662
839.387	1707
839.480	1278
839.573	1332
839.666	2648
839.759	3453
839.852	2250
839.945	1323
840.038	1236
840.131	1959
840.223	967
840.316	1077
840.409	908
840.502	1298
840.594	2149
840.687	1157
840.780	1803
840.873	1596
840.965	1314
841.058	1945
841.150	2089
841.243	2999
841.336	4895
841.428	1317
841.521	710
841.613	972
841.706	2240
841.798	1867
841.890	1631
841.983	1025
842.075	2002
842.167	1441
842.260	1763
842.352	1275
842.444	2420
842.537	2877
842.629	4359
842.721	6793
842.813	3406
842.905	1329
842.997	1206
843.090	624
843.182	2582
843.274	1899
843.366	4815
843.458	8910
843.550	17548
843.642	16119
843.734	4672
843.826	1249
843.918	2542
844.009	2543
844.101	2188
844.193	974
844.285	1871
844.377	2197
844.469	2364
844.560	1192
844.652	1733
844.744	1731
844.835	1868
844.927	738
845.019	2280
845.110	1618
845.202	2438
845.293	1977
845.385	1244
845.476	640
845.568	1758
845.659	786
845.751	1561
845.842	1571
845.934	1232
846.025	677
846.116	820
846.208	942
846.299	1123
846.390	1465
846.482	1669
846.573	1007
846.664	1927
846.755	2111
846.846	2873
846.937	3649
847.029	2296
847.120	1220
847.211	1551
847.302	1919
847.393	2217
847.484	956
847.575	1654
847.666	1008
847.757	1320
847.847	705
847.938	1513
848.029	1838
848.120	1474
848.211	712
848.302	1495
848.392	1075
848.483	1758
848.574	758
848.664	1445
848.755	1358
848.846	1169
848.936	1000
849.027	1874
849.118	1919
849.208	1705
849.299	1697
849.389	1872
849.480	4035
849.570	6790
849.661	13751
849.751	21931
849.841	46769
849.932	31796
850.022	5360
850.112	1902
850.203	1633
850.293	1418
850.383	1705
850.474	1347
850.564	1415
850.654	2359
850.744	832
850.834	1558
850.924	899
851.014	1285
851.104	1788
851.194	1486
851.284	1495
851.374	1490
851.464	2622
851.554	2594
851.644	1313
851.734	1633
851.824	2865
851.914	2274
852.004	1389
852.094	384
852.183	1045
852.273	1055
852.363	1397
852.452	1729
852.542	771
852.632	1387
852.721	1065
852.811	1288
852.901	1644
852.990	1882
853.080	1112
853.169	2198
853.259	1120
853.348	1979
853.438	2212
853.527	3070
853.617	3071
853.706	5602
853.795	9535
853.885	16520
853.974	35566
854.063	74438
854.152	119685
854.242	239703
854.331	155423
854.420	27901
854.509	8278
854.598	5681
854.687	5078
854.777	3892
854.866	3127
854.955	3538
855.044	1844
855.133	2463
855.222	1978
855.311	2206
855.400	1466
855.488	2175
855.577	1696
855.666	1719
855.755	1693
855.844	1718
855.933	598
856.021	2238
856.110	1731
856.199	1376
856.288	1129
856.376	615
856.465	861
856.554	799
856.642	1223
856.731	2333
856.819	370
856.908	1715
856.996	726
857.085	1523
857.173	1542
857.262	1253
857.350	1491
857.438	1634
857.527	1596
857.615	1478
857.703	572
857.792	1483
857.880	869
857.968	818
858.056	187
858.145	827
858.233	1295
858.321	1067
858.409	1263
858.497	949
858.585	462
858.673	1085
858.761	199
858.849	1121
858.937	819
859.025	848
859.113	873
859.201	1208
859.289	1848
859.377	707
859.465	1303
859.552	1496
859.640	996
859.728	1270
859.816	841
859.903	1317
859.991	1280
860.079	1217
860.166	723
860.254	1101
860.342	1426
860.429	1323
860.517	259
860.604	1151
860.692	938
860.779	1292
860.867	-36
860.954	1182
861.042	914
861.129	1110
861.216	1396
861.304	1461
861.391	1421
861.478	739
861.565	465
861.653	1330
861.740	729
861.827	1048
861.914	522
862.001	1145
862.089	1004
862.176	1202
862.263	1225
862.350	919
862.437	614
862.524	2048
862.611	507
862.698	714
862.785	689
862.871	805
862.958	902
863.045	711
863.132	1050
863.219	980
863.306	837
863.392	672
863.479	884
863.566	1718
863.652	966
863.739	986
863.826	1184
863.912	1753
863.999	750
864.086	1667
864.172	410
864.259	1734
864.345	730
864.432	2194
864.518	1064
864.604	1767
864.691	1679
864.777	1203
864.863	1364
864.950	1763
865.036	1871
865.122	2139
865.209	3868
865.295	4229
865.381	4184
865.467	3554
865.553	3840
865.639	4499
865.726	6716
865.812	10378
865.898	19088
865.984	40160
866.070	59269
866.156	92993
866.242	156947
866.328	68839
866.414	12840
866.499	6070
866.585	4629
866.671	5048
866.757	3369
866.843	4279
866.928	3230
867.014	3488
867.100	2661
867.186	3251
867.271	2581
867.357	3167
867.442	4241
867.528	4142
867.614	3562
867.699	3083
867.785	2219
867.870	2765
867.956	2419
868.041	3672
868.127	2233
868.212	2867
868.297	3097
868.383	3320
868.468	3376
868.553	3935
868.639	4483
868.724	6553
868.809	8192
868.894	11844
868.979	5130
869.065	2692
869.150	1911
869.235	2585
869.320	1498
869.405	2776
869.490	2057
869.575	1713
869.660	2873
869.745	1300
869.830	1266
869.915	2252
870.000	2086
870.085	1631
870.169	2303
870.254	2132
870.339	1761
870.424	2185
870.509	2065
870.593	2480
870.678	1393
870.763	2024
870.847	1705
870.932	2123
871.016	1775
871.101	2758
871.186	1648
871.270	2238
871.355	2240
871.439	1692
871.523	815
871.608	2080
871.692	2123
871.777	1316
871.861	1348
871.945	1966
872.030	1899
872.114	2037
872.198	1346
872.282	1723
872.367	1335
872.451	1388
872.535	750
872.619	2680
872.703	1863
872.787	1369
872.871	1271
872.955	1710
873.039	1079
873.123	792
873.207	1664
873.291	2161
873.375	1651
873.459	2253
873.543	1819
873.627	2284
873.711	1704
873.794	1250
873.878	1441
873.962	1418
874.045	1162
874.129	1205
874.137	1179
874.213	923
874.245	1094
874.296	1373
874.352	1457
874.380	1500
874.460	1554
874.464	1556
874.547	901
874.568	1032
874.631	1413
874.676	1466
874.714	1514
874.784	1617
874.798	1638
874.881	1352
874.892	1399
874.965	1755
874.999	1329
875.048	707
875.107	800
875.131	855
875.215	1769
875.215	1769
875.298	1695
875.323	1397
875.381	700
875.430	844
875.465	942
875.538	1527
875.548	1601
875.631	1891
875.646	1745
875.714	1013
875.753	1000
875.798	1055
875.861	1134
875.881	1151
875.964	1590
875.968	1575
876.047	1274
876.076	1150
876.130	936
876.183	1294
876.213	1495
876.291	1763
876.296	1782
876.379	1546
876.398	1625
876.462	1781
876.506	1533
876.545	1387
876.613	1640
876.628	1682
876.711	1693
876.721	1663
876.794	1472
876.828	1498
876.877	1579
876.935	1846
876.960	1899
877.043	1107
877.043	1107
877.125	1411
877.150	1576
877.208	1914
877.258	2055
877.291	2202
877.365	2132
877.374	2095
877.456	2154
877.472	2066
877.539	1850
877.579	1749
877.622	1626
877.687	1654
877.704	1682
877.787	2465
877.794	2412
877.869	1804
877.901	2182
877.952	2786
878.008	2239
878.034	1883
878.115	1509
878.117	1509
878.199	1243
878.222	1338
878.282	1622
878.329	1650
878.364	1645
878.437	1643
878.447	1626
878.529	1338
878.544	1390
878.611	1810
878.651	1573
878.694	1269
878.758	1379
878.776	1375
878.858	1385
878.865	1355
878.941	1183
878.972	1308
879.023	1522
879.078	1475
879.105	1402
879.185	1059
879.187	1056
879.269	1760
879.292	1629
879.351	1300
879.399	1794
879.433	2007
879.506	1629
879.516	1615
879.598	1185
879.613	1172
879.680	1109
879.720	1047
879.762	902
879.827	696
879.844	690
879.926	1530
879.933	1516
880.007	1572
880.040	1889
880.089	2097
880.147	1772
880.171	1708
880.253	3095
880.254	3100
880.335	3903
880.360	4717
880.417	7131
880.467	8390
880.499	9913
880.574	14824
880.580	15125
880.662	22383
880.680	21330
880.744	12639
880.787	6679
880.825	3138
880.893	1327
880.907	1201
880.989	740
881.000	770
881.070	1092
881.106	969
881.152	737
881.213	683
881.233	666
881.315	744
881.319	773
881.396	1551
881.426	1608
881.478	1543
881.532	1411
881.559	1224
881.639	751
881.641	751
881.722	1512
881.745	1424
881.803	1381
881.852	1564
881.885	1427
881.958	1150
881.966	1143
882.047	1050
882.064	1112
882.129	1858
882.171	2304
882.210	2429
882.277	2324
882.291	2505
882.372	3905
882.383	4029
882.454	3034
882.489	2179
882.535	1471
882.596	1148
882.616	1258
882.697	2047
882.702	2054
882.778	1388
882.808	1318
882.859	1270
882.914	726
882.940	498
883.020	811
883.021	821
883.102	1337
883.127	1528
883.183	1480
883.233	1445
883.264	1568
883.339	1859
883.345	1832
883.426	773
883.445	675
883.507	844
883.551	914
883.587	924
883.657	1291
883.668	1370
883.749	1269
883.763	1324
883.830	1659
883.869	1667
883.910	1293
883.975	992
883.991	1030
884.072	992
884.081	975
884.152	840
884.187	886
884.233	1202
884.292	1599
884.314	1635
884.394	1557
884.398	1563
884.475	1461
884.504	1232
884.555	808
884.610	700
884.636	777
884.716	776
884.716	781
884.797	1402
884.821	1446
884.877	1107
884.927	1146
884.958	1329
885.033	1618
885.038	1561
885.118	262
885.139	-3
885.199	501
885.244	854
885.279	989
885.350	1327
885.359	1308
885.439	1078
885.456	1018
885.520	1654
885.561	2036
885.600	1627
885.667	834
885.680	790
885.760	852
885.773	829
885.840	1313
885.878	1617
885.920	1468
885.984	962
886.000	986
886.080	1386
886.089	1431
886.160	1646
886.195	1768
886.240	1665
886.300	1315
886.320	1391
886.400	1731
886.406	1755
886.480	1763
886.511	1772
886.560	1584
886.616	1273
886.640	1581
886.720	2852
886.722	2869
886.800	1703
886.827	1356
886.879	1415
886.932	1448
886.959	1488
887.038	1714
887.039	1716
887.119	1419
887.143	1371
887.198	1441
887.248	1478
887.278	1418
887.354	1148
887.358	1159
887.437	1369
887.459	1456
887.517	1571
887.564	1622
887.596	1519
887.669	1137
887.676	1144
887.755	1319
887.774	1356
887.835	1221
887.880	1089
887.914	1133
887.985	1231
887.994	1200
888.073	920
888.090	870
888.153	1430
888.195	1705
888.232	1646
888.300	1687
888.311	1657
888.391	1322
888.405	1257
888.470	913
888.510	698
888.549	911
888.615	1310
888.628	1278
888.708	1028
888.720	1000
888.787	1067
888.825	1036
888.866	1006
888.930	1037
888.945	1097
889.024	1380
889.035	1412
889.103	1621
889.140	1744
889.182	1550
889.245	1243
889.261	1298
889.340	1548
889.349	1579
889.419	1373
889.454	1236
889.498	1204
889.559	1186
889.577	1240
889.656	1472
889.664	1496
889.735	2197
889.768	2521
889.814	1997
889.873	1296
889.978	1625
890.083	1120
890.187	1250
890.292	855
890.397	1434
890.501	1507
890.606	843
890.710	1367
890.815	1264
890.919	1889
891.024	1527
891.128	1445
891.233	1581
891.337	1541
891.442	1577
891.546	2302
891.650	701
891.755	1536
891.859	2172
891.963	1328
892.068	1144
892.172	1492
892.276	1180
892.380	1199
892.484	1301
892.589	2439
892.693	1007
892.797	1828
892.901	979
893.005	486
893.109	908
893.213	1933
893.317	1755
893.421	1872
893.525	531
893.629	1435
893.733	585
893.837	1670
893.941	1667
894.045	1704
894.148	1265
894.252	558
894.356	957
894.460	1141
894.564	2049
894.667	1222
894.771	1168
894.875	1030
894.978	453
895.082	1328
895.186	1217
895.289	1474
895.393	467
895.496	661
895.600	1078
895.703	773
895.807	995
895.910	1065
896.014	642
896.117	1544
896.221	1481
896.324	782
896.427	608
896.531	674
896.634	1516
896.737	1463
896.840	1062
896.944	1112
897.047	392
897.150	1014
897.253	1076
897.356	503
897.460	1048
897.563	1402
897.666	1308
897.769	1191
897.872	1107
897.975	1613
898.078	637
898.181	1108
898.284	1118
898.387	1008
898.490	1439
898.593	965
898.695	971
898.798	936
898.901	375
899.004	958
899.107	1047
899.209	1705
899.312	1436
899.415	1311
899.518	987
899.620	744
899.723	1133
899.826	689
899.928	2486
900.031	2644
900.133	1154
900.236	576
900.338	711
900.441	1124
900.543	1336
900.646	424
900.748	1780
900.851	1006
900.953	1694
901.055	1236
901.158	1017
901.260	1650
901.362	1048
901.465	-217
901.567	1653
901.669	1475
901.771	905
901.873	661
901.976	1213
902.078	841
902.180	1273
902.282	1616
902.384	1454
902.486	1625
902.588	1766
902.690	1037
902.792	1673
902.894	1108
902.996	1301
903.098	1433
903.200	1261
903.302	1329
903.404	924
903.505	873
903.607	1133
903.709	793
903.811	1104
903.913	1322
904.014	1483
904.116	1021
904.218	1715
904.319	1029
904.421	1587
904.523	1082
904.624	770
904.726	1029
904.827	161
904.929	996
905.030	419
905.132	1457
905.233	747
905.335	1401
905.436	370
905.537	485
905.639	1324
905.740	-175
905.841	1177
905.943	934
906.044	910
906.145	74
906.247	747
906.348	484
906.449	1032
906.550	1239
906.651	313
906.752	988
906.854	924
906.955	781
907.056	1242
907.157	1117
907.258	1493
907.359	981
907.460	346
907.561	857
907.662	564
907.762	1013
907.863	740
907.964	454
908.065	1343
908.166	1315
908.267	596
908.367	1052
908.468	292
908.569	1039
908.670	947
908.770	1539
908.871	2442
908.971	2929
909.072	1326
909.173	1691
909.273	1201
909.374	1042
909.474	317
909.575	822
909.675	762
909.776	729
909.876	810
909.977	1204
910.077	926
910.177	443
910.278	935
910.378	856
910.478	1359
910.579	938
910.679	748
910.779	968
910.879	850
910.980	1318
911.080	1164
911.180	411
911.280	220
911.380	1206
911.480	773
911.580	973
911.680	1003
911.780	1018
911.880	359
911.980	1279
912.080	565
912.180	55
912.280	742
912.380	478
912.480	854
912.580	1239
912.679	347
912.779	918
912.879	723
912.979	418
913.078	1211
913.178	415
913.278	1185
913.377	1098
913.477	609
913.577	287
913.676	1681
913.776	1018
913.875	1428
913.975	872
914.074	1607
914.174	899
914.273	588
914.373	917
914.472	258
914.572	1012
914.671	706
914.770	498
914.870	796
914.969	907
915.068	855
915.167	792
915.267	1382
915.366	755
915.465	428
915.564	1094
915.663	559
915.763	457
915.862	1646
915.961	718
916.060	628
916.159	366
916.258	1466
916.357	484
916.456	525
916.555	643
916.654	1200
916.752	1171
916.851	1206
916.950	587
917.049	953
917.148	480
917.247	294
917.345	1033
917.444	630
917.543	459
917.642	565
917.740	803
917.839	1083
917.937	1330
918.036	1183
918.135	1222
918.233	530
918.332	519
918.430	777
918.529	25
918.627	158
918.726	1250
918.824	923
918.923	471
919.021	690
919.119	862
919.218	535
919.316	315
919.414	1348
919.512	367
919.611	567
919.709	1182
919.807	629
919.905	834
920.003	939
920.102	748
920.200	1605
920.298	1048
920.396	1305
920.494	575
920.592	576
920.690	1354
920.788	526
920.886	1302
920.984	649
921.082	1102
921.180	1565
921.277	878
921.375	1023
921.473	1702
921.571	1201
921.669	1697
921.766	1561
921.864	2123
921.962	1847
922.060	2262
922.157	1042
922.255	1354
922.352	770
922.450	1442
922.548	1226
922.645	2007
922.743	1793
922.840	2250
922.938	3712
923.035	2605
923.133	2880
923.230	2903
923.327	2568
923.425	3768
923.522	4204
923.619	3912
923.717	3280
923.814	3159
923.911	3980
924.008	3421
924.106	2911
924.203	2480
924.300	2884
924.397	1948
924.494	2277
924.591	2755
924.688	2873
924.786	3488
924.883	2816
924.979	3229
925.077	2974
925.173	2773
925.270	2489
925.367	2836
925.464	3370
925.561	3539
925.658	2976
925.755	3629
925.852	3251
925.948	3582
926.045	3275
926.142	3010
926.239	2677
926.335	2983
926.432	1950
926.529	2102
926.625	2876
926.722	2710
926.818	2556
926.915	2552
927.011	3088
927.108	2389
927.204	2441
927.301	2782
927.397	2397
927.494	2469
927.590	2818
927.687	1839
927.783	2207
927.879	3612
927.976	2637
928.072	2875
928.168	2489
928.264	1978
928.361	2156
928.457	2893
928.553	2977
928.649	2972
928.745	2694
928.841	2039
928.937	2209
929.033	2305
929.129	2287
929.225	2518
929.321	2560
929.417	1873
929.513	1821
929.609	2881
929.705	2201
929.801	2005
929.897	1689
929.993	1747
930.089	2117
930.184	1909
930.280	1066
930.376	3396
930.471	2012
930.567	2423
930.663	1726
930.758	2341
930.854	2372
930.950	2217
931.045	1550
931.141	2084
931.236	2091
931.332	2638
931.427	1882
931.523	1745
931.618	2632
931.714	1902
931.809	1279
931.905	1825
932.000	2469
932.095	1361
932.191	573
932.286	2255
932.381	2428
932.476	1712
932.572	1686
932.667	2188
932.762	815
932.857	2124
932.952	2068
933.047	1852
933.142	2084
933.237	2177
933.332	1763
933.427	1315
933.522	2429
933.617	2073
933.712	1585
933.807	1885
933.902	2235
933.997	2322
934.092	1756
934.187	1443
934.282	1501
934.376	1707
934.471	2408
934.566	2184
934.661	942
934.755	1755
934.850	2236
934.945	2063
935.039	1107
935.134	1708
935.228	1321
935.323	2256
935.417	2154
935.512	1558
935.606	2309
935.701	1147
935.795	1793
935.890	1741
935.984	2043
936.079	834
936.173	586
936.267	931
936.362	1122
936.456	1254
936.550	2210
936.644	1820
936.738	1098
936.833	1232
936.927	1533
937.021	1606
937.115	1225
937.209	1233
937.303	1633
937.397	802
937.491	987
937.585	2008
937.679	2080
937.773	1958
937.867	1534
937.961	1041
938.055	1015
938.149	1768
938.243	1670
938.337	1313
938.430	741
938.524	983
938.618	2312
938.712	1713
938.805	1713
938.899	1029
938.993	2256
939.086	1483
939.180	710
939.274	1043
939.367	758
939.461	1134
939.554	637
939.648	662
939.741	1177
939.835	904
939.928	1157
940.022	1684
940.115	1320
940.208	1993
940.302	1626
940.395	2059
940.488	1890
940.582	1006
940.675	1008
940.768	1221
940.861	1443
940.954	1240
941.048	1494
941.141	223
941.234	1154
941.327	1682
941.420	2990
941.513	3327
941.606	2085
941.699	1707
941.792	1272
941.885	1846
941.978	926
942.071	1260
942.164	1769
942.257	889
942.349	375
942.442	1356
942.535	1636
942.628	1579
942.721	440
942.813	614
942.906	696
942.999	1367
943.091	788
943.184	603
943.277	1179
943.369	1079
943.462	1420
943.554	1192
943.647	26
943.739	862
943.832	982
943.924	1426
944.017	1030
944.109	809
944.201	686
944.294	618
944.386	998
944.478	1498
944.571	946
944.663	333
944.755	1117
944.847	385
944.940	1462
945.032	1086
945.124	189
945.216	728
945.308	1183
945.400	844
945.492	706
945.584	918
945.676	1360
945.768	677
945.860	673
945.952	391
946.044	1257
946.136	1336
946.228	235
946.320	819
946.412	1390
946.503	1277
946.595	933
946.687	632
946.779	482
946.870	1460
946.962	554
947.054	220
947.145	665
947.237	285
947.329	532
947.420	1342
947.512	405
947.603	716
947.695	295
947.786	1232
947.878	76
947.969	334
948.061	773
948.152	864
948.243	519
948.335	357
948.426	-119
948.517	789
948.609	1249
948.700	501
948.791	760
948.882	454
948.973	95
949.065	93
949.156	-146
949.247	-164
949.338	375
949.429	246
949.520	999
949.611	-115
949.702	482
949.793	712
949.884	703
949.975	-176
950.066	514
950.157	-1
950.247	318
950.338	1063
950.429	508
950.520	991
950.611	149
950.701	1133
950.792	896
950.883	1762
950.973	737
951.064	602
951.155	979
951.245	990
951.336	1059
951.427	1339
951.517	736
951.608	547
951.698	469
951.788	510
951.879	667
951.969	37
952.060	-37
952.150	325
952.240	437
952.331	360
952.421	1106
952.511	640
952.602	241
952.692	470
952.782	122
952.872	36
952.962	589
953.052	-433
953.143	-314
953.233	304
953.323	-44
953.413	361
953.503	385
953.593	687
953.683	1163
953.773	-407
953.863	-357
953.953	155
954.042	542
954.132	99
954.222	515
954.312	92
954.402	634
954.492	314
954.581	1368
954.671	2277
954.761	665
954.850	1122
954.940	466
955.030	-52
955.119	181
955.209	354
955.298	-292
955.388	408
955.477	130
955.567	-88
955.656	-545
955.746	957
955.835	-239
955.925	-227
956.014	598
956.103	185
956.193	-33
956.282	73
956.371	282
956.461	92
956.550	-771
956.639	24
956.728	252
956.817	241
956.906	710
956.995	638
957.085	774
957.174	1121
957.263	447
957.352	-192
957.441	375
957.530	143
957.619	206
957.708	1022
957.796	520
957.885	155
957.974	104
958.063	-209
958.152	119
958.241	-40
958.329	-198
958.418	138
958.507	399
958.596	-291
958.684	-895
958.773	117
958.861	-747
958.950	-223
959.039	154
959.127	626
959.216	680
959.304	183
959.393	675
959.481	37
959.570	-111
959.658	88
959.746	830
959.835	304
959.923	769
960.011	2600
960.100	1865
960.188	663
960.276	-898
960.365	370
960.453	1208
960.541	418
960.629	432
960.717	-171
960.805	79
960.893	-275
960.981	808
961.069	494
961.158	320
961.245	-166
961.333	-168
961.421	398
961.509	-315
961.597	2
961.685	330
961.773	428
961.861	254
961.949	367
962.036	360
962.124	-199
962.212	295
962.299	268
962.387	-406
962.475	-195
962.562	39
962.650	-204
962.738	302
962.825	-644
962.913	612
963.000	-330
963.088	46
963.175	1429
963.263	-185
963.350	165
963.438	-398
963.525	789
963.612	1067
963.700	2400
963.787	6917
963.874	14654
963.962	6033
964.049	162
964.136	147
964.223	-375
964.310	-492
964.398	903
964.485	396
964.572	581
964.659	1516
964.746	1554
964.833	1405
964.920	115
965.007	-245
965.094	132
965.181	-212
965.268	658
965.355	610
965.441	429
965.528	-103
965.615	-389
965.702	677
965.789	178
965.875	-480
965.962	56
966.049	-248
966.136	-203
966.222	313
966.309	447
966.395	-16
966.482	750
966.569	-1012
966.655	-131
966.742	-21
966.828	-408
966.915	-324
967.001	-114
967.087	212
967.174	186
967.260	-347
967.347	650
967.433	1562
967.519	4320
967.605	9521
967.692	3404
967.778	516
967.864	-222
967.950	-187
968.036	-538
968.123	-524
968.209	-990
968.295	-726
968.381	68
968.467	574
968.553	-232
968.639	-736
968.725	-219
968.811	2
968.897	646
968.983	233
969.069	785
969.154	-354
969.240	-269
969.326	-321
969.412	-258
969.497	-460
969.583	-431
969.669	-203
969.755	212
969.840	120
969.926	7
970.012	-61
970.097	358
970.183	279
970.268	899
970.354	1089
970.439	883
970.525	2729
970.610	5680
970.696	2011
970.781	527
970.866	389
970.952	-1110
971.037	-685
971.122	-241
971.208	-221
971.293	-401
971.378	-660
971.463	-1001
971.549	-658
971.634	83
971.719	-830
971.804	265
971.889	660
971.974	977
972.059	-197
972.144	-111
972.229	-980
972.314	-453
972.399	-241
972.484	-76
972.569	-491
972.654	-271
972.739	620
972.824	2026
972.908	3597
972.993	-65
973.078	-104
973.163	-287
973.247	-786
973.332	-97
973.417	-150
973.501	-328
973.586	-114
973.671	-940
973.755	498
973.840	158
973.924	1059
974.009	388
974.093	-112
974.178	535
974.262	505
974.346	1969
974.431	2301
974.515	177
974.600	-131
974.684	316
974.768	-41
974.852	-122
974.937	9
975.021	-683
975.105	-708
975.189	-572
975.273	94
975.358	-865
975.442	-1072
975.526	-729
975.610	-319
975.694	-653
975.778	-94
975.862	-165
975.946	-1071
976.030	-201
976.114	-600
976.198	44
976.281	-205
976.365	-497
976.449	-903
976.533	-418
976.617	-347
976.700	-272
976.784	-870
976.868	-483
976.951	123
977.035	920
977.119	816
977.202	8
977.286	-923
977.369	-88
977.453	59
977.536	-148
977.620	-16
977.703	-367
977.787	-491
977.870	154
977.953	-322
978.037	-114
978.120	-1063
978.203	430
978.287	1562
978.370	2702
978.453	1379
978.536	-142
978.620	411
978.703	-821
978.786	732
978.869	1335
978.952	-566
979.035	-200
979.118	-290
979.201	-869
979.284	-388
979.367	-172
979.450	-169
979.533	-613
979.616	-556
979.699	-465
979.782	-838
979.865	-394
979.948	-704
980.030	-977
980.113	-545
980.196	-380
980.279	58
980.361	-411
980.444	-1166
980.526	-627
980.609	-407
980.692	-287
980.774	90
980.857	-447
980.939	-104
981.022	-648
981.104	-385
981.187	-635
981.269	-153
981.352	-664
981.434	239
981.516	-515
981.599	-638
981.681	-787
981.763	-510
981.846	-550
981.928	-894
982.010	-1165
982.092	-658
982.174	-23
982.256	-515
982.339	-866
982.421	-1535
982.503	-126
982.585	-766
982.667	-1009
982.749	-114
982.831	-1213
982.913	-261
982.995	-240
983.077	-840
983.158	-842
983.240	-691
983.322	-447
983.404	-207
983.486	-203
983.568	-194
983.649	-255
983.731	-588
983.813	-134
983.894	-213
983.976	-258
984.058	-249
984.139	-921
984.221	-497
984.302	-358
984.384	-173
984.465	-517
984.547	-917
984.628	200
984.710	-327
984.791	-489
984.872	-184
984.954	-604
985.035	-720
985.116	-770
985.198	-532
985.279	-139
985.360	-552
985.441	-151
985.522	-794
985.604	-361
985.685	-113
985.766	323
985.847	-400
985.928	31
986.009	-192
986.090	-708
986.171	-99
986.252	-771
986.333	-452
986.414	-660
986.495	-261
986.576	-419
986.656	-207
986.737	-514
986.818	150
986.899	-289
986.980	-749
987.060	-398
987.141	-397
987.222	-976
987.302	-122
987.383	-316
987.464	59
987.544	-528
987.625	-1564
987.705	-353
987.786	-460
987.866	-61
987.947	-1127
988.027	-816
988.108	385
988.188	-478
988.268	81
988.349	-748
988.429	-80
988.509	2
988.589	-400
988.670	-599
988.750	484
988.830	317
988.910	-175
988.990	-48
989.070	-755
989.151	-498
989.231	450
989.311	137
989.391	-557
989.471	-261
989.551	-417
989.631	-540
989.711	-773
989.791	31
989.870	-667
989.950	-490
990.030	-704
990.110	-1598
990.190	53
990.269	-890
990.349	-515
990.429	-66
990.509	-885
990.588	-482
990.668	161
990.747	-561
990.827	-301
990.907	-810
990.986	-807
991.066	-511
991.145	-836
991.225	-654
991.304	-1381
991.383	-324
991.463	-603
991.542	-35
991.622	-696
991.701	-484
991.780	-664
991.859	-1958
991.939	-1148
992.018	-1011
992.097	-634
992.176	-890
992.256	-1252
992.335	-954
992.414	-354
992.493	-1705
992.572	-746
992.651	-918
992.730	-361
992.809	-255
992.888	-253
992.967	-1068
993.046	-667
993.125	-643
993.203	-412
993.282	-609
993.361	-1807
993.440	-1562
993.519	-1396
993.597	-409
993.676	-495
993.755	-214
993.834	75
993.912	-693
993.991	-42
994.069	-191
994.148	-849
994.226	-400
994.305	-383
994.384	-1427
994.462	-221
994.540	-716
994.619	-1084
994.697	-696
994.776	-1033
994.854	-1293
994.932	-1259
995.011	-1057
995.089	-1369
995.167	-651
995.245	-282
995.324	-1177
995.402	-890
995.480	-1369
995.558	-943
995.636	-725
995.714	-987
995.792	-247
995.870	83
995.948	-1249
996.026	-1605
996.104	-1269
996.182	-1134
996.260	-1290
996.338	-1000
996.416	-960
996.494	-684
996.572	-276
996.649	-218
996.727	-1271
996.805	-1117
996.883	-1129
996.960	-648
997.038	-799
997.116	-1350
997.193	-790
997.271	-169
997.348	-948
997.426	-1937
997.504	-775
997.581	-653
997.658	-683
997.736	-1223
997.813	-1347
997.891	-1134
997.968	-834
998.046	-928
998.123	-1581
998.200	-947
998.277	-1299
998.355	-499
998.432	-1680
998.509	-816
998.586	-884
998.663	-1216
998.741	-903
998.818	-1272
998.895	-1241
998.972	-1213
999.049	-1057
999.126	-830
999.203	-1253
999.280	-1154
999.357	-1157
999.434	-1865
999.511	-657
999.587	-326
999.664	-678
999.741	-1798
999.818	-738
999.895	-2480
999.971	-928
1000.048	-1273
1000.125	-194
1000.202	-2032
1000.278	-1142
1000.355	-1595
1000.431	-1072
1000.508	-1881
1000.584	-1066
1000.661	-1149
1000.738	-1504
1000.814	-506
1000.890	-1987
1000.967	-1520
1001.043	-1378
1001.120	-1917
1001.196	-484
1001.272	-1260
1001.349	-1112
1001.425	-1712
1001.501	-1475
1001.577	-1409
1001.654	-283
1001.730	-1718
1001.806	-1503
1001.882	-2207
1001.958	-738
1002.034	-1298
1002.110	-1259
1002.186	-894
1002.262	-1350
1002.338	-1266
1002.414	-1478
1002.490	-1111
1002.566	-1239
1002.642	-1887
1002.718	-917
1002.794	-1195
1002.870	-555
1002.945	-1083
1003.021	-1032
1003.097	-1419
1003.173	-836
1003.248	-868
1003.324	-1434
1003.400	-1424
1003.475	-1483
1003.551	-1731
1003.626	-693
1003.702	-1516
1003.777	-1775
1003.853	-1551
1003.928	-1793
1004.004	-1634
1004.079	-1291
1004.155	-956
1004.230	-1668
1004.305	-838
1004.381	-1771
1004.456	-1011
1004.531	-1529
1004.607	-1653
1004.682	-1126
1004.757	-1473
1004.832	-1186
1004.907	-1759
1004.982	-1528
1005.057	-1111
1005.133	-1224
1005.208	-1130
1005.283	-1292
1005.358	-1934
1005.433	-889
1005.508	-1099
1005.583	-1456
1005.657	-2262
1005.732	-543
1005.807	-1812
1005.882	-1655
1005.957	-1710
1006.032	-1854
1006.106	-1088
1006.181	-886
1006.256	-1609
1006.331	-594
1006.405	-967
1006.480	-1346
1006.554	-762
1006.629	-1008
1006.704	-2206
1006.778	-1350
1006.853	-1293
1006.927	-2158
1007.002	-1373
1007.076	-1762
1007.150	-1900
1007.225	-1523
1007.299	-1398
1007.373	-1823
1007.448	-1541
1007.522	-640
1007.596	-1910
1007.671	-1797
1007.745	-826
1007.819	-1961
1007.893	-1518
1007.967	-1185
1008.041	-2084
1008.115	-2154
1008.190	-1789
1008.264	-2442
1008.338	-1889
1008.412	-969
1008.486	-1518
1008.560	-979
1008.633	-1694
1008.707	-2196
1008.781	-1609
1008.855	-799
1008.929	-1567
1009.003	-1482
1009.076	-1513
1009.150	-1545
1009.224	-1602
1009.298	-1911
1009.371	-1739
1009.445	-1400
1009.519	-2282
1009.592	-1582
1009.666	-2142
1009.739	-1583
1009.813	-1243
1009.886	-1095
1009.960	-1712
1010.033	-1593
1010.107	-1379
1010.180	-1505
1010.253	-1044
1010.327	-1523
1010.400	-1471
1010.473	-1956
1010.547	-880
1010.620	-1760
1010.693	-1575
1010.766	-2919
1010.840	-1447
1010.913	-1259
1010.986	-1299
1011.059	-1309
1011.132	-1404
1011.205	-2092
1011.278	-901
1011.351	-2060
1011.424	-1554
1011.497	-2056
1011.570	-1208
1011.643	-1181
1011.716	-1939
1011.789	-2182
1011.862	-1286
1011.934	-1601
1012.007	-1793
1012.080	-847
1012.153	-2130
1012.225	-1364
1012.298	-1350
1012.371	-1696
1012.443	-2198
1012.516	-2189
1012.588	-1261
1012.661	-1049
1012.733	-2060
1012.806	-1196
1012.879	-1981
1012.951	-1471
1013.023	-2035
1013.096	-1310
1013.168	-2043
1013.241	-1714
1013.313	-2318
1013.385	-1817
1013.458	-2254
1013.530	-1913
1013.602	-1900
1013.674	-1018
1013.746	-1500
1013.819	-1816
1013.891	-1964
1013.963	-2459
1014.035	-1783
1014.107	-2074
1014.179	-1630
1014.251	-1430
1014.323	-1692
1014.395	-1622
1014.467	-2075
1014.539	-1896
1014.611	-1552
1014.683	-1804
1014.754	-729
1014.826	-2000
1014.898	-1403
1014.970	-2299
1015.042	-1177
1015.113	-1390
1015.185	-1708
1015.257	-1273
1015.328	-2126
1015.400	-2101
1015.471	-1843
1015.543	-2006
1015.615	-2056
1015.686	-1881
1015.757	-1936
1015.829	-1198
1015.901	-2405
1015.972	-1603
1016.043	-1744
1016.115	-1979
1016.186	-1637
1016.257	-1464
1016.328	-1744
1016.400	-1829
1016.471	-2324
1016.542	-2649
1016.613	-1980
1016.685	-1594
1016.756	-1546
1016.827	-1103
1016.898	-2649
1016.969	-1624
1017.040	-1905
1017.111	-1949
1017.182	-2364
1017.253	-1883
1017.324	-1793
1017.395	-1765
1017.466	-1845
1017.537	-1840
1017.608	-2459
1017.678	-1467
1017.749	-1379
1017.820	-1657
1017.891	-2026
1017.961	-1895
1018.032	-1971
1018.103	-1304
1018.173	-1842
1018.244	-1737
1018.315	-1912
1018.385	-1568
1018.456	-2330
1018.526	-2173
1018.597	-2305
1018.667	-2063
1018.738	-1729
1018.808	-1823
1018.878	-1501
1018.949	-1444
1019.019	-2231
1019.089	-1670
1019.160	-1591
1019.230	-2707
1019.300	-2094
1019.371	-2563
1019.441	-2048
1019.511	-2121
1019.581	-2539
1019.651	-1177
1019.721	-1446
1019.791	-1977
1019.861	-2073
1019.931	-1551
1020.001	-1790
1020.071	-1482
1020.141	-2190
1020.211	-1364
1020.281	-2017
1020.351	-1841
1020.421	-2513
1020.491	-1768
1020.560	-2105
1020.630	-2020
1020.700	-1628
1020.770	-2063
1020.839	-1947
1020.909	-2055
1020.979	-1510
1021.048	-1982
1021.118	-2631
1021.187	-1476
1021.257	-1710
1021.326	-2131
1021.396	-2269
1021.465	-1880
1021.535	-2688
1021.604	-1704
1021.674	-1944
1021.743	-2169
1021.812	-1964
1021.882	-2044
1021.951	-2322
1022.020	-1688
1022.089	-1063
1022.159	-2584
1022.228	-1993
1022.297	-2481
1022.366	-2020
1022.435	-1360
1022.504	-2242
1022.573	-2676
1022.642	-2163
1022.711	-1373
1022.781	-1941
1022.849	-1627
1022.918	-2556
1022.987	-2583
1023.056	-2178
1023.125	-1898
1023.194	-2523
1023.263	-1916
1023.331	-2119
1023.400	-2355
1023.469	-2258
1023.538	-1579
1023.606	-2462
1023.675	-2153
1023.744	-2430
1023.812	-2075
1023.881	-2361
1023.949	-2194
1024.018	-1540
1024.086	-1479
1024.155	-1976
1024.223	-1976
1024.292	-2092
1024.360	-1829
1024.429	-2704
1024.497	-1327
1024.565	-2554
1024.634	-2059
1024.702	-1965
1024.770	-2017
1024.838	-2702
1024.907	-1475
1024.975	-2013
1025.043	-2047
1025.111	-1990
1025.179	-1930
1025.247	-1962
1025.315	-1846
1025.383	-2861
1025.451	-2479
1025.519	-2018
1025.587	-2271
1025.655	-2401
1025.723	-2669
1025.791	-2054
1025.859	-2144
1025.927	-1483
1025.995	-2172
1026.062	-2626
1026.130	-1848
1026.198	-1423
1026.266	-1796
1026.333	-2346
1026.401	-2065
1026.469	-2579
1026.536	-2176
1026.604	-2782
1026.671	-2188
1026.739	-2248
1026.806	-2565
1026.874	-2054
1026.941	-1834
1027.009	-1521
1027.076	-2755
1027.144	-1995
1027.211	-1986
1027.278	-2056
1027.345	-2604
1027.413	-2237
1027.480	-2895
1027.547	-1937
1027.614	-2136
1027.682	-2272
1027.749	-1833
1027.816	-2439
1027.883	-1707
1027.950	-1784
1028.017	-1555
1028.084	-1980
1028.151	-1800
1028.218	-2089
1028.285	-2346
1028.352	-2201
1028.419	-2201
1028.486	-2013
1028.553	-2088
1028.619	-2186
1028.686	-2206
1028.753	-2538
1028.820	-1810
1028.886	-2364
1028.953	-2530
1029.020	-2602
1029.086	-1906
1029.153	-1992
1029.220	-2593
1029.286	-1952
1029.353	-2100
1029.419	-2358
1029.486	-2933
1029.552	-1774
1029.619	-2133
1029.685	-2217
1029.751	-2411
1029.818	-1120
1029.884	-2265
1029.951	-1828
1030.017	-2398
1030.083	-2832
1030.149	-2648
1030.216	-1949
1030.282	-1901
1030.348	-2171
1030.414	-2369
1030.480	-2275
1030.546	-2243
1030.612	-2415
1030.678	-2206
1030.744	-2749
1030.810	-1587
1030.876	-2572
1030.942	-1852
1031.008	-2021
1031.074	-2550
1031.140	-2361
1031.206	-2046
1031.272	-2022
1031.337	-2161
1031.403	-2396
1031.469	-2171
1031.534	-2236
1031.600	-1487
1031.666	-2942
1031.731	-2296
1031.797	-2762
1031.863	-2955
1031.928	-2583
1031.994	-2823
1032.059	-2021
1032.125	-2176
1032.190	-2775
1032.256	-2289
1032.321	-2207
1032.386	-2398
1032.452	-1611
1032.517	-2347
1032.582	-1886
1032.647	-2426
1032.713	-1949
1032.778	-2019
1032.843	-2039
1032.908	-1768
1032.974	-2312
1033.039	-1534
1033.104	-2184
1033.169	-1835
1033.234	-2080
1033.299	-1216
1033.364	-2574
1033.429	-2028
1033.494	-1073
1033.559	-1896
1033.624	-1125
1033.688	-1669
1033.753	-2558
1033.818	-2016
1033.883	-1829
1033.948	-1937
1034.013	-2179
1034.077	-1294
1034.142	-1137
1034.207	-2126
1034.271	-1232
1034.336	-804
1034.400	-642
1034.465	542
1034.530	-413
1034.594	-498
1034.658	-505
1034.723	-1561
1034.787	-2200
1034.852	-2201
1034.916	-1988
1034.981	-2605
1035.045	-2150
1035.109	-2231
1035.173	-1071
1035.238	-2084
1035.302	-1967
1035.366	-2572
1035.430	-2776
1035.495	-2906
1035.559	-2171
1035.623	-1694
1035.687	-2557
1035.751	-2602
1035.815	-2721
1035.879	-2547
1035.943	-2882
1036.007	-2605
1036.071	-1802
1036.135	-2253
1036.198	-2089
1036.262	-1705
1036.326	-2922
1036.390	-1846
1036.454	-2322
1036.517	-1670
1036.581	-1341
1036.645	-1691
1036.709	-1471
1036.772	-344
1036.836	59
1036.900	-1560
1036.963	-2058
1037.026	-1701
1037.090	-2400
1037.154	-2460
1037.217	-1924
1037.280	-2211
1037.344	-1767
1037.407	-3099
1037.471	-2242
1037.534	-1854
1037.597	-2185
1037.661	-1946
1037.724	-2614
1037.787	-2622
1037.850	-2514
1037.913	-2317
1037.977	-2088
1038.040	-1778
1038.103	-2512
1038.166	-2314
1038.229	-2085
1038.292	-2512
1038.355	-2727
1038.418	-2637
1038.481	-2107
1038.544	-2163
1038.607	-2260
1038.670	-2136
1038.732	-1982
1038.795	-2590
1038.858	-2294
1038.921	-2088
1038.984	-2415
1039.046	-2307
1039.109	-1855
1039.172	-2470
1039.234	-3403
1039.297	-1912
1039.360	-1637
1039.422	-3133
1039.485	-1850
1039.547	-2235
1039.610	-2718
1039.672	-1847
1039.734	-2092
1039.797	-2047
1039.859	-2158
1039.922	-2197
1039.984	-2260
1040.046	-1900
1040.109	-2420
1040.171	-2139
1040.233	-2405
1040.295	-1749
1040.358	-2498
1040.420	-2098
1040.482	-3112
1040.544	-2150
1040.606	-2483
1040.668	-2242
1040.730	-2698
1040.792	-2923
1040.854	-2699
1040.916	-3175
1040.978	-2010
1041.040	-2264
1041.102	-2384
1041.164	-1850
1041.225	-1988
1041.287	-2198
1041.349	-2086
1041.411	-2671
1041.472	-1864
1041.534	-2208
1041.596	-2104
1041.657	-2568
1041.719	-2412
1041.781	-2218
1041.842	-2756
1041.904	-2321
1041.965	-2642
1042.027	-2321
1042.088	-2649
1042.150	-1797
1042.211	-2132
1042.272	-1714
1042.334	-2964
1042.395	-2914
1042.456	-2120
1042.518	-2241
1042.579	-1721
1042.640	-2667
1042.701	-2653
1042.763	-2050
1042.824	-2513
1042.885	-2337
1042.946	-2446
1043.007	-2731
1043.068	-3155
1043.129	-2405
1043.190	-2341
1043.251	-2626
1043.312	-1985
1043.373	-2600
1043.434	-3155
1043.495	-2584
1043.556	-2300
1043.616	-3282
1043.677	-2372
1043.738	-2217
1043.799	-2299
1043.859	-2218
1043.920	-3076
1043.981	-2874
1044.041	-2203
1044.102	-2544
1044.162	-1859
1044.223	-2305
1044.284	-2817
1044.344	-1697
1044.405	-2457
1044.465	-2436
1044.525	-2247
1044.586	-2304
1044.646	-2715
1044.707	-2246
1044.767	-1644
1044.827	-2836
1044.887	-2367
1044.948	-2824
1045.008	-2387
1045.068	-2618
1045.128	-2222
1045.188	-2445
1045.249	-2320
1045.309	-2612
1045.369	-1804
1045.429	-1653
1045.489	-1630
1045.549	-2125
1045.609	-2616
1045.669	-2305
1045.729	-3129
1045.789	-1854
1045.848	-2299
1045.908	-2220
1045.968	-2114
1046.028	-2930
1046.088	-2105
1046.147	-1678
1046.207	-1886
1046.267	-2259
1046.326	-1868
1046.386	-2208
1046.446	-1435
1046.505	-1783
1046.565	-1625
1046.624	-2067
1046.684	-1774
1046.743	-1642
1046.803	-1665
1046.862	-1416
1046.922	0
