'Start Wavelength	183.907
'End Wavelength	1046.922
'Gate Delay	5.000
'Gate Width (ms)	1.050
'Laser Output Level	0.000
'X Position	0.000
'Y Position	0.000
'Z Position	0.000
'Grid Point Number	1.000
'Shot Number	100.000
183.907	191.000
183.977	31.000
184.047	344
184.116	20
184.186	650
184.256	796
184.325	165
184.395	177
184.465	30
184.534	-203
184.604	68
184.674	-170
184.743	-934
184.813	203
184.883	-404
184.952	462
185.022	-204
185.092	325
185.161	-196
185.231	6
185.301	-819
185.370	1251
185.440	-339
185.509	175
185.579	-594
185.649	863
185.718	412
185.788	-122
185.857	-176
185.927	549
185.996	127
186.066	52
186.136	-178
186.205	24
186.275	-140
186.344	-109
186.414	483
186.483	348
186.553	802
186.622	331
186.692	-75
186.761	546
186.831	7
186.900	357
186.970	554
187.039	-76
187.109	518
187.178	478
187.248	298
187.317	362
187.387	-304
187.456	283
187.526	140
187.595	-214
187.664	-498
187.734	251
187.803	217
187.873	-203
187.942	18
188.012	426
188.081	-146
188.150	160
188.220	426
188.289	404
188.358	31
188.428	458
188.497	-145
188.567	385
188.636	188
188.705	-86
188.775	-67
188.844	-176
188.913	-117
188.983	-137
189.052	93
189.121	276
189.191	-798
189.260	235
189.329	672
189.399	-153
189.468	126
189.537	69
189.606	466
189.676	594
189.745	-155
189.814	476
189.883	60
189.953	410
190.022	324
190.091	602
190.161	335
190.230	-63
190.299	633
190.368	484
190.437	-250
190.507	460
190.576	160
190.645	1017
190.714	188
190.783	-204
190.853	271
190.922	1141
190.991	220
191.060	705
191.129	-724
191.198	798
191.268	-893
191.337	-26
191.406	327
191.475	125
191.544	339
191.613	478
191.682	220
191.752	521
191.821	332
191.890	711
191.959	-306
192.028	589
192.097	287
192.166	-81
192.235	-71
192.304	728
192.373	121
192.442	337
192.511	325
192.580	172
192.650	324
192.719	-92
192.788	59
192.857	386
192.926	172
192.995	634
193.064	576
193.133	993
193.202	288
193.271	554
193.340	747
193.409	311
193.478	1186
193.547	165
193.615	325
193.684	1227
193.753	129
193.822	809
193.891	531
193.960	662
194.029	50
194.098	101
194.167	966
194.236	1435
194.305	12
194.374	134
194.443	253
194.512	275
194.580	391
194.649	853
194.718	657
194.787	516
194.856	-387
194.925	817
194.994	-239
195.062	144
195.131	509
195.200	1095
195.269	201
195.338	546
195.407	95
195.475	473
195.544	604
195.613	196
195.682	551
195.751	1065
195.819	178
195.888	152
195.957	297
196.026	369
196.094	1002
196.163	282
196.232	815
196.301	835
196.369	367
196.438	-128
196.507	-576
196.576	809
196.644	81
196.713	350
196.782	112
196.850	621
196.919	-295
196.988	196
197.056	929
197.125	857
197.194	83
197.262	-47
197.331	183
197.400	69
197.468	-5
197.537	861
197.606	367
197.674	767
197.743	-99
197.812	223
197.880	1342
197.949	737
198.017	-108
198.086	530
198.155	436
198.223	170
198.292	492
198.360	-104
198.429	98
198.497	636
198.566	931
198.635	698
198.703	658
198.772	186
198.840	823
198.909	512
198.977	385
199.046	96
199.114	-13
199.183	1008
199.251	247
199.320	510
199.388	734
199.457	560
199.525	316
199.594	-226
199.662	-434
199.731	668
199.799	523
199.867	530
199.936	351
200.004	-80
200.073	-434
200.141	442
200.210	-191
200.278	-989
200.346	552
200.415	604
200.483	842
200.552	505
200.620	330
200.688	495
200.757	-76
200.825	215
200.893	707
200.962	631
201.030	-481
201.098	-48
201.167	125
201.235	268
201.303	-54
201.372	522
201.440	120
201.508	21
201.577	475
201.645	911
201.713	194
201.781	315
201.850	99
201.918	715
201.986	-144
202.055	987
202.123	161
202.191	-73
202.259	158
202.327	-61
202.396	-159
202.464	367
202.532	119
202.600	559
202.669	255
202.737	143
202.805	29
202.873	1309
202.941	387
203.009	233
203.078	-500
203.146	829
203.214	-116
203.282	-586
203.350	-1
203.418	113
203.487	140
203.555	616
203.623	673
203.691	199
203.759	-268
203.827	448
203.895	981
203.963	581
204.031	73
204.099	102
204.168	-339
204.236	334
204.304	279
204.372	198
204.440	681
204.508	724
204.576	-296
204.644	312
204.712	-620
204.780	212
204.848	65
204.916	-145
204.984	607
205.052	59
205.120	-49
205.188	551
205.256	571
205.324	877
205.392	-177
205.460	649
205.528	472
205.596	375
205.664	181
205.732	-9
205.799	1472
205.867	1225
205.935	412
206.003	415
206.071	-123
206.139	-131
206.207	-369
206.275	850
206.343	602
206.411	669
206.478	22
206.546	748
206.614	271
206.682	978
206.750	893
206.818	730
206.885	567
206.953	-314
207.021	184
207.089	880
207.157	309
207.225	479
207.292	4
207.360	840
207.428	40
207.496	817
207.563	619
207.631	519
207.699	273
207.767	773
207.834	72
207.902	602
207.970	-493
208.038	330
208.105	767
208.173	120
208.241	140
208.309	1327
208.376	334
208.444	1099
208.512	1247
208.579	-43
208.647	380
208.715	889
208.782	93
208.850	431
208.918	12
208.985	1177
209.053	246
209.120	235
209.188	7
209.256	504
209.323	64
209.391	589
209.459	997
209.526	590
209.594	774
209.661	815
209.729	303
209.796	784
209.864	919
209.932	245
209.999	1217
210.067	615
210.134	102
210.202	964
210.269	809
210.337	1111
210.404	510
210.472	566
210.539	404
210.607	757
210.674	763
210.742	98
210.809	492
210.877	1096
210.944	646
211.012	790
211.079	676
211.146	1148
211.214	210
211.281	742
211.349	1361
211.416	888
211.484	266
211.551	724
211.618	744
211.686	1277
211.753	333
211.821	569
211.888	541
211.955	687
212.023	378
212.090	915
212.157	232
212.225	1048
212.292	1194
212.359	1757
212.427	3465
212.494	2302
212.561	675
212.629	694
212.696	651
212.763	900
212.831	310
212.898	1094
212.965	123
213.032	521
213.100	-129
213.167	897
213.234	336
213.301	1275
213.369	971
213.436	870
213.503	488
213.570	900
213.638	332
213.705	-86
213.772	286
213.839	439
213.906	724
213.973	1348
214.041	7
214.108	473
214.175	918
214.242	-93
214.309	3
214.376	1303
214.444	680
214.511	337
214.578	588
214.645	654
214.712	806
214.779	336
214.846	419
214.913	576
214.980	656
215.048	1219
215.115	1163
215.182	1516
215.249	123
215.316	1023
215.383	535
215.450	316
215.517	907
215.584	1157
215.651	479
215.718	302
215.785	493
215.852	195
215.919	854
215.986	620
216.053	720
216.120	708
216.187	296
216.254	646
216.321	118
216.388	594
216.455	483
216.522	962
216.589	194
216.656	1046
216.722	867
216.789	680
216.856	720
216.923	1267
216.990	221
217.057	1462
217.124	1756
217.191	1421
217.258	337
217.324	1858
217.391	1501
217.458	433
217.525	366
217.592	1034
217.659	-215
217.725	650
217.792	541
217.859	762
217.926	536
217.993	786
218.059	315
218.126	467
218.193	774
218.260	-290
218.327	441
218.393	760
218.460	344
218.527	588
218.594	-498
218.660	438
218.727	812
218.794	-334
218.860	195
218.927	744
218.994	455
219.061	151
219.127	181
219.194	1388
219.261	-206
219.327	415
219.394	545
219.461	309
219.527	250
219.594	465
219.661	153
219.727	-129
219.794	807
219.860	840
219.927	79
219.994	955
220.060	863
220.127	-30
220.193	1027
220.260	-136
220.326	1140
220.393	2124
220.460	1610
220.526	1200
220.593	690
220.659	1619
220.726	994
220.792	2758
220.859	1800
220.925	2811
220.992	3300
221.058	3464
221.125	2457
221.191	1915
221.258	1223
221.324	1009
221.391	451
221.457	364
221.524	484
221.590	1773
221.657	2871
221.723	1357
221.789	1263
221.856	1687
221.922	855
221.989	1106
222.055	389
222.121	-125
222.188	675
222.254	1222
222.321	758
222.387	317
222.453	-807
222.520	468
222.586	-157
222.652	705
222.719	-498
222.785	644
222.851	177
222.918	559
222.984	528
223.050	450
223.116	-348
223.183	837
223.249	-283
223.315	-400
223.382	-337
223.448	175
223.514	-765
223.580	266
223.647	-420
223.713	-129
223.779	-28
223.845	638
223.911	66
223.978	970
224.044	733
224.110	-56
224.176	-289
224.242	573
224.309	37
224.375	329
224.441	783
224.507	75
224.573	-74
224.639	1201
224.705	-120
224.772	392
224.838	-101
224.904	828
224.970	-144
225.036	109
225.102	16
225.168	-90
225.234	1053
225.300	124
225.366	568
225.432	772
225.499	-248
225.565	-282
225.631	344
225.697	690
225.763	1030
225.829	1420
225.895	437
225.961	894
226.027	1330
226.093	776
226.159	894
226.225	2426
226.291	3785
226.357	5556
226.423	3265
226.489	1112
226.554	1521
226.620	1474
226.686	1691
226.752	3022
226.818	4053
226.884	7127
226.950	5565
227.016	3166
227.082	2505
227.148	1334
227.214	963
227.279	1720
227.345	568
227.411	258
227.477	-191
227.543	1663
227.609	1029
227.674	1534
227.740	778
227.806	1290
227.872	604
227.938	635
228.003	812
228.069	335
228.135	484
228.201	385
228.267	576
228.332	420
228.398	-110
228.464	863
228.530	-275
228.595	791
228.661	226
228.727	625
228.792	791
228.858	199
228.924	226
228.990	1403
229.055	640
229.121	683
229.187	890
229.252	411
229.318	-873
229.384	979
229.449	729
229.515	-121
229.581	-838
229.646	2181
229.712	174
229.777	1070
229.843	554
229.909	945
229.974	1124
230.040	777
230.105	-610
230.171	1016
230.236	1551
230.302	875
230.368	534
230.433	670
230.499	106
230.564	679
230.630	204
230.695	215
230.761	963
230.826	275
230.892	1151
230.957	680
231.023	240
231.088	318
231.154	482
231.219	1028
231.284	388
231.350	1309
231.415	161
231.481	1283
231.546	574
231.612	652
231.677	-147
231.742	-1031
231.808	1753
231.873	377
231.939	-766
232.004	305
232.069	639
232.135	157
232.200	737
232.265	825
232.331	373
232.396	157
232.461	-258
232.527	961
232.592	-313
232.657	320
232.723	-423
232.788	147
232.853	-116
232.918	757
232.984	-754
233.049	315
233.114	145
233.179	523
233.245	710
233.310	776
233.375	474
233.440	412
233.506	-571
233.571	27
233.636	411
233.701	424
233.766	225
233.832	684
233.897	-216
233.962	-468
234.027	593
234.092	1112
234.157	523
234.222	916
234.288	231
234.353	2044
234.418	2090
234.483	1971
234.548	893
234.613	1321
234.678	1252
234.743	759
234.808	2870
234.873	1320
234.938	632
235.004	517
235.069	772
235.134	487
235.199	733
235.264	373
235.329	353
235.394	1189
235.459	822
235.524	934
235.589	28
235.654	111
235.719	2
235.784	921
235.849	203
235.913	1702
235.978	1006
236.043	1239
236.108	204
236.173	498
236.238	988
236.303	704
236.368	-438
236.433	1575
236.498	859
236.563	1713
236.627	4337
236.692	10009
236.757	6419
236.822	4180
236.887	2442
236.952	1681
237.017	1624
237.081	2307
237.146	2473
237.211	6215
237.276	9403
237.341	11570
237.405	6250
237.470	2914
237.535	2003
237.600	1566
237.664	2034
237.729	582
237.794	995
237.859	4605
237.923	2244
237.988	1123
238.053	1625
238.118	1156
238.182	2999
238.247	3523
238.312	1238
238.376	858
238.441	-157
238.506	1891
238.570	-423
238.635	1417
238.700	17
238.764	741
238.829	1102
238.893	1747
238.958	918
239.023	1416
239.087	895
239.152	985
239.216	514
239.281	889
239.346	527
239.410	560
239.475	447
239.539	4092
239.604	1391
239.668	988
239.733	309
239.797	527
239.862	2203
239.926	2463
239.991	358
240.055	142
240.120	517
240.184	510
240.249	-378
240.313	340
240.378	98
240.442	2178
240.507	2337
240.571	923
240.635	385
240.700	1132
240.764	-235
240.829	170
240.893	311
240.957	559
241.022	2626
241.086	2531
241.151	604
241.215	208
241.279	898
241.344	482
241.408	1090
241.472	-293
241.537	833
241.601	1206
241.665	603
241.730	193
241.794	1803
241.858	1144
241.922	850
241.987	1527
242.051	754
242.115	1131
242.179	467
242.244	-109
242.308	842
242.372	1106
242.436	839
242.501	878
242.565	346
242.629	970
242.693	1472
242.757	100
242.822	805
242.886	867
242.950	366
243.014	278
243.078	1011
243.142	1092
243.206	-258
243.271	937
243.335	1236
243.399	2318
243.463	5251
243.527	11513
243.591	3187
243.655	1131
243.719	376
243.783	2035
243.847	1549
243.911	2828
243.975	2659
244.040	901
244.104	1781
244.168	1056
244.232	1260
244.296	2621
244.360	2799
244.424	419
244.488	775
244.552	1594
244.615	201
244.679	796
244.743	1597
244.807	414
244.871	535
244.935	627
244.999	-454
245.063	536
245.127	1190
245.191	1262
245.255	379
245.319	1686
245.383	381
245.446	2000
245.510	-298
245.574	891
245.638	438
245.702	380
245.766	1944
245.829	1823
245.893	-65
245.957	943
246.021	777
246.085	843
246.149	1420
246.212	3601
246.276	2988
246.340	1512
246.404	1067
246.467	1905
246.531	628
246.595	1746
246.659	1150
246.722	906
246.786	1102
246.850	1355
246.913	1319
246.977	816
247.041	489
247.104	772
247.168	1050
247.232	3009
247.295	4436
247.359	1317
247.423	1367
247.486	2906
247.550	1538
247.614	646
247.677	1820
247.741	1296
247.804	1035
247.868	2107
247.932	2253
247.995	4957
248.059	1028
248.122	810
248.186	2605
248.249	3427
248.313	8016
248.376	6830
248.440	4547
248.503	1607
248.567	3479
248.630	2926
248.694	3577
248.757	5815
248.821	7605
248.884	5980
248.948	4940
249.011	7063
249.075	8813
249.138	6958
249.202	3026
249.265	2687
249.328	3534
249.392	2120
249.455	1710
249.519	1965
249.582	1903
249.645	5943
249.709	5163
249.772	6991
249.835	3615
249.899	2529
249.962	2446
250.025	1365
250.089	4759
250.152	4432
250.215	2830
250.279	1831
250.342	2120
250.405	1650
250.468	1164
250.532	2334
250.595	4822
250.658	15628
250.721	17837
250.785	5876
250.848	5418
250.911	2885
250.974	2934
251.038	3723
251.101	5553
251.164	3030
251.227	3595
251.290	3202
251.354	5896
251.417	20436
251.480	15051
251.543	15512
251.606	34318
251.669	20546
251.732	9851
251.795	9080
251.859	11256
251.922	19704
251.985	10713
252.048	5812
252.111	3156
252.174	3816
252.237	6231
252.300	10450
252.363	14435
252.426	21307
252.489	8869
252.552	5010
252.615	3633
252.678	4863
252.741	8055
252.804	14067
252.867	25268
252.930	13280
252.993	6297
253.056	5207
253.119	3042
253.182	2388
253.245	4513
253.308	3145
253.371	2300
253.434	2426
253.497	3081
253.559	4971
253.622	3858
253.685	4996
253.748	3046
253.811	2634
253.874	2724
253.937	2351
254.000	2781
254.062	3784
254.125	4058
254.188	6138
254.251	3752
254.314	2025
254.376	3539
254.439	4689
254.502	3045
254.565	3945
254.628	5697
254.690	3229
254.753	1891
254.816	1589
254.878	2301
254.941	3631
255.004	2881
255.067	1577
255.129	650
255.192	926
255.255	401
255.317	1805
255.380	290
255.443	542
255.505	104
255.568	501
255.631	297
255.693	1195
255.756	-746
255.819	1201
255.881	425
255.944	428
256.006	-189
256.069	954
256.132	753
256.194	1340
256.257	1983
256.319	2374
256.382	1229
256.444	2062
256.507	886
256.569	1099
256.632	1137
256.694	2511
256.757	8179
256.819	18681
256.882	7278
256.944	2845
257.007	2526
257.069	2867
257.132	1152
257.194	2086
257.257	957
257.319	1634
257.381	1609
257.444	7427
257.506	21974
257.569	19815
257.631	8492
257.693	5053
257.756	2782
257.818	1311
257.880	859
257.943	1900
258.005	250
258.067	1435
258.130	1269
258.192	1274
258.254	2234
258.317	1838
258.379	1784
258.441	2045
258.503	2266
258.566	3834
258.628	4017
258.690	620
258.753	1846
258.815	3000
258.877	1305
258.939	1504
259.001	970
259.064	513
259.126	1402
259.188	2089
259.250	1687
259.312	1788
259.375	2672
259.437	1754
259.499	910
259.561	1016
259.623	1056
259.685	591
259.747	191
259.809	4325
259.872	5443
259.934	10792
259.996	7949
260.058	2978
260.120	1003
260.182	1585
260.244	1054
260.306	420
260.368	1185
260.430	-190
260.492	1843
260.554	4173
260.616	719
260.678	4916
260.740	4142
260.802	1183
260.864	1421
260.926	446
260.988	1435
261.050	1191
261.112	2686
261.174	7731
261.236	3075
261.298	1515
261.359	2333
261.421	4275
261.483	1046
261.545	1122
261.607	115
261.669	1671
261.731	1289
261.793	4408
261.854	606
261.916	1694
261.978	778
262.040	1229
262.102	972
262.164	1140
262.225	372
262.287	1110
262.349	2289
262.411	1896
262.472	921
262.534	2040
262.596	2543
262.658	1243
262.719	-271
262.781	1050
262.843	1938
262.904	1831
262.966	969
263.028	1569
263.090	9610
263.151	17231
263.213	5176
263.275	2377
263.336	945
263.398	1423
263.459	-187
263.521	1606
263.583	2658
263.644	1598
263.706	476
263.767	384
263.829	354
263.891	1021
263.952	-204
264.014	-6
264.075	1170
264.137	3027
264.198	958
264.260	756
264.321	436
264.383	2293
264.444	5030
264.506	852
264.567	610
264.629	3283
264.690	3199
264.752	1829
264.813	1491
264.875	197
264.936	1166
264.998	751
265.059	283
265.120	822
265.182	1875
265.243	12533
265.305	9807
265.366	2390
265.427	1062
265.489	1827
265.550	-611
265.611	1240
265.673	-48
265.734	165
265.795	845
265.857	1026
265.918	262
265.979	4383
266.040	19098
266.102	11637
266.163	4187
266.224	2594
266.286	1610
266.347	316
266.408	959
266.469	1044
266.530	429
266.592	670
266.653	2026
266.714	2979
266.775	488
266.836	170
266.898	706
266.959	1196
267.020	786
267.081	1332
267.142	808
267.203	434
267.264	-268
267.326	1158
267.387	-441
267.448	61
267.509	231
267.570	-142
267.631	342
267.692	37
267.753	624
267.814	280
267.875	1980
267.936	2859
267.997	1959
268.058	1716
268.119	605
268.180	1100
268.241	-600
268.302	378
268.363	267
268.424	788
268.485	-77
268.546	726
268.607	57
268.668	340
268.729	-48
268.790	529
268.851	492
268.912	2181
268.972	2738
269.033	578
269.094	131
269.155	1064
269.216	916
269.277	-15
269.338	646
269.398	1338
269.459	-161
269.520	1553
269.581	1201
269.642	1981
269.702	144
269.763	1144
269.824	1146
269.885	1049
269.945	1100
270.006	1225
270.067	-167
270.128	480
270.188	227
270.249	151
270.310	-564
270.370	90
270.431	-83
270.492	428
270.553	1295
270.613	2106
270.674	3181
270.734	964
270.795	687
270.856	1537
270.916	-54
270.977	396
271.038	1106
271.098	923
271.159	1368
271.219	751
271.280	785
271.340	433
271.401	-7
271.462	1226
271.522	615
271.583	636
271.643	109
271.704	137
271.764	701
271.825	3424
271.885	9448
271.946	8889
272.006	3480
272.066	5751
272.127	7564
272.187	2160
272.248	337
272.308	981
272.369	5214
272.429	2557
272.489	2307
272.550	2451
272.610	3537
272.671	1177
272.731	1303
272.791	1839
272.852	509
272.912	1697
272.972	128
273.033	826
273.093	104
273.153	1275
273.214	38
273.274	896
273.334	4289
273.394	6703
273.455	2680
273.515	3542
273.575	6339
273.635	1929
273.696	4073
273.756	6426
273.816	1895
273.876	1819
273.936	3705
273.997	4634
274.057	701
274.117	596
274.177	2695
274.237	10928
274.297	6444
274.358	4903
274.418	6272
274.478	4129
274.538	991
274.598	1108
274.658	4577
274.718	4713
274.778	1457
274.838	925
274.898	2675
274.958	6519
275.018	7304
275.078	4065
275.138	1871
275.198	104
275.258	370
275.318	403
275.378	2131
275.438	2225
275.498	1742
275.558	4019
275.618	7399
275.678	3198
275.738	4065
275.798	2001
275.858	795
275.918	-146
275.978	1293
276.038	764
276.098	284
276.157	2094
276.217	5311
276.277	2518
276.337	1026
276.397	980
276.457	1075
276.517	824
276.576	514
276.636	-670
276.696	1542
276.756	4315
276.815	1786
276.875	888
276.935	177
276.995	702
277.055	-289
277.114	914
277.174	1490
277.234	3617
277.293	1651
277.353	1175
277.413	939
277.472	925
277.532	1012
277.592	1142
277.651	4765
277.711	6851
277.771	1822
277.830	10132
277.890	6415
277.950	5869
278.009	13493
278.069	4357
278.128	7117
278.188	6908
278.248	4127
278.307	10222
278.367	3504
278.426	1691
278.486	-289
278.545	-68
278.605	230
278.664	919
278.724	133
278.783	4178
278.843	6098
278.902	1655
278.962	393
279.021	1605
279.081	1809
279.140	2595
279.199	1443
279.259	1657
279.318	1570
279.378	2540
279.437	6157
279.496	20271
279.556	67081
279.615	32457
279.675	8705
279.734	5648
279.793	7728
279.853	9920
279.912	3426
279.971	2424
280.031	1614
280.090	4164
280.149	5610
280.208	8908
280.268	42476
280.327	26817
280.386	5789
280.445	5306
280.505	3751
280.564	1790
280.623	1268
280.682	3419
280.742	3325
280.801	1333
280.860	492
280.919	394
280.978	-727
281.037	773
281.097	-56
281.156	1167
281.215	407
281.274	824
281.333	5457
281.392	2324
281.451	469
281.510	326
281.569	-199
281.628	307
281.688	126
281.747	844
281.806	283
281.865	379
281.924	463
281.983	224
282.042	140
282.101	31
282.160	420
282.219	-285
282.278	23
282.337	3337
282.396	1015
282.454	486
282.513	1325
282.572	4382
282.631	1435
282.690	651
282.749	268
282.808	529
282.867	552
282.926	230
282.985	-307
283.043	-269
283.102	75
283.161	327
283.220	3034
283.279	4401
283.338	184
283.396	314
283.455	705
283.514	1219
283.573	1553
283.631	829
283.690	473
283.749	701
283.808	1977
283.866	2123
283.925	176
283.984	518
284.043	1885
284.101	1284
284.160	-326
284.219	1150
284.277	623
284.336	1915
284.395	7106
284.453	4064
284.512	2068
284.570	3288
284.629	2038
284.688	2428
284.746	2395
284.805	2997
284.863	4464
284.922	5708
284.981	7045
285.039	10304
285.098	19825
285.156	35382
285.215	40434
285.273	38359
285.332	31193
285.390	20334
285.449	13381
285.507	8883
285.566	6672
285.624	5723
285.683	3569
285.741	2919
285.799	1872
285.858	1642
285.916	1999
285.975	1704
286.033	1444
286.091	949
286.150	351
286.208	1279
286.267	1033
286.325	1132
286.383	1802
286.442	1449
286.500	-11
286.558	776
286.616	-44
286.675	614
286.733	629
286.791	220
286.850	1657
286.908	830
286.966	1945
287.024	471
287.083	374
287.141	-611
287.199	91
287.257	1878
287.315	421
287.374	1294
287.432	2104
287.490	1725
287.548	397
287.606	61
287.664	1018
287.723	1648
287.781	328
287.839	1366
287.897	866
287.955	1033
288.013	3424
288.071	9222
288.129	35672
288.187	66883
288.245	28482
288.303	9646
288.361	6143
288.419	3690
288.477	2519
288.535	2752
288.593	1115
288.651	1299
288.709	-171
288.767	564
288.825	-376
288.883	123
288.941	-48
288.999	-679
289.057	-466
289.115	-158
289.173	-477
289.231	-23
289.289	-27
289.346	324
289.404	362
289.462	753
289.520	1473
289.578	-140
289.636	-235
289.694	-174
289.751	-290
289.809	-47
289.867	-642
289.925	790
289.983	286
290.040	-79
290.098	822
290.156	-180
290.214	501
290.271	-335
290.329	-162
290.387	-94
290.444	-517
290.502	15
290.560	-140
290.617	-161
290.675	-534
290.733	-166
290.790	260
290.848	510
290.906	-919
290.963	-899
291.021	-501
291.078	54
291.136	155
291.194	2154
291.251	3950
291.309	643
291.366	75
291.424	440
291.481	161
291.539	113
291.596	-317
291.654	99
291.711	-229
291.769	839
291.826	1355
291.884	618
291.941	-752
291.999	-696
292.056	-368
292.114	-250
292.171	-290
292.228	-49
292.286	-624
292.343	787
292.401	1265
292.458	461
292.515	-333
292.573	396
292.630	242
292.687	444
292.745	-719
292.802	662
292.859	2676
292.917	5636
292.974	2275
293.031	108
293.089	179
293.146	73
293.203	-884
293.260	-513
293.318	-121
293.375	1484
293.432	-75
293.489	27
293.546	379
293.604	787
293.661	4041
293.718	8275
293.775	3825
293.832	873
293.889	696
293.947	817
294.004	548
294.061	446
294.118	2507
294.175	5293
294.232	6276
294.289	2480
294.346	972
294.403	1800
294.460	557
294.517	-572
294.574	279
294.631	-528
294.688	269
294.745	3930
294.802	10472
294.859	10454
294.916	3729
294.973	1334
295.030	881
295.087	812
295.144	1388
295.201	980
295.258	-318
295.315	666
295.372	4107
295.429	6005
295.486	2391
295.542	1831
295.599	6056
295.656	8922
295.713	5138
295.770	6290
295.827	1422
295.883	511
295.940	916
295.997	2005
296.054	1879
296.111	387
296.167	552
296.224	44
296.281	24
296.338	-181
296.394	-177
296.451	201
296.508	2897
296.564	5816
296.621	4034
296.678	10089
296.734	11002
296.791	3258
296.848	2282
296.904	2489
296.961	6556
297.018	9170
297.074	3807
297.131	2019
297.187	1015
297.244	2305
297.301	8959
297.357	12747
297.414	4130
297.470	1903
297.527	204
297.583	1193
297.640	236
297.696	1581
297.753	361
297.809	473
297.866	-94
297.922	780
297.979	-379
298.035	224
298.092	682
298.148	4249
298.204	3799
298.261	1602
298.317	4875
298.374	10195
298.430	4884
298.486	2032
298.543	357
298.599	742
298.656	1314
298.712	4282
298.768	10830
298.824	7241
298.881	1606
298.937	493
298.993	1081
299.050	1021
299.106	1078
299.162	-71
299.218	315
299.275	342
299.331	677
299.387	2904
299.443	9496
299.500	7906
299.556	3099
299.612	1292
299.668	639
299.724	1395
299.780	1419
299.837	404
299.893	1965
299.949	8497
300.005	7439
300.061	8117
300.117	11131
300.173	5165
300.229	1399
300.285	3147
300.341	3772
300.397	646
300.453	1011
300.510	702
300.566	83
300.622	1055
300.678	4989
300.734	8411
300.790	7472
300.845	8610
300.901	5092
300.957	7638
301.013	5016
301.069	1213
301.125	643
301.181	1278
301.237	432
301.293	254
301.349	-191
301.405	300
301.461	193
301.516	900
301.572	802
301.628	2517
301.684	541
301.740	3076
301.796	3958
301.851	3262
301.907	5606
301.963	6228
302.019	10460
302.074	24193
302.130	22084
302.186	10774
302.242	3657
302.297	2587
302.353	2742
302.409	5554
302.464	3500
302.520	3715
302.576	9738
302.631	10120
302.687	4944
302.743	1823
302.798	385
302.854	222
302.910	1708
302.965	1890
303.021	2876
303.076	3005
303.132	4099
303.187	3922
303.243	1355
303.299	1427
303.354	795
303.410	1830
303.465	725
303.521	723
303.576	513
303.632	727
303.687	3126
303.743	8357
303.798	4957
303.853	2966
303.909	1392
303.964	1783
304.020	2154
304.075	2832
304.130	3332
304.186	6349
304.241	6407
304.297	4421
304.352	1368
304.358	1329
304.407	1011
304.449	946
304.463	924
304.518	1302
304.539	961
304.573	415
304.629	1680
304.630	1682
304.684	1894
304.720	4866
304.739	6381
304.794	9212
304.811	7836
304.850	4314
304.902	2050
304.905	1920
304.960	1503
304.992	1116
305.015	817
305.071	1716
305.083	1587
305.126	1092
305.173	482
305.181	390
305.236	-225
305.264	176
305.292	613
305.347	1228
305.354	1283
305.402	1609
305.445	1898
305.457	1963
305.512	2135
305.535	1974
305.567	1714
305.622	1769
305.626	1828
305.678	3710
305.716	8217
305.733	9872
305.788	8852
305.807	8299
305.843	7192
305.897	9659
305.898	9689
305.953	8273
305.988	5727
306.008	4303
306.063	2300
306.078	2045
306.118	1563
306.168	1229
306.173	1204
306.228	890
306.259	838
306.283	866
306.338	333
306.349	516
306.393	1407
306.440	1239
306.448	1136
306.503	1629
306.530	1472
306.558	1845
306.613	4159
306.620	4411
306.668	6436
306.711	9449
306.723	9773
306.778	7486
306.801	6132
306.833	4393
306.888	1758
306.892	1670
306.943	1431
306.982	997
306.997	875
307.052	1429
307.072	1319
307.107	1135
307.162	924
307.163	925
307.217	1638
307.253	2496
307.272	2860
307.327	2617
307.343	2726
307.381	2827
307.434	2530
307.436	2594
307.491	5038
307.524	7307
307.546	8337
307.600	9277
307.614	8786
307.655	5541
307.704	2973
307.710	2962
307.765	2939
307.795	3608
307.819	4346
307.874	6931
307.885	7007
307.929	6387
307.975	6360
307.984	6746
308.038	10569
308.065	13198
308.093	20798
308.148	41473
308.156	45439
308.202	70082
308.246	84514
308.257	81524
308.312	50193
308.336	37866
308.366	29450
308.421	16935
308.426	15892
308.475	10830
308.517	7528
308.530	7101
308.585	6050
308.607	5624
308.639	5512
308.694	5376
308.697	5411
308.748	7478
308.787	9347
308.803	9442
308.857	7771
308.877	7603
308.912	7937
308.967	8484
308.967	8486
309.021	11773
309.058	14758
309.076	18555
309.130	31752
309.148	37027
309.185	58681
309.238	93840
309.239	94286
309.293	104710
309.328	104048
309.348	92302
309.402	54219
309.418	44286
309.457	32637
309.508	19457
309.511	19163
309.566	16007
309.598	14049
309.620	14493
309.674	17113
309.688	17651
309.729	17347
309.778	16155
309.783	15879
309.837	12576
309.868	10579
309.892	11254
309.946	14157
309.959	15051
310.001	20577
310.049	25632
310.055	24759
310.109	15131
310.139	9899
310.163	8088
310.218	4789
310.229	4190
310.272	3722
310.319	3395
310.326	3297
310.381	2284
310.409	2078
310.435	2253
310.489	2070
310.499	2101
310.543	2332
310.589	2328
310.598	2308
310.652	2381
310.679	2363
310.706	2162
310.760	1782
310.769	1672
310.814	1290
310.859	1301
310.868	1480
310.923	2239
310.948	2594
310.977	2473
311.031	2229
311.038	2184
311.085	2001
311.128	1723
311.139	1805
311.193	2466
311.218	2645
311.247	2505
311.301	2338
311.308	2306
311.356	2041
311.398	1788
311.410	1866
311.464	2186
311.488	2342
311.518	2413
311.572	2445
311.578	2457
311.626	3170
311.668	3695
311.680	3653
311.734	3364
311.758	3250
311.788	3141
311.842	2910
311.847	2876
311.896	3515
311.937	4099
311.950	4111
312.004	4067
312.027	4044
312.058	3498
312.112	2497
312.117	2391
312.165	2782
312.207	3105
312.297	4135
312.386	3385
312.476	2693
312.566	5357
312.656	3590
312.745	1827
312.835	2287
312.925	3273
313.015	2525
313.104	1988
313.194	2646
313.284	2712
313.374	3326
313.463	3030
313.553	2029
313.643	2265
313.732	2047
313.822	1621
313.912	1916
314.001	2793
314.091	2928
314.180	3790
314.270	3419
314.360	3180
314.449	3289
314.539	2087
314.628	2808
314.718	2047
314.808	2775
314.897	2556
314.987	1913
315.076	2708
315.166	3268
315.255	3078
315.345	2899
315.434	2799
315.524	3250
315.613	2730
315.703	3954
315.792	4629
315.881	7420
315.971	3913
316.060	5648
316.150	5799
316.239	4799
316.328	2705
316.418	2544
316.507	2043
316.597	3141
316.686	3649
316.775	2851
316.865	5527
316.954	2455
317.043	1388
317.133	2569
317.222	1606
317.311	2072
317.400	2034
317.490	2785
317.579	4014
317.668	2178
317.757	2958
317.847	5277
317.936	13294
318.025	10038
318.114	4998
318.203	4691
318.293	5330
318.382	9526
318.471	8563
318.560	10789
318.649	21102
318.738	6511
318.828	3079
318.917	3887
319.006	4420
319.095	8197
319.184	24358
319.273	17219
319.362	8710
319.451	3650
319.540	2873
319.629	5739
319.718	10798
319.807	5240
319.896	7887
319.985	30583
320.074	15974
320.163	3358
320.252	4503
320.341	3951
320.430	4601
320.519	4520
320.608	3835
320.697	3147
320.786	2451
320.875	3980
320.964	4374
321.053	6413
321.142	9490
321.230	11122
321.319	6238
321.408	16991
321.497	8729
321.586	6832
321.675	6449
321.764	8096
321.852	5601
321.941	9900
322.030	7763
322.119	7224
322.207	17363
322.296	10928
322.385	6202
322.474	6446
322.562	19469
322.651	13433
322.740	7566
322.829	10602
322.917	7522
323.006	6585
323.095	5235
323.183	4131
323.272	6086
323.361	9072
323.449	21174
323.538	9867
323.626	13789
323.715	10926
323.804	3594
323.892	11562
323.981	10816
324.069	3280
324.158	6186
324.246	8014
324.335	3803
324.424	6934
324.512	3436
324.601	3092
324.689	4807
324.778	9566
324.866	5748
324.954	2440
325.043	2194
325.131	3216
325.220	5782
325.308	6112
325.397	5126
325.485	4364
325.574	1698
325.662	2729
325.750	2456
325.839	2366
325.927	1593
326.015	1965
326.104	2391
326.192	3809
326.280	1844
326.369	2107
326.457	2859
326.545	5908
326.634	3248
326.722	2513
326.810	1251
326.898	2228
326.987	2385
327.075	4953
327.163	5513
327.251	2773
327.340	3401
327.428	6091
327.516	1875
327.604	2394
327.692	2181
327.781	2173
327.869	3321
327.957	2144
328.045	3296
328.133	2525
328.221	2320
328.309	2925
328.397	2025
328.485	2959
328.574	3850
328.662	11141
328.750	7006
328.838	2127
328.926	2317
329.014	1441
329.102	3220
329.190	6551
329.278	5093
329.366	2361
329.454	2631
329.542	2630
329.630	3043
329.718	3169
329.806	3702
329.893	4892
329.981	5876
330.069	13053
330.157	40225
330.245	88980
330.333	62707
330.421	17120
330.509	8914
330.597	14607
330.684	11634
330.772	4678
330.860	4627
330.948	5476
331.036	3300
331.123	2435
331.211	2155
331.299	2342
331.387	4171
331.475	7700
331.562	2849
331.650	1679
331.738	1821
331.825	2804
331.913	1948
332.001	1642
332.089	2524
332.176	3837
332.264	5975
332.352	6294
332.439	2437
332.527	1757
332.614	1493
332.702	2319
332.790	1587
332.877	2747
332.965	6639
333.052	3363
333.140	3402
333.228	6463
333.315	2485
333.403	1934
333.490	3358
333.578	4353
333.665	7852
333.753	5624
333.840	1368
333.928	2748
334.015	4551
334.103	8360
334.190	28780
334.278	10367
334.365	3025
334.452	3025
334.540	1586
334.627	2227
334.715	2843
334.802	4963
334.889	19991
334.977	27441
335.064	5210
335.151	2857
335.239	3217
335.326	4385
335.413	12568
335.501	25673
335.588	4463
335.675	2459
335.762	2974
335.850	5345
335.937	4082
336.024	6331
336.111	26315
336.199	15035
336.286	3786
336.373	1866
336.460	1710
336.547	1261
336.635	2807
336.722	2284
336.809	1571
336.896	2839
336.983	8236
337.070	22409
337.157	33561
337.245	17202
337.332	13470
337.419	1691
337.506	2053
337.593	2068
337.680	6954
337.767	22629
337.854	7012
337.941	6924
338.028	5695
338.115	2994
338.202	3330
338.289	4464
338.376	14760
338.463	7670
338.550	11070
338.637	16015
338.724	3819
338.811	5673
338.898	1877
338.984	1777
339.071	1213
339.158	1703
339.245	6780
339.332	5657
339.419	3388
339.506	3721
339.593	820
339.679	2209
339.766	2063
339.853	1509
339.940	4537
340.027	2603
340.113	2299
340.200	2868
340.287	1061
340.374	2279
340.460	4427
340.547	1174
340.634	3274
340.720	12800
340.807	10129
340.894	1627
340.980	1633
341.067	1797
341.154	2258
341.240	2101
341.327	7244
341.414	2534
341.500	3118
341.587	2038
341.674	1995
341.760	4846
341.847	5765
341.933	2227
342.020	891
342.106	558
342.193	1281
342.279	3715
342.366	2808
342.452	4734
342.539	2942
342.625	4780
342.712	15538
342.798	7614
342.885	3390
342.971	1425
343.058	1352
343.144	1659
343.230	1528
343.317	997
343.403	1388
343.490	897
343.576	1496
343.662	1161
343.749	2152
343.835	2023
343.921	4738
344.008	20112
344.094	54969
344.180	16223
344.267	5389
344.353	13418
344.439	17150
344.525	9017
344.612	8781
344.698	12385
344.784	8183
344.870	2380
344.957	1791
345.043	2958
345.129	1676
345.215	4846
345.301	3018
345.387	1652
345.474	1148
345.560	1008
345.646	1498
345.732	1962
345.818	1744
345.904	1883
345.990	2109
346.076	1524
346.162	2602
346.249	1348
346.335	1362
346.421	1801
346.507	4628
346.593	20358
346.679	6981
346.765	2052
346.851	1317
346.937	1564
347.023	1507
347.108	1854
347.194	1245
347.280	2093
347.366	2065
347.452	4397
347.538	23087
347.624	20697
347.710	16863
347.796	3700
347.882	2126
347.967	1143
348.053	2234
348.139	1312
348.225	1025
348.311	2200
348.397	1153
348.482	1435
348.568	2321
348.654	431
348.740	1158
348.825	1714
348.911	3126
348.997	8890
349.083	24640
349.168	5293
349.254	1744
349.340	2299
349.425	1237
349.511	2647
349.597	2637
349.682	4202
349.768	14930
349.854	9629
349.939	2407
350.025	1285
350.110	2393
350.196	1339
350.282	1016
350.367	1559
350.453	1568
350.538	1903
350.624	1792
350.709	2422
350.795	1006
350.880	1911
350.966	1599
351.051	1946
351.137	1443
351.222	1536
351.308	3661
351.393	15496
351.479	4511
351.564	2302
351.649	1118
351.735	1513
351.820	1112
351.906	886
351.991	2099
352.076	8057
352.162	15760
352.247	3405
352.332	1286
352.418	3964
352.503	5072
352.588	18961
352.673	20090
352.759	4136
352.844	2480
352.929	2447
353.014	2733
353.100	2282
353.185	3574
353.270	5330
353.355	6078
353.441	1674
353.526	1587
353.611	4029
353.696	5959
353.781	3581
353.866	1035
353.952	2120
354.037	3213
354.122	10129
354.207	9020
354.292	5035
354.377	1748
354.462	1400
354.547	2797
354.632	2307
354.717	2492
354.802	3028
354.887	2652
354.972	1913
355.057	1552
355.142	1080
355.227	2401
355.312	2995
355.397	6020
355.482	15382
355.567	9492
355.652	5999
355.737	6081
355.822	16968
355.907	19261
355.991	3249
356.076	1859
356.161	2613
356.246	1696
356.331	1971
356.416	4283
356.501	23778
356.585	33093
356.670	5554
356.755	4080
356.840	3994
356.924	15715
357.009	63851
357.094	33395
357.179	7130
357.263	4639
357.348	4462
357.433	5374
357.517	4388
357.602	4194
357.687	2811
357.771	4565
357.856	15983
357.941	11342
358.025	12789
358.110	60666
358.195	41047
358.279	7885
358.364	4043
358.448	10607
358.533	34636
358.617	28809
358.702	25922
358.787	12392
358.871	5066
358.956	5564
359.040	2620
359.125	1487
359.209	1714
359.294	5853
359.378	14906
359.462	5931
359.547	1826
359.631	1870
359.716	1062
359.800	1176
359.885	2853
359.969	1426
360.053	1974
360.138	1245
360.222	1946
360.306	5157
360.391	5294
360.475	6301
360.559	18464
360.644	13349
360.728	11056
360.812	12657
360.896	42055
360.981	19802
361.065	11273
361.149	2272
361.233	3030
361.318	1838
361.402	2092
361.486	2621
361.570	1694
361.654	3257
361.739	5634
361.823	22593
361.907	46415
361.991	9679
362.075	4593
362.159	9872
362.243	8274
362.327	5174
362.411	6456
362.495	4080
362.580	2494
362.664	1646
362.748	2227
362.832	2611
362.916	3547
363.000	10114
363.084	27337
363.168	51570
363.252	16399
363.336	5000
363.420	5621
363.503	18644
363.587	31618
363.671	5860
363.755	3513
363.839	5826
363.923	2731
364.007	4376
364.091	7758
364.175	6746
364.258	35595
364.342	27641
364.426	21143
364.510	12153
364.594	7548
364.677	8232
364.761	31980
364.845	31342
364.929	10747
365.013	8954
365.096	5908
365.180	7806
365.264	8010
365.347	34898
365.431	20009
365.515	4498
365.598	1766
365.682	2105
365.766	3548
365.849	4958
365.933	2247
366.017	4198
366.100	2630
366.184	564
366.267	1974
366.351	1737
366.435	1570
366.518	1492
366.602	1398
366.685	1431
366.769	1134
366.852	2781
366.936	6061
367.019	4338
367.103	1981
367.186	5433
367.270	1638
367.353	745
367.436	1285
367.520	1289
367.603	2631
367.687	2887
367.770	6003
367.853	3681
367.937	9487
368.020	20858
368.104	5881
368.187	3584
368.270	6919
368.353	6171
368.437	5744
368.520	9984
368.603	8255
368.687	11088
368.770	27673
368.853	7355
368.936	6019
369.020	5627
369.103	2299
369.186	1391
369.269	2307
369.352	3082
369.436	6215
369.519	3871
369.602	1595
369.685	2129
369.768	1937
369.851	2318
369.934	1721
370.018	2078
370.101	5150
370.184	4755
370.267	2947
370.350	3998
370.433	7051
370.516	16917
370.599	24474
370.682	7431
370.765	13396
370.848	17033
370.931	30671
371.014	15171
371.097	2135
371.180	2550
371.263	1169
371.346	1439
371.429	1972
371.511	2053
371.594	3335
371.677	5330
371.760	6551
371.843	5182
371.926	20173
372.009	58489
372.091	25332
372.174	11089
372.257	27997
372.340	14309
372.423	7527
372.505	9809
372.588	4946
372.671	8102
372.754	29251
372.836	18700
372.919	8913
373.002	22982
373.085	8461
373.167	5313
373.250	12229
373.332	28247
373.415	32365
373.498	74831
373.580	35203
373.663	29280
373.746	51670
373.828	15111
373.911	5609
373.993	4327
374.076	18179
374.159	22404
374.241	7455
374.324	24485
374.406	21196
374.489	17362
374.571	60929
374.654	31489
374.736	11252
374.819	33302
374.901	49980
374.983	59577
375.066	13424
375.148	3655
375.231	13311
375.313	34163
375.395	14277
375.478	3224
375.560	1960
375.643	2497
375.725	9000
375.807	40836
375.890	38245
375.972	11992
376.054	6937
376.136	8099
376.219	4647
376.301	9872
376.383	39117
376.465	18996
376.548	10307
376.630	9822
376.712	32262
376.794	20442
376.877	2711
376.959	2100
377.041	1589
377.123	4072
377.205	5557
377.287	1540
377.369	1124
377.452	823
377.534	1571
377.616	1557
377.698	1097
377.780	1001
377.862	1616
377.944	1683
378.026	1180
378.108	828
378.190	1811
378.272	1742
378.354	1052
378.436	382
378.518	1757
378.600	7700
378.682	8152
378.764	16793
378.846	17694
378.928	4242
379.010	5950
379.091	4264
379.173	1795
379.255	719
379.337	2334
379.419	6708
379.501	26209
379.583	13769
379.664	1898
379.746	5243
379.828	17340
379.910	25257
379.991	24621
380.073	5415
380.155	2865
380.237	1696
380.318	1842
380.400	1601
380.482	3727
380.564	6187
380.645	5481
380.727	5827
380.809	4824
380.890	2575
380.972	1244
381.053	1336
381.135	2627
381.217	5116
381.298	18871
381.380	11816
381.461	7235
381.543	28001
381.624	48578
381.706	10278
381.787	4429
381.869	4536
381.951	11355
382.032	52302
382.113	44666
382.195	9643
382.276	6138
382.358	9352
382.439	30351
382.521	33377
382.602	54692
382.684	28565
382.765	42716
382.846	52915
382.928	68547
383.009	46329
383.090	29886
383.172	88816
383.253	154706
383.334	62313
383.416	51707
383.497	33588
383.578	16147
383.659	26679
383.741	79174
383.822	211160
383.903	135451
383.984	42029
384.066	62063
384.147	47325
384.228	11301
384.309	7886
384.390	5965
384.471	4861
384.553	4436
384.634	5520
384.715	6723
384.796	3314
384.877	4456
384.958	15126
385.039	24422
385.120	9648
385.201	4400
385.282	4471
385.363	4503
385.444	4263
385.525	5993
385.606	21890
385.687	26401
385.768	6118
385.849	5858
385.930	23723
386.011	50117
386.092	18186
386.173	4359
386.254	2765
386.335	3299
386.416	3590
386.496	9519
386.577	20287
386.658	7821
386.739	3974
386.820	3761
386.901	2925
386.981	3463
387.062	2468
387.143	3964
387.224	15946
387.304	19243
387.385	6448
387.466	2895
387.547	5338
387.627	3167
387.708	5479
387.789	27650
387.869	41599
387.950	13343
388.031	2361
388.111	1302
388.192	5126
388.273	7709
388.353	6271
388.434	3688
388.514	5284
388.595	24209
388.676	40253
388.756	21178
388.837	17276
388.917	12444
388.998	1894
389.078	2798
389.159	2215
389.239	1292
389.320	3316
389.400	2514
389.480	5885
389.561	18407
389.641	12955
389.722	3593
389.802	5662
389.883	6904
389.963	21526
390.043	16155
390.124	4556
390.204	5547
390.284	20902
390.365	15823
390.445	12796
390.525	39565
390.605	45934
390.686	16002
390.766	5919
390.846	2977
390.927	1698
391.007	1229
391.087	2311
391.167	2258
391.247	1844
391.328	2554
391.408	4954
391.488	4321
391.568	1538
391.648	2456
391.728	3800
391.808	4046
391.888	4453
391.969	9190
392.049	18840
392.129	9362
392.209	6048
392.289	21116
392.369	13832
392.449	8969
392.529	6621
392.609	4740
392.689	5087
392.769	18607
392.849	19617
392.929	9625
393.009	26510
393.089	24490
393.169	13963
393.248	35604
393.328	182257
393.408	255245
393.488	67480
393.568	16175
393.648	8070
393.728	5201
393.807	3895
393.887	4656
393.967	4643
394.047	5641
394.127	7839
394.206	12600
394.286	36682
394.366	147693
394.446	204785
394.525	71321
394.605	18216
394.685	10233
394.764	13932
394.844	21630
394.924	19717
395.003	7121
395.083	4798
395.163	4537
395.242	3537
395.322	3805
395.402	2526
395.481	5084
395.561	7621
395.640	25879
395.720	21375
395.799	28093
395.879	30162
395.958	21164
396.038	57058
396.117	191835
396.197	255446
396.276	109730
396.356	35632
396.435	20297
396.515	13338
396.594	11135
396.673	14845
396.753	42456
396.832	181385
396.912	167887
396.991	42905
397.070	10656
397.150	5446
397.229	5240
397.308	4425
397.388	6986
397.467	5714
397.546	3457
397.625	1428
397.705	4940
397.784	3344
397.863	1610
397.942	1565
398.022	1691
398.101	5414
398.180	22870
398.259	13903
398.338	3624
398.417	1939
398.497	1525
398.576	1831
398.655	811
398.734	1284
398.813	1156
398.892	4548
398.971	23144
399.050	15764
399.129	1429
399.208	923
399.287	925
399.366	931
399.445	1373
399.524	1544
399.603	211
399.682	2238
399.761	6068
399.840	24171
399.919	24850
399.998	3151
400.077	705
400.156	576
400.235	2303
400.313	818
400.392	853
400.471	7810
400.550	17752
400.629	4582
400.708	1623
400.786	1267
400.865	3186
400.944	5154
401.023	4622
401.102	351
401.180	1105
401.259	426
401.338	755
401.416	1896
401.495	1729
401.574	1455
401.652	-179
401.731	1676
401.810	1463
401.888	687
401.967	-167
402.046	342
402.124	1584
402.203	2160
402.281	1625
402.360	1446
402.438	6162
402.517	4442
402.596	1603
402.674	2002
402.753	772
402.831	1138
402.910	1504
402.988	4307
403.066	19309
403.145	14752
403.223	5864
403.302	16043
403.380	14102
403.459	12554
403.537	5507
403.615	1977
403.694	-198
403.772	2040
403.850	906
403.929	1384
404.007	416
404.085	4117
404.164	3805
404.242	3836
404.320	12514
404.398	42825
404.477	49337
404.555	51062
404.633	54057
404.711	37932
404.789	31676
404.868	8727
404.946	2922
405.024	2647
405.102	1553
405.180	627
405.258	-31
405.336	1536
405.415	91
405.493	2144
405.571	2454
405.649	631
405.727	-181
405.805	1614
405.883	1778
405.961	2163
406.039	2020
406.117	413
406.195	2232
406.273	6759
406.351	35857
406.429	28702
406.507	4773
406.585	1143
406.663	1473
406.740	2312
406.818	1267
406.896	768
406.974	1819
407.052	1094
407.130	17143
407.208	36830
407.285	9113
407.363	1099
407.441	654
407.519	1083
407.596	988
407.674	3425
407.752	14167
407.830	16652
407.907	5338
407.985	576
408.063	1273
408.141	-217
408.218	1561
408.296	1129
408.373	1156
408.451	900
408.529	1375
408.606	24
408.684	426
408.762	552
408.839	-358
408.917	34
408.994	424
409.072	-403
409.149	1
409.227	1395
409.304	1390
409.382	1668
409.459	779
409.537	1665
409.614	1722
409.692	936
409.769	906
409.846	276
409.924	2938
410.001	1221
410.079	1242
410.156	1610
410.233	1725
410.311	537
410.388	643
410.465	1104
410.543	845
410.620	1481
410.697	623
410.775	1770
410.852	-576
410.929	838
411.006	2644
411.083	344
411.161	2499
411.238	3090
411.315	1011
411.392	486
411.469	2078
411.547	1201
411.624	-493
411.701	978
411.778	1193
411.855	2239
411.932	1209
412.009	490
412.086	628
412.163	712
412.240	437
412.317	1357
412.394	954
412.471	466
412.548	760
412.625	118
412.702	857
412.779	2671
412.856	990
412.933	563
413.010	462
413.087	1096
413.164	6437
413.241	15399
413.318	4368
413.395	1899
413.471	2567
413.548	1369
413.625	406
413.702	38
413.779	848
413.855	646
413.932	-928
414.009	-1082
414.086	593
414.162	346
414.239	780
414.316	6125
414.393	20656
414.469	8704
414.546	1041
414.623	-19
414.699	426
414.776	569
414.853	-257
414.929	290
415.006	-293
415.082	327
415.159	-151
415.236	1006
415.312	700
415.389	702
415.465	2384
415.542	1515
415.618	-245
415.695	1179
415.771	480
415.848	-159
415.924	1499
416.000	591
416.077	1373
416.153	-875
416.230	-1223
416.306	12
416.383	-637
416.459	1147
416.535	-361
416.612	-517
416.688	521
416.764	-69
416.841	428
416.917	26
416.993	188
417.069	1590
417.146	85
417.222	4558
417.298	2156
417.374	-104
417.451	1258
417.527	491
417.603	1041
417.679	1024
417.755	221
417.831	137
417.908	449
417.984	-798
418.060	-693
418.136	1593
418.212	2770
418.288	1179
418.364	929
418.440	-927
418.516	938
418.592	990
418.668	2782
418.744	4727
418.820	4918
418.896	1079
418.972	-1149
419.048	-672
419.124	2249
419.200	1594
419.276	386
419.352	-131
419.428	177
419.504	-509
419.579	708
419.655	450
419.731	407
419.807	2075
419.883	6119
419.959	5051
420.034	857
420.110	1254
420.186	11888
420.262	13280
420.337	1728
420.413	176
420.489	387
420.565	198
420.640	-89
420.716	143
420.792	-549
420.867	1580
420.943	-831
421.019	1239
421.094	590
421.170	518
421.245	-640
421.321	1236
421.397	-5
421.472	1750
421.548	7152
421.623	6853
421.699	2193
421.774	1684
421.850	578
421.925	2130
422.001	2903
422.076	1865
422.152	1480
422.227	3963
422.302	5646
422.378	7267
422.453	12152
422.529	29430
422.604	91249
422.679	178129
422.755	136897
422.830	51196
422.905	18536
422.981	9455
423.056	5748
423.131	4235
423.207	3427
423.282	1897
423.357	4008
423.432	3755
423.508	2308
423.583	4676
423.658	5666
423.733	1532
423.808	1397
423.883	1099
423.959	1168
424.034	432
424.109	1060
424.184	-739
424.259	-229
424.334	42
424.409	294
424.484	964
424.559	70
424.634	-237
424.709	353
424.784	982
424.859	403
424.934	738
425.009	6116
425.084	14423
425.159	6078
425.234	595
425.309	-658
425.384	2755
425.459	6836
425.534	2648
425.609	-163
425.683	-744
425.758	-388
425.833	274
425.908	940
425.983	2585
426.058	13808
426.132	8056
426.207	275
426.282	1852
426.357	566
426.431	-189
426.506	15
426.581	-384
426.655	-609
426.730	-23
426.805	11
426.879	638
426.954	402
427.029	1002
427.103	9056
427.178	31523
427.253	19747
427.327	1423
427.402	1689
427.476	7106
427.551	4595
427.625	522
427.700	419
427.774	-347
427.849	533
427.923	-831
427.998	-357
428.072	-497
428.147	1790
428.221	5747
428.296	27393
428.370	20517
428.444	1818
428.519	416
428.593	3590
428.667	3388
428.742	3867
428.816	3246
428.890	13234
428.965	32732
429.039	12349
429.113	4170
429.188	2101
429.262	-146
429.336	392
429.410	5989
429.485	4540
429.559	2827
429.633	3035
429.707	601
429.781	1510
429.855	14737
429.930	30849
430.004	15544
430.078	19020
430.152	19206
430.226	34830
430.300	50483
430.374	9596
430.448	2069
430.522	4297
430.596	19004
430.670	14834
430.744	24585
430.818	53842
430.892	15084
430.966	1201
431.040	679
431.114	-331
431.188	-492
431.262	-913
431.336	62
431.410	850
431.484	4197
431.557	4387
431.631	73
431.705	-464
431.779	3104
431.853	21089
431.927	21730
432.000	2741
432.074	148
432.148	41
432.222	-165
432.295	-140
432.369	-67
432.443	131
432.516	7913
432.590	31255
432.664	16666
432.737	1496
432.811	-964
432.885	-513
432.958	-298
433.032	-837
433.106	-521
433.179	-882
433.253	-432
433.326	-1040
433.400	-976
433.473	-487
433.547	-1357
433.620	-284
433.694	430
433.767	1734
433.841	-163
433.914	-499
433.988	-15
434.061	161
434.134	-1030
434.208	-599
434.281	-672
434.355	-698
434.428	-688
434.501	-442
434.575	-741
434.648	-792
434.721	-1161
434.795	-857
434.868	-1552
434.941	-176
435.014	-1269
435.088	-1544
435.161	-16
435.234	979
435.307	1590
435.381	-298
435.454	66
435.527	224
435.600	-196
435.673	299
435.746	-260
435.819	-245
435.892	-522
435.966	-975
436.039	-282
436.112	149
436.185	-1370
436.258	-693
436.331	-1418
436.404	-1075
436.477	-377
436.550	-276
436.623	-803
436.696	-733
436.769	-407
436.842	-463
436.915	-237
436.987	-65
437.060	-2
437.133	-219
437.206	-1249
437.279	-24
437.352	-1391
437.425	-984
437.498	-414
437.570	1634
437.643	1324
437.716	218
437.789	-860
437.861	-830
437.934	2622
438.007	1678
438.080	-387
438.152	-723
438.225	1163
438.298	9445
438.370	42988
438.443	23803
438.516	4417
438.588	1039
438.661	-1052
438.734	-699
438.806	-69
438.879	-825
438.951	-505
439.024	1156
439.096	-301
439.169	-826
439.241	-921
439.314	-887
439.386	-173
439.459	-49
439.531	387
439.604	333
439.676	-520
439.749	-356
439.821	-718
439.893	-75
439.966	-576
440.038	-337
440.110	-493
440.183	-722
440.255	-1890
440.327	293
440.400	3453
440.472	23408
440.544	22641
440.617	1742
440.689	1469
440.761	690
440.833	2522
440.905	2077
440.978	80
441.050	-1401
441.122	-115
441.194	-473
441.266	-420
441.338	-682
441.411	302
441.483	5598
441.555	13939
441.627	3224
441.699	591
441.771	-149
441.843	-898
441.915	-853
441.987	-712
442.059	-247
442.131	245
442.203	-118
442.275	164
442.347	1240
442.419	963
442.491	5911
442.563	23609
442.635	13318
442.706	4703
442.778	4806
442.850	-380
442.922	-780
442.994	214
443.066	741
443.137	202
443.209	-441
443.281	438
443.353	2655
443.425	9567
443.496	42817
443.568	52388
443.640	20096
443.711	3571
443.783	415
443.855	584
443.926	88
443.998	-458
444.070	212
444.141	-624
444.213	-234
444.285	1103
444.356	-20
444.428	213
444.499	-122
444.571	-753
444.642	220
444.714	-709
444.785	510
444.857	434
444.928	2666
445.000	1403
445.071	804
445.143	1618
445.214	1476
445.285	2129
445.357	7400
445.428	25555
445.500	78358
445.571	54762
445.642	24497
445.714	7919
445.785	6861
445.856	1446
445.928	2071
445.999	502
446.070	-64
446.141	260
446.213	1794
446.284	-372
446.355	-6
446.426	-567
446.497	-282
446.569	-282
446.640	1215
446.711	805
446.782	-470
446.853	-382
446.924	-41
446.995	-210
447.066	-206
447.138	-215
447.209	891
447.280	-654
447.351	-590
447.422	-934
447.493	-1175
447.564	460
447.635	811
447.706	166
447.777	-907
447.847	-1183
447.918	-1259
447.989	-346
448.060	-301
448.131	1563
448.202	2041
448.273	1026
448.344	331
448.414	350
448.485	-233
448.556	-547
448.627	-853
448.698	-31
448.768	-30
448.839	-225
448.910	504
448.981	360
449.051	-32
449.122	-93
449.193	-434
449.263	-882
449.334	-724
449.405	-83
449.475	1510
449.546	480
449.616	3
449.687	831
449.758	56
449.828	-654
449.899	-211
449.969	-200
450.040	-278
450.110	395
450.181	374
450.251	-389
450.322	-676
450.392	-185
450.463	-302
450.533	-681
450.604	190
450.674	-384
450.744	309
450.815	-747
450.885	-174
450.955	-98
451.026	-425
451.096	-1559
451.166	-271
451.237	-174
451.307	2669
451.377	1002
451.447	-351
451.518	-781
451.588	-529
451.658	-677
451.728	-1097
451.799	2796
451.869	4466
451.939	334
452.009	-656
452.079	-376
452.149	-152
452.219	-567
452.289	3369
452.360	3012
452.430	515
452.500	-620
452.570	175
452.640	594
452.710	1646
452.780	4242
452.850	3053
452.920	3970
452.990	1210
453.060	643
453.129	-206
453.199	747
453.269	2559
453.339	11194
453.409	19868
453.479	14058
453.549	23587
453.619	25337
453.688	10673
453.758	1348
453.828	78
453.898	-7
453.968	-511
454.037	-292
454.087	-537
454.107	-649
454.168	-475
454.177	-462
454.247	-217
454.249	-217
454.316	-552
454.330	-476
454.386	-222
454.411	-91
454.456	-20
454.492	1510
454.525	2847
454.574	1051
454.595	263
454.655	48
454.665	11
454.734	459
454.736	480
454.804	618
454.817	1079
454.873	2689
454.898	3610
454.943	5163
454.979	2961
455.013	979
455.060	585
455.082	483
455.141	46
455.152	-42
455.221	1897
455.222	1977
455.291	6052
455.303	6398
455.360	7338
455.384	11526
455.430	17718
455.465	14523
455.499	11724
455.546	6626
455.569	4276
455.627	2741
455.638	2481
455.707	174
455.708	182
455.777	-568
455.789	-474
455.846	25
455.869	-116
455.916	-329
455.950	-290
455.985	-315
456.031	-361
456.054	-424
456.112	-351
456.124	-337
456.193	-15
456.193	-25
456.262	487
456.274	583
456.332	1060
456.355	710
456.401	-69
456.436	191
456.470	330
456.516	-179
456.540	-353
456.597	-553
456.609	-623
456.678	-238
456.678	-247
456.747	178
456.759	186
456.817	-8
456.840	-91
456.886	-156
456.920	-78
456.955	-48
457.001	18
457.024	71
457.082	154
457.093	143
457.162	155
457.163	168
457.232	270
457.243	287
457.301	199
457.324	38
457.370	-87
457.405	-125
457.439	-178
457.485	223
457.508	428
457.566	259
457.577	204
457.646	785
457.647	793
457.715	1023
457.727	1136
457.784	1827
457.808	2324
457.853	3163
457.889	3900
457.922	3878
457.969	2700
457.991	2589
458.050	3435
458.060	3603
458.129	4894
458.130	4957
458.198	5528
458.211	5246
458.267	3462
458.292	2355
458.336	1229
458.372	1221
458.405	1652
458.453	2346
458.474	2944
458.533	4666
458.543	4831
458.611	8061
458.614	8208
458.680	7558
458.694	6517
458.749	3776
458.775	2680
458.818	1496
458.855	1270
458.887	1070
458.936	315
458.955	152
459.016	903
459.024	930
459.093	1032
459.097	1021
459.162	1071
459.177	1072
459.230	1117
459.257	1211
459.299	1521
459.338	2039
459.368	2113
459.418	1926
459.437	1846
459.499	1484
459.505	1432
459.574	1094
459.579	1076
459.643	1194
459.659	1146
459.711	1197
459.740	1443
459.780	1495
459.820	1427
459.849	1369
459.900	1228
459.917	1322
459.981	2227
459.986	2265
460.054	2702
460.061	2724
460.123	2744
460.141	2810
460.191	3124
460.222	2968
460.260	2728
460.302	3349
460.328	3559
460.382	3171
460.397	3015
460.462	2572
460.465	2641
460.534	4500
460.543	4709
460.602	11607
460.623	14288
460.671	24046
460.703	33258
460.739	32260
460.783	30471
460.808	26863
460.864	7061
460.876	5403
460.944	2458
460.945	2426
461.013	2152
461.024	2188
461.081	1902
461.104	1788
461.150	1685
461.184	1644
461.218	1736
461.264	1858
461.286	1928
461.345	1695
461.355	1597
461.423	1686
461.425	1683
461.491	1934
461.505	1925
461.559	2374
461.585	2823
461.628	4631
461.665	5960
461.696	6479
461.745	8163
461.764	7319
461.825	3100
461.832	3014
461.901	2067
461.905	2046
461.969	1851
461.985	1814
462.037	1850
462.065	1941
462.105	1768
462.145	1614
462.173	2252
462.225	3271
462.241	3633
462.305	5429
462.310	5303
462.378	3233
462.385	2929
462.446	2043
462.465	1857
462.514	1967
462.545	2111
462.582	2152
462.625	2213
462.650	2266
462.705	2121
462.718	2090
462.785	2241
462.786	2248
462.854	2390
462.865	2436
462.922	3260
462.945	3668
462.990	3257
463.025	2630
463.058	2359
463.104	2321
463.126	2396
463.184	2544
463.194	2567
463.262	2344
463.264	2344
463.330	2450
463.344	2480
463.398	2625
463.424	2525
463.466	2100
463.504	2077
463.533	2232
463.583	2084
463.601	2179
463.663	2698
463.669	2731
463.737	3334
463.743	3344
463.805	4787
463.823	5283
463.873	6727
463.903	7684
463.940	8241
463.982	8918
464.008	7348
464.062	3528
464.076	3459
464.142	2763
464.144	2747
464.211	2538
464.221	2516
464.279	3052
464.301	3233
464.347	2780
464.381	2462
464.414	2768
464.461	3074
464.482	3168
464.540	3593
464.550	3523
464.617	2827
464.620	2800
464.685	3770
464.699	3944
464.753	4871
464.779	5460
464.820	6010
464.859	6481
464.888	6203
464.938	5555
464.956	5665
465.018	6093
465.023	6079
465.091	5596
465.098	5545
465.158	5290
465.177	5243
465.226	4962
465.257	4675
465.293	4884
465.336	5227
465.361	5666
465.416	6551
465.428	6612
465.495	6914
465.496	6947
465.563	10298
465.575	10844
465.631	12399
465.654	13188
465.698	9855
465.734	6706
465.765	6219
465.813	5563
465.833	5633
465.893	5955
465.900	5947
465.968	5780
465.972	5755
466.035	5889
466.052	5903
466.102	5705
466.131	5631
466.170	5925
466.210	6177
466.237	6074
466.290	5802
466.304	6019
466.369	6906
466.372	6921
466.439	7083
466.449	7068
466.506	7642
466.528	7863
466.573	8795
466.607	9445
466.641	11633
466.687	14744
466.708	16368
466.766	20715
466.775	19602
466.842	10985
466.845	10554
466.909	9191
466.925	8874
466.977	8989
467.004	9025
467.044	9247
467.083	9463
467.111	9859
467.163	10539
467.178	10778
467.242	11695
467.245	11652
467.312	10351
467.321	10161
467.379	9976
467.400	9883
467.446	10382
467.480	10709
467.559	8929
467.638	8485
467.717	8076
467.796	9461
467.875	9458
467.955	9392
468.034	9010
468.113	15465
468.192	23735
468.271	10685
468.350	7383
468.429	8238
468.508	7026
468.588	7307
468.667	6918
468.746	7633
468.825	7105
468.904	7086
468.983	6848
469.062	8590
469.141	9756
469.220	6655
469.299	5758
469.378	7581
469.456	8473
469.535	8006
469.614	7369
469.693	7276
469.772	8871
469.851	9325
469.930	8437
470.009	6893
470.088	6916
470.166	7349
470.245	8929
470.324	10438
470.403	8624
470.482	7553
470.560	7104
470.639	6644
470.718	7255
470.797	7057
470.875	6876
470.954	8151
471.033	8802
471.111	5699
471.190	5960
471.269	5364
471.347	5498
471.426	6043
471.505	7177
471.583	7238
471.662	7507
471.740	6472
471.819	7163
471.898	6012
471.976	5388
472.055	5948
472.133	6321
472.212	7408
472.290	6938
472.369	6220
472.447	5824
472.526	5045
472.604	5752
472.683	6074
472.761	5947
472.839	6051
472.918	5061
472.996	5420
473.075	6283
473.153	6055
473.231	5111
473.310	5866
473.388	6246
473.466	5981
473.545	6675
473.623	7847
473.701	7194
473.780	7047
473.858	5441
473.936	6578
474.014	5850
474.093	6357
474.171	7408
474.249	8483
474.327	7552
474.405	5756
474.484	6012
474.562	5761
474.640	6545
474.718	5363
474.796	6496
474.874	6234
474.952	5949
475.030	6579
475.108	5431
475.187	7072
475.265	6993
475.343	8207
475.421	8551
475.499	5846
475.577	5564
475.655	6912
475.733	9067
475.811	13264
475.889	12924
475.966	10175
476.044	5957
476.122	5808
476.200	6375
476.278	6373
476.356	4503
476.434	5035
476.512	5029
476.590	6291
476.667	6062
476.745	4415
476.823	5215
476.901	4587
476.979	4824
477.056	5224
477.134	5293
477.212	5761
477.290	4375
477.367	4611
477.445	4569
477.523	3862
477.601	4254
477.678	4718
477.756	4993
477.834	5990
477.911	5328
477.989	4504
478.066	4395
478.144	5134
478.222	4334
478.299	6136
478.377	6885
478.454	5116
478.532	4858
478.609	4453
478.687	5295
478.764	4065
478.842	4654
478.919	5501
478.997	5039
479.074	4310
479.152	4184
479.229	5521
479.307	4225
479.384	4359
479.461	4669
479.539	3666
479.616	4850
479.694	3765
479.771	4233
479.848	4398
479.926	4532
480.003	6161
480.080	4473
480.157	3974
480.235	3684
480.312	3676
480.389	4507
480.467	4785
480.544	7125
480.621	4942
480.698	4356
480.775	5478
480.853	4637
480.930	4584
481.007	4621
481.084	4523
481.161	6612
481.238	5457
481.315	4619
481.392	3032
481.470	4413
481.547	4438
481.624	3903
481.701	3926
481.778	3787
481.855	3828
481.932	5335
482.009	7823
482.086	6917
482.163	3039
482.240	5209
482.317	6489
482.393	6629
482.470	4763
482.547	3123
482.624	4316
482.701	3247
482.778	4158
482.855	3388
482.932	3854
483.009	4070
483.085	4672
483.162	5128
483.239	4731
483.316	3935
483.393	3641
483.469	4093
483.546	4079
483.623	4659
483.699	3700
483.776	5277
483.853	4752
483.930	5788
484.006	10676
484.083	19698
484.160	17218
484.236	28376
484.313	23597
484.389	16852
484.466	15277
484.543	13562
484.619	13017
484.696	14112
484.772	13332
484.849	15380
484.925	13063
485.002	12041
485.078	13245
485.155	12058
485.231	11924
485.308	11738
485.384	12135
485.461	13210
485.537	16529
485.614	20536
485.690	12761
485.766	11724
485.843	11858
485.919	13880
485.995	14913
486.072	11682
486.148	10947
486.224	10969
486.301	10769
486.377	11689
486.453	12260
486.530	12041
486.606	16219
486.682	19367
486.758	17467
486.835	18795
486.911	15531
486.987	20865
487.063	22741
487.139	28180
487.215	22949
487.292	15137
487.368	12335
487.444	13397
487.520	14350
487.596	15205
487.672	15627
487.748	24928
487.824	39525
487.900	23702
487.976	13855
488.052	12750
488.128	13835
488.204	12024
488.280	10942
488.356	12423
488.432	16384
488.508	24252
488.584	12726
488.660	10118
488.736	9822
488.812	9913
488.888	12378
488.964	15020
489.039	23633
489.115	36394
489.191	27045
489.267	11592
489.343	10240
489.418	9542
489.494	9546
489.570	8423
489.646	9525
489.722	9393
489.797	9703
489.873	10535
489.949	18176
490.024	17414
490.100	9184
490.176	8018
490.251	9865
490.327	11538
490.403	9072
490.478	8783
490.554	7996
490.629	7812
490.705	8056
490.781	8786
490.856	7713
490.932	9165
491.007	8652
491.083	9003
491.158	8176
491.234	9007
491.309	13303
491.385	15921
491.460	9076
491.536	8976
491.611	7571
491.686	8031
491.762	10293
491.837	14226
491.913	24821
491.988	30494
492.063	44420
492.139	15978
492.214	10040
492.289	7738
492.365	6147
492.440	8394
492.515	6779
492.590	7799
492.666	5730
492.741	8198
492.816	9705
492.891	6993
492.967	7074
493.042	6963
493.117	7667
493.192	7931
493.267	12086
493.342	35035
493.418	59235
493.493	13995
493.568	6904
493.643	5923
493.718	8210
493.793	8933
493.868	10294
493.943	7776
494.018	6571
494.093	6582
494.168	6055
494.243	6218
494.318	6316
494.393	6569
494.468	5490
494.543	6511
494.618	5532
494.693	6578
494.768	5748
494.842	5471
494.917	6241
494.992	6588
495.067	6692
495.142	5799
495.217	5485
495.292	6060
495.366	6331
495.441	7635
495.516	9291
495.591	11342
495.665	26582
495.740	69614
495.815	40327
495.890	9477
495.964	6874
496.039	9032
496.114	8002
496.188	8995
496.263	9429
496.338	8022
496.412	7597
496.487	10149
496.561	9799
496.636	10400
496.710	9655
496.785	9584
496.860	10385
496.934	10170
497.009	9370
497.083	10258
497.158	11237
497.232	11501
497.307	13495
497.381	12197
497.455	13477
497.530	16489
497.604	15580
497.679	14403
497.753	19483
497.827	23869
497.902	25083
497.976	27726
498.050	38484
498.125	107064
498.199	136005
498.273	36559
498.348	30022
498.422	27965
498.496	25053
498.570	23529
498.645	18844
498.719	18101
498.793	17673
498.867	20793
498.941	22539
499.016	40686
499.090	118162
499.164	58706
499.238	12339
499.312	10844
499.386	11328
499.460	11413
499.534	10914
499.609	10477
499.683	13623
499.757	12467
499.831	18497
499.905	65531
499.979	81102
500.053	15640
500.127	12916
500.201	11335
500.275	7391
500.349	8304
500.422	8346
500.496	10393
500.570	18910
500.644	37705
500.718	78551
500.792	24057
500.866	7097
500.940	7850
501.013	8268
501.087	6360
501.161	10938
501.235	13135
501.309	20324
501.382	55941
501.456	64154
501.530	14674
501.603	20917
501.677	11063
501.751	5121
501.825	6725
501.898	8767
501.972	23728
502.046	19855
502.119	6140
502.193	10594
502.266	26435
502.340	17324
502.413	11047
502.487	22340
502.561	14679
502.634	6889
502.708	6333
502.781	4632
502.855	4933
502.928	4098
503.002	4763
503.075	4251
503.149	4490
503.222	4468
503.295	4743
503.369	5871
503.442	6700
503.516	14430
503.589	41751
503.662	32644
503.736	11607
503.809	19864
503.882	19164
503.956	23454
504.029	27519
504.102	15019
504.175	20139
504.249	10698
504.322	7051
504.395	5811
504.468	4804
504.542	3919
504.615	4193
504.688	4110
504.761	3662
504.834	4559
504.907	5252
504.980	9157
505.053	4564
505.127	4079
505.200	8170
505.273	4868
505.346	3837
505.419	4025
505.492	3742
505.565	3409
505.638	3883
505.711	3075
505.784	2965
505.857	2869
505.930	4082
506.003	3198
506.076	4862
506.149	3190
506.221	4468
506.294	4830
506.367	8137
506.440	30804
506.513	23298
506.586	5237
506.659	4237
506.731	3939
506.804	3335
506.877	4466
506.950	4756
507.022	3557
507.095	3326
507.168	5354
507.241	3764
507.313	3575
507.386	3220
507.459	5384
507.531	3865
507.604	4431
507.677	3535
507.749	3178
507.822	4244
507.894	8496
507.967	12903
508.040	8222
508.112	6296
508.185	6498
508.257	5479
508.330	7965
508.402	5924
508.475	6399
508.547	5895
508.620	6432
508.692	7754
508.765	6444
508.837	4997
508.909	5405
508.982	5632
509.054	5504
509.127	5320
509.199	4845
509.271	4711
509.344	4311
509.416	5183
509.488	4467
509.560	5227
509.633	5472
509.705	5948
509.777	6365
509.849	7615
509.922	7345
509.994	7118
510.066	6600
510.138	6194
510.210	13286
510.283	12121
510.355	9947
510.427	8345
510.499	7769
510.571	6892
510.643	7115
510.715	9233
510.787	8773
510.859	7043
510.931	7917
511.003	9598
511.076	9716
511.148	7180
511.219	6687
511.291	9447
511.363	10366
511.435	7607
511.507	5943
511.579	7255
511.651	6995
511.723	6133
511.795	6084
511.867	5937
511.939	7197
512.010	8477
512.082	8348
512.154	5473
512.226	7004
512.298	8088
512.369	12885
512.441	10354
512.513	9504
512.585	8311
512.656	7509
512.728	7819
512.800	7667
512.871	7053
512.943	6436
513.015	5894
513.086	6940
513.158	6419
513.230	6220
513.301	7920
513.373	9505
513.444	6506
513.516	5448
513.588	6285
513.659	7149
513.731	7264
513.802	6017
513.874	10070
513.945	16122
514.016	9910
514.088	6888
514.159	7310
514.231	8415
514.302	10955
514.374	10664
514.445	6910
514.516	11605
514.588	10479
514.659	8335
514.730	10353
514.802	10690
514.873	9866
514.944	13748
515.016	11010
515.087	10356
515.158	9668
515.229	13313
515.301	12020
515.372	17648
515.443	14307
515.514	11220
515.585	7971
515.656	8248
515.728	6500
515.799	6313
515.870	6701
515.941	6158
516.012	6267
516.083	9644
516.154	8825
516.225	10169
516.296	9936
516.367	8827
516.438	9429
516.509	11023
516.580	16104
516.651	31904
516.722	117114
516.793	81467
516.864	15918
516.935	14984
517.006	16398
517.077	20530
517.148	37585
517.219	116065
517.289	249326
517.360	72452
517.431	25475
517.502	9650
517.573	9230
517.643	8409
517.714	8551
517.785	9856
517.856	8346
517.926	11412
517.997	12258
518.068	14605
518.138	21753
518.209	27557
518.280	77313
518.350	323197
518.421	192782
518.492	26660
518.562	11635
518.633	11048
518.703	9799
518.774	13863
518.845	21222
518.915	22799
518.986	12422
519.056	10828
519.127	14424
519.197	20430
519.268	37299
519.338	32880
519.408	10089
519.479	9855
519.549	9918
519.620	7533
519.690	5371
519.760	6063
519.831	5758
519.901	5940
519.971	5671
520.042	4623
520.112	5460
520.182	7074
520.253	7971
520.323	5032
520.393	6612
520.463	12238
520.534	7397
520.604	15924
520.674	9961
520.744	7320
520.814	14979
520.885	16784
520.955	11787
521.025	40180
521.095	24266
521.165	7226
521.235	5034
521.305	5323
521.375	5459
521.445	5105
521.515	6538
521.585	7461
521.655	6562
521.725	6461
521.795	6834
521.865	4746
521.935	6244
522.005	6735
522.075	4017
522.145	5224
522.215	5529
522.285	6341
522.355	6475
522.424	11339
522.494	12115
522.564	8405
522.634	10608
522.704	33747
522.774	19098
522.843	5611
522.913	4809
522.983	6601
523.053	5013
523.122	6032
523.192	6363
523.262	15533
523.331	20909
523.401	6588
523.471	4395
523.540	4459
523.610	4167
523.680	4076
523.749	4054
523.819	5014
523.888	4889
523.958	4418
524.027	4170
524.097	4200
524.166	4905
524.236	4428
524.305	6239
524.375	4289
524.444	3042
524.514	5081
524.583	4086
524.653	4375
524.722	5750
524.791	4608
524.861	4911
524.930	3999
524.999	3934
525.069	5592
525.138	4331
525.207	4455
525.277	4467
525.346	3693
525.415	4083
525.484	4556
525.554	4668
525.623	4659
525.692	4655
525.761	4472
525.830	5309
525.900	5124
525.969	6126
526.038	9198
526.107	12109
526.176	38353
526.245	39651
526.314	16920
526.383	22754
526.452	31713
526.522	45722
526.591	63391
526.660	24224
526.729	13565
526.797	13907
526.867	21540
526.935	90580
527.004	145779
527.073	95669
527.142	12288
527.211	6757
527.280	6382
527.349	6488
527.418	3469
527.487	4958
527.555	4043
527.624	3709
527.693	3353
527.762	4743
527.831	2985
527.899	3607
527.968	4062
528.037	2834
528.106	4867
528.174	6235
528.243	5249
528.312	5996
528.380	8964
528.449	3929
528.518	4338
528.586	2315
528.655	4548
528.723	3228
528.792	2965
528.861	3088
528.929	2438
528.998	3884
529.066	3065
529.135	5080
529.203	4841
529.272	4662
529.340	7342
529.409	8024
529.477	5681
529.545	6385
529.614	7896
529.682	7457
529.751	9513
529.819	11125
529.887	9469
529.956	8320
530.024	9056
530.092	7495
530.161	9461
530.229	9052
530.297	8888
530.365	8104
530.434	9248
530.502	8375
530.570	8163
530.638	6032
530.707	7769
530.775	8865
530.843	6444
530.911	7653
530.979	7497
531.047	7793
531.115	8844
531.183	7300
531.252	7472
531.320	7089
531.388	6990
531.456	8187
531.524	6851
531.592	8640
531.660	10033
531.728	9540
531.796	8483
531.864	7765
531.932	8948
532.000	8125
532.067	9063
532.135	9976
532.203	10810
532.271	11262
532.339	14240
532.407	21214
532.475	18604
532.542	13171
532.610	12959
532.678	13099
532.746	27385
532.814	77555
532.881	32898
532.949	12243
533.017	10666
533.084	9346
533.152	8698
533.220	9549
533.287	8655
533.355	9982
533.423	9330
533.490	9854
533.558	9404
533.625	9010
533.693	9061
533.761	9751
533.828	9572
533.896	9400
533.963	13718
534.031	18027
534.098	18443
534.166	14595
534.233	10548
534.300	11062
534.368	11289
534.435	9708
534.503	10111
534.570	10572
534.637	8837
534.705	9985
534.772	9755
534.840	10162
534.907	21083
534.974	32333
535.041	10062
535.109	7242
535.176	7045
535.243	7673
535.310	7184
535.378	6399
535.445	7355
535.512	7257
535.579	6861
535.646	6155
535.714	7017
535.781	7987
535.848	8910
535.915	9772
535.982	11261
536.049	11535
536.116	10481
536.183	8948
536.250	8007
536.317	7413
536.384	9016
536.451	8610
536.518	8386
536.585	7277
536.652	9130
536.719	9933
536.786	6720
536.853	7186
536.920	9040
536.987	11455
537.053	10156
537.120	31410
537.187	41262
537.254	8200
537.321	6023
537.388	7057
537.454	4414
537.521	4013
537.588	5773
537.654	6061
537.721	7432
537.788	6910
537.855	4724
537.921	5341
537.988	5599
538.055	6427
538.121	4804
538.188	5687
538.254	7385
538.321	9806
538.388	8053
538.454	5439
538.521	5788
538.587	4988
538.654	4791
538.720	5364
538.787	5273
538.853	5119
538.920	6030
538.986	5704
539.053	5216
539.119	5121
539.185	5427
539.252	6161
539.318	7477
539.385	7361
539.451	5695
539.517	7447
539.583	7683
539.650	10006
539.716	27416
539.782	12820
539.849	5948
539.915	5738
539.981	5008
540.047	5919
540.114	6198
540.180	6426
540.246	6161
540.312	7016
540.378	10318
540.444	12223
540.510	9469
540.576	28961
540.643	17051
540.709	4441
540.775	5786
540.841	5340
540.907	6310
540.973	8908
541.039	8076
541.105	8935
541.171	6249
541.237	4961
541.303	6556
541.369	7082
541.435	7084
541.500	9543
541.566	6936
541.632	5306
541.698	4638
541.764	5146
541.830	4598
541.896	3964
541.961	5513
542.027	5417
542.093	5664
542.159	6058
542.224	5919
542.290	8259
542.356	9275
542.421	11048
542.487	7452
542.553	5415
542.618	5471
542.684	5809
542.750	5667
542.815	6473
542.881	8267
542.947	22543
543.012	26650
543.078	5924
543.143	5133
543.209	5576
543.274	5682
543.340	7194
543.405	10139
543.471	19425
543.536	8514
543.602	5235
543.667	4404
543.732	6121
543.798	4023
543.863	6047
543.928	5275
543.994	5454
544.059	5731
544.124	5505
544.190	4796
544.255	6038
544.320	6160
544.386	5644
544.451	6807
544.516	7701
544.581	7012
544.646	13980
544.712	30064
544.777	9787
544.842	6361
544.907	6229
544.972	6500
545.037	5630
545.102	6801
545.168	5901
545.233	6876
545.298	7295
545.363	7422
545.428	8317
545.493	10916
545.558	20852
545.623	14094
545.688	6099
545.753	6845
545.818	6250
545.883	6791
545.947	6249
546.012	6486
546.077	6217
546.142	7069
546.207	6835
546.272	8131
546.337	8909
546.401	8047
546.466	7729
546.531	5718
546.596	7853
546.661	7862
546.725	7970
546.790	7041
546.855	7103
546.919	6625
546.984	7748
547.049	7615
547.113	8859
547.178	7803
547.243	9174
547.307	10264
547.372	10512
547.436	9954
547.501	10416
547.565	11302
547.630	11121
547.695	11064
547.759	11404
547.823	10436
547.888	10166
547.952	10485
548.017	10880
548.081	11797
548.146	12940
548.210	12240
548.274	10467
548.339	11095
548.403	11709
548.468	9466
548.532	11190
548.596	10779
548.660	10113
548.725	11765
548.789	11807
548.853	13510
548.917	10824
548.982	12072
549.046	12577
549.110	9604
549.174	9744
549.238	9419
549.303	10656
549.367	12519
549.431	11352
549.495	10855
549.559	10399
549.623	11254
549.687	12120
549.751	15199
549.815	14369
549.879	15389
549.943	12699
550.007	13746
550.071	14063
550.135	15437
550.199	13260
550.263	12777
550.327	13171
550.391	13005
550.455	13883
550.519	13542
550.582	14720
550.646	16870
550.710	18182
550.774	15311
550.838	15183
550.901	15289
550.965	17210
551.029	17130
551.093	19303
551.156	20480
551.220	24537
551.284	27909
551.347	19710
551.411	22573
551.475	26706
551.538	18010
551.602	15884
551.666	14882
551.729	13140
551.793	14827
551.856	14252
551.920	14427
551.983	14245
552.047	13549
552.110	13814
552.174	13521
552.237	13999
552.301	13621
552.364	13449
552.428	12815
552.491	12826
552.554	14104
552.618	13439
552.681	14374
552.745	13862
552.808	16058
552.871	20201
552.934	17634
552.998	14399
553.061	15166
553.124	14566
553.187	14153
553.251	14984
553.314	15929
553.377	16668
553.440	21453
553.503	40421
553.567	88288
553.630	31248
553.693	15253
553.756	14248
553.819	14412
553.882	13307
553.945	12825
554.008	13070
554.071	12748
554.134	13832
554.197	12903
554.260	12593
554.323	13252
554.386	12935
554.449	13299
554.512	13774
554.575	12982
554.638	12664
554.701	12535
554.764	12481
554.827	13433
554.889	10982
554.952	11030
555.015	10877
555.078	10632
555.141	12438
555.203	11168
555.266	10954
555.329	11701
555.391	11058
555.454	11469
555.517	11455
555.580	10373
555.642	10261
555.705	9810
555.768	10300
555.830	11650
555.893	10178
555.955	9327
556.018	8573
556.080	9623
556.143	9971
556.206	9047
556.268	10211
556.330	10055
556.393	9668
556.455	9006
556.518	10398
556.580	11099
556.643	9296
556.705	9091
556.767	7416
556.830	9245
556.892	9602
556.955	10651
557.017	10098
557.079	8853
557.142	7641
557.204	8461
557.266	12344
557.328	11043
557.391	7173
557.453	8201
557.515	7796
557.577	8290
557.639	8902
557.701	8060
557.764	6853
557.826	7211
557.888	9125
557.950	7845
558.012	9084
558.074	9297
558.136	13831
558.198	32421
558.260	20607
558.322	9183
558.384	9295
558.446	10901
558.508	10930
558.570	11597
558.632	17123
558.694	24440
558.756	25714
558.818	53117
558.880	169343
558.942	83621
559.003	35913
559.065	26318
559.127	12345
559.189	11903
559.251	12719
559.312	16498
559.374	25767
559.436	90584
559.498	75540
559.559	14509
559.621	11612
559.683	12684
559.744	16338
559.806	37654
559.868	77827
559.929	25174
559.991	12660
560.052	13548
560.114	29465
560.176	27824
560.237	18005
560.299	32547
560.360	14806
560.422	7743
560.483	6348
560.545	7422
560.606	6379
560.667	5791
560.729	6208
560.790	6257
560.852	6488
560.913	6508
560.974	5998
561.036	5904
561.097	6469
561.158	6352
561.220	7533
561.281	6506
561.342	6236
561.403	7773
561.465	8135
561.526	12358
561.587	18245
561.648	9062
561.709	5996
561.771	6228
561.832	6367
561.893	6468
561.954	6782
562.015	6301
562.076	7040
562.137	6958
562.198	6423
562.259	6608
562.320	6491
562.381	6274
562.442	7677
562.503	8610
562.564	5997
562.625	6083
562.686	6484
562.747	5692
562.808	7077
562.869	6352
562.930	7362
562.991	6445
563.051	7566
563.112	6357
563.173	6869
563.234	4998
563.294	7100
563.355	6084
563.416	6618
563.477	7078
563.537	6722
563.598	7278
563.659	6213
563.720	6343
563.780	7323
563.841	6799
563.901	7277
563.962	7244
564.023	7418
564.083	7413
564.144	6124
564.204	6046
564.265	6008
564.325	6186
564.386	8316
564.446	10261
564.507	6696
564.567	7504
564.628	7309
564.688	6941
564.749	7640
564.809	7470
564.869	8482
564.930	6646
564.990	7545
565.050	6943
565.111	7595
565.171	7036
565.231	7232
565.292	7825
565.352	6791
565.412	7412
565.472	7210
565.532	8088
565.593	7137
565.653	7630
565.713	8008
565.773	7663
565.833	9052
565.893	10832
565.953	8624
566.013	8323
566.074	8712
566.134	9579
566.194	11691
566.254	12628
566.314	10285
566.374	9819
566.434	10305
566.494	9877
566.554	10331
566.614	12000
566.673	11585
566.733	12444
566.793	12519
566.853	13429
566.913	14437
566.973	13998
567.033	14760
567.092	13844
567.152	14086
567.212	13998
567.272	14827
567.331	15247
567.391	15400
567.451	16237
567.511	16970
567.570	17722
567.630	15094
567.690	14240
567.749	15095
567.809	15244
567.868	17222
567.928	19833
567.988	22164
568.047	27195
568.107	31441
568.166	40616
568.226	55523
568.285	80085
568.345	80707
568.404	71749
568.464	64632
568.523	59192
568.582	59087
568.642	62093
568.701	70434
568.761	89730
568.820	128923
568.879	148318
568.939	126499
568.998	100816
569.057	82723
569.116	68272
569.176	55846
569.235	46606
569.294	40388
569.353	33791
569.413	30460
569.472	26546
569.531	24056
569.590	21024
569.649	20165
569.708	17858
569.767	17939
569.827	16077
569.886	15300
569.945	14391
570.004	13262
570.063	12495
570.122	11962
570.181	12250
570.240	10237
570.299	11797
570.358	11649
570.417	9975
570.475	9654
570.534	8679
570.593	9442
570.652	9601
570.711	8956
570.770	8778
570.829	9061
570.887	7928
570.946	8907
571.005	8776
571.064	7923
571.122	7906
571.181	8324
571.240	7508
571.299	6983
571.357	8057
571.416	8171
571.475	6546
571.533	7686
571.592	6867
571.650	7427
571.709	6840
571.768	7661
571.826	6508
571.885	6373
571.943	6131
572.002	6381
572.060	6560
572.119	7112
572.177	7104
572.236	6341
572.294	5687
572.352	6267
572.411	6381
572.469	6410
572.528	5797
572.586	7085
572.644	6277
572.703	7399
572.761	6597
572.819	6167
572.877	6570
572.936	5117
572.994	5364
573.052	5112
573.110	5785
573.169	6509
573.227	5480
573.285	5835
573.343	6059
573.401	5831
573.459	6213
573.517	5919
573.576	5407
573.634	6085
573.692	5606
573.750	5177
573.808	4968
573.866	5808
573.924	6117
573.982	6756
574.040	5448
574.098	5602
574.155	5537
574.213	5426
574.271	5111
574.329	5476
574.387	5894
574.445	5365
574.503	5100
574.560	5118
574.618	5066
574.676	5297
574.734	4528
574.792	5030
574.849	5464
574.907	5356
574.965	5891
575.022	4690
575.080	4415
575.138	5832
575.195	5314
575.253	5016
575.311	5572
575.368	6191
575.426	5147
575.483	5610
575.541	4175
575.598	5387
575.656	5600
575.713	5480
575.771	4452
575.828	4604
575.886	4401
575.943	5265
576.001	5760
576.058	4470
576.115	5537
576.173	4870
576.230	6441
576.287	5818
576.345	5529
576.402	5845
576.459	5502
576.517	5801
576.574	5668
576.631	4499
576.688	6035
576.746	4840
576.803	4852
576.860	4932
576.917	6634
576.974	5375
577.031	5711
577.089	5800
577.146	5413
577.203	5207
577.260	5268
577.317	6025
577.374	5802
577.431	6428
577.488	5067
577.545	5997
577.602	5493
577.659	6350
577.716	5896
577.773	7506
577.830	6249
577.886	6539
577.943	5446
578.000	6296
578.057	7223
578.114	8089
578.171	9456
578.227	12549
578.284	13245
578.341	13014
578.398	9576
578.454	8592
578.511	7144
578.568	7226
578.625	6303
578.681	6168
578.738	6548
578.794	6753
578.851	6913
578.908	6467
578.964	6963
579.021	8227
579.077	7563
579.134	7063
579.190	6316
579.247	6225
579.303	6570
579.360	6015
579.416	6546
579.473	6718
579.529	5912
579.586	6750
579.642	7603
579.698	7303
579.755	7428
579.811	7100
579.867	8231
579.924	8286
579.980	9304
580.036	10544
580.093	12049
580.149	18289
580.205	23864
580.261	20578
580.317	14426
580.374	13228
580.430	10815
580.486	10978
580.542	9627
580.598	9377
580.619	9305
580.654	9189
580.692	8163
580.710	7668
580.765	8282
580.767	8308
580.823	8468
580.838	8488
580.879	8550
580.911	8400
580.935	8300
580.984	7967
580.991	7930
581.047	7838
581.057	8083
581.103	9225
581.130	9613
581.159	10000
581.203	10751
581.215	10967
581.270	11731
581.276	11603
581.326	10440
581.349	10205
581.382	9856
581.422	10007
581.438	10062
581.494	8716
581.494	8712
581.550	8644
581.567	8676
581.606	8729
581.640	8376
581.661	8235
581.713	9134
581.717	9197
581.773	8501
581.786	8559
581.829	8785
581.859	8701
581.885	8664
581.932	9235
581.940	9325
581.996	9765
582.004	9625
582.052	8904
582.077	8769
582.107	8623
582.150	8706
582.163	8733
582.219	9295
582.223	9323
582.274	9684
582.296	9507
582.330	9272
582.368	10057
582.386	10428
582.441	9695
582.441	9694
582.497	9967
582.514	10072
582.552	10475
582.587	11006
582.608	11264
582.659	10577
582.663	10529
582.719	10710
582.732	10751
582.774	10957
582.805	11130
582.830	11206
582.877	11460
582.885	11527
582.941	11491
582.950	11633
582.996	12385
583.023	13222
583.052	14191
583.095	14846
583.107	15047
583.162	17578
583.168	17777
583.218	19435
583.240	18837
583.273	17645
583.313	15973
583.328	15350
583.384	14714
583.385	14645
583.439	12930
583.458	13226
583.494	13694
583.531	13128
583.549	12894
583.603	13437
583.605	13452
583.660	12777
583.676	12733
583.715	12629
583.748	12818
583.770	13026
583.820	13194
583.825	13208
583.881	13634
583.893	13427
583.936	12562
583.965	12666
583.991	12695
584.038	13208
584.046	13393
584.101	13119
584.110	13179
584.156	13014
584.183	13489
584.211	14132
584.255	14109
584.266	14117
584.321	14339
584.328	14438
584.376	15132
584.400	15344
584.431	15585
584.472	14780
584.486	14551
584.541	15749
584.545	15790
584.596	16172
584.617	16013
584.651	16054
584.689	16306
584.706	16346
584.761	16683
584.762	16683
584.816	16762
584.834	16839
584.871	17306
584.906	17333
584.926	17281
584.978	18096
584.980	18132
585.035	18253
585.051	18403
585.090	18953
585.123	19466
585.145	19787
585.195	19654
585.200	19682
585.254	20623
585.267	20991
585.309	22293
585.340	23283
585.364	23690
585.412	23872
585.419	23931
585.473	24192
585.484	24357
585.528	25872
585.556	27439
585.583	29907
585.628	34084
585.637	36364
585.692	54324
585.700	58235
585.747	80007
585.772	82242
585.801	68304
585.845	42975
585.856	38993
585.910	29853
585.917	28904
585.965	28341
585.989	28010
586.019	27759
586.061	27825
586.074	27873
586.128	27523
586.133	27543
586.183	28459
586.205	28717
586.237	29001
586.277	29401
586.292	29671
586.346	30833
586.349	30863
586.401	31218
586.421	31484
586.455	32595
586.493	33384
586.509	33777
586.564	35599
586.565	35643
586.618	40301
586.637	41588
586.672	41487
586.709	39773
586.727	39186
586.781	38911
586.781	38942
586.835	40274
586.853	40779
586.889	41658
586.925	41600
586.944	41922
586.996	44780
586.998	44886
587.052	46960
587.068	47431
587.106	48920
587.140	49995
587.161	50748
587.212	53397
587.215	53566
587.269	55495
587.284	56293
587.323	58926
587.356	60385
587.377	61454
587.427	64715
587.431	65027
587.485	68960
587.499	69845
587.539	72972
587.571	75265
587.593	77259
587.643	82466
587.648	83044
587.702	88957
587.715	90087
587.755	95097
587.786	99340
587.810	102736
587.858	110048
587.864	111112
587.917	121614
587.930	123722
587.971	132126
588.001	139083
588.025	145462
588.073	157110
588.079	159015
588.133	176701
588.145	180615
588.187	197172
588.217	208850
588.241	219947
588.288	242573
588.295	246450
588.348	278864
588.360	285632
588.402	317592
588.431	340833
588.456	363702
588.503	408743
588.510	417282
588.564	485430
588.575	499791
588.617	570518
588.646	620077
588.671	673773
588.718	775688
588.725	792739
588.778	918507
588.789	941763
588.832	1002781
588.861	1031566
588.886	992504
588.932	885550
588.939	868728
588.993	723674
589.004	707639
589.047	876935
589.075	993327
589.100	1037744
589.147	1081660
589.154	1073406
589.207	978220
589.218	957317
589.261	896871
589.290	857965
589.314	857214
589.361	861194
589.368	870799
589.421	946326
589.433	961478
589.475	1000879
589.504	1014831
589.528	959325
589.576	819064
589.582	823133
589.635	894064
589.647	910846
589.689	969674
589.718	987293
589.742	917510
589.790	763551
589.795	749362
589.849	605881
589.861	572845
589.902	499062
589.932	444479
589.955	414589
590.004	352495
590.009	348687
590.062	304204
590.075	293113
590.115	265969
590.146	244893
590.168	234369
590.218	210800
590.222	209598
590.275	190941
590.289	185730
590.328	173642
590.360	163599
590.381	158248
590.431	145430
590.435	144993
590.488	133928
590.503	130708
590.541	125236
590.574	120375
590.594	117954
590.645	111225
590.647	111123
590.700	103594
590.716	101215
590.753	97174
590.787	93107
590.806	91462
590.859	86848
590.859	86919
590.912	82693
590.930	81180
590.965	79382
591.001	77496
591.018	76442
591.071	72893
591.072	72734
591.124	70643
591.143	69766
591.177	68006
591.214	65901
591.230	65377
591.283	63422
591.285	63224
591.336	61375
591.356	60542
591.389	59726
591.427	58362
591.442	57732
591.495	55189
591.498	54895
591.547	53485
591.569	52744
591.600	51949
591.640	50598
591.653	50478
591.706	49586
591.711	49397
591.759	48305
591.782	47640
591.811	47924
591.853	48116
591.864	47889
591.917	46148
591.924	45802
591.969	44341
591.995	43390
592.022	43096
592.066	42364
592.075	42507
592.127	42885
592.137	42863
592.180	43118
592.208	43146
592.233	42509
592.279	40973
592.285	40813
592.338	38779
592.350	38222
592.390	37755
592.421	37326
592.443	36957
592.491	35865
592.495	36002
592.548	36941
592.562	37124
592.600	36246
592.633	35355
592.653	35216
592.704	34480
592.705	34651
592.775	33272
592.846	33342
592.916	32964
592.987	33662
593.058	31517
593.128	30496
593.199	31155
593.270	29377
593.341	29895
593.411	29425
593.482	29664
593.553	28794
593.623	27741
593.694	27636
593.764	26889
593.835	27903
593.906	26956
593.976	25913
594.047	26317
594.117	28720
594.188	26693
594.258	25310
594.329	25308
594.399	26209
594.470	25540
594.540	24001
594.611	24339
594.681	23937
594.751	23849
594.822	24925
594.892	24571
594.963	25567
595.033	23013
595.103	24326
595.174	24388
595.244	27541
595.314	28719
595.384	24235
595.455	23046
595.525	22965
595.595	23792
595.665	24267
595.736	22580
595.806	22962
595.876	22930
595.946	23335
596.016	22798
596.087	24856
596.157	22624
596.227	23022
596.297	23040
596.367	23885
596.437	25508
596.507	27133
596.577	27984
596.647	25642
596.717	24917
596.787	24577
596.857	24261
596.927	23742
596.997	25273
597.067	24919
597.137	26685
597.207	26602
597.277	24877
597.347	24949
597.417	24995
597.487	24220
597.557	25228
597.626	25289
597.696	24649
597.766	26773
597.836	28346
597.906	24792
597.975	23448
598.045	23422
598.115	23627
598.185	24465
598.254	25366
598.324	26660
598.394	27799
598.464	27708
598.533	26394
598.603	25459
598.672	24987
598.742	26916
598.812	25240
598.881	26655
598.951	25621
599.020	26718
599.090	26263
599.159	27521
599.229	26009
599.299	25612
599.368	26291
599.437	26990
599.507	25365
599.576	26665
599.646	27349
599.715	29330
599.785	26504
599.854	26346
599.924	26360
599.993	27713
600.062	26284
600.132	26627
600.201	28181
600.270	29987
600.340	30083
600.409	30483
600.478	30471
600.547	30617
600.617	31098
600.686	29075
600.755	27995
600.824	28932
600.894	29234
600.963	28260
601.032	28491
601.101	29963
601.170	29029
601.239	29422
601.308	29865
601.378	30634
601.447	30030
601.516	31054
601.585	31216
601.654	33094
601.723	32822
601.792	33206
601.861	35338
601.930	38343
601.999	38112
602.068	37133
602.137	36843
602.206	37255
602.275	37846
602.343	38369
602.412	38609
602.481	38402
602.550	37037
602.619	38160
602.688	37351
602.756	38220
602.825	38980
602.894	38894
602.963	38240
603.032	38858
603.100	39318
603.169	37667
603.238	39380
603.307	38523
603.375	37952
603.444	39286
603.513	37960
603.581	37054
603.650	39384
603.719	35604
603.787	32221
603.856	32571
603.924	33952
603.993	34163
604.061	34448
604.130	35526
604.198	36677
604.267	37124
604.335	37460
604.404	36896
604.472	38538
604.541	38971
604.609	39424
604.678	41124
604.746	40350
604.815	43306
604.883	42259
604.951	40685
605.020	40671
605.088	40177
605.156	36490
605.225	35771
605.293	36229
605.361	36390
605.429	35958
605.498	36103
605.566	36233
605.634	38035
605.702	37480
605.771	37095
605.839	39122
605.907	36642
605.975	37220
606.043	36996
606.111	34326
606.180	38039
606.248	37833
606.316	38357
606.384	37207
606.452	34126
606.520	28049
606.588	26459
606.656	24125
606.724	24447
606.792	22820
606.860	21463
606.928	20095
606.996	20331
607.064	19873
607.132	20114
607.200	20283
607.267	21033
607.335	20733
607.403	22327
607.471	21299
607.539	21187
607.607	19738
607.674	20194
607.742	19173
607.810	20072
607.878	19460
607.946	19622
608.013	19752
608.081	19763
608.149	19863
608.216	19795
608.284	20637
608.352	20005
608.419	19842
608.487	21240
608.555	20508
608.622	19888
608.690	20144
608.757	21213
608.825	22527
608.893	21521
608.960	22008
609.028	23013
609.095	22461
609.163	21222
609.230	19610
609.298	18191
609.365	17994
609.432	20184
609.500	20720
609.567	23254
609.635	26085
609.702	27652
609.769	27456
609.837	24599
609.904	22125
609.971	24280
610.039	29871
610.106	41383
610.173	75790
610.241	172126
610.308	233763
610.375	146744
610.442	52065
610.509	29767
610.577	25228
610.644	22107
610.711	21951
610.778	22223
610.845	21430
610.912	22743
610.980	23927
611.047	29955
611.114	27433
611.181	22095
611.248	21560
611.315	22457
611.382	22281
611.449	22559
611.516	23250
611.583	24003
611.650	23346
611.717	23810
611.784	24188
611.851	25945
611.918	28725
611.984	34111
612.051	48044
612.118	99043
612.185	259592
612.252	285328
612.319	65453
612.386	36419
612.452	30212
612.519	27562
612.586	27854
612.653	28453
612.719	27005
612.786	26305
612.853	23894
612.919	22750
612.986	24815
613.053	21867
613.120	21833
613.186	20591
613.253	21883
613.319	20738
613.386	21019
613.453	22046
613.519	21045
613.586	23409
613.652	27875
613.719	26555
613.785	25456
613.852	21314
613.918	22268
613.985	22730
614.051	27319
614.118	41258
614.184	50677
614.250	25404
614.317	21809
614.383	21830
614.449	21208
614.516	21906
614.582	21503
614.648	21341
614.715	20714
614.781	20406
614.847	20924
614.914	21256
614.980	20925
615.046	21583
615.112	21647
615.179	22623
615.245	24721
615.311	30882
615.377	44631
615.443	61777
615.509	46381
615.575	34283
615.642	28481
615.708	29088
615.774	30367
615.840	34822
615.906	41366
615.972	60754
616.038	111711
616.104	202060
616.170	366996
616.236	477852
616.302	126349
616.368	55949
616.434	41183
616.500	33442
616.565	32587
616.631	38293
616.697	36082
616.763	33768
616.829	43578
616.895	73213
616.961	90949
617.026	51857
617.092	29596
617.158	24808
617.224	23590
617.289	22200
617.355	20824
617.421	20264
617.487	19313
617.552	19805
617.618	19390
617.684	18552
617.749	20305
617.815	18482
617.880	18675
617.946	18820
618.012	18308
618.077	19413
618.143	17362
618.208	18716
618.274	18401
618.339	19248
618.405	17219
618.470	17044
618.536	17037
618.601	17794
618.667	16445
618.732	16155
618.798	16228
618.863	15375
618.928	15463
618.994	15902
619.059	17024
619.124	19548
619.190	17900
619.255	15411
619.320	14893
619.386	15544
619.451	15076
619.516	14995
619.581	14662
619.647	15893
619.712	16026
619.777	15041
619.842	15381
619.907	15142
619.972	15543
620.038	15762
620.103	15003
620.168	14667
620.233	14800
620.298	15521
620.363	14264
620.428	16029
620.493	16323
620.558	15162
620.623	16400
620.688	16788
620.753	16397
620.818	16609
620.883	16231
620.948	16775
621.013	15974
621.078	16854
621.143	15293
621.207	17950
621.272	16646
621.337	17199
621.402	17150
621.467	18204
621.532	18619
621.596	17665
621.661	16356
621.726	15899
621.791	16501
621.855	17080
621.920	16292
621.985	17025
622.049	18211
622.114	17166
622.179	16911
622.243	16792
622.308	18493
622.373	17789
622.437	18155
622.502	17288
622.566	16860
622.631	16981
622.695	17336
622.760	17327
622.824	17592
622.889	17855
622.953	17354
623.018	21454
623.082	23826
623.147	18859
623.211	17656
623.276	17551
623.340	17421
623.404	17077
623.469	15793
623.533	16773
623.597	15854
623.662	16402
623.726	14931
623.790	16179
623.854	14727
623.919	15214
623.983	15009
624.047	14925
624.111	15052
624.176	15626
624.240	15573
624.304	17392
624.368	15303
624.432	15331
624.496	15709
624.560	17100
624.625	17666
624.689	17218
624.753	15628
624.817	16588
624.881	14408
624.945	14975
625.009	15087
625.073	14668
625.137	14494
625.201	16476
625.265	18085
625.329	15210
625.393	15524
625.456	15809
625.520	14530
625.584	15862
625.648	17488
625.712	20359
625.776	31715
625.839	40181
625.903	24851
625.967	13646
626.031	17351
626.095	27094
626.158	18028
626.222	12047
626.286	10886
626.349	11206
626.413	10525
626.477	11545
626.540	10119
626.604	10342
626.668	10655
626.731	10631
626.795	9984
626.858	9893
626.922	10010
626.986	11147
627.049	9335
627.113	10862
627.176	11381
627.240	11254
627.303	9586
627.366	9068
627.430	10120
627.493	10588
627.557	10036
627.620	11119
627.684	9522
627.747	10345
627.810	9242
627.874	9786
627.937	8431
628.000	11100
628.064	9740
628.127	8103
628.190	8076
628.253	8815
628.317	8651
628.380	8494
628.443	7748
628.506	8627
628.569	7310
628.632	7338
628.696	8606
628.759	7636
628.822	7466
628.885	7563
628.948	6642
629.011	7234
629.074	6616
629.137	7058
629.200	6597
629.263	7907
629.326	6450
629.389	6383
629.452	6878
629.515	6889
629.578	6332
629.641	7770
629.704	7060
629.767	7873
629.830	7527
629.892	6325
629.955	6344
630.018	7365
630.081	7043
630.144	8669
630.207	7702
630.269	7560
630.332	6564
630.395	7389
630.458	6727
630.520	5505
630.583	6117
630.646	6390
630.708	6188
630.771	6407
630.834	5777
630.896	6056
630.959	5227
631.021	6581
631.084	6711
631.146	6850
631.209	7237
631.272	6106
631.334	5883
631.397	6547
631.459	5740
631.522	6526
631.584	7289
631.646	6642
631.709	7143
631.771	8974
631.834	7485
631.896	7036
631.958	5928
632.021	6340
632.083	4943
632.145	7199
632.208	6257
632.270	6133
632.332	4936
632.395	5697
632.457	6047
632.519	6056
632.581	5012
632.643	5142
632.706	6185
632.768	5351
632.830	6082
632.892	5814
632.954	5416
633.016	6251
633.078	5147
633.141	5960
633.203	6247
633.265	5552
633.327	4814
633.389	5330
633.451	6087
633.513	6728
633.575	6513
633.637	6041
633.698	7097
633.760	6133
633.822	6368
633.884	6837
633.946	5983
634.008	6450
634.070	6793
634.132	7844
634.193	7114
634.255	7396
634.317	6405
634.379	7152
634.441	5923
634.502	5969
634.564	6190
634.626	5730
634.687	6026
634.749	6686
634.811	5407
634.873	5017
634.934	5373
634.996	5545
635.057	5345
635.119	5081
635.181	4699
635.242	5415
635.304	4294
635.365	6909
635.427	4994
635.488	5416
635.550	4894
635.611	5736
635.673	4175
635.734	5275
635.796	5835
635.857	6499
635.918	5554
635.980	6390
636.041	6285
636.102	7225
636.164	6145
636.225	7360
636.286	5685
636.348	6663
636.409	5288
636.470	4389
636.531	4842
636.593	5011
636.654	5097
636.715	4997
636.776	5019
636.838	4077
636.899	5849
636.960	4917
637.021	3871
637.082	4240
637.143	4507
637.204	3859
637.265	4079
637.326	5240
637.387	4610
637.448	4316
637.509	4397
637.570	4736
637.631	4240
637.692	3829
637.753	2816
637.814	3777
637.875	3757
637.936	4674
637.997	4084
638.058	4948
638.119	4896
638.179	3545
638.240	3194
638.301	4767
638.362	3256
638.423	3988
638.483	4514
638.544	3147
638.605	5015
638.666	3688
638.726	3911
638.787	3616
638.848	4021
638.908	4089
638.969	3622
639.030	3875
639.090	3668
639.151	3572
639.211	4546
639.272	4601
639.332	6801
639.393	6352
639.453	3730
639.514	4506
639.574	4296
639.635	4158
639.695	3551
639.756	3809
639.816	4335
639.877	4778
639.937	6595
639.997	8693
640.058	4368
640.118	3984
640.178	3613
640.239	2751
640.299	3208
640.359	3731
640.420	3227
640.480	3469
640.540	4107
640.600	4782
640.661	3841
640.721	2955
640.781	6029
640.841	5238
640.901	5450
640.961	4269
641.021	3551
641.082	3652
641.142	4611
641.202	4970
641.262	2578
641.322	3951
641.382	2204
641.442	3930
641.502	2534
641.562	4724
641.622	2844
641.682	3797
641.742	3800
641.802	4524
641.861	3216
641.921	3536
641.981	4350
642.041	4117
642.101	3807
642.161	4092
642.221	2485
642.280	2803
642.340	2155
642.400	2839
642.460	3488
642.519	3396
642.579	3058
642.639	3979
642.698	1206
642.758	4785
642.818	2995
642.877	3317
642.937	3782
642.997	3474
643.056	5128
643.116	3585
643.175	3761
643.235	3403
643.294	3842
643.354	4092
643.414	3595
643.473	4719
643.532	5822
643.592	7501
643.651	12087
643.711	22717
643.770	40475
643.830	90724
643.889	260061
643.948	123940
644.008	14800
644.067	7544
644.126	5844
644.186	4410
644.245	4387
644.304	2478
644.363	4349
644.423	3486
644.482	3981
644.541	3666
644.600	1895
644.659	4670
644.719	4118
644.778	6856
644.837	9844
644.896	19093
644.955	48532
645.014	31050
645.073	7282
645.132	5110
645.191	4044
645.250	3348
645.309	5064
645.368	3786
645.427	4902
645.486	5365
645.545	11315
645.604	5129
645.663	3645
645.722	4386
645.781	3787
645.840	3960
645.898	4751
645.957	8626
646.016	10514
646.075	19358
646.134	36624
646.192	87756
646.251	200694
646.310	55227
646.369	9345
646.427	6615
646.486	3488
646.545	3943
646.603	4430
646.662	3729
646.721	2906
646.779	3526
646.838	1503
646.896	4228
646.955	4646
647.014	6644
647.072	10008
647.131	27196
647.189	25715
647.248	3854
647.306	2876
647.365	3496
647.423	1722
647.481	4421
647.540	1460
647.598	2678
647.657	1553
647.715	2582
647.773	1373
647.832	3169
647.890	1615
647.948	2872
648.007	3105
648.065	2177
648.123	2348
648.181	3951
648.240	3700
648.298	4480
648.356	1956
648.414	2907
648.472	2875
648.531	2931
648.589	2250
648.647	2644
648.705	2112
648.763	2270
648.821	2406
648.879	3217
648.937	2356
648.995	3529
649.053	2741
649.111	5407
649.169	8629
649.227	15050
649.285	27026
649.343	81753
649.401	79332
649.459	14743
649.516	11585
649.574	6177
649.632	11569
649.690	19282
649.748	9273
649.806	8612
649.863	16545
649.921	20358
649.979	21157
650.037	4719
650.094	2004
650.152	3174
650.210	1712
650.268	3520
650.325	1942
650.383	2964
650.440	686
650.498	2232
650.556	1607
650.613	2049
650.671	2788
650.728	1678
650.786	1696
650.843	1672
650.901	990
650.958	2262
651.016	1750
651.073	2064
651.131	1303
651.188	660
651.246	1099
651.303	729
651.360	1418
651.418	1158
651.475	1607
651.532	1121
651.590	1866
651.647	1543
651.704	1276
651.762	1423
651.819	1765
651.876	1192
651.933	710
651.990	2172
652.048	787
652.105	1403
652.162	1620
652.219	649
652.276	1594
652.333	2013
652.390	735
652.448	1507
652.505	1651
652.562	1745
652.619	2234
652.676	3718
652.733	5612
652.790	1714
652.847	314
652.904	2489
652.961	119
653.017	994
653.074	1990
653.131	1287
653.188	-661
653.245	1244
653.302	1271
653.359	1392
653.415	1124
653.472	1021
653.529	2045
653.586	1572
653.642	612
653.699	2166
653.756	496
653.813	1083
653.869	931
653.926	1044
653.983	1221
654.039	1245
654.096	502
654.152	1662
654.209	-339
654.266	1611
654.322	581
654.379	1487
654.435	1249
654.492	667
654.548	1178
654.605	3312
654.661	3178
654.717	1251
654.774	1409
654.830	1244
654.887	1091
654.943	970
655.000	1544
655.056	2176
655.112	1317
655.168	211
655.225	1124
655.281	1581
655.337	884
655.394	3280
655.450	2890
655.506	2838
655.562	2101
655.618	4695
655.675	1032
655.731	1915
655.787	1033
655.843	2208
655.899	641
655.955	2852
656.011	2483
656.067	1808
656.123	3336
656.179	3860
656.235	3619
656.291	3222
656.347	3989
656.403	2454
656.459	2710
656.515	3295
656.571	2901
656.627	2219
656.683	985
656.739	2435
656.795	1491
656.850	1378
656.906	1540
656.962	2253
657.018	162
657.074	1679
657.129	1538
657.185	1464
657.241	2355
657.297	2122
657.352	1610
657.408	1682
657.464	1859
657.519	713
657.575	9
657.630	1534
657.686	656
657.742	83
657.797	597
657.853	1028
657.908	1540
657.964	587
658.019	722
658.075	578
658.130	641
658.186	475
658.241	1676
658.297	1002
658.352	127
658.407	577
658.463	254
658.518	1497
658.573	976
658.629	-452
658.684	371
658.739	1806
658.795	-109
658.850	1126
658.905	331
658.960	1259
659.016	-57
659.071	1209
659.126	1379
659.181	1117
659.236	2978
659.291	3251
659.346	838
659.401	2090
659.457	2090
659.512	3306
659.567	2060
659.622	1116
659.677	498
659.732	175
659.787	805
659.842	587
659.897	1684
659.952	1675
660.007	1557
660.061	396
660.116	499
660.171	673
660.226	235
660.281	2211
660.336	214
660.391	1049
660.445	501
660.500	1595
660.555	799
660.610	-289
660.664	1413
660.719	1237
660.774	1474
660.828	1461
660.883	830
660.938	1678
660.992	-109
661.047	1286
661.101	513
661.156	985
661.211	196
661.265	275
661.320	68
661.374	1267
661.429	445
661.483	1281
661.538	435
661.592	605
661.647	914
661.701	1234
661.755	780
661.810	1539
661.864	718
661.919	667
661.973	1203
662.027	1103
662.081	-21
662.136	723
662.190	1368
662.244	765
662.299	163
662.353	1287
662.407	580
662.461	387
662.515	735
662.569	1128
662.624	1056
662.678	970
662.732	-408
662.786	361
662.840	651
662.894	1154
662.948	151
663.002	1650
663.056	1444
663.110	428
663.164	672
663.218	552
663.272	1372
663.326	1277
663.380	-269
663.434	937
663.488	238
663.542	562
663.595	753
663.649	123
663.703	1224
663.757	1187
663.811	-53
663.864	1160
663.918	662
663.972	322
664.026	471
664.079	445
664.133	850
664.187	790
664.240	628
664.294	1402
664.348	372
664.401	1083
664.455	1056
664.508	438
664.562	863
664.615	1214
664.669	-43
664.722	1198
664.776	640
664.829	1412
664.883	816
664.936	253
664.990	1032
665.043	1277
665.097	1089
665.150	1166
665.203	-91
665.257	440
665.310	536
665.363	144
665.417	1619
665.470	533
665.523	898
665.576	998
665.630	618
665.683	773
665.736	764
665.789	1197
665.842	285
665.895	1838
665.949	1298
666.002	796
666.055	514
666.108	1620
666.161	904
666.214	1170
666.267	1282
666.320	1623
666.373	1864
666.426	1096
666.479	696
666.532	934
666.585	333
666.638	1656
666.691	1298
666.744	1264
666.796	-209
666.849	902
666.902	922
666.955	824
667.008	-436
667.060	89
667.113	47
667.166	398
667.219	664
667.271	621
667.324	658
667.377	49
667.430	1220
667.482	1412
667.535	1122
667.587	655
667.640	913
667.693	1209
667.745	1059
667.798	2951
667.850	394
667.903	500
667.955	1001
668.008	1241
668.060	630
668.113	610
668.165	856
668.218	952
668.270	167
668.322	471
668.375	51
668.427	1435
668.479	352
668.532	426
668.584	283
668.636	965
668.689	149
668.741	976
668.793	689
668.845	482
668.898	886
668.950	1125
669.002	-191
669.054	410
669.106	220
669.158	1170
669.211	1548
669.263	272
669.315	1055
669.367	1939
669.419	1149
669.471	1866
669.523	1601
669.575	2849
669.627	1985
669.679	1284
669.731	468
669.783	2602
669.835	1679
669.886	1762
669.938	1608
669.990	1362
670.042	1744
670.094	1163
670.146	2367
670.197	3067
670.249	4789
670.301	6218
670.353	8790
670.404	13781
670.456	19195
670.508	30764
670.560	47935
670.611	77132
670.663	127028
670.715	240421
670.766	404007
670.818	288350
670.869	83125
670.921	29914
670.972	17567
671.024	11985
671.075	8364
671.127	6194
671.178	3972
671.230	4404
671.281	3301
671.333	3292
671.384	2924
671.436	2448
671.487	2875
671.538	3525
671.590	3111
671.641	4401
671.692	6332
671.744	10422
671.795	12264
671.846	5949
671.897	2795
671.949	2289
672.000	928
672.051	1310
672.102	1071
672.153	635
672.204	1724
672.256	1564
672.307	983
672.358	743
672.409	809
672.460	1053
672.511	1886
672.562	-26
672.613	-55
672.664	574
672.715	325
672.766	1223
672.817	533
672.868	394
672.919	-295
672.970	826
673.021	251
673.071	148
673.122	755
673.173	1130
673.224	-64
673.275	618
673.326	414
673.376	1160
673.427	-344
673.478	-302
673.528	993
673.579	-171
673.630	827
673.680	542
673.731	216
673.782	39
673.832	577
673.883	1477
673.934	981
673.984	500
674.035	290
674.085	670
674.136	1219
674.186	1368
674.237	299
674.287	1522
674.338	1268
674.388	132
674.438	-736
674.489	711
674.539	470
674.589	397
674.640	989
674.690	992
674.740	-157
674.791	-52
674.841	-415
674.891	349
674.942	-219
674.992	-50
675.042	358
675.092	-66
675.142	-59
675.193	1420
675.243	-319
675.293	603
675.343	275
675.393	482
675.443	1100
675.493	42
675.543	-362
675.593	74
675.643	-302
675.693	738
675.743	-42
675.793	549
675.843	-328
675.893	566
675.943	197
675.993	497
676.043	-607
676.093	80
676.142	-191
676.192	194
676.242	-107
676.292	-91
676.341	-427
676.391	503
676.441	-379
676.491	54
676.540	-333
676.590	48
676.640	-290
676.689	-321
676.739	-398
676.789	885
676.838	-382
676.888	438
676.937	-668
676.987	-301
677.037	-476
677.086	-394
677.136	21
677.185	-74
677.235	-196
677.284	-214
677.333	-1409
677.383	-119
677.432	-975
677.482	529
677.531	-328
677.580	-462
677.630	-198
677.679	-40
677.728	-188
677.778	357
677.827	-556
677.876	-126
677.925	51
677.975	175
678.024	-31
678.073	-86
678.122	306
678.171	-119
678.220	-190
678.269	-605
678.319	140
678.368	-240
678.417	-23
678.466	150
678.515	-475
678.564	-243
678.613	135
678.662	-298
678.711	-739
678.760	135
678.809	-250
678.857	268
678.906	202
678.955	-113
679.004	-352
679.053	8
679.102	251
679.151	344
679.199	-105
679.248	-301
679.297	-1048
679.346	-700
679.394	-533
679.443	247
679.492	56
679.540	145
679.589	-521
679.638	101
679.686	15
679.735	-68
679.784	-372
679.832	-179
679.881	-660
679.929	-322
679.978	-571
680.026	264
680.075	-276
680.123	-713
680.172	-366
680.220	-455
680.268	-467
680.317	-381
680.365	-700
680.414	-296
680.462	-1176
680.510	198
680.559	-46
680.607	-171
680.655	-104
680.703	-94
680.752	-314
680.800	-682
680.848	-771
680.896	-121
680.945	-680
680.993	-529
681.041	-232
681.089	-697
681.137	-634
681.185	-783
681.233	-600
681.258	-475
681.281	-366
681.329	-937
681.377	-514
681.380	-519
681.425	-777
681.473	86
681.502	-301
681.521	-590
681.569	-236
681.617	-401
681.624	-418
681.665	-593
681.713	-266
681.745	110
681.761	278
681.809	-946
681.857	416
681.867	237
681.904	-411
681.952	446
681.989	-581
682.000	-900
682.048	-264
682.096	-23
682.111	-268
682.143	-826
682.191	-90
682.233	-29
682.239	-26
682.286	-145
682.334	-251
682.354	-437
682.382	-725
682.430	296
682.476	-87
682.477	-102
682.525	11
682.572	-393
682.598	-155
682.620	36
682.667	390
682.715	385
682.720	382
682.763	225
682.810	719
682.841	49
682.857	-291
682.905	-518
682.952	511
682.963	479
683.000	358
683.047	-324
683.085	610
683.095	843
683.142	24
683.190	296
683.206	-25
683.237	-605
683.284	296
683.328	327
683.332	320
683.379	-166
683.426	299
683.449	10
683.473	-248
683.521	154
683.568	277
683.571	287
683.615	242
683.662	659
683.693	244
683.709	3
683.757	515
683.804	442
683.814	492
683.851	675
683.898	70
683.936	982
683.945	1180
683.992	96
684.039	112
684.057	239
684.086	538
684.133	918
684.179	453
684.180	430
684.227	915
684.274	1039
684.300	798
684.321	574
684.368	106
684.415	817
684.422	810
684.462	725
684.509	1134
684.543	917
684.556	841
684.603	588
684.649	593
684.665	761
684.696	1156
684.743	859
684.786	697
684.790	670
684.837	505
684.883	1116
684.908	622
684.930	173
684.977	1244
685.023	31
685.029	128
685.070	858
685.117	1127
685.150	1041
685.164	974
685.210	1319
685.257	925
685.272	993
685.303	1172
685.350	1428
685.393	1021
685.396	987
685.443	1476
685.490	903
685.514	1299
685.536	1653
685.583	1237
685.629	952
685.636	944
685.675	725
685.722	935
685.757	778
685.768	768
685.815	444
685.861	924
685.878	1040
685.908	1228
685.954	1158
686.000	1785
686.000	1793
686.047	921
686.093	1550
686.121	1361
686.139	1209
686.185	1676
686.232	991
686.242	1165
686.278	1697
686.324	1124
686.363	1585
686.370	1680
686.416	1299
686.463	1248
686.484	1271
686.509	1333
686.555	1090
686.601	1486
686.606	1521
686.647	1737
686.693	1469
686.727	1679
686.739	1747
686.785	1478
686.831	1476
686.848	1450
686.877	1457
686.923	1482
686.969	1532
686.969	1532
687.015	1649
687.061	1220
687.090	1440
687.107	1553
687.153	1701
687.199	1799
687.211	1665
687.245	1355
687.291	2062
687.332	2076
687.336	2065
687.382	1692
687.428	1836
687.453	1771
687.474	1751
687.520	1627
687.565	1487
687.574	1413
687.611	1193
687.657	2022
687.695	1995
687.702	1988
687.748	2046
687.794	3015
687.816	2852
687.839	2671
687.885	2485
687.931	2418
687.937	2390
687.976	2061
688.022	2101
688.058	1855
688.067	1829
688.113	1860
688.158	1780
688.179	1889
688.204	2028
688.249	2117
688.295	2158
688.300	2103
688.340	1760
688.386	1904
688.421	1933
688.431	1924
688.477	2065
688.522	1951
688.542	2056
688.567	2197
688.613	1751
688.658	2048
688.663	2019
688.703	1915
688.749	2274
688.784	2476
688.794	2498
688.839	2545
688.884	2259
688.905	2236
688.930	2257
688.975	2096
689.020	2163
689.026	2182
689.065	2390
689.110	2436
689.146	2351
689.155	2331
689.201	2519
689.246	2994
689.267	2761
689.291	2470
689.336	2766
689.381	2308
689.388	2386
689.426	2882
689.471	2456
689.509	2550
689.516	2577
689.561	2665
689.606	2645
689.630	2882
689.651	3045
689.696	2496
689.741	2966
689.750	2848
689.785	2587
689.830	3126
689.871	3134
689.875	3117
689.920	2980
689.965	2823
689.992	2776
690.010	2820
690.054	2454
690.099	2862
690.112	2844
690.144	2760
690.189	2951
690.233	2939
690.233	2945
690.278	2925
690.323	2961
690.354	3319
690.367	3435
690.412	3206
690.457	3393
690.474	3249
690.501	3184
690.546	3563
690.590	3632
690.595	3714
690.635	4469
690.680	4093
690.716	4468
690.724	4656
690.769	5712
690.813	6533
690.836	6917
690.857	7728
690.902	9692
690.946	11607
690.957	12071
690.991	16404
691.035	23402
691.077	30382
691.080	30734
691.124	35123
691.168	37195
691.198	38576
691.213	35604
691.257	28106
691.301	19996
691.318	17116
691.346	15197
691.390	12098
691.434	8656
691.439	8281
691.478	7363
691.522	6844
691.559	5733
691.567	5635
691.611	5384
691.655	4803
691.680	4755
691.699	4794
691.743	4782
691.787	4493
691.800	4334
691.831	4033
691.875	4064
691.919	4174
691.921	4160
691.964	4181
692.008	4433
692.041	4192
692.052	4070
692.096	3725
692.139	3890
692.162	3602
692.183	3456
692.227	4111
692.271	3652
692.282	3699
692.315	3932
692.359	3982
692.402	4314
692.403	4325
692.447	3970
692.490	4204
692.523	4244
692.534	4255
692.578	4056
692.622	4027
692.643	4068
692.666	4175
692.709	4089
692.753	3851
692.763	3910
692.797	4137
692.840	4184
692.884	4188
692.884	4198
692.928	4127
692.971	3977
693.004	3921
693.015	3985
693.059	4313
693.102	4678
693.124	4664
693.146	4619
693.189	4587
693.233	4584
693.245	4720
693.276	5210
693.320	5550
693.363	5722
693.365	5708
693.407	6334
693.450	7518
693.485	8195
693.493	8517
693.537	10474
693.580	12156
693.605	13165
693.624	15008
693.667	19546
693.710	24397
693.725	26021
693.753	35115
693.797	49973
693.840	65749
693.845	67480
693.883	75676
693.926	81340
693.966	87065
693.970	85463
694.013	67417
694.056	50101
694.086	38230
694.099	35772
694.142	27707
694.185	19549
694.206	15771
694.229	14838
694.272	12935
694.315	10937
694.326	10445
694.358	9906
694.401	8933
694.444	7940
694.446	7897
694.487	7925
694.530	7216
694.566	6983
694.573	6954
694.616	6636
694.659	6042
694.686	5791
694.702	5735
694.745	5350
694.787	5104
694.806	5049
694.830	5125
694.873	4899
694.916	4852
694.926	4812
694.959	4856
695.002	4989
695.044	4830
695.046	4831
695.087	4985
695.130	4596
695.166	4435
695.172	4453
695.215	4634
695.258	4742
695.286	4713
695.301	4674
695.343	4624
695.386	4378
695.406	4317
695.428	4424
695.471	4690
695.514	4754
695.526	4806
695.556	4795
695.599	4869
695.641	4563
695.646	4534
695.684	4312
695.726	4144
695.766	4047
695.769	4080
695.811	4053
695.854	4460
695.886	4573
695.896	4576
695.938	4604
695.981	4406
696.005	4430
696.023	4420
696.065	4207
696.108	4154
696.125	4001
696.150	3875
696.192	4003
696.235	3888
696.245	3881
696.277	4141
696.319	4344
696.361	4694
696.365	4690
696.404	4927
696.446	5326
696.485	5763
696.488	5786
696.530	5779
696.572	5651
696.604	5673
696.614	5632
696.656	5239
696.698	5052
696.724	4769
696.740	4650
696.783	4508
696.825	4192
696.844	4087
696.867	4153
696.909	4261
696.951	4331
696.964	4328
696.992	4377
697.034	4446
697.076	4521
697.083	4524
697.118	4822
697.160	5111
697.202	5426
697.203	5417
697.244	5138
697.286	4864
697.323	4560
697.327	4573
697.369	4512
697.411	4511
697.442	4483
697.453	4448
697.494	4243
697.536	4124
697.562	3937
697.578	4022
697.620	4324
697.661	4604
697.682	4717
697.703	4688
697.744	4543
697.786	4554
697.801	4494
697.828	4640
697.869	4903
697.911	5109
697.921	5158
697.952	5105
697.994	4993
698.035	4888
698.040	4860
698.077	4818
698.118	4718
698.160	4612
698.160	4595
698.201	4988
698.243	5312
698.279	5603
698.284	5607
698.325	5471
698.367	5354
698.399	5225
698.408	5233
698.449	5201
698.491	5186
698.518	5163
698.532	5076
698.573	4757
698.614	4424
698.638	4213
698.656	4392
698.697	4793
698.738	5175
698.757	5350
698.779	5273
698.820	5082
698.862	4892
698.877	4806
698.903	4908
698.944	5052
698.985	5186
698.996	5211
699.026	5150
699.067	5043
699.116	4902
699.235	4628
699.354	4609
699.474	5123
699.593	5077
699.713	5489
699.832	4982
699.951	5311
700.070	4793
700.190	4848
700.309	5363
700.428	4644
700.547	4834
700.667	4833
700.786	5514
700.905	4833
701.024	4418
701.143	4240
701.262	4828
701.381	4835
701.500	4456
701.619	5175
701.738	5192
701.857	4079
701.976	4418
702.095	4704
702.214	3943
702.333	4689
702.452	4157
702.571	4435
702.690	5698
702.809	4305
702.928	4304
703.047	4352
703.165	4416
703.284	4351
703.403	4400
703.522	4484
703.640	5229
703.759	3841
703.878	5489
703.997	4114
704.115	4184
704.234	5046
704.353	4721
704.471	4998
704.590	4965
704.708	4861
704.827	3810
704.946	4236
705.064	4951
705.183	4125
705.301	4103
705.420	6265
705.538	5111
705.656	5347
705.775	5781
705.893	8884
706.012	15590
706.130	5863
706.249	4926
706.367	4980
706.485	4905
706.604	4922
706.722	4797
706.840	5314
706.958	6635
707.077	5855
707.195	5177
707.313	4513
707.431	4740
707.549	3870
707.668	4624
707.786	5182
707.904	4139
708.022	4779
708.140	4684
708.258	4225
708.376	4364
708.494	3594
708.612	4947
708.730	5157
708.848	5368
708.966	4769
709.084	5326
709.202	4565
709.320	4983
709.438	3588
709.556	4817
709.674	5323
709.791	5259
709.909	4571
710.027	4465
710.145	4584
710.263	5083
710.380	4111
710.498	4987
710.616	5086
710.733	4650
710.851	4289
710.969	5455
711.086	4551
711.204	3846
711.322	4362
711.439	4846
711.557	4257
711.674	4653
711.792	4190
711.909	4764
712.027	5735
712.144	4402
712.262	4131
712.379	4321
712.497	4855
712.614	5322
712.732	4398
712.849	5094
712.966	4889
713.084	5687
713.201	6372
713.318	5339
713.436	5185
713.553	5439
713.670	4610
713.787	5437
713.905	5152
714.022	5017
714.139	4464
714.256	5921
714.373	5815
714.490	8589
714.608	13825
714.725	54026
714.842	126420
714.959	16722
715.076	5632
715.193	5743
715.310	4784
715.427	4917
715.544	4032
715.661	4741
715.778	4413
715.895	4880
716.011	4769
716.128	4451
716.245	3688
716.362	5208
716.479	4554
716.596	4587
716.713	4718
716.829	4627
716.946	4107
717.063	4721
717.180	3893
717.296	4271
717.413	4532
717.530	4687
717.646	4065
717.763	4355
717.880	3489
717.996	4501
718.113	3740
718.229	3617
718.346	3089
718.462	3620
718.579	4641
718.695	4902
718.812	6033
718.928	4855
719.045	4320
719.161	4167
719.277	3207
719.394	3605
719.510	4319
719.626	4405
719.743	4695
719.859	5488
719.975	6020
720.092	14740
720.208	50637
720.324	18013
720.440	5011
720.557	3718
720.673	4590
720.789	6002
720.905	8177
721.021	6232
721.137	3191
721.253	3623
721.369	3970
721.486	3624
721.602	4369
721.718	4468
721.834	3403
721.950	3405
722.066	3907
722.181	3270
722.297	3137
722.413	4381
722.529	3324
722.645	3659
722.761	3828
722.877	3283
722.993	3760
723.108	2887
723.224	3108
723.340	3153
723.456	3324
723.571	2670
723.687	3178
723.803	3592
723.918	2779
724.034	2901
724.150	2883
724.265	4010
724.381	3792
724.497	6016
724.612	3006
724.728	2769
724.843	2761
724.959	3184
725.074	3679
725.190	5454
725.305	3266
725.421	3135
725.536	2928
725.651	2199
725.767	3364
725.882	2835
725.997	3030
726.113	3376
726.228	3110
726.343	3438
726.459	2782
726.574	2829
726.689	3114
726.804	2923
726.920	2936
727.035	3595
727.150	2519
727.265	2999
727.380	2470
727.495	2520
727.610	2017
727.725	2801
727.841	3157
727.956	5754
728.071	7055
728.186	2761
728.301	2736
728.416	2907
728.531	2532
728.645	2330
728.760	2974
728.875	2856
728.990	2569
729.105	3601
729.220	2443
729.335	2211
729.449	3366
729.564	2645
729.679	2465
729.794	2849
729.908	2990
730.023	2547
730.138	3025
730.253	2595
730.367	2106
730.482	2725
730.596	2999
730.711	3174
730.826	2739
730.940	2910
731.055	2790
731.169	2286
731.284	2268
731.398	2366
731.513	3106
731.627	2863
731.742	3166
731.856	3028
731.970	2480
732.085	3676
732.199	4027
732.313	5249
732.428	7148
732.542	18882
732.656	21279
732.771	6385
732.885	3592
732.999	2822
733.113	3423
733.227	2872
733.342	3449
733.456	2989
733.570	2961
733.684	2367
733.798	2649
733.912	2262
734.026	1845
734.140	1853
734.254	2497
734.368	2960
734.482	3302
734.596	3548
734.710	2614
734.824	3499
734.938	2291
735.052	2299
735.166	2019
735.280	2819
735.393	2845
735.507	2501
735.621	3259
735.735	3312
735.849	3370
735.962	2432
736.076	2220
736.190	2618
736.303	2433
736.417	3351
736.531	2469
736.644	3454
736.758	2492
736.872	2295
736.985	1434
737.099	2665
737.212	2365
737.326	3077
737.439	2254
737.553	2681
737.666	2127
737.780	1904
737.893	1959
738.007	2926
738.120	2351
738.233	2201
738.347	2260
738.460	2289
738.573	2187
738.687	2444
738.800	2208
738.913	2093
739.026	3288
739.140	1985
739.253	3192
739.366	2274
739.479	2671
739.592	1851
739.705	2149
739.818	1903
739.932	1842
740.045	2462
740.158	2913
740.271	3068
740.384	3039
740.497	2191
740.610	3136
740.723	2862
740.836	3033
740.949	2638
741.062	2443
741.174	3302
741.287	2024
741.400	3198
741.513	2139
741.626	3223
741.739	2014
741.851	1986
741.964	2491
742.077	2099
742.189	3308
742.302	4284
742.415	3698
742.527	2159
742.640	2267
742.753	2408
742.865	2584
742.978	2186
743.090	2247
743.203	1665
743.316	2799
743.428	2928
743.541	2816
743.653	2757
743.766	1817
743.878	2427
743.990	2994
744.103	4559
744.215	5681
744.327	3267
744.440	2463
744.552	3659
744.664	2365
744.777	2461
744.889	2024
745.001	2191
745.113	1670
745.226	2576
745.338	2356
745.450	1435
745.562	1846
745.674	2265
745.786	1692
745.898	2211
746.010	1684
746.122	2270
746.234	2882
746.347	2783
746.459	2574
746.570	2772
746.682	3215
746.794	7497
746.906	4391
747.018	3124
747.130	1449
747.242	2226
747.354	2740
747.466	2190
747.577	2312
747.689	3446
747.801	2742
747.913	2463
748.024	1777
748.136	2099
748.248	2610
748.359	2575
748.471	2174
748.583	2706
748.694	2376
748.806	3275
748.918	1913
749.029	2806
749.141	2273
749.252	2781
749.364	2298
749.475	3303
749.587	3091
749.698	2121
749.809	3007
749.921	2689
750.032	2463
750.144	1598
750.255	2341
750.366	1695
750.478	2536
750.589	2633
750.700	2416
750.811	2424
750.923	2282
751.034	2286
751.145	4124
751.256	2447
751.367	2328
751.479	2554
751.590	1929
751.701	1900
751.812	2381
751.923	2692
752.034	2679
752.145	2393
752.256	2771
752.367	2536
752.478	2985
752.589	2503
752.700	3155
752.811	2890
752.922	1791
753.032	2178
753.143	2192
753.254	2668
753.365	2120
753.476	2558
753.586	2251
753.697	3099
753.808	1879
753.919	2322
754.029	2275
754.140	3680
754.251	2878
754.361	1943
754.472	2270
754.582	2970
754.693	2884
754.804	3207
754.914	3151
755.025	1274
755.135	2544
755.246	3031
755.356	2405
755.466	3067
755.577	3537
755.687	3989
755.798	2531
755.908	3030
756.018	3070
756.129	2887
756.239	2996
756.349	3673
756.460	2793
756.570	3167
756.680	3119
756.790	3356
756.900	3121
757.011	3906
757.121	3060
757.231	2937
757.341	3130
757.451	3990
757.561	2946
757.671	3842
757.781	4004
757.891	4369
758.001	3173
758.111	3390
758.221	4127
758.331	3715
758.441	4234
758.551	4616
758.661	4411
758.771	4055
758.880	4335
758.990	4491
759.100	4207
759.210	4193
759.320	4549
759.429	4865
759.539	4599
759.649	4410
759.758	4509
759.868	4812
759.978	4554
760.087	5690
760.197	5279
760.307	5431
760.416	5320
760.526	5140
760.635	5431
760.745	6212
760.854	5935
760.964	6953
761.073	7393
761.182	6077
761.292	6382
761.401	7050
761.511	6669
761.620	6602
761.729	7263
761.839	7796
761.948	7945
762.057	8307
762.166	8823
762.276	7093
762.385	9233
762.494	9353
762.603	9196
762.712	9605
762.822	9967
762.931	9887
763.040	11455
763.149	11584
763.258	11522
763.367	12694
763.476	13124
763.585	14464
763.694	15008
763.803	15351
763.912	16589
764.021	18120
764.130	18622
764.238	20221
764.347	22034
764.456	23094
764.565	25414
764.674	26938
764.783	30537
764.891	32904
765.000	38058
765.109	42806
765.217	48111
765.326	56895
765.435	67243
765.543	80147
765.652	97858
765.761	123509
765.869	158363
765.978	212728
766.086	292313
766.195	401275
766.303	514788
766.412	472290
766.520	410794
766.629	514416
766.737	434139
766.846	318814
766.954	232874
767.062	176128
767.171	137106
767.279	106942
767.387	86187
767.496	72503
767.604	61652
767.712	52231
767.820	45070
767.928	42360
768.037	38560
768.145	37488
768.253	34947
768.361	33550
768.469	32759
768.577	32804
768.685	34487
768.793	36313
768.901	40336
769.009	46680
769.117	55254
769.225	69292
769.333	92755
769.441	130235
769.549	199051
769.657	317364
769.765	459042
769.873	421201
769.981	443989
770.088	369286
770.196	240764
770.304	161472
770.412	115986
770.519	88874
770.627	70632
770.735	56926
770.842	47926
770.950	40329
771.058	35318
771.165	30710
771.273	27555
771.380	25175
771.488	23214
771.595	20432
771.703	18552
771.810	17797
771.918	16100
772.025	15445
772.133	14436
772.240	13870
772.348	12192
772.455	11950
772.562	11940
772.670	10459
772.777	10301
772.884	9758
772.991	10023
773.099	9652
773.206	9423
773.313	8721
773.420	8085
773.528	7962
773.635	8037
773.742	8115
773.849	7047
773.956	7135
774.063	6758
774.170	6685
774.277	5907
774.384	6081
774.491	5740
774.598	5618
774.705	5568
774.812	5472
774.919	4729
775.026	5175
775.133	4974
775.239	4012
775.346	4653
775.453	5311
775.560	4274
775.667	4580
775.773	5032
775.880	4865
775.987	3967
776.093	4794
776.200	3352
776.307	3956
776.413	4418
776.520	4214
776.627	3501
776.733	3765
776.840	3414
776.946	5749
777.053	6630
777.159	12838
777.266	8540
777.372	11077
777.478	10139
777.585	5643
777.691	3135
777.798	3455
777.904	3947
778.010	4475
778.117	3588
778.223	2195
778.329	3158
778.435	3070
778.542	2886
778.648	2965
778.754	2359
778.860	2988
778.966	2008
779.072	2495
779.178	3295
779.284	3362
779.391	2478
779.497	3146
779.603	5488
779.708	8959
779.815	19862
779.920	59405
780.026	144923
780.132	49732
780.238	8653
780.344	5674
780.450	4718
780.556	3898
780.661	2594
780.767	3034
780.873	2306
780.979	2801
781.085	1624
781.190	2338
781.296	1676
781.402	1670
781.507	1822
781.613	1460
781.719	1448
781.824	1965
781.930	1619
782.035	2023
782.141	1981
782.246	1995
782.352	2371
782.457	1356
782.563	1219
782.668	1561
782.773	1613
782.879	1499
782.984	1583
783.090	2442
783.195	2357
783.300	1775
783.405	1219
783.511	790
783.616	1862
783.721	1520
783.826	2011
783.932	1524
784.037	995
784.142	1341
784.247	800
784.352	1425
784.457	1269
784.562	792
784.667	811
784.772	1407
784.877	981
784.982	628
785.087	1270
785.192	1680
785.297	1087
785.402	439
785.507	1045
785.611	1268
785.716	652
785.821	1347
785.926	576
786.031	907
786.135	230
786.240	1176
786.345	104
786.450	500
786.554	909
786.659	472
786.763	307
786.868	1160
786.973	1395
787.077	1008
787.182	20
787.286	197
787.391	510
787.495	893
787.600	1124
787.704	813
787.809	1308
787.913	989
788.017	1114
788.122	1502
788.226	931
788.330	503
788.435	12
788.539	690
788.643	1488
788.747	324
788.852	272
788.956	458
789.060	656
789.164	675
789.268	-310
789.372	1085
789.476	329
789.580	600
789.684	437
789.788	1251
789.892	384
789.996	659
790.100	520
790.204	565
790.308	204
790.412	738
790.516	399
790.620	617
790.724	735
790.828	191
790.931	26
791.035	1322
791.139	-5
791.242	-554
791.346	1201
791.450	203
791.554	15
791.657	57
791.761	623
791.864	990
791.968	1217
792.072	680
792.175	911
792.279	654
792.382	142
792.486	1335
792.589	224
792.693	290
792.796	-911
792.899	1097
793.003	442
793.106	-654
793.209	208
793.313	1057
793.416	-283
793.519	710
793.623	664
793.726	692
793.829	236
793.932	490
794.035	-61
794.138	1373
794.242	1419
794.345	1871
794.448	3406
794.551	9989
794.654	33761
794.757	86348
794.860	32331
794.963	3170
795.066	1069
795.169	1055
795.272	-97
795.375	1025
795.477	-284
795.580	279
795.683	-326
795.786	66
795.889	-428
795.991	1277
796.094	543
796.197	-426
796.300	-110
796.402	-309
796.505	-362
796.608	924
796.710	190
796.813	434
796.915	19
797.018	132
797.120	513
797.223	-979
797.326	262
797.428	286
797.530	-16
797.633	730
797.735	252
797.838	-344
797.940	378
798.042	-380
798.145	-32
798.247	-151
798.349	-968
798.452	22
798.554	-384
798.656	-166
798.758	-1
798.860	414
798.962	36
799.065	-518
799.167	-500
799.269	830
799.371	244
799.473	356
799.575	51
799.677	-67
799.779	100
799.881	-636
799.983	307
800.085	-258
800.187	-639
800.289	284
800.390	-423
800.492	773
800.594	669
800.696	-278
800.798	-92
800.899	-472
801.001	98
801.103	476
801.205	-467
801.306	21
801.408	-685
801.509	374
801.611	735
801.713	88
801.814	-796
801.916	-15
802.017	-897
802.119	-111
802.220	75
802.322	-1748
802.423	-472
802.525	-119
802.626	-268
802.727	-304
802.829	-384
802.930	-1005
803.031	1134
803.133	-191
803.234	-337
803.335	-816
803.436	-208
803.538	-607
803.639	-1336
803.740	-239
803.841	-935
803.942	211
804.043	307
804.144	-770
804.245	-428
804.346	187
804.447	-1205
804.548	-799
804.649	-64
804.750	-598
804.851	-519
804.952	-402
805.053	-910
805.154	-991
805.255	-251
805.355	-413
805.456	-351
805.557	-208
805.658	-838
805.758	-572
805.859	-699
805.960	67
806.061	-39
806.161	-319
806.262	-379
806.362	-717
806.463	-224
806.564	-364
806.664	216
806.765	99
806.865	-1206
806.966	-535
807.066	-519
807.166	-172
807.267	-677
807.367	-892
807.468	-550
807.568	-1685
807.668	-1055
807.769	-127
807.869	-400
807.969	-811
808.069	4
808.170	-1
808.270	-606
808.370	-320
808.470	-879
808.570	-924
808.670	-994
808.770	-289
808.870	-1288
808.970	-963
809.070	-865
809.170	-759
809.271	-883
809.370	-1350
809.470	-237
809.570	-269
809.670	23
809.770	-838
809.870	-350
809.970	495
810.070	-444
810.169	-154
810.269	-670
810.369	597
810.469	-684
810.568	-626
810.668	-971
810.768	-636
810.867	-173
810.967	-162
811.066	-729
811.166	-953
811.265	-519
811.365	-745
811.464	-237
811.564	-853
811.663	-365
811.763	-582
811.862	-218
811.962	-245
812.061	-972
812.160	-590
812.260	-169
812.359	-86
812.458	-102
812.557	2851
812.657	5511
812.756	2762
812.855	-615
812.954	-126
813.053	-110
813.153	-811
813.252	-608
813.351	-100
813.450	-740
813.549	-44
813.648	-529
813.747	-110
813.846	-323
813.945	-745
814.044	-800
814.143	-144
814.242	7
814.341	-448
814.439	439
814.538	-194
814.637	-805
814.736	-88
814.835	100
814.933	-282
815.032	-331
815.131	-833
815.229	-893
815.328	496
815.427	-301
815.525	284
815.624	-222
815.722	318
815.821	8
815.919	622
816.018	-206
816.116	1260
816.215	77
816.313	591
816.412	295
816.510	1002
816.609	1108
816.707	107
816.805	828
816.904	1079
817.002	1523
817.100	1423
817.198	1984
817.296	2545
817.395	2608
817.493	4227
817.591	4465
817.689	5869
817.787	7757
817.885	12157
817.983	21585
818.081	42098
818.179	88147
818.277	187218
818.375	237046
818.473	125203
818.571	52124
818.669	29649
818.767	22748
818.865	20266
818.963	21067
819.061	27737
819.158	44387
819.256	77889
819.354	148910
819.452	272676
819.549	266990
819.647	146649
819.745	71669
819.842	39517
819.940	25513
820.038	17142
820.135	12901
820.233	10303
820.330	6877
820.428	6033
820.525	5355
820.623	4344
820.720	3933
820.818	3725
820.915	2682
821.012	3002
821.110	2229
821.207	2779
821.304	942
821.402	1900
821.499	1876
821.596	3969
821.693	1682
821.791	2615
821.888	876
821.985	1203
822.082	1185
822.179	1367
822.276	2067
822.373	928
822.470	134
822.567	200
822.664	-255
822.761	87
822.858	-819
822.955	508
823.052	-361
823.149	-135
823.246	-681
823.343	-883
823.440	-105
823.536	-307
823.633	-336
823.730	-163
823.827	-955
823.923	-1019
824.020	-154
824.117	-107
824.213	-57
824.310	43
824.407	-1273
824.503	-743
824.600	20
824.696	201
824.793	-58
824.889	-861
824.986	-220
825.082	-609
825.179	-35
825.275	-1180
825.371	-1202
825.468	134
825.564	-1313
825.660	2
825.757	-728
825.853	156
825.949	-749
826.045	-109
826.142	-1186
826.238	-1484
826.334	-873
826.430	-1135
826.526	-573
826.622	-992
826.718	-672
826.814	-1756
826.910	-500
827.006	-1281
827.102	-770
827.198	-419
827.294	-1363
827.390	-362
827.486	-532
827.582	-1269
827.678	-1362
827.774	-810
827.869	-1379
827.965	115
828.061	-1330
828.157	-1039
828.252	-1327
828.348	-1439
828.444	-705
828.539	-1547
828.635	-1224
828.731	-381
828.826	-1660
828.922	-553
829.017	-1363
829.113	-1297
829.208	-1051
829.304	-1063
829.399	367
829.495	-1220
829.590	-342
829.685	-1446
829.781	-913
829.876	-994
829.971	-1505
830.066	-1009
830.162	-1093
830.257	-972
830.352	-973
830.447	-301
830.543	-833
830.638	-1398
830.733	-510
830.828	-1286
830.923	-524
831.018	-1197
831.113	-1407
831.208	-1537
831.303	-1271
831.398	-1282
831.493	-1555
831.588	-461
831.683	-1296
831.778	-1455
831.873	-1150
831.967	-298
832.062	-722
832.157	-1730
832.252	178
832.346	-1213
832.441	-979
832.536	-432
832.631	312
832.725	-673
832.820	-1054
832.914	-1315
833.009	-1127
833.104	-1519
833.198	-710
833.293	-1095
833.387	-1675
833.482	-911
833.576	-1483
833.670	-860
833.765	-1711
833.859	-1806
833.954	-1394
834.048	-1372
834.142	-900
834.237	-1150
834.331	-937
834.425	-1083
834.519	-2016
834.613	-748
834.708	-1358
834.802	-1426
834.896	-2373
834.990	-1137
835.084	-757
835.178	-1133
835.272	-834
835.366	-968
835.460	-871
835.554	-603
835.648	-869
835.742	-1301
835.836	-927
835.930	-1953
836.024	-669
836.117	-1261
836.211	-1607
836.305	-836
836.399	-1102
836.493	-1877
836.586	-645
836.680	-703
836.774	-952
836.867	-220
836.961	-1770
837.055	-961
837.148	-1322
837.242	-314
837.335	-990
837.429	-1137
837.522	-1137
837.616	-1117
837.709	-348
837.803	-908
837.896	-1281
837.989	-1126
838.083	-843
838.176	-852
838.269	-993
838.363	-837
838.456	-1346
838.549	-656
838.642	-1300
838.735	-1177
838.829	-414
838.922	-1645
839.015	-1130
839.108	-1305
839.201	-569
839.294	-696
839.387	-1054
839.480	-1703
839.573	-832
839.666	-1659
839.759	-1332
839.852	-2805
839.945	-1065
840.038	-1682
840.131	-1260
840.223	-751
840.316	-708
840.409	-1396
840.502	-1625
840.594	-925
840.687	-2190
840.780	-1135
840.873	-1821
840.965	-1547
841.058	-966
841.150	-1211
841.243	-1223
841.336	-1056
841.428	-1174
841.521	-1932
841.613	-1491
841.706	-789
841.798	-1528
841.890	-1399
841.983	-1707
842.075	-650
842.167	-830
842.260	-598
842.352	-923
842.444	-1006
842.537	-1093
842.629	47
842.721	-749
842.813	-1230
842.905	-1619
842.997	-1369
843.090	-1242
843.182	-1044
843.274	-967
843.366	344
843.458	1274
843.550	1485
843.642	-808
843.734	-1097
843.826	-1289
843.918	-916
844.009	-1233
844.101	-1308
844.193	-1070
844.285	-1001
844.377	-708
844.469	716
844.560	120
844.652	862
844.744	-302
844.835	-1143
844.927	-1549
845.019	-884
845.110	-1823
845.202	-1075
845.293	-1591
845.385	-1526
845.476	-887
845.568	-1428
845.659	-1861
845.751	-569
845.842	-1173
845.934	-1412
846.025	-1819
846.116	-1221
846.208	-1203
846.299	-1514
846.390	-1507
846.482	-1056
846.573	-1184
846.664	-1722
846.755	-1829
846.846	-1267
846.937	-1950
847.029	-576
847.120	-1835
847.211	-1662
847.302	-806
847.393	-1959
847.484	-1193
847.575	-1581
847.666	-1498
847.757	-792
847.847	-1218
847.938	-159
848.029	-1787
848.120	-1284
848.211	-1572
848.302	-1581
848.392	-1819
848.483	-1127
848.574	-1711
848.664	-1203
848.755	-1624
848.846	-1107
848.936	-1931
849.027	-1205
849.118	-1733
849.208	-820
849.299	-1319
849.389	-1504
849.480	-852
849.570	-309
849.661	-6
849.751	1981
849.841	1114
849.932	-1325
850.022	-1380
850.112	-712
850.203	-1580
850.293	-1748
850.383	-1612
850.474	-1763
850.564	-1375
850.654	-968
850.744	-1276
850.834	-1104
850.924	-1755
851.014	-857
851.104	-1457
851.194	-1557
851.284	-535
851.374	-815
851.464	-203
851.554	-1280
851.644	-365
851.734	-931
851.824	392
851.914	2109
852.004	4548
852.094	6230
852.183	1138
852.273	-984
852.363	-1637
852.452	-1563
852.542	-1658
852.632	-2092
852.721	-1316
852.811	-1413
852.901	-998
852.990	-1217
853.080	-1596
853.169	-1566
853.259	-1389
853.348	-1322
853.438	-1367
853.527	-1317
853.617	-1341
853.706	-504
853.795	-1119
853.885	1690
853.974	5534
854.063	11268
854.152	22706
854.242	16566
854.331	1156
854.420	-1127
854.509	-1327
854.598	-1233
854.687	-1350
854.777	-869
854.866	-1421
854.955	-737
855.044	-1304
855.133	-1696
855.222	-1591
855.311	-896
855.400	-1612
855.488	-1544
855.577	-1794
855.666	-1355
855.755	-581
855.844	-1859
855.933	-1397
856.021	-1581
856.110	-1183
856.199	-1160
856.288	-1853
856.376	-831
856.465	-1702
856.554	-1683
856.642	-958
856.731	-1314
856.819	-1639
856.908	-1271
856.996	-1478
857.085	-1299
857.173	-1921
857.262	-1192
857.350	-1055
857.438	-821
857.527	-1527
857.615	-873
857.703	-1538
857.792	-1501
857.880	-1541
857.968	-1888
858.056	-673
858.145	-1155
858.233	-1301
858.321	-1742
858.409	-657
858.497	-1388
858.585	-1306
858.673	-1304
858.761	-1517
858.849	-1317
858.937	-1153
859.025	-1196
859.113	-1327
859.201	-1640
859.289	-661
859.377	-1546
859.465	-1230
859.552	-760
859.640	-1824
859.728	-1564
859.816	-827
859.903	-524
859.991	-1495
860.079	-1140
860.166	-2062
860.254	-1067
860.342	-1153
860.429	-1433
860.517	-1649
860.604	-1257
860.692	-1144
860.779	-1965
860.867	-1676
860.954	-2127
861.042	-1173
861.129	-919
861.216	-1546
861.304	-1693
861.391	-2093
861.478	-1819
861.565	-963
861.653	-678
861.740	-2230
861.827	-1566
861.914	-1498
862.001	-1485
862.089	-1491
862.176	-1286
862.263	-1710
862.350	-767
862.437	-1769
862.524	-1696
862.611	-1666
862.698	-1084
862.785	-534
862.871	-293
862.958	-1507
863.045	-1291
863.132	-940
863.219	-1176
863.306	-1919
863.392	-903
863.479	-1897
863.566	-1781
863.652	-1166
863.739	-1501
863.826	-749
863.912	-1179
863.999	-2398
864.086	-1338
864.172	-1746
864.259	-1372
864.345	-1722
864.432	-1000
864.518	-1716
864.604	-905
864.691	-2125
864.777	-1613
864.863	-808
864.950	-485
865.036	-2252
865.122	-295
865.209	-1419
865.295	-729
865.381	-1736
865.467	-1802
865.553	-1052
865.639	-368
865.726	-1161
865.812	1
865.898	1138
865.984	3883
866.070	6788
866.156	13034
866.242	5563
866.328	200
866.414	-1103
866.499	-1629
866.585	-1448
866.671	-887
866.757	-794
866.843	-1156
866.928	-1276
867.014	-1173
867.100	-949
867.186	-1853
867.271	-1270
867.357	-1291
867.442	-1056
867.528	-540
867.614	-654
867.699	-553
867.785	-587
867.870	-532
867.956	234
868.041	400
868.127	-593
868.212	318
868.297	122
868.383	-924
868.468	-437
868.553	-74
868.639	-1392
868.724	-752
868.809	-838
868.894	-697
868.979	-1304
869.065	-933
869.150	-1326
869.235	-1568
869.320	-2006
869.405	-758
869.490	-1126
869.575	-1041
869.660	-1008
869.745	-1334
869.830	-1626
869.915	-1131
870.000	-1486
870.085	-956
870.169	-681
870.254	-533
870.339	-1234
870.424	-1036
870.509	-1897
870.593	-1527
870.678	-805
870.763	-1631
870.847	-665
870.932	-591
871.016	-1796
871.101	-294
871.186	-974
871.270	-1194
871.355	-1929
871.439	-1563
871.523	-1533
871.608	-1482
871.692	-984
871.777	-779
871.861	-1227
871.945	-1360
872.030	-1571
872.114	-1869
872.198	-2027
872.282	-1361
872.367	-1653
872.451	-2023
872.535	-1100
872.619	-1176
872.703	-1409
872.787	-2190
872.871	-1118
872.955	-1389
873.039	-1880
873.123	-1734
873.207	-1520
873.291	-1731
873.375	-2006
873.459	-2021
873.543	-1598
873.627	-1432
873.711	-1412
873.794	-810
873.878	-1587
873.962	-2208
874.045	-1352
874.129	-1424
874.137	-1361
874.213	-737
874.245	-999
874.296	-1421
874.352	-1140
874.380	-1006
874.460	-2434
874.464	-2493
874.547	-1058
874.568	-1213
874.631	-1692
874.676	-1770
874.714	-1820
874.784	-1288
874.798	-1187
874.881	-556
874.892	-632
874.965	-1174
874.999	-1258
875.048	-1381
875.107	-1420
875.131	-1431
875.215	-816
875.215	-816
875.298	-1508
875.323	-1531
875.381	-1578
875.430	-1372
875.465	-1251
875.538	-1686
875.548	-1738
875.631	-830
875.646	-916
875.714	-1336
875.753	-1372
875.798	-1415
875.861	-1408
875.881	-1400
875.964	-925
875.968	-929
876.047	-1028
876.076	-1163
876.130	-1456
876.183	-1098
876.213	-844
876.291	-844
876.296	-850
876.379	-1596
876.398	-1333
876.462	-474
876.506	-888
876.545	-1245
876.613	-1430
876.628	-1456
876.711	-690
876.721	-729
876.794	-1149
876.828	-1337
876.877	-1504
876.935	-947
876.960	-764
877.043	-850
877.043	-850
877.125	-477
877.150	-577
877.208	-846
877.258	-849
877.291	-805
877.365	-681
877.374	-651
877.456	-783
877.472	-839
877.539	-1190
877.579	-1020
877.622	-885
877.687	-669
877.704	-566
877.787	-1055
877.794	-1025
877.869	-951
877.901	-845
877.952	-532
878.008	-559
878.034	-593
878.115	-487
878.117	-483
878.199	-649
878.222	-561
878.282	-431
878.329	-742
878.364	-864
878.437	-391
878.447	-347
878.529	-1418
878.544	-1422
878.611	-1230
878.651	-671
878.694	-116
878.758	-473
878.776	-601
878.858	-638
878.865	-659
878.941	-1077
878.972	-1083
879.023	-837
879.078	-671
879.105	-542
879.185	-215
879.187	-213
879.269	-779
879.292	-807
879.351	-772
879.399	-803
879.433	-744
879.506	-413
879.516	-395
879.598	-414
879.613	-488
879.680	-787
879.720	-408
879.762	-26
879.827	-508
879.844	-585
879.926	-143
879.933	-166
880.007	-598
880.040	-663
880.089	-576
880.147	-430
880.171	-422
880.253	-49
880.254	-51
880.335	237
880.360	177
880.417	191
880.467	260
880.499	518
880.574	2196
880.580	2259
880.662	908
880.680	648
880.744	-105
880.787	-269
880.825	-372
880.893	-370
880.907	-331
880.989	-180
881.000	-199
881.070	-114
881.106	161
881.152	206
881.213	-205
881.233	-268
881.315	-627
881.319	-626
881.396	-356
881.426	-262
881.478	-226
881.532	27
881.559	278
881.639	213
881.641	203
881.722	47
881.745	-38
881.803	96
881.852	106
881.885	-0
881.958	38
881.966	41
882.047	-121
882.064	-199
882.129	-103
882.171	-140
882.210	-305
882.277	100
882.291	174
882.372	70
882.383	21
882.454	-59
882.489	-66
882.535	-218
882.596	-60
882.616	46
882.697	-221
882.702	-232
882.778	-236
882.808	-146
882.859	-183
882.914	-117
882.940	75
883.020	435
883.021	439
883.102	197
883.127	37
883.183	-38
883.233	218
883.264	208
883.339	57
883.345	73
883.426	243
883.445	227
883.507	255
883.551	279
883.587	141
883.657	-45
883.668	9
883.749	48
883.763	147
883.830	280
883.869	262
883.910	338
883.975	448
883.991	468
884.072	-67
884.081	-51
884.152	194
884.187	189
884.233	142
884.292	26
884.314	57
884.394	-85
884.398	-62
884.475	408
884.504	224
884.555	17
884.610	202
884.636	172
884.716	285
884.716	294
884.797	427
884.821	372
884.877	161
884.927	190
884.958	398
885.033	749
885.038	753
885.118	635
885.139	666
885.199	524
885.244	174
885.279	271
885.350	692
885.359	711
885.439	791
885.456	789
885.520	382
885.561	14
885.600	125
885.667	442
885.680	438
885.760	331
885.773	307
885.840	524
885.878	695
885.920	553
885.984	156
886.000	202
886.080	555
886.089	568
886.160	428
886.195	404
886.240	658
886.300	867
886.320	785
886.400	679
886.406	648
886.480	134
886.511	-89
886.560	-12
886.616	102
886.640	301
886.720	1105
886.722	1114
886.800	1286
886.827	1256
886.879	1271
886.932	1377
886.959	1192
887.038	604
887.039	616
887.119	837
887.143	954
887.198	1233
887.248	1409
887.278	1335
887.354	1007
887.358	996
887.437	664
887.459	563
887.517	883
887.564	1171
887.596	1060
887.669	567
887.676	637
887.755	1638
887.774	1838
887.835	1195
887.880	741
887.914	712
887.985	631
887.994	656
888.073	711
888.090	722
888.153	888
888.195	1046
888.232	1214
888.300	1472
888.311	1489
888.391	1412
888.405	1401
888.470	1114
888.510	928
888.549	819
888.615	670
888.628	754
888.708	1150
888.720	1199
888.787	1535
888.825	1731
888.866	1716
888.930	1620
888.945	1542
889.024	1176
889.035	1109
889.103	1100
889.140	1086
889.182	1229
889.245	1420
889.261	1440
889.340	1482
889.349	1480
889.419	1065
889.454	837
889.498	701
889.559	502
889.577	625
889.656	1148
889.664	1194
889.735	1317
889.768	1370
889.814	1693
889.873	2106
889.978	1797
890.083	810
890.187	1211
890.292	1434
890.397	1083
890.501	2107
890.606	1310
890.710	1491
890.815	1646
890.919	981
891.024	1461
891.128	1515
891.233	1049
891.337	1117
891.442	532
891.546	808
891.650	1314
891.755	261
891.859	1216
891.963	1124
892.068	1629
892.172	585
892.276	639
892.380	1893
892.484	505
892.589	1710
892.693	1673
892.797	381
892.901	620
893.005	501
893.109	795
893.213	954
893.317	736
893.421	912
893.525	872
893.629	975
893.733	821
893.837	1962
893.941	2045
894.045	3008
894.148	3212
894.252	12861
894.356	10680
894.460	2298
894.564	1017
894.667	947
894.771	814
894.875	1012
894.978	932
895.082	757
895.186	1418
895.289	1411
895.393	1430
895.496	1185
895.600	189
895.703	1064
895.807	952
895.910	736
896.014	377
896.117	-279
896.221	1052
896.324	610
896.427	1296
896.531	1091
896.634	498
896.737	853
896.840	730
896.944	1054
897.047	906
897.150	1124
897.253	-63
897.356	930
897.460	-192
897.563	1508
897.666	299
897.769	690
897.872	324
897.975	1193
898.078	195
898.181	352
898.284	631
898.387	1530
898.490	520
898.593	2066
898.695	711
898.798	828
898.901	1012
899.004	1064
899.107	231
899.209	935
899.312	649
899.415	1103
899.518	905
899.620	765
899.723	784
899.826	1626
899.928	435
900.031	1341
900.133	114
900.236	565
900.338	707
900.441	463
900.543	432
900.646	470
900.748	330
900.851	382
900.953	119
901.055	623
901.158	1130
901.260	706
901.362	641
901.465	932
901.567	1385
901.669	593
901.771	440
901.873	847
901.976	869
902.078	1366
902.180	968
902.282	486
902.384	1056
902.486	331
902.588	928
902.690	930
902.792	1179
902.894	1090
902.996	1277
903.098	441
903.200	305
903.302	544
903.404	1692
903.505	754
903.607	108
903.709	1611
903.811	589
903.913	449
904.014	660
904.116	57
904.218	292
904.319	1233
904.421	429
904.523	2990
904.624	2024
904.726	1346
904.827	1038
904.929	1711
905.030	840
905.132	1133
905.233	391
905.335	585
905.436	571
905.537	568
905.639	583
905.740	180
905.841	948
905.943	688
906.044	1349
906.145	1616
906.247	397
906.348	937
906.449	1187
906.550	1120
906.651	1038
906.752	759
906.854	777
906.955	590
907.056	616
907.157	1514
907.258	520
907.359	824
907.460	-100
907.561	886
907.662	508
907.762	836
907.863	198
907.964	714
908.065	310
908.166	798
908.267	41
908.367	463
908.468	575
908.569	755
908.670	-15
908.770	1102
908.871	151
908.971	1265
909.072	963
909.173	509
909.273	-43
909.374	438
909.474	628
909.575	731
909.675	354
909.776	973
909.876	632
909.977	283
910.077	320
910.177	717
910.278	660
910.378	599
910.478	525
910.579	170
910.679	95
910.779	1303
910.879	674
910.980	384
911.080	368
911.180	619
911.280	517
911.380	695
911.480	380
911.580	332
911.680	675
911.780	737
911.880	154
911.980	712
912.080	819
912.180	354
912.280	597
912.380	614
912.480	623
912.580	958
912.679	-52
912.779	969
912.879	364
912.979	663
913.078	220
913.178	452
913.278	111
913.377	786
913.477	-83
913.577	1016
913.676	455
913.776	770
913.875	208
913.975	1144
914.074	578
914.174	-38
914.273	122
914.373	1445
914.472	455
914.572	476
914.671	-581
914.770	58
914.870	328
914.969	709
915.068	872
915.167	1086
915.267	181
915.366	99
915.465	436
915.564	565
915.663	559
915.763	164
915.862	711
915.961	480
916.060	92
916.159	604
916.258	432
916.357	559
916.456	-4
916.555	514
916.654	43
916.752	621
916.851	286
916.950	1128
917.049	94
917.148	625
917.247	614
917.345	375
917.444	188
917.543	150
917.642	140
917.740	-143
917.839	120
917.937	677
918.036	848
918.135	712
918.233	-6
918.332	296
918.430	182
918.529	244
918.627	526
918.726	597
918.824	378
918.923	738
919.021	52
919.119	-118
919.218	215
919.316	1012
919.414	144
919.512	418
919.611	463
919.709	577
919.807	1047
919.905	534
920.003	898
920.102	1234
920.200	809
920.298	489
920.396	375
920.494	595
920.592	14
920.690	793
920.788	-262
920.886	850
920.984	60
921.082	25
921.180	825
921.277	617
921.375	1119
921.473	683
921.571	856
921.669	492
921.766	177
921.864	694
921.962	497
922.060	448
922.157	987
922.255	432
922.352	953
922.450	1264
922.548	1231
922.645	133
922.743	735
922.840	1085
922.938	939
923.035	1031
923.133	1047
923.230	518
923.327	913
923.425	202
923.522	1360
923.619	753
923.717	445
923.814	326
923.911	1202
924.008	1787
924.106	393
924.203	604
924.300	587
924.397	1008
924.494	545
924.591	1248
924.688	1489
924.786	1317
924.883	1019
924.979	861
925.077	970
925.173	1357
925.270	790
925.367	796
925.464	1194
925.561	660
925.658	834
925.755	1053
925.852	2055
925.948	1755
926.045	2313
926.142	2743
926.239	3029
926.335	3273
926.432	2806
926.529	3534
926.625	3493
926.722	2940
926.818	1719
926.915	2053
927.011	1261
927.108	1701
927.204	1569
927.301	855
927.397	169
927.494	1387
927.590	-1
927.687	1557
927.783	632
927.879	1454
927.976	973
928.072	636
928.168	1036
928.264	1153
928.361	648
928.457	1859
928.553	575
928.649	720
928.745	1020
928.841	1025
928.937	347
929.033	1345
929.129	581
929.225	595
929.321	166
929.417	17
929.513	192
929.609	1135
929.705	960
929.801	503
929.897	673
929.993	970
930.089	792
930.184	815
930.280	814
930.376	1147
930.471	212
930.567	336
930.663	860
930.758	855
930.854	411
930.950	359
931.045	497
931.141	880
931.236	532
931.332	951
931.427	935
931.523	483
931.618	1357
931.714	826
931.809	353
931.905	1220
932.000	632
932.095	543
932.191	1045
932.286	1145
932.381	-16
932.476	492
932.572	1297
932.667	905
932.762	609
932.857	1128
932.952	479
933.047	1002
933.142	-180
933.237	980
933.332	1045
933.427	987
933.522	383
933.617	728
933.712	840
933.807	840
933.902	456
933.997	1494
934.092	818
934.187	47
934.282	923
934.376	728
934.471	267
934.566	670
934.661	468
934.755	1348
934.850	193
934.945	1090
935.039	544
935.134	980
935.228	984
935.323	1644
935.417	619
935.512	-390
935.606	-143
935.701	592
935.795	95
935.890	428
935.984	786
936.079	457
936.173	968
936.267	912
936.362	465
936.456	-235
936.550	474
936.644	1138
936.738	790
936.833	834
936.927	1429
937.021	209
937.115	-322
937.209	-372
937.303	902
937.397	983
937.491	635
937.585	921
937.679	837
937.773	324
937.867	333
937.961	1128
938.055	950
938.149	967
938.243	18
938.337	-143
938.430	126
938.524	2012
938.618	4032
938.712	3482
938.805	1245
938.899	1739
938.993	837
939.086	1758
939.180	3250
939.274	5970
939.367	2739
939.461	1162
939.554	511
939.648	742
939.741	656
939.835	328
939.928	406
940.022	340
940.115	572
940.208	863
940.302	262
940.395	378
940.488	695
940.582	739
940.675	-9
940.768	537
940.861	-467
940.954	38
941.048	-265
941.141	504
941.234	87
941.327	884
941.420	937
941.513	617
941.606	463
941.699	1110
941.792	514
941.885	704
941.978	98
942.071	273
942.164	-130
942.257	190
942.349	102
942.442	465
942.535	50
942.628	760
942.721	-353
942.813	249
942.906	484
942.999	-320
943.091	166
943.184	660
943.277	853
943.369	370
943.462	-733
943.554	-227
943.647	-279
943.739	386
943.832	213
943.924	-526
944.017	-250
944.109	-354
944.201	-208
944.294	201
944.386	3
944.478	508
944.571	874
944.663	-29
944.755	-538
944.847	-200
944.940	1076
945.032	-632
945.124	-69
945.216	435
945.308	-641
945.400	329
945.492	-163
945.584	431
945.676	65
945.768	-152
945.860	1490
945.952	470
946.044	912
946.136	-494
946.228	54
946.320	394
946.412	71
946.503	407
946.595	-181
946.687	-153
946.779	-156
946.870	-21
946.962	-185
947.054	-61
947.145	-841
947.237	332
947.329	-275
947.420	-821
947.512	-438
947.603	-653
947.695	-750
947.786	-282
947.878	21
947.969	-124
948.061	-910
948.152	517
948.243	-498
948.335	489
948.426	-217
948.517	-160
948.609	-857
948.700	-65
948.791	-45
948.882	-651
948.973	-196
949.065	74
949.156	-304
949.247	-472
949.338	-446
949.429	-333
949.520	-406
949.611	-231
949.702	247
949.793	-945
949.884	-138
949.975	-341
950.066	-858
950.157	-575
950.247	-194
950.338	-202
950.429	-102
950.520	489
950.611	-512
950.701	-191
950.792	251
950.883	205
950.973	269
951.064	96
951.155	-447
951.245	193
951.336	-534
951.427	-954
951.517	-242
951.608	586
951.698	-300
951.788	1062
951.879	-185
951.969	-397
952.060	-725
952.150	-536
952.240	-243
952.331	-949
952.421	61
952.511	-934
952.602	-580
952.692	-614
952.782	140
952.872	340
952.962	-1004
953.052	106
953.143	-494
953.233	-541
953.323	86
953.413	-62
953.503	157
953.593	-173
953.683	-516
953.773	-485
953.863	-457
953.953	92
954.042	-249
954.132	-2
954.222	-686
954.312	27
954.402	-301
954.492	276
954.581	-39
954.671	-158
954.761	-510
954.850	-121
954.940	-1104
955.030	-217
955.119	-308
955.209	-932
955.298	-654
955.388	-1023
955.477	184
955.567	-408
955.656	-258
955.746	-365
955.835	-570
955.925	-423
956.014	-962
956.103	-434
956.193	-608
956.282	83
956.371	-141
956.461	-857
956.550	-876
956.639	-584
956.728	210
956.817	-755
956.906	-560
956.995	-68
957.085	-1217
957.174	-307
957.263	-383
957.352	-910
957.441	-686
957.530	-553
957.619	-149
957.708	52
957.796	-586
957.885	168
957.974	-699
958.063	-427
958.152	-741
958.241	180
958.329	-123
958.418	-204
958.507	-119
958.596	436
958.684	315
958.773	30
958.861	-410
958.950	297
959.039	-688
959.127	416
959.216	325
959.304	138
959.393	443
959.481	921
959.570	117
959.658	889
959.746	513
959.835	294
959.923	365
960.011	-332
960.100	-347
960.188	70
960.276	204
960.365	74
960.453	405
960.541	172
960.629	-291
960.717	-184
960.805	-840
960.893	-11
960.981	-536
961.069	65
961.158	128
961.245	-81
961.333	-719
961.421	-483
961.509	-223
961.597	297
961.685	510
961.773	240
961.861	-568
961.949	-746
962.036	-685
962.124	-622
962.212	-244
962.299	-198
962.387	-1591
962.475	-553
962.562	-809
962.650	728
962.738	-86
962.825	-299
962.913	-1144
963.000	-654
963.088	-583
963.175	-1266
963.263	-506
963.350	-832
963.438	8
963.525	-649
963.612	-101
963.700	22
963.787	1207
963.874	941
963.962	-749
964.049	-207
964.136	-1050
964.223	-464
964.310	311
964.398	-1150
964.485	-347
964.572	-52
964.659	-993
964.746	-373
964.833	-682
964.920	-555
965.007	-996
965.094	-495
965.181	-54
965.268	-738
965.355	-410
965.441	-1046
965.528	-1107
965.615	-1499
965.702	-992
965.789	-319
965.875	-1325
965.962	-581
966.049	-1079
966.136	-240
966.222	-858
966.309	-1019
966.395	-1715
966.482	-30
966.569	-1085
966.655	-1043
966.742	-1762
966.828	-821
966.915	-1209
967.001	-612
967.087	-817
967.174	-293
967.260	-677
967.347	-541
967.433	-349
967.519	296
967.605	-168
967.692	-539
967.778	-1170
967.864	-910
967.950	-662
968.036	-1136
968.123	-325
968.209	-839
968.295	-2043
968.381	-815
968.467	-988
968.553	-717
968.639	-532
968.725	-1075
968.811	-498
968.897	-1087
968.983	-1506
969.069	-1213
969.154	-749
969.240	-81
969.326	-976
969.412	-1368
969.497	-1267
969.583	-1231
969.669	-952
969.755	-1043
969.840	-1069
969.926	-51
970.012	-1097
970.097	-160
970.183	-963
970.268	-1339
970.354	-855
970.439	-831
970.525	-549
970.610	-542
970.696	-423
970.781	-324
970.866	-1559
970.952	-448
971.037	-1264
971.122	-970
971.208	-655
971.293	-1748
971.378	-1612
971.463	-678
971.549	-1644
971.634	-587
971.719	-1478
971.804	-1130
971.889	-716
971.974	-804
972.059	-866
972.144	-605
972.229	-1061
972.314	-1305
972.399	-1008
972.484	-512
972.569	-914
972.654	-1436
972.739	-965
972.824	-1066
972.908	-802
972.993	-586
973.078	-923
973.163	-1481
973.247	-1128
973.332	-1688
973.417	-522
973.501	-1258
973.586	-1410
973.671	-547
973.755	-595
973.840	-715
973.924	-1068
974.009	-1060
974.093	-1937
974.178	-448
974.262	-775
974.346	-396
974.431	-1283
974.515	-1259
974.600	-1067
974.684	-507
974.768	-1064
974.852	-968
974.937	-1895
975.021	-918
975.105	-652
975.189	-1420
975.273	-657
975.358	-919
975.442	-1728
975.526	-462
975.610	-1335
975.694	-1184
975.778	-1551
975.862	-264
975.946	-1572
976.030	-309
976.114	-649
976.198	-772
976.281	-1203
976.365	-367
976.449	-993
976.533	-1469
976.617	-1301
976.700	-1028
976.784	-1510
976.868	-733
976.951	-870
977.035	-450
977.119	-1159
977.202	-1110
977.286	-944
977.369	-676
977.453	-630
977.536	-819
977.620	-1605
977.703	-868
977.787	-1156
977.870	-507
977.953	-413
978.037	-1631
978.120	-790
978.203	-547
978.287	-575
978.370	-931
978.453	-1308
978.536	-1344
978.620	-567
978.703	-675
978.786	-602
978.869	-1635
978.952	-1830
979.035	229
979.118	-876
979.201	-976
979.284	-1334
979.367	-1324
979.450	-757
979.533	-1021
979.616	-1115
979.699	-855
979.782	-1337
979.865	-796
979.948	-2085
980.030	-1759
980.113	-1044
980.196	-1460
980.279	-647
980.361	-898
980.444	-1668
980.526	-728
980.609	-1224
980.692	-1229
980.774	-1127
980.857	-1814
980.939	-1277
981.022	-1803
981.104	-2135
981.187	-1213
981.269	-731
981.352	-1118
981.434	-1483
981.516	-1521
981.599	64
981.681	-1002
981.763	-1488
981.846	-1403
981.928	-1320
982.010	-1028
982.092	-846
982.174	-1003
982.256	-1288
982.339	-466
982.421	-658
982.503	-354
982.585	-1431
982.667	-373
982.749	-726
982.831	-1185
982.913	-1761
982.995	-1031
983.077	-2024
983.158	-846
983.240	-1726
983.322	-319
983.404	-972
983.486	-688
983.568	-1067
983.649	-1720
983.731	-1238
983.813	-1547
983.894	-1031
983.976	-646
984.058	-552
984.139	-743
984.221	-1607
984.302	-425
984.384	-1523
984.465	-410
984.547	-1120
984.628	-409
984.710	-1084
984.791	-586
984.872	-697
984.954	-848
985.035	-509
985.116	-1404
985.198	-514
985.279	-807
985.360	-1416
985.441	-1063
985.522	-718
985.604	-311
985.685	-1521
985.766	-691
985.847	-1047
985.928	-1779
986.009	-1857
986.090	-826
986.171	-956
986.252	-812
986.333	-335
986.414	-651
986.495	-526
986.576	-835
986.656	-1138
986.737	-1457
986.818	-1243
986.899	-746
986.980	-1224
987.060	-55
987.141	-1462
987.222	-984
987.302	-1613
987.383	-854
987.464	-1688
987.544	-626
987.625	-1006
987.705	-779
987.786	-762
987.866	-1346
987.947	-691
988.027	-474
988.108	-1449
988.188	-420
988.268	-988
988.349	-813
988.429	-1279
988.509	-180
988.589	-956
988.670	-1489
988.750	-377
988.830	-293
988.910	-1202
988.990	-343
989.070	-1360
989.151	-1045
989.231	-1456
989.311	-1196
989.391	-1362
989.471	-998
989.551	-858
989.631	-1329
989.711	-436
989.791	-299
989.870	-1681
989.950	-452
990.030	-1882
990.110	-287
990.190	-1087
990.269	-767
990.349	-1821
990.429	-1087
990.509	-999
990.588	-1054
990.668	-943
990.747	-1459
990.827	-523
990.907	-966
990.986	-1061
991.066	-951
991.145	-1579
991.225	-719
991.304	-1344
991.383	-650
991.463	-816
991.542	-832
991.622	-1320
991.701	-987
991.780	-1085
991.859	-1317
991.939	-679
992.018	-1198
992.097	-1104
992.176	-1357
992.256	-854
992.335	-1974
992.414	-922
992.493	-687
992.572	-1273
992.651	70
992.730	-1642
992.809	-1459
992.888	-1785
992.967	-713
993.046	-643
993.125	-1482
993.203	-1931
993.282	-967
993.361	-450
993.440	-1316
993.519	-1395
993.597	-1274
993.676	-1472
993.755	0
993.834	-857
993.912	-1263
993.991	50
994.069	-1121
994.148	-1667
994.226	-1466
994.305	-1091
994.384	-1213
994.462	-1537
994.540	-821
994.619	-1779
994.697	-182
994.776	-1940
994.854	-508
994.932	-972
995.011	-1189
995.089	-1674
995.167	-766
995.245	-1082
995.324	-1901
995.402	-1396
995.480	-1192
995.558	-1449
995.636	-1262
995.714	-1826
995.792	-111
995.870	-888
995.948	-1081
996.026	-1916
996.104	-1471
996.182	-273
996.260	-1615
996.338	-2002
996.416	-1344
996.494	-1579
996.572	-902
996.649	-1216
996.727	-1766
996.805	-2178
996.883	-445
996.960	-1393
997.038	-580
997.116	-1516
997.193	-2371
997.271	-1072
997.348	-1787
997.426	-1434
997.504	-1495
997.581	-740
997.658	-1238
997.736	-2549
997.813	-2212
997.891	-1100
997.968	-1530
998.046	-1575
998.123	-848
998.200	-520
998.277	-1363
998.355	-1342
998.432	-2166
998.509	-1392
998.586	-1422
998.663	-791
998.741	-1181
998.818	-791
998.895	-1799
998.972	-1628
999.049	-1096
999.126	-1507
999.203	-1100
999.280	-1245
999.357	-1071
999.434	-2100
999.511	-597
999.587	-866
999.664	-1468
999.741	-835
999.818	-859
999.895	-1996
999.971	-1537
1000.048	-1748
1000.125	-455
1000.202	-2831
1000.278	-1161
1000.355	-1651
1000.431	-1786
1000.508	-2115
1000.584	-885
1000.661	-1409
1000.738	-1812
1000.814	-2150
1000.890	-1155
1000.967	-1765
1001.043	-1593
1001.120	-1270
1001.196	-551
1001.272	-2039
1001.349	-1449
1001.425	-1058
1001.501	-810
1001.577	-1326
1001.654	-1215
1001.730	-1221
1001.806	-1514
1001.882	-1882
1001.958	-1002
1002.034	-1852
1002.110	-1416
1002.186	-2454
1002.262	-1411
1002.338	-981
1002.414	-1502
1002.490	-1397
1002.566	-1505
1002.642	-1691
1002.718	-644
1002.794	-1349
1002.870	-1187
1002.945	-1788
1003.021	-1110
1003.097	-2389
1003.173	-1020
1003.248	-1959
1003.324	-798
1003.400	-1827
1003.475	-1809
1003.551	-1513
1003.626	-1570
1003.702	-2162
1003.777	-1669
1003.853	-1624
1003.928	-1970
1004.004	-1843
1004.079	-1581
1004.155	-1186
1004.230	-2555
1004.305	-557
1004.381	-1532
1004.456	-720
1004.531	-1607
1004.607	-1792
1004.682	-1568
1004.757	-2538
1004.832	-1207
1004.907	-1863
1004.982	-1220
1005.057	-1803
1005.133	-2189
1005.208	-1959
1005.283	-1594
1005.358	-793
1005.433	-1481
1005.508	-1760
1005.583	-2839
1005.657	-2150
1005.732	-1554
1005.807	-1826
1005.882	-1533
1005.957	-1946
1006.032	-787
1006.106	-1387
1006.181	-1287
1006.256	-1402
1006.331	-2057
1006.405	-1815
1006.480	-1378
1006.554	-2481
1006.629	-2089
1006.704	-1832
1006.778	-1767
1006.853	-1427
1006.927	-2250
1007.002	-990
1007.076	-1579
1007.150	-1342
1007.225	-1189
1007.299	-2357
1007.373	-2785
1007.448	-2077
1007.522	-536
1007.596	-2044
1007.671	-2358
1007.745	-1092
1007.819	-2128
1007.893	-2091
1007.967	-867
1008.041	-3290
1008.115	-999
1008.190	-2000
1008.264	-887
1008.338	-2294
1008.412	-1643
1008.486	-2134
1008.560	-2427
1008.633	-2023
1008.707	-1961
1008.781	-1052
1008.855	-1952
1008.929	-2428
1009.003	-1304
1009.076	-2614
1009.150	-2230
1009.224	-1231
1009.298	-2274
1009.371	-2100
1009.445	-2011
1009.519	-1581
1009.592	-2598
1009.666	-1546
1009.739	-2139
1009.813	-2661
1009.886	-992
1009.960	-1917
1010.033	-1138
1010.107	-2141
1010.180	-1244
1010.253	-2684
1010.327	-1878
1010.400	-1521
1010.473	-1580
1010.547	-655
1010.620	-2119
1010.693	-1458
1010.766	-2571
1010.840	-1203
1010.913	-1815
1010.986	-2520
1011.059	-991
1011.132	-1853
1011.205	-1385
1011.278	-1937
1011.351	-1653
1011.424	-1935
1011.497	-1561
1011.570	-1826
1011.643	-1308
1011.716	-2707
1011.789	-1036
1011.862	-1586
1011.934	-1182
1012.007	-2385
1012.080	-1653
1012.153	-2131
1012.225	-2045
1012.298	-2492
1012.371	-1359
1012.443	-1986
1012.516	-2174
1012.588	-2073
1012.661	-1637
1012.733	-2062
1012.806	-1600
1012.879	-2350
1012.951	-2101
1013.023	-2284
1013.096	-2299
1013.168	-2657
1013.241	-1684
1013.313	-2106
1013.385	-2495
1013.458	-2196
1013.530	-1408
1013.602	-2995
1013.674	-1428
1013.746	-1863
1013.819	-2277
1013.891	-1755
1013.963	-2181
1014.035	-2267
1014.107	-1883
1014.179	-2260
1014.251	-2438
1014.323	-2088
1014.395	-2288
1014.467	-1957
1014.539	-1832
1014.611	-2532
1014.683	-1922
1014.754	-1824
1014.826	-2845
1014.898	-1539
1014.970	-2785
1015.042	-1432
1015.113	-2089
1015.185	-2442
1015.257	-2343
1015.328	-2427
1015.400	-2345
1015.471	-1949
1015.543	-2067
1015.615	-1946
1015.686	-2509
1015.757	-2651
1015.829	-2096
1015.901	-2231
1015.972	-1671
1016.043	-2319
1016.115	-2579
1016.186	-1510
1016.257	-2560
1016.328	-1500
1016.400	-1726
1016.471	-2477
1016.542	-2144
1016.613	-2395
1016.685	-2553
1016.756	-2769
1016.827	-2396
1016.898	-3594
1016.969	-2100
1017.040	-2136
1017.111	-2541
1017.182	-2593
1017.253	-2737
1017.324	-2390
1017.395	-1353
1017.466	-1384
1017.537	-2289
1017.608	-2133
1017.678	-2383
1017.749	-2295
1017.820	-1992
1017.891	-2853
1017.961	-2125
1018.032	-2323
1018.103	-2147
1018.173	-2361
1018.244	-2271
1018.315	-3209
1018.385	-2384
1018.456	-2367
1018.526	-2236
1018.597	-2758
1018.667	-2542
1018.738	-3257
1018.808	-2244
1018.878	-2389
1018.949	-2367
1019.019	-1933
1019.089	-2082
1019.160	-2784
1019.230	-2562
1019.300	-2140
1019.371	-3182
1019.441	-2646
1019.511	-2397
1019.581	-2137
1019.651	-2141
1019.721	-2702
1019.791	-2169
1019.861	-2324
1019.931	-1878
1020.001	-2520
1020.071	-2484
1020.141	-3062
1020.211	-1858
1020.281	-2745
1020.351	-2629
1020.421	-2411
1020.491	-2107
1020.560	-2359
1020.630	-2046
1020.700	-2181
1020.770	-2940
1020.839	-2442
1020.909	-2351
1020.979	-2360
1021.048	-2486
1021.118	-2597
1021.187	-2052
1021.257	-2961
1021.326	-1865
1021.396	-3569
1021.465	-2201
1021.535	-2813
1021.604	-2569
1021.674	-2354
1021.743	-1805
1021.812	-2549
1021.882	-2248
1021.951	-2531
1022.020	-2315
1022.089	-1978
1022.159	-2114
1022.228	-3144
1022.297	-2406
1022.366	-2664
1022.435	-2633
1022.504	-2326
1022.573	-3089
1022.642	-2452
1022.711	-2785
1022.781	-2617
1022.849	-1597
1022.918	-2303
1022.987	-1975
1023.056	-2796
1023.125	-2483
1023.194	-2689
1023.263	-2107
1023.331	-2008
1023.400	-2821
1023.469	-2884
1023.538	-1733
1023.606	-3140
1023.675	-1872
1023.744	-2377
1023.812	-2435
1023.881	-2484
1023.949	-2310
1024.018	-2502
1024.086	-2062
1024.155	-2561
1024.223	-3168
1024.292	-3204
1024.360	-2364
1024.429	-1368
1024.497	-2723
1024.565	-2033
1024.634	-2261
1024.702	-2222
1024.770	-2888
1024.838	-3719
1024.907	-1821
1024.975	-2103
1025.043	-2158
1025.111	-2285
1025.179	-2239
1025.247	-2508
1025.315	-1808
1025.383	-2552
1025.451	-2080
1025.519	-2447
1025.587	-2041
1025.655	-3027
1025.723	-3105
1025.791	-2726
1025.859	-2284
1025.927	-2576
1025.995	-2214
1026.062	-2797
1026.130	-3156
1026.198	-2277
1026.266	-2384
1026.333	-2378
1026.401	-2332
1026.469	-2389
1026.536	-2756
1026.604	-2336
1026.671	-2427
1026.739	-2912
1026.806	-2150
1026.874	-1707
1026.941	-2273
1027.009	-2129
1027.076	-2246
1027.144	-1487
1027.211	-2753
1027.278	-2193
1027.345	-2278
1027.413	-2865
1027.480	-2537
1027.547	-2667
1027.614	-2189
1027.682	-2003
1027.749	-3026
1027.816	-2870
1027.883	-1892
1027.950	-2607
1028.017	-2825
1028.084	-2040
1028.151	-2019
1028.218	-1786
1028.285	-2565
1028.352	-2808
1028.419	-2612
1028.486	-1573
1028.553	-2132
1028.619	-2396
1028.686	-2303
1028.753	-2237
1028.820	-1518
1028.886	-2338
1028.953	-2059
1029.020	-2891
1029.086	-2551
1029.153	-2310
1029.220	-2784
1029.286	-3041
1029.353	-2942
1029.419	-2803
1029.486	-1574
1029.552	-2736
1029.619	-2611
1029.685	-1863
1029.751	-2584
1029.818	-2123
1029.884	-1975
1029.951	-2338
1030.017	-1979
1030.083	-2642
1030.149	-2933
1030.216	-2547
1030.282	-1419
1030.348	-2905
1030.414	-2447
1030.480	-3037
1030.546	-1670
1030.612	-2055
1030.678	-2062
1030.744	-1642
1030.810	-2387
1030.876	-1925
1030.942	-2736
1031.008	-2424
1031.074	-2473
1031.140	-3289
1031.206	-941
1031.272	-2670
1031.337	-1537
1031.403	-2058
1031.469	-2069
1031.534	-1959
1031.600	-1696
1031.666	-2252
1031.731	-2098
1031.797	-2100
1031.863	-2619
1031.928	-2252
1031.994	-2548
1032.059	-2600
1032.125	-2554
1032.190	-2366
1032.256	-1959
1032.321	-2429
1032.386	-2009
1032.452	-1969
1032.517	-1853
1032.582	-3183
1032.647	-1380
1032.713	-2563
1032.778	-1813
1032.843	-2079
1032.908	-2720
1032.974	-1988
1033.039	-2209
1033.104	-2439
1033.169	-1556
1033.234	-2412
1033.299	-2016
1033.364	-1936
1033.429	-2339
1033.494	-1607
1033.559	-2425
1033.624	-2104
1033.688	-1372
1033.753	-2471
1033.818	-1792
1033.883	-1954
1033.948	-2191
1034.013	-2218
1034.077	-1656
1034.142	-2350
1034.207	-1987
1034.271	-1509
1034.336	-800
1034.400	-2175
1034.465	-1883
1034.530	-1941
1034.594	-2247
1034.658	-1473
1034.723	-1656
1034.787	-2126
1034.852	-1470
1034.916	-2489
1034.981	-2158
1035.045	-2413
1035.109	-1742
1035.173	-1862
1035.238	-2029
1035.302	-1952
1035.366	-1927
1035.430	-2176
1035.495	-2119
1035.559	-1975
1035.623	-2202
1035.687	-2205
1035.751	-2425
1035.815	-2244
1035.879	-1875
1035.943	-1517
1036.007	-2381
1036.071	-2358
1036.135	-1764
1036.198	-2305
1036.262	-2624
1036.326	-1291
1036.390	-3135
1036.454	-2681
1036.517	-1864
1036.581	-1150
1036.645	-1965
1036.709	-1734
1036.772	-1860
1036.836	-2117
1036.900	-2488
1036.963	-1678
1037.026	-1481
1037.090	-1442
1037.154	-2379
1037.217	-1740
1037.280	-1519
1037.344	-2332
1037.407	-1726
1037.471	-2053
1037.534	-1820
1037.597	-1756
1037.661	-1799
1037.724	-2743
1037.787	-1021
1037.850	-1783
1037.913	-1256
1037.977	-1581
1038.040	-1901
1038.103	-1416
1038.166	-1759
1038.229	-2240
1038.292	-2389
1038.355	-2012
1038.418	-2125
1038.481	-1628
1038.544	-1184
1038.607	-1701
1038.670	-2618
1038.732	-2099
1038.795	-2201
1038.858	-1634
1038.921	-1111
1038.984	-970
1039.046	-1983
1039.109	-2211
1039.172	-1342
1039.234	-1464
1039.297	-1996
1039.360	-1448
1039.422	-1727
1039.485	-860
1039.547	-1659
1039.610	-2457
1039.672	-892
1039.734	-1873
1039.797	-2144
1039.859	-1699
1039.922	-1595
1039.984	-1816
1040.046	-1301
1040.109	-1693
1040.171	-2259
1040.233	-1894
1040.295	-1491
1040.358	-1985
1040.420	-1508
1040.482	-1556
1040.544	-1891
1040.606	-1009
1040.668	-1538
1040.730	-1558
1040.792	-1730
1040.854	-1950
1040.916	-1258
1040.978	-2344
1041.040	-1139
1041.102	-2310
1041.164	-1588
1041.225	-1583
1041.287	-1919
1041.349	-2180
1041.411	-1229
1041.472	-2168
1041.534	-1532
1041.596	-2345
1041.657	-1711
1041.719	-2172
1041.781	-2375
1041.842	-2785
1041.904	-421
1041.965	-1885
1042.027	-2087
1042.088	-1487
1042.150	-1100
1042.211	-1388
1042.272	-1243
1042.334	-1976
1042.395	-1012
1042.456	-2596
1042.518	-1745
1042.579	-2030
1042.640	-1414
1042.701	-1704
1042.763	-1487
1042.824	-2575
1042.885	-1385
1042.946	-1532
1043.007	-1680
1043.068	-1976
1043.129	-1037
1043.190	-1598
1043.251	-978
1043.312	-1792
1043.373	-885
1043.434	-1516
1043.495	-1548
1043.556	-1631
1043.616	-1031
1043.677	-2116
1043.738	-741
1043.799	-1713
1043.859	-1846
1043.920	-2314
1043.981	-1601
1044.041	-1713
1044.102	-2544
1044.162	-2069
1044.223	-1354
1044.284	-2071
1044.344	-1306
1044.405	-2233
1044.465	-1118
1044.525	-1574
1044.586	-1409
1044.646	-1731
1044.707	-1488
1044.767	-1968
1044.827	-1277
1044.887	-1206
1044.948	-834
1045.008	-1968
1045.068	-1511
1045.128	-1752
1045.188	-1941
1045.249	-1093
1045.309	-1375
1045.369	-1979
1045.429	-1197
1045.489	-876
1045.549	-1770
1045.609	-1711
1045.669	-1674
1045.729	-1731
1045.789	-1456
1045.848	-1666
1045.908	-1603
1045.968	-853
1046.028	-1071
1046.088	-1481
1046.147	-1567
1046.207	-2262
1046.267	-841
1046.326	-747
1046.386	-1108
1046.446	-1250
1046.505	-1080
1046.565	-824
1046.624	-788
1046.684	-826
1046.743	-813
1046.803	33
1046.862	-418
1046.922	0
