'Start Wavelength	183.907
'End Wavelength	1046.922
'Gate Delay	5.000
'Gate Width (ms)	1.050
'Laser Output Level	0.000
'X Position	0.000
'Y Position	0.000
'Z Position	0.000
'Grid Point Number	1.000
'Shot Number	100.000
183.907	523.000
183.977	847.000
184.047	-221
184.116	545
184.186	1000
184.256	502
184.325	-79
184.395	69
184.465	1097
184.534	80
184.604	-535
184.674	705
184.743	305
184.813	791
184.883	37
184.952	708
185.022	532
185.092	1298
185.161	47
185.231	-41
185.301	7
185.370	1666
185.440	-227
185.509	271
185.579	441
185.649	780
185.718	304
185.788	501
185.857	749
185.927	435
185.996	806
186.066	805
186.136	359
186.205	796
186.275	-444
186.344	936
186.414	-13
186.483	331
186.553	1230
186.622	789
186.692	154
186.761	841
186.831	-472
186.900	579
186.970	611
187.039	1284
187.109	938
187.178	821
187.248	188
187.317	596
187.387	512
187.456	765
187.526	446
187.595	1178
187.664	271
187.734	944
187.803	700
187.873	763
187.942	622
188.012	1553
188.081	17
188.150	106
188.220	1008
188.289	435
188.358	248
188.428	783
188.497	55
188.567	1352
188.636	302
188.705	450
188.775	-139
188.844	-706
188.913	336
188.983	527
189.052	75
189.121	668
189.191	-117
189.260	1222
189.329	59
189.399	534
189.468	783
189.537	1053
189.606	469
189.676	1006
189.745	776
189.814	786
189.883	405
189.953	277
190.022	411
190.091	-98
190.161	368
190.230	1631
190.299	476
190.368	1048
190.437	123
190.507	334
190.576	258
190.645	1204
190.714	-273
190.783	455
190.853	1038
190.922	603
190.991	390
191.060	688
191.129	192
191.198	641
191.268	-394
191.337	665
191.406	1008
191.475	683
191.544	172
191.613	525
191.682	490
191.752	392
191.821	-1
191.890	-26
191.959	-77
192.028	908
192.097	745
192.166	675
192.235	-370
192.304	1101
192.373	1017
192.442	1176
192.511	332
192.580	882
192.650	838
192.719	771
192.788	49
192.857	1445
192.926	608
192.995	621
193.064	498
193.133	181
193.202	422
193.271	944
193.340	855
193.409	618
193.478	816
193.547	1097
193.615	-296
193.684	1352
193.753	309
193.822	1006
193.891	591
193.960	1302
194.029	60
194.098	341
194.167	-429
194.236	1109
194.305	384
194.374	407
194.443	530
194.512	766
194.580	902
194.649	463
194.718	36
194.787	910
194.856	69
194.925	808
194.994	841
195.062	4
195.131	389
195.200	266
195.269	591
195.338	1062
195.407	1110
195.475	747
195.544	563
195.613	216
195.682	746
195.751	553
195.819	-312
195.888	888
195.957	1348
196.026	1006
196.094	1208
196.163	857
196.232	409
196.301	1098
196.369	665
196.438	558
196.507	842
196.576	291
196.644	-88
196.713	711
196.782	336
196.850	457
196.919	939
196.988	768
197.056	726
197.125	698
197.194	36
197.262	804
197.331	625
197.400	734
197.468	-298
197.537	-474
197.606	381
197.674	1245
197.743	182
197.812	512
197.880	-247
197.949	249
198.017	625
198.086	470
198.155	-275
198.223	961
198.292	802
198.360	625
198.429	1335
198.497	640
198.566	1016
198.635	989
198.703	339
198.772	964
198.840	798
198.909	468
198.977	647
199.046	1115
199.114	706
199.183	1293
199.251	847
199.320	1199
199.388	-191
199.457	271
199.525	954
199.594	1287
199.662	1159
199.731	928
199.799	727
199.867	1322
199.936	697
200.004	1616
200.073	672
200.141	946
200.210	-276
200.278	1326
200.346	720
200.415	395
200.483	-626
200.552	1541
200.620	983
200.688	1172
200.757	689
200.825	1087
200.893	269
200.962	1306
201.030	366
201.098	930
201.167	-175
201.235	1202
201.303	591
201.372	1611
201.440	1538
201.508	1231
201.577	553
201.645	843
201.713	485
201.781	620
201.850	801
201.918	1629
201.986	-129
202.055	781
202.123	327
202.191	254
202.259	497
202.327	1034
202.396	1180
202.464	1391
202.532	38
202.600	1317
202.669	480
202.737	830
202.805	-58
202.873	1682
202.941	321
203.009	442
203.078	659
203.146	609
203.214	1027
203.282	461
203.350	461
203.418	1044
203.487	972
203.555	252
203.623	1017
203.691	873
203.759	349
203.827	403
203.895	435
203.963	816
204.031	561
204.099	703
204.168	-82
204.236	1498
204.304	524
204.372	554
204.440	1782
204.508	622
204.576	-518
204.644	1068
204.712	380
204.780	552
204.848	413
204.916	401
204.984	530
205.052	375
205.120	34
205.188	493
205.256	440
205.324	686
205.392	45
205.460	131
205.528	277
205.596	1044
205.664	805
205.732	617
205.799	10
205.867	792
205.935	311
206.003	1428
206.071	133
206.139	84
206.207	-515
206.275	454
206.343	1182
206.411	625
206.478	1193
206.546	786
206.614	554
206.682	779
206.750	994
206.818	1732
206.885	1001
206.953	121
207.021	1988
207.089	751
207.157	-187
207.225	1266
207.292	-163
207.360	127
207.428	205
207.496	-86
207.563	840
207.631	1471
207.699	844
207.767	497
207.834	629
207.902	930
207.970	692
208.038	472
208.105	1116
208.173	-26
208.241	517
208.309	1222
208.376	765
208.444	731
208.512	747
208.579	408
208.647	1139
208.715	1168
208.782	339
208.850	482
208.918	-532
208.985	837
209.053	896
209.120	986
209.188	189
209.256	1349
209.323	-13
209.391	950
209.459	1128
209.526	401
209.594	541
209.661	1180
209.729	778
209.796	1290
209.864	1210
209.932	-516
209.999	2116
210.067	1275
210.134	559
210.202	911
210.269	1060
210.337	1197
210.404	387
210.472	1064
210.539	1243
210.607	210
210.674	277
210.742	387
210.809	534
210.877	1815
210.944	1470
211.012	48
211.079	2394
211.146	1822
211.214	1348
211.281	1183
211.349	1461
211.416	1016
211.484	1083
211.551	635
211.618	1824
211.686	939
211.753	24
211.821	1184
211.888	969
211.955	1562
212.023	1119
212.090	553
212.157	1202
212.225	918
212.292	1111
212.359	2292
212.427	2376
212.494	1340
212.561	860
212.629	738
212.696	353
212.763	1029
212.831	842
212.898	1282
212.965	-335
213.032	1284
213.100	135
213.167	1102
213.234	546
213.301	1184
213.369	299
213.436	348
213.503	276
213.570	1916
213.638	423
213.705	615
213.772	91
213.839	544
213.906	685
213.973	727
214.041	465
214.108	1052
214.175	804
214.242	643
214.309	1133
214.376	1501
214.444	303
214.511	1750
214.578	774
214.645	1627
214.712	1647
214.779	1081
214.846	104
214.913	1768
214.980	1461
215.048	1441
215.115	-34
215.182	1339
215.249	1050
215.316	1057
215.383	821
215.450	638
215.517	1050
215.584	1245
215.651	818
215.718	1674
215.785	440
215.852	531
215.919	691
215.986	281
216.053	366
216.120	580
216.187	458
216.254	1711
216.321	550
216.388	469
216.455	813
216.522	1615
216.589	879
216.656	1594
216.722	832
216.789	983
216.856	767
216.923	1038
216.990	1256
217.057	782
217.124	411
217.191	238
217.258	152
217.324	1189
217.391	1162
217.458	1325
217.525	1124
217.592	961
217.659	-538
217.725	1767
217.792	593
217.859	765
217.926	203
217.993	1057
218.059	903
218.126	577
218.193	614
218.260	922
218.327	-38
218.393	878
218.460	800
218.527	315
218.594	316
218.660	1388
218.727	1137
218.794	498
218.860	587
218.927	705
218.994	536
219.061	1165
219.127	28
219.194	1715
219.261	-195
219.327	767
219.394	1037
219.461	98
219.527	-9
219.594	480
219.661	720
219.727	-383
219.794	1934
219.860	480
219.927	1151
219.994	2117
220.060	1831
220.127	2314
220.193	2259
220.260	1030
220.326	1882
220.393	834
220.460	1311
220.526	732
220.593	870
220.659	2099
220.726	399
220.792	2677
220.859	1455
220.925	2567
220.992	2283
221.058	3235
221.125	1849
221.191	1842
221.258	1013
221.324	1616
221.391	783
221.457	543
221.524	478
221.590	2479
221.657	1603
221.723	1411
221.789	963
221.856	1935
221.922	720
221.989	1592
222.055	931
222.121	-246
222.188	2792
222.254	1461
222.321	1205
222.387	830
222.453	977
222.520	146
222.586	121
222.652	1637
222.719	541
222.785	1845
222.851	500
222.918	1260
222.984	793
223.050	996
223.116	-145
223.183	1053
223.249	-285
223.315	158
223.382	-94
223.448	749
223.514	357
223.580	1236
223.647	-297
223.713	392
223.779	98
223.845	820
223.911	81
223.978	727
224.044	682
224.110	714
224.176	852
224.242	1200
224.309	-392
224.375	1901
224.441	5
224.507	876
224.573	132
224.639	1394
224.705	122
224.772	735
224.838	-140
224.904	1150
224.970	-134
225.036	1064
225.102	-429
225.168	1039
225.234	1155
225.300	1333
225.366	736
225.432	1491
225.499	145
225.565	1007
225.631	130
225.697	1086
225.763	1373
225.829	561
225.895	412
225.961	814
226.027	686
226.093	1109
226.159	1949
226.225	2915
226.291	3855
226.357	5516
226.423	2582
226.489	2626
226.554	1244
226.620	1737
226.686	1224
226.752	2390
226.818	2782
226.884	6498
226.950	5055
227.016	2889
227.082	2038
227.148	1055
227.214	1469
227.279	1549
227.345	1413
227.411	2929
227.477	3682
227.543	4129
227.609	4944
227.674	5539
227.740	2379
227.806	3025
227.872	916
227.938	1411
228.003	1077
228.069	1121
228.135	643
228.201	1136
228.267	568
228.332	566
228.398	52
228.464	1171
228.530	159
228.595	1624
228.661	-217
228.727	-5
228.792	1235
228.858	538
228.924	-714
228.990	2088
229.055	88
229.121	1439
229.187	321
229.252	825
229.318	354
229.384	1036
229.449	711
229.515	-697
229.581	-665
229.646	3573
229.712	1046
229.777	667
229.843	87
229.909	1633
229.974	1040
230.040	494
230.105	1009
230.171	330
230.236	-26
230.302	1253
230.368	380
230.433	721
230.499	685
230.564	527
230.630	78
230.695	1161
230.761	976
230.826	-977
230.892	1493
230.957	241
231.023	894
231.088	1652
231.154	560
231.219	802
231.284	395
231.350	1497
231.415	-440
231.481	1025
231.546	451
231.612	1840
231.677	-163
231.742	-156
231.808	1585
231.873	875
231.939	-1329
232.004	2101
232.069	1010
232.135	-122
232.200	180
232.265	1483
232.331	969
232.396	955
232.461	-136
232.527	959
232.592	404
232.657	1012
232.723	432
232.788	1489
232.853	585
232.918	1328
232.984	175
233.049	-100
233.114	-249
233.179	1019
233.245	1884
233.310	1794
233.375	820
233.440	1256
233.506	440
233.571	977
233.636	186
233.701	383
233.766	-328
233.832	727
233.897	462
233.962	-868
234.027	1146
234.092	1076
234.157	312
234.222	1857
234.288	1284
234.353	2378
234.418	1381
234.483	1841
234.548	298
234.613	482
234.678	1381
234.743	125
234.808	2136
234.873	-578
234.938	749
235.004	783
235.069	973
235.134	-41
235.199	54
235.264	763
235.329	-372
235.394	1630
235.459	1226
235.524	534
235.589	1803
235.654	269
235.719	-553
235.784	1700
235.849	153
235.913	1703
235.978	1051
236.043	1415
236.108	1345
236.173	-241
236.238	565
236.303	1643
236.368	-499
236.433	2369
236.498	552
236.563	2392
236.627	2700
236.692	10000
236.757	8106
236.822	3062
236.887	1516
236.952	2348
237.017	170
237.081	2981
237.146	1596
237.211	5699
237.276	9665
237.341	14344
237.405	6156
237.470	2954
237.535	1637
237.600	1732
237.664	2171
237.729	688
237.794	487
237.859	2924
237.923	1120
237.988	1303
238.053	1578
238.118	676
238.182	1397
238.247	3062
238.312	481
238.376	1930
238.441	-805
238.506	2227
238.570	269
238.635	1735
238.700	1253
238.764	366
238.829	878
238.893	873
238.958	1162
239.023	1336
239.087	1380
239.152	2587
239.216	748
239.281	1715
239.346	1685
239.410	1124
239.475	21
239.539	3320
239.604	1301
239.668	3332
239.733	3250
239.797	7449
239.862	8994
239.926	9622
239.991	5532
240.055	2840
240.120	2443
240.184	1971
240.249	1074
240.313	1632
240.378	227
240.442	2442
240.507	2388
240.571	1545
240.635	211
240.700	2061
240.764	413
240.829	890
240.893	373
240.957	789
241.022	1236
241.086	1827
241.151	167
241.215	484
241.279	1151
241.344	178
241.408	1126
241.472	140
241.537	1782
241.601	1265
241.665	-269
241.730	911
241.794	1261
241.858	308
241.922	967
241.987	1082
242.051	1500
242.115	43
242.179	999
242.244	821
242.308	1705
242.372	1440
242.436	113
242.501	1468
242.565	155
242.629	196
242.693	1449
242.757	-81
242.822	761
242.886	1977
242.950	1655
243.014	-375
243.078	658
243.142	681
243.206	445
243.271	2059
243.335	747
243.399	1697
243.463	2993
243.527	10312
243.591	1728
243.655	1383
243.719	499
243.783	1765
243.847	863
243.911	1613
243.975	310
244.040	175
244.104	2080
244.168	1946
244.232	556
244.296	1124
244.360	1271
244.424	818
244.488	758
244.552	1652
244.615	-645
244.679	1763
244.743	383
244.807	-204
244.871	1591
244.935	1051
244.999	-146
245.063	1292
245.127	1886
245.191	1491
245.255	457
245.319	684
245.383	-1384
245.446	2518
245.510	-72
245.574	754
245.638	1042
245.702	-696
245.766	1478
245.829	2684
245.893	-163
245.957	759
246.021	1124
246.085	1159
246.149	-190
246.212	2117
246.276	1783
246.340	476
246.404	645
246.467	2137
246.531	-346
246.595	2435
246.659	1772
246.722	352
246.786	920
246.850	1295
246.913	963
246.977	426
247.041	393
247.104	100
247.168	1123
247.232	2000
247.295	2904
247.359	2843
247.423	901
247.486	1762
247.550	2110
247.614	501
247.677	1441
247.741	894
247.804	981
247.868	2400
247.932	145
247.995	4150
248.059	1308
248.122	1270
248.186	1870
248.249	2777
248.313	4594
248.376	4778
248.440	2551
248.503	331
248.567	1808
248.630	695
248.694	1239
248.757	3502
248.821	5228
248.884	4306
248.948	2436
249.011	3956
249.075	5890
249.138	4902
249.202	1587
249.265	1155
249.328	2656
249.392	1293
249.455	1501
249.519	2033
249.582	1261
249.645	3265
249.709	2207
249.772	1376
249.835	1347
249.899	1879
249.962	2197
250.025	1594
250.089	2759
250.152	3638
250.215	1306
250.279	1583
250.342	1769
250.405	2596
250.468	637
250.532	1142
250.595	3128
250.658	10033
250.721	16229
250.785	5080
250.848	4837
250.911	1755
250.974	2557
251.038	2922
251.101	4001
251.164	2829
251.227	2381
251.290	3522
251.354	4258
251.417	15235
251.480	12633
251.543	9667
251.606	26299
251.669	17646
251.732	5488
251.795	6732
251.859	6123
251.922	16143
251.985	7297
252.048	3898
252.111	3104
252.174	2146
252.237	4183
252.300	8374
252.363	8308
252.426	21609
252.489	6153
252.552	2746
252.615	2256
252.678	3461
252.741	6308
252.804	9024
252.867	22030
252.930	9317
252.993	4013
253.056	3761
253.119	2110
253.182	685
253.245	3312
253.308	3679
253.371	1546
253.434	1875
253.497	1820
253.559	3853
253.622	2210
253.685	2260
253.748	1087
253.811	1662
253.874	1490
253.937	2208
254.000	1270
254.062	2852
254.125	2809
254.188	3824
254.251	606
254.314	2197
254.376	988
254.439	2277
254.502	1944
254.565	1220
254.628	4026
254.690	1781
254.753	654
254.816	923
254.878	1580
254.941	2815
255.004	2328
255.067	1680
255.129	323
255.192	726
255.255	33
255.317	1211
255.380	705
255.443	2374
255.505	302
255.568	746
255.631	747
255.693	2216
255.756	1325
255.819	2593
255.881	1674
255.944	2332
256.006	680
256.069	625
256.132	893
256.194	1467
256.257	1352
256.319	1903
256.382	2632
256.444	5034
256.507	2763
256.569	1496
256.632	1678
256.694	1956
256.757	5924
256.819	17911
256.882	4932
256.944	3605
257.007	2774
257.069	1996
257.132	2026
257.194	2546
257.257	999
257.319	1615
257.381	1812
257.444	5669
257.506	19778
257.569	18507
257.631	6066
257.693	3632
257.756	2326
257.818	2386
257.880	1287
257.943	2174
258.005	513
258.067	1277
258.130	1233
258.192	2873
258.254	1675
258.317	985
258.379	1942
258.441	2684
258.503	2236
258.566	2258
258.628	2418
258.690	661
258.753	1501
258.815	1948
258.877	514
258.939	2339
259.001	2456
259.064	1270
259.126	628
259.188	2546
259.250	1394
259.312	2426
259.375	1366
259.437	460
259.499	1330
259.561	1206
259.623	1693
259.685	118
259.747	1126
259.809	3065
259.872	3908
259.934	5832
259.996	4241
260.058	2719
260.120	1016
260.182	1394
260.244	1830
260.306	1476
260.368	1507
260.430	600
260.492	1652
260.554	3566
260.616	1315
260.678	3122
260.740	2615
260.802	1794
260.864	2353
260.926	772
260.988	2704
261.050	2466
261.112	2651
261.174	5290
261.236	2787
261.298	1870
261.359	2037
261.421	3907
261.483	1493
261.545	3373
261.607	34
261.669	2474
261.731	2704
261.793	3490
261.854	1435
261.916	1915
261.978	1638
262.040	1778
262.102	2512
262.164	1121
262.225	1756
262.287	2499
262.349	1615
262.411	1957
262.472	2184
262.534	1796
262.596	1736
262.658	3019
262.719	140
262.781	2420
262.843	1316
262.904	2672
262.966	1916
263.028	2933
263.090	5422
263.151	9996
263.213	3268
263.275	2037
263.336	2269
263.398	2363
263.459	1430
263.521	2117
263.583	2617
263.644	2497
263.706	973
263.767	1303
263.829	1524
263.891	2013
263.952	1490
264.014	1767
264.075	1341
264.137	2994
264.198	2150
264.260	1732
264.321	1047
264.383	2123
264.444	3053
264.506	1490
264.567	1602
264.629	2745
264.690	932
264.752	1967
264.813	2510
264.875	1662
264.936	2423
264.998	1549
265.059	1795
265.120	2944
265.182	2136
265.243	9674
265.305	8068
265.366	3791
265.427	1505
265.489	3340
265.550	1004
265.611	1843
265.673	1924
265.734	2943
265.795	1864
265.857	2069
265.918	1570
265.979	4130
266.040	15261
266.102	10117
266.163	3042
266.224	2426
266.286	2157
266.347	1199
266.408	2022
266.469	2883
266.530	1938
266.592	1395
266.653	1857
266.714	1991
266.775	654
266.836	2242
266.898	776
266.959	1954
267.020	1009
267.081	2333
267.142	1414
267.203	2275
267.264	456
267.326	2552
267.387	865
267.448	939
267.509	1547
267.570	1495
267.631	1179
267.692	635
267.753	1859
267.814	1356
267.875	1150
267.936	2355
267.997	817
268.058	1715
268.119	896
268.180	2963
268.241	622
268.302	2024
268.363	1154
268.424	1519
268.485	1203
268.546	1088
268.607	866
268.668	1302
268.729	1389
268.790	1669
268.851	1394
268.912	3082
268.972	2395
269.033	1350
269.094	1265
269.155	1871
269.216	1452
269.277	1582
269.338	1584
269.398	2243
269.459	452
269.520	1638
269.581	884
269.642	1212
269.702	554
269.763	1593
269.824	1352
269.885	1568
269.945	1246
270.006	1347
270.067	824
270.128	1019
270.188	851
270.249	1647
270.310	1061
270.370	2744
270.431	1438
270.492	1306
270.553	1831
270.613	2083
270.674	1192
270.734	1025
270.795	2129
270.856	1810
270.916	1140
270.977	1788
271.038	2201
271.098	1411
271.159	1289
271.219	1318
271.280	1260
271.340	1711
271.401	729
271.462	1899
271.522	2249
271.583	2031
271.643	1139
271.704	2091
271.764	1358
271.825	2477
271.885	4998
271.946	6615
272.006	2207
272.066	4464
272.127	6025
272.187	8920
272.248	4466
272.308	2773
272.369	4400
272.429	3447
272.489	2514
272.550	2399
272.610	2748
272.671	2346
272.731	2470
272.791	1977
272.852	2191
272.912	2456
272.972	1543
273.033	1718
273.093	1840
273.153	2476
273.214	930
273.274	2037
273.334	3439
273.394	4304
273.455	2025
273.515	2983
273.575	3115
273.635	2750
273.696	3571
273.756	4713
273.816	2368
273.876	2849
273.936	2794
273.997	2310
274.057	836
274.117	1775
274.177	2256
274.237	5996
274.297	3423
274.358	3319
274.418	3075
274.478	3643
274.538	1311
274.598	1103
274.658	2976
274.718	3454
274.778	1127
274.838	1676
274.898	1600
274.958	3141
275.018	4693
275.078	3930
275.138	2531
275.198	1520
275.258	1740
275.318	1948
275.378	1766
275.438	2009
275.498	2225
275.558	3692
275.618	3979
275.678	2851
275.738	2720
275.798	3166
275.858	1607
275.918	1998
275.978	1732
276.038	3047
276.098	1417
276.157	2150
276.217	3989
276.277	2252
276.337	946
276.397	2048
276.457	1735
276.517	2199
276.576	2047
276.636	1811
276.696	1585
276.756	2943
276.815	2194
276.875	2504
276.935	1605
276.995	2216
277.055	2935
277.114	3031
277.174	2865
277.234	3088
277.293	1951
277.353	1834
277.413	960
277.472	1250
277.532	1319
277.592	3183
277.651	5325
277.711	6131
277.771	3990
277.830	8565
277.890	5288
277.950	5910
278.009	12817
278.069	5570
278.128	6370
278.188	7237
278.248	4459
278.307	8582
278.367	4702
278.426	3338
278.486	2022
278.545	3087
278.605	1939
278.664	2833
278.724	1975
278.783	3679
278.843	5238
278.902	2985
278.962	1744
279.021	3362
279.081	3298
279.140	3512
279.199	3000
279.259	2596
279.318	3059
279.378	4770
279.437	4581
279.496	11756
279.556	31320
279.615	20418
279.675	7300
279.734	5747
279.793	5859
279.853	6735
279.912	4768
279.971	4225
280.031	3371
280.090	4668
280.149	5710
280.208	6626
280.268	23796
280.327	17654
280.386	5886
280.445	4302
280.505	2993
280.564	3120
280.623	3182
280.682	3614
280.742	3880
280.801	2697
280.860	2441
280.919	2767
280.978	2331
281.037	1543
281.097	1534
281.156	3577
281.215	2294
281.274	2512
281.333	4385
281.392	3240
281.451	2022
281.510	2837
281.569	2419
281.628	3194
281.688	1917
281.747	3212
281.806	1776
281.865	2446
281.924	2035
281.983	2465
282.042	1511
282.101	1727
282.160	2022
282.219	3249
282.278	2425
282.337	2836
282.396	1734
282.454	2874
282.513	2372
282.572	4232
282.631	2435
282.690	2302
282.749	1699
282.808	2158
282.867	2588
282.926	2482
282.985	2613
283.043	2709
283.102	2399
283.161	3263
283.220	3118
283.279	4417
283.338	2392
283.396	2402
283.455	1966
283.514	2380
283.573	2679
283.631	2836
283.690	2196
283.749	2033
283.808	3343
283.866	3164
283.925	2182
283.984	2654
284.043	1760
284.101	2851
284.160	1765
284.219	3227
284.277	3006
284.336	3107
284.395	4494
284.453	3086
284.512	2232
284.570	3800
284.629	2496
284.688	2894
284.746	3098
284.805	3736
284.863	3338
284.922	4578
284.981	5803
285.039	8338
285.098	11306
285.156	25326
285.215	35304
285.273	35907
285.332	21503
285.390	12639
285.449	8156
285.507	6845
285.566	5228
285.624	5528
285.683	4688
285.741	4324
285.799	2734
285.858	2642
285.916	3119
285.975	3830
286.033	1819
286.091	2946
286.150	2155
286.208	2196
286.267	2084
286.325	2458
286.383	3065
286.442	2461
286.500	3191
286.558	3043
286.616	2048
286.675	2657
286.733	2170
286.791	2754
286.850	3302
286.908	3148
286.966	2752
287.024	2102
287.083	2037
287.141	2626
287.199	3674
287.257	3106
287.315	2914
287.374	3079
287.432	2220
287.490	2903
287.548	1935
287.606	2993
287.664	2930
287.723	3091
287.781	3162
287.839	3100
287.897	2454
287.955	4182
288.013	3954
288.071	6154
288.129	19376
288.187	40450
288.245	16601
288.303	6864
288.361	4292
288.419	3800
288.477	2937
288.535	4415
288.593	2251
288.651	2981
288.709	2929
288.767	2589
288.825	1817
288.883	2999
288.941	2310
288.999	3236
289.057	2830
289.115	2922
289.173	1916
289.231	1326
289.289	1437
289.346	3206
289.404	2613
289.462	2952
289.520	2852
289.578	2200
289.636	2949
289.694	2705
289.751	2282
289.809	3217
289.867	2566
289.925	3784
289.983	2899
290.040	3806
290.098	1965
290.156	3182
290.214	1626
290.271	2495
290.329	3948
290.387	2674
290.444	2507
290.502	2208
290.560	2684
290.617	2966
290.675	2876
290.733	2313
290.790	1581
290.848	3835
290.906	2682
290.963	2031
291.021	2549
291.078	2662
291.136	2092
291.194	3604
291.251	3897
291.309	2592
291.366	2130
291.424	2943
291.481	2391
291.539	3124
291.596	2849
291.654	3110
291.711	3331
291.769	4270
291.826	2671
291.884	3435
291.941	1751
291.999	3245
292.056	2064
292.114	2523
292.171	2048
292.228	3584
292.286	2755
292.343	2810
292.401	2754
292.458	2659
292.515	2638
292.573	3460
292.630	2795
292.687	3236
292.745	2640
292.802	2642
292.859	2871
292.917	4969
292.974	2896
293.031	2203
293.089	2630
293.146	1672
293.203	2374
293.260	2626
293.318	2076
293.375	3410
293.432	2920
293.489	3170
293.546	1729
293.604	2658
293.661	3341
293.718	5922
293.775	3387
293.832	4238
293.889	3171
293.947	3508
294.004	1975
294.061	1969
294.118	2818
294.175	4217
294.232	4237
294.289	2886
294.346	3076
294.403	3550
294.460	2600
294.517	2608
294.574	2161
294.631	2880
294.688	2299
294.745	3288
294.802	5868
294.859	4564
294.916	2722
294.973	3647
295.030	2062
295.087	2127
295.144	2526
295.201	3537
295.258	1704
295.315	2860
295.372	3395
295.429	4644
295.486	3381
295.542	2908
295.599	3976
295.656	4011
295.713	3307
295.770	4490
295.827	1916
295.883	2372
295.940	2890
295.997	3141
296.054	2007
296.111	2537
296.167	2337
296.224	2841
296.281	2043
296.338	2753
296.394	2738
296.451	2675
296.508	3072
296.564	4214
296.621	3267
296.678	5758
296.734	5162
296.791	2863
296.848	2067
296.904	2684
296.961	4036
297.018	5268
297.074	3764
297.131	3197
297.187	2379
297.244	2887
297.301	5590
297.357	7129
297.414	2921
297.470	3184
297.527	1985
297.583	2770
297.640	2618
297.696	2784
297.753	1646
297.809	2700
297.866	1541
297.922	2840
297.979	1933
298.035	2140
298.092	2896
298.148	4166
298.204	3328
298.261	3701
298.317	4961
298.374	6293
298.430	4014
298.486	2779
298.543	1682
298.599	2910
298.656	2255
298.712	3594
298.768	4807
298.824	3037
298.881	2233
298.937	2585
298.993	2557
299.050	1542
299.106	3210
299.162	1920
299.218	2428
299.275	2421
299.331	2865
299.387	4383
299.443	7593
299.500	15023
299.556	10714
299.612	5843
299.668	6288
299.724	12826
299.780	12920
299.837	7104
299.893	5953
299.949	12442
300.005	13128
300.061	12260
300.117	16370
300.173	6912
300.229	4185
300.285	4645
300.341	3854
300.397	3819
300.453	3187
300.510	3485
300.566	3270
300.622	7039
300.678	20235
300.734	19740
300.790	10736
300.845	9488
300.901	11890
300.957	14620
301.013	7694
301.069	4534
301.125	4164
301.181	3114
301.237	3485
301.293	1925
301.349	2127
301.405	3032
301.461	2750
301.516	2959
301.572	2701
301.628	2030
301.684	1233
301.740	2565
301.796	3036
301.851	2624
301.907	3043
301.963	3620
302.019	4630
302.074	11557
302.130	9511
302.186	6728
302.242	3397
302.297	2284
302.353	2131
302.409	3816
302.464	2660
302.520	2785
302.576	3962
302.631	5255
302.687	2014
302.743	3696
302.798	2258
302.854	2632
302.910	2497
302.965	3304
303.021	2655
303.076	2737
303.132	1815
303.187	2372
303.243	2283
303.299	2980
303.354	746
303.410	2840
303.465	2143
303.521	1729
303.576	1400
303.632	2547
303.687	3067
303.743	4876
303.798	3969
303.853	3339
303.909	2388
303.964	2468
304.020	1434
304.075	3270
304.130	2662
304.186	2398
304.241	3300
304.297	3162
304.352	2376
304.358	2343
304.407	2082
304.449	2556
304.463	2716
304.518	2599
304.539	2479
304.573	2277
304.629	2747
304.630	2733
304.684	2182
304.720	3195
304.739	3652
304.794	5134
304.811	4582
304.850	3280
304.902	2964
304.905	2946
304.960	2898
304.992	2515
305.015	2224
305.071	3456
305.083	3173
305.126	2114
305.173	2538
305.181	2631
305.236	1783
305.264	2716
305.292	3614
305.347	2428
305.354	2495
305.402	2959
305.445	2676
305.457	2575
305.512	3582
305.535	3104
305.567	2559
305.622	2879
305.626	2885
305.678	3383
305.716	5247
305.733	5754
305.788	4614
305.807	4460
305.843	4707
305.897	5213
305.898	5208
305.953	5406
305.988	4096
306.008	3535
306.063	3576
306.078	3387
306.118	2849
306.168	2526
306.173	2514
306.228	2147
306.259	2362
306.283	2598
306.338	2928
306.349	2936
306.393	2796
306.440	2868
306.448	2907
306.503	3474
306.530	3645
306.558	3913
306.613	4053
306.620	4072
306.668	4469
306.711	5899
306.723	6014
306.778	3645
306.801	3662
306.833	4024
306.888	3622
306.892	3584
306.943	3249
306.982	2812
306.997	2649
307.052	3238
307.072	3002
307.107	2899
307.162	2893
307.163	2902
307.217	3906
307.253	3883
307.272	3804
307.327	3382
307.343	3369
307.381	3447
307.434	2564
307.436	2580
307.491	4658
307.524	5261
307.546	5149
307.600	5772
307.614	5519
307.655	4397
307.704	3962
307.710	4059
307.765	3821
307.795	4539
307.819	5037
307.874	5682
307.885	5784
307.929	6108
307.975	7007
307.984	7576
308.038	10860
308.065	12557
308.093	22062
308.148	45448
308.156	49615
308.202	62473
308.246	67892
308.257	64039
308.312	34088
308.336	21377
308.366	16144
308.421	9929
308.426	9390
308.475	7332
308.517	6403
308.530	6313
308.585	5698
308.607	5421
308.639	5197
308.694	4972
308.697	5016
308.748	6777
308.787	7467
308.803	7298
308.857	6095
308.877	6037
308.912	6876
308.967	7292
308.967	7298
309.021	11118
309.058	13526
309.076	17003
309.130	28924
309.148	33057
309.185	60946
309.238	105717
309.239	105844
309.293	95768
309.328	81963
309.348	70208
309.402	35287
309.418	25928
309.457	19755
309.508	13109
309.511	12986
309.566	11679
309.598	11025
309.620	11576
309.674	13261
309.688	13676
309.729	12623
309.778	10621
309.783	10454
309.837	8526
309.868	7494
309.892	8161
309.946	9772
309.959	10193
310.001	10602
310.049	10518
310.055	10253
310.109	8032
310.139	6562
310.163	6155
310.218	5524
310.229	5372
310.272	5138
310.319	4873
310.326	4800
310.381	4251
310.409	3895
310.435	4155
310.489	4702
310.499	4841
310.543	4968
310.589	4878
310.598	4903
310.652	5263
310.679	5224
310.706	5201
310.760	5319
310.769	5278
310.814	5255
310.859	5536
310.868	5539
310.923	5063
310.948	4972
310.977	5098
311.031	5219
311.038	5245
311.085	5063
311.128	4608
311.139	4732
311.193	5516
311.218	5752
311.247	5554
311.301	5395
311.308	5326
311.356	5442
311.398	5797
311.410	5826
311.464	5641
311.488	5539
311.518	5542
311.572	5532
311.578	5522
311.626	5486
311.668	5398
311.680	5539
311.734	6059
311.758	6265
311.788	6020
311.842	5586
311.847	5522
311.896	6537
311.937	7430
311.950	7281
312.004	6468
312.027	6124
312.058	5985
312.112	5680
312.117	5635
312.165	5891
312.207	6086
312.297	6105
312.386	5715
312.476	6378
312.566	6775
312.656	6963
312.745	5923
312.835	7111
312.925	7354
313.015	8215
313.104	7680
313.194	8073
313.284	8240
313.374	9141
313.463	8593
313.553	10774
313.643	8585
313.732	9924
313.822	9732
313.912	11579
314.001	11680
314.091	12393
314.180	11391
314.270	13466
314.360	12566
314.449	11955
314.539	11515
314.628	12147
314.718	11654
314.808	12983
314.897	13448
314.987	15803
315.076	13802
315.166	14580
315.255	12698
315.345	13742
315.434	12471
315.524	12943
315.613	15125
315.703	19018
315.792	44937
315.881	113375
315.971	35201
316.060	17644
316.150	14907
316.239	14807
316.328	12232
316.418	13893
316.507	13620
316.597	16922
316.686	17154
316.775	15931
316.865	15690
316.954	12436
317.043	12446
317.133	11825
317.222	10822
317.311	10437
317.400	8898
317.490	11806
317.579	11852
317.668	14028
317.757	22795
317.847	71769
317.936	163726
318.025	49840
318.114	49899
318.203	23601
318.293	16737
318.382	25395
318.471	25782
318.560	24275
318.649	23156
318.738	12938
318.828	10687
318.917	8815
319.006	10444
319.095	11242
319.184	20855
319.273	12900
319.362	10556
319.451	8963
319.540	8784
319.629	9701
319.718	11004
319.807	10536
319.896	12009
319.985	23018
320.074	12219
320.163	10190
320.252	11344
320.341	11999
320.430	10784
320.519	13199
320.608	13236
320.697	15761
320.786	16701
320.875	17878
320.964	19853
321.053	21284
321.142	22847
321.230	25693
321.319	26527
321.408	30797
321.497	27563
321.586	24286
321.675	22514
321.764	23579
321.852	22677
321.941	23625
322.030	23492
322.119	26048
322.207	30953
322.296	33615
322.385	33683
322.474	36858
322.562	37602
322.651	30264
322.740	25237
322.829	23049
322.917	19741
323.006	18152
323.095	16550
323.183	16205
323.272	15550
323.361	17195
323.449	20387
323.538	13796
323.626	16924
323.715	13501
323.804	12634
323.892	15276
323.981	12256
324.069	12118
324.158	14293
324.246	12112
324.335	11214
324.424	11020
324.512	9812
324.601	10150
324.689	9488
324.778	11046
324.866	9920
324.954	9054
325.043	9198
325.131	8827
325.220	11917
325.308	10078
325.397	10699
325.485	8869
325.574	8296
325.662	8757
325.750	8323
325.839	9359
325.927	8436
326.015	9197
326.104	8680
326.192	8767
326.280	8025
326.369	8186
326.457	8821
326.545	9225
326.634	8265
326.722	8625
326.810	8733
326.898	10281
326.987	10479
327.075	10366
327.163	10950
327.251	9697
327.340	10011
327.428	13673
327.516	16003
327.604	13607
327.692	10701
327.781	10054
327.869	8898
327.957	8397
328.045	7716
328.133	7646
328.221	6657
328.309	7639
328.397	8365
328.485	9081
328.574	15220
328.662	20973
328.750	14951
328.838	11389
328.926	9793
329.014	8314
329.102	8608
329.190	9827
329.278	8604
329.366	8136
329.454	6837
329.542	7771
329.630	6527
329.718	7742
329.806	7578
329.893	7715
329.981	5963
330.069	7723
330.157	8569
330.245	10952
330.333	8696
330.421	7397
330.509	8576
330.597	10325
330.684	8701
330.772	8432
330.860	7869
330.948	8578
331.036	7494
331.123	7421
331.211	7913
331.299	8529
331.387	9229
331.475	9580
331.562	7834
331.650	7852
331.738	8000
331.825	8869
331.913	7360
332.001	7750
332.089	7683
332.176	8926
332.264	10076
332.352	9231
332.439	8361
332.527	9424
332.614	7803
332.702	8767
332.790	8587
332.877	9930
332.965	11307
333.052	10129
333.140	10078
333.228	12482
333.315	9677
333.403	10554
333.490	11530
333.578	12476
333.665	16385
333.753	14340
333.840	12727
333.928	15693
334.015	17549
334.103	26119
334.190	38725
334.278	37879
334.365	44378
334.452	42077
334.540	34741
334.627	35755
334.715	43664
334.802	60642
334.889	89333
334.977	95487
335.064	60025
335.151	38408
335.239	29583
335.326	26895
335.413	32961
335.501	32848
335.588	28690
335.675	33431
335.762	39952
335.850	54119
335.937	72440
336.024	105285
336.111	140245
336.199	108077
336.286	61196
336.373	39539
336.460	28993
336.547	23724
336.635	20892
336.722	17838
336.809	15801
336.896	15734
336.983	17992
337.070	24424
337.157	26889
337.245	20651
337.332	17574
337.419	14104
337.506	13226
337.593	12859
337.680	15525
337.767	19614
337.854	12298
337.941	12636
338.028	11749
338.115	10672
338.202	12486
338.289	13201
338.376	15799
338.463	12365
338.550	14322
338.637	13922
338.724	10070
338.811	11913
338.898	9255
338.984	8858
339.071	9144
339.158	9162
339.245	9987
339.332	10114
339.419	9454
339.506	10270
339.593	8730
339.679	9979
339.766	8944
339.853	10046
339.940	9644
340.027	9005
340.113	8587
340.200	9419
340.287	8556
340.374	8802
340.460	9262
340.547	7404
340.634	8562
340.720	12744
340.807	8774
340.894	9897
340.980	8424
341.067	9274
341.154	9262
341.240	9827
341.327	9589
341.414	10008
341.500	8731
341.587	9756
341.674	8703
341.760	9691
341.847	9896
341.933	9752
342.020	8484
342.106	9122
342.193	8334
342.279	8638
342.366	8240
342.452	8839
342.539	8635
342.625	9523
342.712	10737
342.798	9062
342.885	7505
342.971	7347
343.058	8888
343.144	8162
343.230	8588
343.317	9349
343.403	8161
343.490	8062
343.576	7776
343.662	8377
343.749	7845
343.835	8956
343.921	10364
344.008	26109
344.094	38797
344.180	12737
344.267	9025
344.353	15046
344.439	12368
344.525	9626
344.612	13097
344.698	12598
344.784	10543
344.870	9629
344.957	7699
345.043	9118
345.129	7796
345.215	9144
345.301	8594
345.387	8605
345.474	8286
345.560	7855
345.646	7370
345.732	7809
345.818	8860
345.904	8797
345.990	8282
346.076	8566
346.162	7695
346.249	9356
346.335	8168
346.421	8746
346.507	11848
346.593	18079
346.679	8808
346.765	11627
346.851	16622
346.937	14784
347.023	10574
347.108	8906
347.194	8623
347.280	9994
347.366	13683
347.452	33620
347.538	44444
347.624	25426
347.710	15578
347.796	10118
347.882	9592
347.967	9291
348.053	8641
348.139	8845
348.225	8677
348.311	8634
348.397	9495
348.482	10388
348.568	11277
348.654	17486
348.740	43598
348.825	46531
348.911	22226
348.997	20567
349.083	21518
349.168	11151
349.254	9678
349.340	9612
349.425	9327
349.511	9734
349.597	9743
349.682	10437
349.768	15053
349.854	10322
349.939	9252
350.025	9030
350.110	8809
350.196	8988
350.282	8303
350.367	9756
350.453	8816
350.538	9706
350.624	7923
350.709	10199
350.795	8059
350.880	8384
350.966	9740
351.051	9052
351.137	8206
351.222	8937
351.308	10121
351.393	12241
351.479	8916
351.564	7991
351.649	8798
351.735	8622
351.820	8354
351.906	8584
351.991	8302
352.076	11283
352.162	11582
352.247	8878
352.332	8343
352.418	9252
352.503	9656
352.588	14444
352.673	11090
352.759	8728
352.844	7636
352.929	9028
353.014	8075
353.100	9070
353.185	8704
353.270	8646
353.355	8812
353.441	8937
353.526	8110
353.611	8861
353.696	8382
353.781	10017
353.866	7677
353.952	9372
354.037	8665
354.122	10435
354.207	10237
354.292	8885
354.377	8351
354.462	9364
354.547	9125
354.632	8997
354.717	9557
354.802	8991
354.887	7838
354.972	8563
355.057	7605
355.142	8522
355.227	9317
355.312	8710
355.397	9859
355.482	12298
355.567	9610
355.652	10992
355.737	10911
355.822	15445
355.907	12441
355.991	10737
356.076	7458
356.161	9363
356.246	8577
356.331	9474
356.416	11087
356.501	27183
356.585	21474
356.670	10135
356.755	12150
356.840	10719
356.924	22501
357.009	45661
357.094	20319
357.179	10232
357.263	9830
357.348	11198
357.433	10165
357.517	11130
357.602	9014
357.687	9956
357.771	12316
357.856	19299
357.941	14670
358.025	21723
358.110	51661
358.195	24297
358.279	11707
358.364	11271
358.448	15169
358.533	22471
358.617	17068
358.702	18698
358.787	11675
358.871	11314
358.956	10181
359.040	11138
359.125	10186
359.209	11412
359.294	15932
359.378	23987
359.462	16533
359.547	10684
359.631	10151
359.716	8930
359.800	9629
359.885	10810
359.969	9507
360.053	9950
360.138	9703
360.222	10255
360.306	10175
360.391	11349
360.475	14058
360.559	17806
360.644	14513
360.728	11847
360.812	22136
360.896	33738
360.981	15971
361.065	12930
361.149	12085
361.233	12032
361.318	11802
361.402	12511
361.486	12929
361.570	13136
361.654	14218
361.739	17004
361.823	32620
361.907	39356
361.991	23108
362.075	26139
362.159	35950
362.243	66699
362.327	127890
362.411	144504
362.495	65933
362.580	42256
362.664	40265
362.748	49072
362.832	76945
362.916	145881
363.000	281682
363.084	296116
363.168	146511
363.252	60901
363.336	40314
363.420	31977
363.503	36810
363.587	35984
363.671	27325
363.755	25957
363.839	31301
363.923	34568
364.007	43589
364.091	61594
364.175	95852
364.258	187913
364.342	335183
364.426	399395
364.510	229566
364.594	103024
364.677	59326
364.761	55895
364.845	39159
364.929	25806
365.013	20479
365.096	19748
365.180	17903
365.264	21805
365.347	31710
365.431	19951
365.515	13785
365.598	13738
365.682	14866
365.766	13402
365.849	14021
365.933	13004
366.017	15607
366.100	13691
366.184	13458
366.267	15124
366.351	12578
366.435	12458
366.518	12730
366.602	13900
366.685	12646
366.769	12877
366.852	12881
366.936	13204
367.019	12672
367.103	12939
367.186	14797
367.270	12693
367.353	12647
367.436	16415
367.520	14606
367.603	15066
367.687	13330
367.770	14397
367.853	14472
367.937	18835
368.020	19731
368.104	12654
368.187	13740
368.270	13559
368.353	13015
368.437	12289
368.520	14349
368.603	14448
368.687	13920
368.770	17737
368.853	12278
368.936	13019
369.020	12328
369.103	11262
369.186	10523
369.269	9791
369.352	10796
369.436	11206
369.519	10390
369.602	9134
369.685	10929
369.768	9636
369.851	11093
369.934	10125
370.018	9580
370.101	9867
370.184	11958
370.267	11968
370.350	11265
370.433	14170
370.516	36698
370.599	69691
370.682	31367
370.765	18258
370.848	18286
370.931	22589
371.014	15545
371.097	9574
371.180	11201
371.263	11840
371.346	8822
371.429	11221
371.511	10256
371.594	10171
371.677	11258
371.760	13307
371.843	11939
371.926	28367
372.009	41638
372.091	20597
372.174	15061
372.257	25341
372.340	15301
372.423	13033
372.505	13844
372.588	11133
372.671	15512
372.754	21809
372.836	14962
372.919	16247
373.002	18983
373.085	12732
373.167	13285
373.250	16717
373.332	24363
373.415	38946
373.498	58194
373.580	42670
373.663	107143
373.746	93538
373.828	24670
373.911	17867
373.993	16223
374.076	23166
374.159	20409
374.241	16821
374.324	23330
374.406	21015
374.489	28556
374.571	46036
374.654	23816
374.736	22080
374.819	36269
374.901	50013
374.983	43799
375.066	21051
375.148	17310
375.231	24068
375.313	29342
375.395	19798
375.478	16738
375.560	17919
375.643	16471
375.725	23903
375.807	43128
375.890	31947
375.972	16489
376.054	16963
376.136	16021
376.219	14737
376.301	20776
376.383	32865
376.465	18718
376.548	14249
376.630	17310
376.712	27490
376.794	16660
376.877	11757
376.959	10902
377.041	10430
377.123	12118
377.205	11757
377.287	10651
377.369	12086
377.452	11150
377.534	11604
377.616	10956
377.698	11981
377.780	10261
377.862	11664
377.944	11713
378.026	10071
378.108	11734
378.190	11767
378.272	10556
378.354	11094
378.436	10158
378.518	11079
378.600	13168
378.682	13558
378.764	15497
378.846	14537
378.928	10538
379.010	10946
379.091	11538
379.173	10385
379.255	10086
379.337	11034
379.419	13595
379.501	20490
379.583	12534
379.664	10991
379.746	11179
379.828	17215
379.910	17051
379.991	17297
380.073	10650
380.155	11151
380.237	9550
380.318	10382
380.400	10493
380.482	11877
380.564	11449
380.645	11040
380.727	10645
380.809	12108
380.890	10502
380.972	9702
381.053	10571
381.135	11723
381.217	11779
381.298	16925
381.380	12249
381.461	13935
381.543	28382
381.624	30050
381.706	12395
381.787	12531
381.869	13294
381.951	22951
382.032	44668
382.113	29893
382.195	12405
382.276	14420
382.358	16202
382.439	27446
382.521	33583
382.602	41546
382.684	24717
382.765	33512
382.846	42364
382.928	57880
383.009	36626
383.090	39327
383.172	99157
383.253	113463
383.334	44970
383.416	39820
383.497	26809
383.578	22762
383.659	35955
383.741	102379
383.822	179880
383.903	87598
383.984	36319
384.066	42803
384.147	28780
384.228	21708
384.309	21140
384.390	22397
384.471	21832
384.553	20116
384.634	18281
384.715	18816
384.796	15601
384.877	17000
384.958	21160
385.039	21116
385.120	17470
385.201	16866
385.282	17079
385.363	18829
385.444	18888
385.525	23233
385.606	31943
385.687	27826
385.768	20679
385.849	22954
385.930	37335
386.011	44758
386.092	24964
386.173	22144
386.254	19989
386.335	20937
386.416	19695
386.496	23299
386.577	24922
386.658	21006
386.739	20057
386.820	21392
386.901	21503
386.981	24501
387.062	26558
387.143	29506
387.224	32063
387.304	34847
387.385	32575
387.466	29991
387.547	33599
387.627	33626
387.708	37584
387.789	44200
387.869	42831
387.950	32224
388.031	27116
388.111	25094
388.192	28350
388.273	30647
388.353	25912
388.434	20570
388.514	21791
388.595	34819
388.676	32556
388.756	22191
388.837	22131
388.917	18814
388.998	15553
389.078	17852
389.159	16840
389.239	15527
389.320	18493
389.400	14536
389.480	18038
389.561	22920
389.641	18908
389.722	17675
389.802	15207
389.883	19606
389.963	25369
390.043	20674
390.124	15409
390.204	18173
390.284	21875
390.365	19554
390.445	25403
390.525	43459
390.605	38127
390.686	19369
390.766	17847
390.846	19068
390.927	17177
391.007	16905
391.087	18730
391.167	18399
391.247	16552
391.328	20270
391.408	20585
391.488	21814
391.568	19226
391.648	21491
391.728	22467
391.808	23606
391.888	25110
391.969	28065
392.049	30390
392.129	29856
392.209	32875
392.289	40455
392.369	38446
392.449	40137
392.529	41451
392.609	46928
392.689	53521
392.769	67823
392.849	79661
392.929	98097
393.009	135504
393.089	195345
393.169	331837
393.248	610937
393.328	841383
393.408	757083
393.488	505968
393.568	282331
393.648	166162
393.728	111217
393.807	80635
393.887	66367
393.967	54115
394.047	47010
394.127	40917
394.206	44339
394.286	84521
394.366	212113
394.446	195447
394.525	64611
394.605	34414
394.685	31037
394.764	36450
394.844	59901
394.924	66573
395.003	36940
395.083	24387
395.163	24603
395.242	22748
395.322	23313
395.402	21922
395.481	27372
395.561	36235
395.640	85828
395.720	141889
395.799	88560
395.879	46647
395.958	47889
396.038	106778
396.117	265161
396.197	253615
396.276	101149
396.356	65656
396.435	71221
396.515	89984
396.594	134476
396.673	262031
396.753	544029
396.832	752223
396.912	579621
396.991	288097
397.070	146333
397.150	90902
397.229	82657
397.308	130107
397.388	197325
397.467	109274
397.546	47110
397.625	32042
397.705	32029
397.784	26711
397.863	23981
397.942	22605
398.022	22156
398.101	22918
398.180	28061
398.259	20178
398.338	18891
398.417	16831
398.497	16352
398.576	16566
398.655	15187
398.734	15379
398.813	15195
398.892	18152
398.971	24427
399.050	16665
399.129	13254
399.208	13262
399.287	14226
399.366	12230
399.445	13206
399.524	11910
399.603	10808
399.682	13321
399.761	16328
399.840	24568
399.919	21375
399.998	11139
400.077	9898
400.156	10237
400.235	13971
400.313	10336
400.392	9943
400.471	14156
400.550	14490
400.629	10166
400.708	12631
400.786	9443
400.865	10801
400.944	9176
401.023	11924
401.102	8875
401.180	10079
401.259	10117
401.338	9685
401.416	9810
401.495	8701
401.574	10095
401.652	8487
401.731	10222
401.810	8667
401.888	8369
401.967	8485
402.046	8823
402.124	9237
402.203	7742
402.281	10103
402.360	9054
402.438	10476
402.517	8892
402.596	8962
402.674	8320
402.753	9072
402.831	9075
402.910	10406
402.988	10760
403.066	16047
403.145	13740
403.223	12641
403.302	15025
403.380	14854
403.459	14010
403.537	12745
403.615	11363
403.694	9952
403.772	11527
403.850	10901
403.929	9824
404.007	9915
404.085	11708
404.164	10961
404.242	12114
404.320	21777
404.398	39653
404.477	39137
404.555	40562
404.633	35049
404.711	32059
404.789	24133
404.868	11751
404.946	9848
405.024	8899
405.102	8921
405.180	7376
405.258	7855
405.336	8370
405.415	8049
405.493	9149
405.571	9683
405.649	7831
405.727	9007
405.805	10846
405.883	10848
405.961	10918
406.039	9464
406.117	8431
406.195	9228
406.273	12140
406.351	25421
406.429	16893
406.507	8778
406.585	6297
406.663	9058
406.740	8067
406.818	7621
406.896	6877
406.974	8451
407.052	7720
407.130	17200
407.208	19261
407.285	10986
407.363	7665
407.441	9183
407.519	8836
407.596	10592
407.674	23940
407.752	58515
407.830	40898
407.907	13413
407.985	8537
408.063	9117
408.141	7808
408.218	9365
408.296	7591
408.373	9568
408.451	10304
408.529	11415
408.606	10942
408.684	12577
408.762	11516
408.839	12668
408.917	13411
408.994	14793
409.072	15576
409.149	20299
409.227	29523
409.304	40920
409.382	45244
409.459	54812
409.537	62975
409.614	59420
409.692	53211
409.769	53904
409.846	65672
409.924	74663
410.001	60549
410.079	48821
410.156	38332
410.233	31109
410.311	25741
410.388	23340
410.465	21226
410.543	18993
410.620	18373
410.697	17720
410.775	16067
410.852	16811
410.929	17205
411.006	18139
411.083	15626
411.161	16252
411.238	15768
411.315	14825
411.392	13274
411.469	13810
411.547	12405
411.624	11501
411.701	10656
411.778	11774
411.855	11464
411.932	10615
412.009	9455
412.086	11147
412.163	9568
412.240	9715
412.317	9830
412.394	9969
412.471	10063
412.548	9411
412.625	8946
412.702	10133
412.779	9218
412.856	9428
412.933	9160
413.010	9034
413.087	9367
413.164	10827
413.241	11501
413.318	7954
413.395	7951
413.471	8980
413.548	8092
413.625	8612
413.702	7232
413.779	7628
413.855	7558
413.932	8223
414.009	7004
414.086	7328
414.162	8693
414.239	8684
414.316	10230
414.393	14125
414.469	8386
414.546	7551
414.623	6840
414.699	7575
414.776	6900
414.853	7154
414.929	7652
415.006	7296
415.082	7419
415.159	7288
415.236	7409
415.312	8140
415.389	7627
415.465	6941
415.542	6929
415.618	6688
415.695	7289
415.771	6589
415.848	6567
415.924	7123
416.000	6911
416.077	7381
416.153	5425
416.230	7152
416.306	6616
416.383	6828
416.459	6978
416.535	6223
416.612	6828
416.688	7441
416.764	6770
416.841	7015
416.917	6758
416.993	7062
417.069	7198
417.146	7615
417.222	6570
417.298	7244
417.374	5855
417.451	7381
417.527	6276
417.603	6957
417.679	7455
417.755	7153
417.831	6045
417.908	7596
417.984	7162
418.060	7314
418.136	7999
418.212	8078
418.288	7815
418.364	8100
418.440	6856
418.516	8170
418.592	7568
418.668	8357
418.744	8890
418.820	8990
418.896	8237
418.972	7815
419.048	8133
419.124	9884
419.200	7347
419.276	9241
419.352	8563
419.428	9682
419.504	9345
419.579	9098
419.655	9606
419.731	10412
419.807	11036
419.883	11293
419.959	12292
420.034	12140
420.110	12595
420.186	15426
420.262	15447
420.337	13836
420.413	14629
420.489	15881
420.565	17213
420.640	17070
420.716	17670
420.792	17774
420.867	19975
420.943	20199
421.019	22546
421.094	22446
421.170	25049
421.245	26674
421.321	28221
421.397	33196
421.472	42491
421.548	62514
421.623	53503
421.699	48047
421.774	53459
421.850	58303
421.925	70270
422.001	82278
422.076	96794
422.152	117747
422.227	144874
422.302	183994
422.378	229256
422.453	282568
422.529	304432
422.604	242578
422.679	183819
422.755	243588
422.830	283269
422.905	266253
422.981	226028
423.056	187114
423.131	153650
423.207	123038
423.282	102642
423.357	87025
423.432	72472
423.508	64593
423.583	54876
423.658	50592
423.733	46006
423.808	42298
423.883	40537
423.959	42425
424.034	45268
424.109	41253
424.184	32863
424.259	28315
424.334	25668
424.409	22605
424.484	20310
424.559	19975
424.634	18091
424.709	17848
424.784	17562
424.859	16693
424.934	15191
425.009	17270
425.084	17033
425.159	14046
425.234	13360
425.309	13287
425.384	14668
425.459	15613
425.534	13302
425.609	11372
425.683	11863
425.758	10923
425.833	10469
425.908	11802
425.983	10794
426.058	14999
426.132	10692
426.207	10344
426.282	11569
426.357	9419
426.431	9478
426.506	10655
426.581	8840
426.655	9689
426.730	8285
426.805	8230
426.879	9287
426.954	8183
427.029	8307
427.103	14066
427.178	20174
427.253	12937
427.327	8889
427.402	9022
427.476	12144
427.551	9096
427.625	8238
427.700	9265
427.774	7513
427.849	9171
427.923	9221
427.998	11542
428.072	13489
428.147	27337
428.221	94306
428.296	194872
428.370	106035
428.444	27223
428.519	14341
428.593	13259
428.667	13146
428.742	17994
428.816	44716
428.890	143319
428.965	168728
429.039	54341
429.113	17276
429.188	11434
429.262	9855
429.336	9596
429.410	10294
429.485	10090
429.559	10905
429.633	12134
429.707	16179
429.781	42191
429.855	134907
429.930	153576
430.004	58581
430.078	51894
430.152	123510
430.226	261237
430.300	218828
430.374	76832
430.448	30858
430.522	23984
430.596	30031
430.670	63576
430.744	164500
430.818	146729
430.892	39189
430.966	13847
431.040	10233
431.114	8072
431.188	7588
431.262	7163
431.336	6266
431.410	8575
431.484	8480
431.557	9268
431.631	12027
431.705	23016
431.779	81153
431.853	189275
431.927	117751
432.000	27769
432.074	11326
432.148	7915
432.222	5282
432.295	6315
432.369	4827
432.443	6195
432.516	11028
432.590	17496
432.664	8701
432.737	4754
432.811	3672
432.885	3341
432.958	4591
433.032	4628
433.106	4120
433.179	4635
433.253	4233
433.326	4119
433.400	3562
433.473	5107
433.547	3790
433.620	4737
433.694	4008
433.767	5493
433.841	4748
433.914	5332
433.988	4907
434.061	5172
434.134	4670
434.208	4794
434.281	3645
434.355	4849
434.428	4855
434.501	4439
434.575	5102
434.648	3855
434.721	3668
434.795	5101
434.868	4002
434.941	4640
435.014	5944
435.088	6189
435.161	7276
435.234	9174
435.307	9264
435.381	13044
435.454	18600
435.527	27849
435.600	29583
435.673	27423
435.746	23019
435.819	18724
435.892	15372
435.966	12660
436.039	9804
436.112	9891
436.185	7634
436.258	7425
436.331	6310
436.404	6352
436.477	5712
436.550	5637
436.623	5828
436.696	5028
436.769	4341
436.842	4639
436.915	4200
436.987	4993
437.060	4263
437.133	4860
437.206	4286
437.279	4692
437.352	3593
437.425	3510
437.498	4030
437.570	4766
437.643	3533
437.716	3632
437.789	3591
437.861	4716
437.934	4878
438.007	3999
438.080	2908
438.152	3598
438.225	5019
438.298	13699
438.370	24889
438.443	10640
438.516	4915
438.588	4093
438.661	3449
438.734	3991
438.806	3672
438.879	4284
438.951	3578
439.024	4757
439.096	3499
439.169	4042
439.241	3648
439.314	3779
439.386	3088
439.459	4742
439.531	4253
439.604	3929
439.676	3767
439.749	3399
439.821	3291
439.893	3512
439.966	3514
440.038	4540
440.110	3453
440.183	3829
440.255	2926
440.327	4535
440.400	7726
440.472	14100
440.544	8310
440.617	4834
440.689	5370
440.761	4711
440.833	4624
440.905	4831
440.978	4197
441.050	4357
441.122	4567
441.194	4374
441.266	4684
441.338	4183
441.411	5463
441.483	7774
441.555	8116
441.627	6022
441.699	5444
441.771	6120
441.843	5995
441.915	6865
441.987	6462
442.059	7103
442.131	9048
442.203	11565
442.275	15273
442.347	25772
442.419	61627
442.491	187086
442.563	266907
442.635	120162
442.706	37549
442.778	21498
442.850	14784
442.922	13859
442.994	13338
443.066	16175
443.137	20086
443.209	27376
443.281	42303
443.353	88829
443.425	220042
443.496	387868
443.568	360635
443.640	178083
443.711	63014
443.783	32698
443.855	20349
443.926	14983
443.998	12573
444.070	11926
444.141	9914
444.213	9902
444.285	9704
444.356	9044
444.428	7945
444.499	7851
444.571	7561
444.642	9920
444.714	9576
444.785	11101
444.857	12137
444.928	14174
445.000	16197
445.071	21052
445.143	27715
445.214	42476
445.285	70875
445.357	156820
445.428	322767
445.500	399884
445.571	367784
445.642	256164
445.714	112530
445.785	47254
445.856	27069
445.928	18045
445.999	14464
446.070	12078
446.141	10012
446.213	9670
446.284	7338
446.355	7781
446.426	5654
446.497	5355
446.569	4827
446.640	4774
446.711	4622
446.782	4376
446.853	4314
446.924	4102
446.995	3620
447.066	3862
447.138	3445
447.209	3592
447.280	2387
447.351	3105
447.422	2542
447.493	3626
447.564	2511
447.635	3266
447.706	2350
447.777	3089
447.847	2729
447.918	1578
447.989	2425
448.060	3028
448.131	2213
448.202	2463
448.273	2892
448.344	2530
448.414	2341
448.485	2571
448.556	2137
448.627	2317
448.698	2008
448.768	2413
448.839	1636
448.910	2429
448.981	2733
449.051	2608
449.122	1865
449.193	2083
449.263	2497
449.334	1879
449.405	2806
449.475	2971
449.546	3637
449.616	3764
449.687	2912
449.758	2121
449.828	1821
449.899	1850
449.969	1197
450.040	2544
450.110	2700
450.181	2461
450.251	1724
450.322	2155
450.392	1568
450.463	1902
450.533	1759
450.604	2443
450.674	2129
450.744	4185
450.815	3160
450.885	4161
450.955	4438
451.026	4565
451.096	3239
451.166	3795
451.237	5630
451.307	7227
451.377	5824
451.447	3351
451.518	3225
451.588	3138
451.658	2947
451.728	2647
451.799	3961
451.869	4288
451.939	1750
452.009	2221
452.079	2439
452.149	3682
452.219	3254
452.289	5181
452.360	3960
452.430	4911
452.500	6658
452.570	11806
452.640	25627
452.710	54034
452.780	55864
452.850	32991
452.920	16518
452.990	10510
453.060	7587
453.129	5817
453.199	4693
453.269	8017
453.339	8617
453.409	9256
453.479	9730
453.549	12191
453.619	9732
453.688	4141
453.758	2262
453.828	1045
453.898	2227
453.968	2238
454.037	2038
454.087	1968
454.107	1922
454.168	1775
454.177	1731
454.247	2131
454.249	2112
454.316	1171
454.330	1356
454.386	1993
454.411	2341
454.456	2857
454.492	2836
454.525	2821
454.574	2155
454.595	1822
454.655	2045
454.665	2062
454.734	2238
454.736	2282
454.804	3316
454.817	3335
454.873	3278
454.898	3454
454.943	3727
454.979	2851
455.013	2047
455.060	2485
455.082	2620
455.141	3087
455.152	3188
455.221	3821
455.222	3859
455.291	4714
455.303	5210
455.360	7069
455.384	9239
455.430	12951
455.465	9539
455.499	6452
455.546	4473
455.569	3425
455.627	3424
455.638	3459
455.707	2518
455.708	2538
455.777	1849
455.789	1921
455.846	2186
455.869	2258
455.916	2419
455.950	2495
455.985	2440
456.031	2312
456.054	2264
456.112	2435
456.124	2467
456.193	3036
456.193	3013
456.262	3262
456.274	3394
456.332	4052
456.355	3853
456.401	3321
456.436	3501
456.470	3672
456.516	3175
456.540	2849
456.597	3025
456.609	3094
456.678	3941
456.678	3918
456.747	3465
456.759	3323
456.817	2939
456.840	3286
456.886	3748
456.920	3836
456.955	3894
457.001	3896
457.024	3839
457.082	3700
457.093	3697
457.162	4982
457.163	5005
457.232	4491
457.243	4600
457.301	5196
457.324	5319
457.370	5505
457.405	6282
457.439	7234
457.485	7132
457.508	6891
457.566	8482
457.577	9292
457.646	14060
457.647	14176
457.715	28766
457.727	32239
457.784	49017
457.808	65402
457.853	89430
457.889	101231
457.922	104755
457.969	76039
457.991	70980
458.050	77702
458.060	78838
458.129	133976
458.130	135201
458.198	145951
458.211	133269
458.267	78081
458.292	58580
458.336	40233
458.372	38342
458.405	46261
458.453	64575
458.474	74365
458.533	123433
458.543	127810
458.611	199875
458.614	199906
458.680	137970
458.694	116056
458.749	55991
458.775	41489
458.818	25738
458.855	20374
458.887	17205
458.936	14106
458.955	12938
459.016	10352
459.024	10143
459.093	9507
459.097	9475
459.162	8439
459.177	8491
459.230	8410
459.257	7900
459.299	7266
459.338	7077
459.368	6953
459.418	6852
459.437	6807
459.499	6583
459.505	6575
459.574	7093
459.579	7119
459.643	6739
459.659	6530
459.711	6417
459.740	6892
459.780	7024
459.820	6507
459.849	6273
459.900	6602
459.917	6766
459.981	7026
459.986	7014
460.054	6641
460.061	6655
460.123	6352
460.141	6269
460.191	6606
460.222	6769
460.260	6820
460.302	6822
460.328	6629
460.382	6655
460.397	6853
460.462	7482
460.465	7703
460.534	12913
460.543	13640
460.602	24660
460.623	29491
460.671	41019
460.703	53996
460.739	51698
460.783	37311
460.808	31601
460.864	11462
460.876	9141
460.944	7011
460.945	6983
461.013	7034
461.024	6851
461.081	6117
461.104	6332
461.150	7088
461.184	7054
461.218	6855
461.264	7233
461.286	7234
461.345	6758
461.355	6716
461.423	6523
461.425	6516
461.491	6000
461.505	6069
461.559	7014
461.585	7212
461.628	7288
461.665	7757
461.696	8014
461.745	7972
461.764	7780
461.825	6773
461.832	6809
461.901	7707
461.905	7757
461.969	6975
461.985	6755
462.037	7196
462.065	7605
462.105	7507
462.145	7180
462.173	7462
462.225	8027
462.241	7875
462.305	7430
462.310	7443
462.378	7786
462.385	7784
462.446	8031
462.465	8165
462.514	8181
462.545	8037
462.582	7664
462.625	7376
462.650	7413
462.705	7297
462.718	7211
462.785	7241
462.786	7252
462.854	7073
462.865	7150
462.922	8044
462.945	8377
462.990	8256
463.025	7857
463.058	7656
463.104	7627
463.126	7564
463.184	7493
463.194	7579
463.262	7471
463.264	7491
463.330	7549
463.344	7475
463.398	7985
463.424	8201
463.466	7747
463.504	7377
463.533	7515
463.583	7693
463.601	7664
463.663	7443
463.669	7463
463.737	7935
463.743	7943
463.805	8214
463.823	8333
463.873	8882
463.903	9092
463.940	8585
463.982	8242
464.008	8261
464.062	8083
464.076	8188
464.142	8633
464.144	8636
464.211	8136
464.221	8093
464.279	7811
464.301	7668
464.347	8034
464.381	8397
464.414	8046
464.461	7456
464.482	7720
464.540	8417
464.550	8391
464.617	7963
464.620	7946
464.685	8692
464.699	8795
464.753	8870
464.779	8971
464.820	9586
464.859	9974
464.888	9584
464.938	9198
464.956	9432
465.018	9887
465.023	9863
465.091	9407
465.098	9346
465.158	9463
465.177	9560
465.226	9762
465.257	9684
465.293	9362
465.336	9167
465.361	9132
465.416	8717
465.428	8852
465.495	9909
465.496	9926
465.563	10002
465.575	10046
465.631	10428
465.654	10517
465.698	10202
465.734	9975
465.765	9752
465.813	9156
465.833	9298
465.893	9957
465.900	9910
465.968	9192
465.972	9129
466.035	9608
466.052	9711
466.102	9577
466.131	9502
466.170	9423
466.210	9263
466.237	9551
466.290	10062
466.304	9852
466.369	8827
466.372	8876
466.439	9915
466.449	10029
466.506	9456
466.528	9247
466.573	10169
466.607	10769
466.641	11242
466.687	11942
466.708	12213
466.766	12834
466.775	12596
466.842	10640
466.845	10526
466.909	10421
466.925	10378
466.977	11108
467.004	11469
467.044	11806
467.083	12110
467.111	12031
467.163	11805
467.178	11981
467.242	12601
467.245	12642
467.312	13021
467.321	13049
467.379	12231
467.400	11897
467.446	12578
467.480	13030
467.559	13171
467.638	13306
467.717	13347
467.796	14152
467.875	14763
467.955	14740
468.034	16312
468.113	19255
468.192	24062
468.271	24936
468.350	33112
468.429	39226
468.508	39078
468.588	26214
468.667	20079
468.746	16293
468.825	15048
468.904	14107
468.983	14803
469.062	14049
469.141	13794
469.220	12673
469.299	12860
469.378	11355
469.456	14761
469.535	12603
469.614	12689
469.693	11665
469.772	13150
469.851	13174
469.930	13202
470.009	13494
470.088	12733
470.166	13860
470.245	14222
470.324	14008
470.403	14183
470.482	12939
470.560	12888
470.639	12490
470.718	13380
470.797	12597
470.875	13025
470.954	11086
471.033	13043
471.111	11969
471.190	11884
471.269	11937
471.347	11754
471.426	11988
471.505	13685
471.583	12579
471.662	13189
471.740	12420
471.819	12509
471.898	11992
471.976	11948
472.055	11663
472.133	13029
472.212	13567
472.290	12660
472.369	12225
472.447	12811
472.526	12081
472.604	12707
472.683	12682
472.761	13466
472.839	12770
472.918	13592
472.996	12320
473.075	12515
473.153	12578
473.231	12990
473.310	13255
473.388	12465
473.466	13129
473.545	13208
473.623	14897
473.701	13916
473.780	14022
473.858	12555
473.936	15691
474.014	14053
474.093	13870
474.171	15320
474.249	14631
474.327	14524
474.405	12377
474.484	14225
474.562	13399
474.640	13336
474.718	13014
474.796	12867
474.874	13322
474.952	12348
475.030	12636
475.108	12241
475.187	13183
475.265	13501
475.343	12412
475.421	14881
475.499	13060
475.577	13724
475.655	13817
475.733	13175
475.811	14867
475.889	13141
475.966	12830
476.044	12768
476.122	12723
476.200	12528
476.278	12097
476.356	12151
476.434	12777
476.512	12250
476.590	14072
476.667	14098
476.745	11473
476.823	13817
476.901	13393
476.979	12717
477.056	13551
477.134	13012
477.212	12743
477.290	12972
477.367	12092
477.445	13139
477.523	12015
477.601	12442
477.678	12805
477.756	12751
477.834	13150
477.911	12386
477.989	12781
478.066	12924
478.144	12821
478.222	13571
478.299	13333
478.377	13911
478.454	13859
478.532	12271
478.609	12535
478.687	13876
478.764	11946
478.842	13485
478.919	13310
478.997	12267
479.074	12424
479.152	13986
479.229	13549
479.307	12810
479.384	13076
479.461	13662
479.539	12958
479.616	14151
479.694	13680
479.771	13378
479.848	12327
479.926	12776
480.003	14025
480.080	14438
480.157	13588
480.235	13622
480.312	14536
480.389	13977
480.467	13771
480.544	15330
480.621	15786
480.698	15279
480.775	14833
480.853	14494
480.930	14464
481.007	14828
481.084	16370
481.161	19785
481.238	16218
481.315	14007
481.392	13850
481.470	14996
481.547	14910
481.624	14516
481.701	14487
481.778	15075
481.855	15104
481.932	16599
482.009	17336
482.086	18307
482.163	19205
482.240	20770
482.317	19783
482.393	20474
482.470	19187
482.547	18282
482.624	18141
482.701	17529
482.778	17560
482.855	17641
482.932	16676
483.009	18679
483.085	20827
483.162	23090
483.239	25113
483.316	22590
483.393	20789
483.469	20101
483.546	18294
483.623	16976
483.699	16125
483.776	16671
483.853	16206
483.930	16066
484.006	16782
484.083	21273
484.160	22279
484.236	27497
484.313	24251
484.389	24050
484.466	26108
484.543	28642
484.619	32553
484.696	31871
484.772	25606
484.849	22310
484.925	20298
485.002	20139
485.078	19867
485.155	18598
485.231	17602
485.308	17565
485.384	18196
485.461	18285
485.537	18162
485.614	19487
485.690	17679
485.766	18189
485.843	17351
485.919	18281
485.995	17214
486.072	18371
486.148	17311
486.224	18137
486.301	16829
486.377	17577
486.453	17054
486.530	19743
486.606	20257
486.682	20505
486.758	21225
486.835	21348
486.911	21499
486.987	25292
487.063	25674
487.139	28695
487.215	29675
487.292	31853
487.368	32214
487.444	40013
487.520	53878
487.596	82796
487.672	193159
487.748	463676
487.824	650002
487.900	323225
487.976	112464
488.052	60842
488.128	43839
488.204	32910
488.280	29118
488.356	26057
488.432	25730
488.508	25075
488.584	21300
488.660	19575
488.736	19292
488.812	18740
488.888	19347
488.964	18795
489.039	21059
489.115	23056
489.191	21307
489.267	18366
489.343	17744
489.418	17530
489.494	17924
489.570	15860
489.646	18126
489.722	16510
489.797	16494
489.873	19254
489.949	20406
490.024	18684
490.100	17588
490.176	17781
490.251	17753
490.327	17671
490.403	17401
490.478	17378
490.554	16938
490.629	17005
490.705	16663
490.781	16403
490.856	16358
490.932	16445
491.007	15606
491.083	15375
491.158	15164
491.234	16050
491.309	17576
491.385	16764
491.460	15274
491.536	16850
491.611	15204
491.686	15330
491.762	15694
491.837	17285
491.913	19429
491.988	20299
492.063	20752
492.139	16431
492.214	14959
492.289	15230
492.365	14369
492.440	15827
492.515	14389
492.590	14264
492.666	14989
492.741	15283
492.816	15579
492.891	13882
492.967	15043
493.042	14494
493.117	14458
493.192	15936
493.267	18464
493.342	29032
493.418	34378
493.493	16425
493.568	13703
493.643	13771
493.718	14333
493.793	14248
493.868	14230
493.943	14404
494.018	14186
494.093	14216
494.168	13993
494.243	13777
494.318	13704
494.393	14552
494.468	13855
494.543	14391
494.618	13378
494.693	13913
494.768	13672
494.842	14587
494.917	13996
494.992	14108
495.067	14082
495.142	14157
495.217	13781
495.292	13411
495.366	13674
495.441	12773
495.516	14197
495.591	15931
495.665	19796
495.740	26148
495.815	18791
495.890	13967
495.964	11818
496.039	15675
496.114	16196
496.188	20035
496.263	17696
496.338	13692
496.412	13617
496.487	15327
496.561	15185
496.636	14758
496.710	13625
496.785	14555
496.860	15013
496.934	13181
497.009	13895
497.083	13752
497.158	14260
497.232	14091
497.307	13763
497.381	12977
497.455	13934
497.530	14583
497.604	13508
497.679	13742
497.753	14403
497.827	14805
497.902	13053
497.976	14950
498.050	21510
498.125	39313
498.199	38855
498.273	15359
498.348	14678
498.422	14130
498.496	13939
498.570	14522
498.645	14382
498.719	12085
498.793	14383
498.867	14720
498.941	15491
499.016	24379
499.090	39239
499.164	21264
499.238	14909
499.312	13686
499.386	15166
499.460	15127
499.534	13995
499.609	14517
499.683	14317
499.757	15194
499.831	18235
499.905	30941
499.979	30617
500.053	14919
500.127	15782
500.201	14046
500.275	14440
500.349	13272
500.422	13249
500.496	15510
500.570	17602
500.644	23962
500.718	30381
500.792	17751
500.866	15948
500.940	15153
501.013	14488
501.087	14786
501.161	15553
501.235	15569
501.309	21454
501.382	29229
501.456	28030
501.530	16786
501.603	16467
501.677	16000
501.751	12515
501.825	16021
501.898	16403
501.972	18246
502.046	16759
502.119	13654
502.193	16860
502.266	18899
502.340	16125
502.413	16115
502.487	18614
502.561	16198
502.634	14719
502.708	15228
502.781	13564
502.855	16029
502.928	14548
503.002	15204
503.075	14745
503.149	15244
503.222	15724
503.295	16020
503.369	17181
503.442	18976
503.516	23949
503.589	31267
503.662	29852
503.736	29107
503.809	38286
503.882	46882
503.956	71865
504.029	141667
504.102	315435
504.175	429143
504.249	225274
504.322	100366
504.395	56956
504.468	39342
504.542	29824
504.615	24930
504.688	22198
504.761	18284
504.834	19308
504.907	17143
504.980	17065
505.053	15666
505.127	13071
505.200	17776
505.273	13842
505.346	13474
505.419	13717
505.492	15090
505.565	13296
505.638	13641
505.711	12031
505.784	12060
505.857	12015
505.930	14727
506.003	12403
506.076	14128
506.149	12040
506.221	11256
506.294	13812
506.367	14102
506.440	18898
506.513	16707
506.586	12223
506.659	11694
506.731	11964
506.804	11165
506.877	11150
506.950	12271
507.022	12539
507.095	10948
507.168	12658
507.241	12852
507.313	11767
507.386	11500
507.459	12830
507.531	11456
507.604	11059
507.677	12253
507.749	11189
507.822	13711
507.894	13044
507.967	16670
508.040	13780
508.112	13893
508.185	13629
508.257	12064
508.330	14477
508.402	13020
508.475	12272
508.547	13669
508.620	12760
508.692	13076
508.765	13133
508.837	12183
508.909	12817
508.982	12458
509.054	13352
509.127	12187
509.199	12627
509.271	11505
509.344	11807
509.416	12680
509.488	12727
509.560	12795
509.633	12701
509.705	12391
509.777	12623
509.849	14590
509.922	12514
509.994	13453
510.066	13938
510.138	11982
510.210	18224
510.283	14864
510.355	14080
510.427	14543
510.499	13863
510.571	13965
510.643	12355
510.715	14916
510.787	11509
510.859	13629
510.931	13210
511.003	14137
511.076	14480
511.148	12782
511.219	12679
511.291	14410
511.363	14064
511.435	14263
511.507	12533
511.579	13286
511.651	14250
511.723	13746
511.795	13193
511.867	12638
511.939	13428
512.010	13719
512.082	14057
512.154	11959
512.226	14008
512.298	14967
512.369	16350
512.441	14996
512.513	14716
512.585	12618
512.656	14225
512.728	13258
512.800	13194
512.871	13432
512.943	13468
513.015	11780
513.086	13093
513.158	13982
513.230	12575
513.301	13137
513.373	15011
513.444	12842
513.516	12986
513.588	12938
513.659	13235
513.731	13377
513.802	11893
513.874	16510
513.945	14635
514.016	12238
514.088	14503
514.159	11578
514.231	14837
514.302	15936
514.374	14456
514.445	12705
514.516	16772
514.588	13264
514.659	13819
514.730	13746
514.802	15195
514.873	11992
514.944	15957
515.016	13833
515.087	13493
515.158	13391
515.229	15629
515.301	12649
515.372	14105
515.443	13563
515.514	14176
515.585	13041
515.656	13459
515.728	14919
515.799	13373
515.870	14307
515.941	14222
516.012	14032
516.083	15764
516.154	15116
516.225	16084
516.296	16836
516.367	15011
516.438	15675
516.509	17107
516.580	20698
516.651	37529
516.722	80454
516.793	44806
516.864	19676
516.935	17702
517.006	19928
517.077	21399
517.148	37602
517.219	111336
517.289	163489
517.360	41936
517.431	22740
517.502	17379
517.573	18881
517.643	18719
517.714	19024
517.785	20264
517.856	20780
517.926	23535
517.997	24909
518.068	26095
518.138	33061
518.209	41116
518.280	105007
518.350	264676
518.421	136723
518.492	57906
518.562	66466
518.633	88119
518.703	145244
518.774	305772
518.845	595692
518.915	531470
518.986	214480
519.056	101418
519.127	64003
519.197	50527
519.268	44207
519.338	35783
519.408	27901
519.479	24611
519.549	21847
519.620	21199
519.690	18762
519.760	18637
519.831	18904
519.901	17233
519.971	18043
520.042	17099
520.112	17470
520.182	17018
520.253	16434
520.323	15446
520.393	16439
520.463	20250
520.534	14732
520.604	21478
520.674	17339
520.744	16105
520.814	19621
520.885	19732
520.955	17766
521.025	25568
521.095	18384
521.165	16934
521.235	14999
521.305	13458
521.375	16029
521.445	15863
521.515	14324
521.585	16731
521.655	14293
521.725	15931
521.795	16231
521.865	13560
521.935	17869
522.005	15156
522.075	15210
522.145	15547
522.215	15959
522.285	16785
522.355	15867
522.424	18177
522.494	15977
522.564	16335
522.634	17646
522.704	23550
522.774	16937
522.843	16528
522.913	16319
522.983	16312
523.053	16242
523.122	17880
523.192	16080
523.262	18617
523.331	18294
523.401	16377
523.471	16608
523.540	16887
523.610	16168
523.680	16894
523.749	17813
523.819	18655
523.888	17310
523.958	16734
524.027	16726
524.097	17266
524.166	16547
524.236	15303
524.305	20062
524.375	15902
524.444	16637
524.514	19433
524.583	17208
524.653	16589
524.722	18998
524.791	17197
524.861	20900
524.930	17005
524.999	18411
525.069	20685
525.138	19601
525.207	21018
525.277	21454
525.346	23095
525.415	25732
525.484	27317
525.554	29387
525.623	33310
525.692	40563
525.761	45571
525.830	53276
525.900	67769
525.969	112254
526.038	217533
526.107	424778
526.176	947732
526.245	730901
526.314	294331
526.383	539239
526.452	703339
526.522	842820
526.591	713403
526.660	199536
526.729	110129
526.797	113305
526.867	172976
526.935	453870
527.004	1052553
527.073	701880
527.142	192324
527.211	86640
527.280	56612
527.349	43856
527.418	34188
527.487	33221
527.555	26241
527.624	25623
527.693	23668
527.762	24642
527.831	20639
527.899	22825
527.968	21048
528.037	19045
528.106	22020
528.174	21777
528.243	20283
528.312	20442
528.380	20092
528.449	18485
528.518	20682
528.586	17600
528.655	19304
528.723	19099
528.792	19848
528.861	19626
528.929	17376
528.998	20235
529.066	21057
529.135	26767
529.203	25727
529.272	29231
529.340	34488
529.409	32791
529.477	29956
529.545	28824
529.614	32927
529.682	34735
529.751	36980
529.819	40834
529.887	42715
529.956	39632
530.024	38282
530.092	37182
530.161	36959
530.229	37439
530.297	40232
530.365	40294
530.434	41181
530.502	42191
530.570	38341
530.638	35009
530.707	35306
530.775	34760
530.843	34585
530.911	38342
530.979	38075
531.047	41434
531.115	39700
531.183	36633
531.252	36278
531.320	35967
531.388	34578
531.456	39340
531.524	38830
531.592	42519
531.660	44807
531.728	41631
531.796	40298
531.864	41453
531.932	39406
532.000	39801
532.067	43031
532.135	45390
532.203	47463
532.271	50345
532.339	51148
532.407	51278
532.475	49145
532.542	46741
532.610	46932
532.678	47042
532.746	55818
532.814	67129
532.881	53669
532.949	48936
533.017	45745
533.084	44907
533.152	43531
533.220	44387
533.287	43917
533.355	46142
533.423	46883
533.490	47537
533.558	47332
533.625	46300
533.693	44660
533.761	44500
533.828	45064
533.896	43433
533.963	50116
534.031	51577
534.098	57958
534.166	59389
534.233	56383
534.300	59619
534.368	57587
534.435	55596
534.503	57544
534.570	60396
534.637	64817
534.705	69122
534.772	81630
534.840	151987
534.907	484186
534.974	511838
535.041	115106
535.109	64855
535.176	55719
535.243	52824
535.310	52450
535.378	51717
535.445	50838
535.512	50189
535.579	48609
535.646	47495
535.714	48960
535.781	50811
535.848	52086
535.915	52407
535.982	51995
536.049	51417
536.116	51205
536.183	47288
536.250	47212
536.317	47036
536.384	48656
536.451	50340
536.518	50483
536.585	49095
536.652	52275
536.719	51808
536.786	46333
536.853	45886
536.920	48220
536.987	48317
537.053	47148
537.120	54715
537.187	54685
537.254	51750
537.321	51285
537.388	51225
537.454	47892
537.521	49829
537.588	48586
537.654	49995
537.721	52031
537.788	51497
537.855	50176
537.921	50092
537.988	49881
538.055	46833
538.121	45545
538.188	44095
538.254	42572
538.321	43737
538.388	47164
538.454	53062
538.521	54536
538.587	52285
538.654	51724
538.720	49706
538.787	49940
538.853	49278
538.920	47464
538.986	44374
539.053	43203
539.119	45599
539.185	46204
539.252	49545
539.318	50131
539.385	55461
539.451	50592
539.517	49639
539.583	49927
539.650	50752
539.716	51891
539.782	47712
539.849	46481
539.915	47258
539.981	46313
540.047	46621
540.114	45704
540.180	48680
540.246	51299
540.312	53296
540.378	50560
540.444	50828
540.510	52957
540.576	56989
540.643	48676
540.709	46562
540.775	48612
540.841	47579
540.907	47499
540.973	48062
541.039	48972
541.105	50430
541.171	50936
541.237	52545
541.303	51389
541.369	53239
541.435	52039
541.500	50098
541.566	46328
541.632	46733
541.698	47440
541.764	51206
541.830	48784
541.896	47059
541.961	48131
542.027	47797
542.093	53130
542.159	53905
542.224	48717
542.290	51663
542.356	49809
542.421	48490
542.487	45951
542.553	45353
542.618	47124
542.684	47689
542.750	48901
542.815	50561
542.881	50794
542.947	56475
543.012	53589
543.078	48326
543.143	46482
543.209	48240
543.274	46195
543.340	47365
543.405	50117
543.471	52521
543.536	50849
543.602	50280
543.667	48664
543.732	51341
543.798	50270
543.863	52373
543.928	50530
543.994	49896
544.059	51066
544.124	53248
544.190	52900
544.255	54341
544.320	53717
544.386	54254
544.451	55960
544.516	54658
544.581	55871
544.646	59449
544.712	61647
544.777	57297
544.842	56577
544.907	56124
544.972	57328
545.037	58871
545.102	60439
545.168	60884
545.233	61636
545.298	63007
545.363	62873
545.428	66108
545.493	68179
545.558	68414
545.623	65202
545.688	65485
545.753	67409
545.818	70604
545.883	74449
545.947	74683
546.012	76939
546.077	78759
546.142	82889
546.207	85474
546.272	90032
546.337	91833
546.401	94203
546.466	98240
546.531	101497
546.596	110168
546.661	113723
546.725	116414
546.790	123791
546.855	136022
546.919	145760
546.984	160361
547.049	168352
547.113	191876
547.178	211429
547.243	234924
547.307	266522
547.372	290938
547.436	290737
547.501	306640
547.565	321748
547.630	298269
547.695	288143
547.759	291372
547.823	295501
547.888	301542
547.952	306584
548.017	317831
548.081	324977
548.146	320685
548.210	328017
548.274	353101
548.339	341888
548.403	315832
548.468	301736
548.532	302148
548.596	308044
548.660	312504
548.725	332464
548.789	356893
548.853	342895
548.917	333980
548.982	322438
549.046	295532
549.110	272345
549.174	283138
549.238	328004
549.303	349543
549.367	353470
549.431	340340
549.495	323613
549.559	326061
549.623	367234
549.687	388518
549.751	387497
549.815	447081
549.879	445651
549.943	436998
550.007	456380
550.071	444520
550.135	411828
550.199	398501
550.263	392591
550.327	375978
550.391	387953
550.455	421997
550.519	437309
550.582	461262
550.646	504952
550.710	505042
550.774	504504
550.838	510236
550.901	523516
550.965	545905
551.029	569758
551.093	603607
551.156	643874
551.220	686833
551.284	684059
551.347	596031
551.411	549149
551.475	531781
551.538	539012
551.602	508257
551.666	489551
551.729	470450
551.793	465436
551.856	456810
551.920	451181
551.983	450541
552.047	447739
552.110	449919
552.174	454062
552.237	461240
552.301	436020
552.364	421041
552.428	413604
552.491	425589
552.554	429809
552.618	429703
552.681	434102
552.745	418103
552.808	432482
552.871	446576
552.934	441825
552.998	428500
553.061	424258
553.124	411414
553.187	412561
553.251	423831
553.314	422475
553.377	429489
553.440	449891
553.503	476354
553.567	481465
553.630	458223
553.693	453545
553.756	457003
553.819	451040
553.882	437549
553.945	441712
554.008	441145
554.071	444423
554.134	442472
554.197	425587
554.260	419636
554.323	424274
554.386	429934
554.449	443646
554.512	441435
554.575	425675
554.638	426909
554.701	423367
554.764	421694
554.827	411634
554.889	397537
554.952	383366
555.015	377438
555.078	381033
555.141	386380
555.203	379681
555.266	380000
555.329	375591
555.391	362871
555.454	359250
555.517	348410
555.580	338648
555.642	330905
555.705	327358
555.768	324859
555.830	315124
555.893	304393
555.955	295977
556.018	291011
556.080	293760
556.143	298477
556.206	294231
556.268	289848
556.330	284080
556.393	275764
556.455	271334
556.518	266114
556.580	257853
556.643	250699
556.705	246677
556.767	244604
556.830	239416
556.892	236255
556.955	231255
557.017	227329
557.079	225456
557.142	220211
557.204	215969
557.266	216637
557.328	205914
557.391	195791
557.453	190077
557.515	189054
557.577	190628
557.639	188960
557.701	188395
557.764	187487
557.826	186452
557.888	187074
557.950	190339
558.012	200659
558.074	243393
558.136	446873
558.198	756995
558.260	341156
558.322	200769
558.384	191339
558.446	191581
558.508	198540
558.570	209528
558.632	233219
558.694	286283
558.756	455722
558.818	978096
558.880	1357294
558.942	866385
559.003	843707
559.065	440857
559.127	235033
559.189	214290
559.251	228303
559.312	305708
559.374	623335
559.436	1151997
559.498	665670
559.559	271174
559.621	213425
559.683	228464
559.744	345092
559.806	801661
559.868	895259
559.929	333739
559.991	233268
560.052	358335
560.114	740718
560.176	488813
560.237	521533
560.299	645121
560.360	206065
560.422	117979
560.483	103934
560.545	99053
560.606	95306
560.667	92019
560.729	89445
560.790	85846
560.852	83924
560.913	80277
560.974	79130
561.036	79436
561.097	79400
561.158	78370
561.220	76659
561.281	73371
561.342	72639
561.403	73860
561.465	73153
561.526	74417
561.587	74444
561.648	68291
561.709	68694
561.771	68244
561.832	65645
561.893	65140
561.954	65121
562.015	64173
562.076	62688
562.137	61458
562.198	63173
562.259	62296
562.320	63636
562.381	62402
562.442	62293
562.503	61016
562.564	59369
562.625	58215
562.686	58185
562.747	56443
562.808	57438
562.869	56346
562.930	56652
562.991	54540
563.051	54223
563.112	55290
563.173	55084
563.234	54660
563.294	54121
563.355	52124
563.416	53028
563.477	52383
563.537	52318
563.598	51790
563.659	52026
563.720	50819
563.780	51627
563.841	51708
563.901	51637
563.962	51378
564.023	50327
564.083	49716
564.144	49751
564.204	48945
564.265	49687
564.325	50200
564.386	50083
564.446	48736
564.507	48468
564.567	47559
564.628	47495
564.688	47190
564.749	45666
564.809	47080
564.869	48768
564.930	47054
564.990	47663
565.050	46073
565.111	46577
565.171	47028
565.231	46894
565.292	46645
565.352	46405
565.412	47051
565.472	46555
565.532	45976
565.593	46073
565.653	46589
565.713	45874
565.773	47821
565.833	48390
565.893	47628
565.953	44385
566.013	44272
566.074	44043
566.134	44663
566.194	43448
566.254	42372
566.314	43883
566.374	43739
566.434	43691
566.494	43755
566.554	44149
566.614	45312
566.673	45271
566.733	46509
566.793	47004
566.853	45153
566.913	45110
566.973	44126
567.033	46958
567.092	45022
567.152	45485
567.212	44690
567.272	45694
567.331	46022
567.391	46469
567.451	48484
567.511	47978
567.570	47089
567.630	47612
567.690	44717
567.749	45313
567.809	45888
567.868	44424
567.928	44697
567.988	44628
568.047	46664
568.107	45022
568.166	45038
568.226	44495
568.285	46022
568.345	46583
568.404	46196
568.464	46263
568.523	46698
568.582	45440
568.642	44821
568.701	44309
568.761	42450
568.820	42784
568.879	44406
568.939	46474
568.998	46051
569.057	43708
569.116	44382
569.176	44893
569.235	44316
569.294	43858
569.353	43388
569.413	42847
569.472	42288
569.531	42505
569.590	41298
569.649	43019
569.708	42061
569.767	43843
569.827	42187
569.886	43172
569.945	41748
570.004	43817
570.063	42920
570.122	43809
570.181	43685
570.240	44806
570.299	45647
570.358	44126
570.417	45454
570.475	45436
570.534	45442
570.593	45328
570.652	45905
570.711	46151
570.770	44318
570.829	43909
570.887	43639
570.946	45817
571.005	45258
571.064	45097
571.122	45008
571.181	44541
571.240	44211
571.299	42536
571.357	41886
571.416	42683
571.475	41748
571.533	45820
571.592	46358
571.650	46569
571.709	47886
571.768	50231
571.826	50954
571.885	49602
571.943	46187
572.002	44675
572.060	43598
572.119	43104
572.177	42852
572.236	43193
572.294	44213
572.352	46760
572.411	45601
572.469	44815
572.528	43516
572.586	41896
572.644	42515
572.703	41756
572.761	41222
572.819	40760
572.877	38719
572.936	39959
572.994	39390
573.052	39749
573.110	39199
573.169	42222
573.227	41452
573.285	41197
573.343	40560
573.401	40691
573.459	39679
573.517	40311
573.576	41833
573.634	42252
573.692	40848
573.750	41164
573.808	40396
573.866	40289
573.924	38864
573.982	39622
574.040	38712
574.098	38871
574.155	37171
574.213	37041
574.271	38040
574.329	40822
574.387	39032
574.445	36580
574.503	37503
574.560	36580
574.618	36216
574.676	36609
574.734	36712
574.792	35489
574.849	34068
574.907	32977
574.965	31699
575.022	32075
575.080	30972
575.138	30965
575.195	31734
575.253	31084
575.311	30783
575.368	31761
575.426	29591
575.483	31065
575.541	33071
575.598	30893
575.656	31191
575.713	31692
575.771	32393
575.828	32280
575.886	30592
575.943	29626
576.001	29706
576.058	29153
576.115	29427
576.173	29427
576.230	30644
576.287	31679
576.345	30823
576.402	31788
576.459	30233
576.517	29108
576.574	28890
576.631	28829
576.688	28837
576.746	29076
576.803	27390
576.860	28716
576.917	29748
576.974	29147
577.031	28852
577.089	29849
577.146	27626
577.203	26899
577.260	27024
577.317	26779
577.374	28329
577.431	27219
577.488	26889
577.545	27342
577.602	27558
577.659	27048
577.716	28048
577.773	29721
577.830	28526
577.886	27232
577.943	27247
578.000	27342
578.057	27185
578.114	29021
578.171	29880
578.227	32407
578.284	30926
578.341	30561
578.398	28419
578.454	29067
578.511	27195
578.568	28785
578.625	27264
578.681	27273
578.738	27422
578.794	28373
578.851	27377
578.908	27875
578.964	27168
579.021	28075
579.077	27496
579.134	26946
579.190	28026
579.247	27420
579.303	27465
579.360	27492
579.416	27160
579.473	27848
579.529	27951
579.586	28575
579.642	28344
579.698	27767
579.755	28014
579.811	28624
579.867	28487
579.924	29224
579.980	29339
580.036	31433
580.093	33610
580.149	39367
580.205	38751
580.261	34596
580.317	33757
580.374	32650
580.430	32225
580.486	30838
580.542	29285
580.598	30290
580.619	30291
580.654	30330
580.692	31015
580.710	31412
580.765	30008
580.767	29999
580.823	31320
580.838	31064
580.879	30499
580.911	30881
580.935	31233
580.984	30334
580.991	30247
581.047	31322
581.057	31324
581.103	31511
581.130	31759
581.159	32087
581.203	31953
581.215	31954
581.270	31070
581.276	30920
581.326	29790
581.349	30109
581.382	30642
581.422	30667
581.438	30702
581.494	29723
581.494	29693
581.550	29114
581.567	29061
581.606	29083
581.640	28969
581.661	28906
581.713	30191
581.717	30316
581.773	29293
581.786	29648
581.829	30873
581.859	30139
581.885	29583
581.932	30301
581.940	30451
581.996	30231
582.004	30232
582.052	30284
582.077	30003
582.107	29736
582.150	29523
582.163	29444
582.219	29652
582.223	29597
582.274	29193
582.296	29226
582.330	29420
582.368	29812
582.386	29977
582.441	30872
582.441	30882
582.497	29646
582.514	29869
582.552	30643
582.587	31112
582.608	31280
582.659	30586
582.663	30560
582.719	31120
582.732	31078
582.774	30912
582.805	31379
582.830	31856
582.877	32255
582.885	32306
582.941	32850
582.950	33231
582.996	35334
583.023	36266
583.052	37252
583.095	37076
583.107	37046
583.162	37174
583.168	37260
583.218	37748
583.240	35981
583.273	33374
583.313	32504
583.328	32208
583.384	32612
583.385	32538
583.439	30146
583.458	30310
583.494	30800
583.531	30040
583.549	29788
583.603	30085
583.605	30075
583.660	30331
583.676	30364
583.715	30665
583.748	30222
583.770	29837
583.820	30208
583.825	30246
583.881	30235
583.893	29944
583.936	29096
583.965	29198
583.991	29240
584.038	30662
584.046	30879
584.101	30372
584.110	30388
584.156	30497
584.183	30694
584.211	30877
584.255	31015
584.266	31130
584.321	31243
584.328	31346
584.376	31866
584.400	32394
584.431	33120
584.472	33444
584.486	33445
584.541	33009
584.545	33062
584.596	34390
584.617	34475
584.651	34630
584.689	35801
584.706	36096
584.761	36580
584.762	36591
584.816	37122
584.834	37277
584.871	37718
584.906	39015
584.926	39604
584.978	40653
584.980	40714
585.035	43484
585.051	44186
585.090	46168
585.123	47959
585.145	49444
585.195	53428
585.200	53898
585.254	60039
585.267	61861
585.309	68393
585.340	73718
585.364	78909
585.412	91096
585.419	93322
585.473	115489
585.484	121723
585.528	157877
585.556	194195
585.583	258624
585.628	404426
585.637	457647
585.692	873633
585.700	924953
585.747	1069412
585.772	1000451
585.801	720171
585.845	341450
585.856	291721
585.910	150998
585.917	137310
585.965	102542
585.989	89091
586.019	79915
586.061	70370
586.074	68159
586.128	60664
586.133	60099
586.183	56211
586.205	55041
586.237	53754
586.277	52417
586.292	52019
586.346	49931
586.349	49874
586.401	48989
586.421	48797
586.455	48559
586.493	48052
586.509	48306
586.564	49432
586.565	49496
586.618	53584
586.637	54978
586.672	58578
586.709	63595
586.727	66091
586.781	72378
586.781	72381
586.835	61913
586.853	58568
586.889	52517
586.925	48174
586.944	47212
586.996	46490
586.998	46483
587.052	45583
587.068	45542
587.106	45976
587.140	45863
587.161	45624
587.212	46240
587.215	46285
587.269	45962
587.284	46293
587.323	47193
587.356	47970
587.377	48452
587.427	48804
587.431	48829
587.485	49524
587.499	49635
587.539	50182
587.571	51293
587.593	52425
587.643	54599
587.648	54659
587.702	54526
587.715	54536
587.755	54724
587.786	54581
587.810	54649
587.858	56092
587.864	56230
587.917	56335
587.930	56339
587.971	55884
588.001	55725
588.025	55861
588.073	56486
588.079	56556
588.133	55944
588.145	56025
588.187	56039
588.217	56046
588.241	56794
588.288	58313
588.295	58493
588.348	60692
588.360	60825
588.402	60792
588.431	61078
588.456	61649
588.503	63304
588.510	63681
588.564	66297
588.575	66902
588.617	69394
588.646	71327
588.671	73924
588.718	79838
588.725	81283
588.778	93248
588.789	96837
588.832	130507
588.861	157756
588.886	212797
588.932	333685
588.939	345319
588.993	400910
589.004	400770
589.047	238394
589.075	144175
589.100	118348
589.147	81333
589.154	80303
589.207	73775
589.218	72723
589.261	73858
589.290	74968
589.314	76841
589.361	81079
589.368	82939
589.421	100683
589.433	105355
589.475	157482
589.504	200181
589.528	256674
589.576	361848
589.582	351087
589.635	203115
589.647	174611
589.689	112733
589.718	74657
589.742	70707
589.790	63861
589.795	63802
589.849	63066
589.861	62996
589.902	62469
589.932	61816
589.955	60852
590.004	58838
590.009	58745
590.062	57847
590.075	57594
590.115	57931
590.146	58283
590.168	58403
590.218	58380
590.222	58410
590.275	59234
590.289	59366
590.328	60622
590.360	61494
590.381	61520
590.431	61752
590.435	61813
590.488	62170
590.503	62453
590.541	63239
590.574	63518
590.594	63883
590.645	65464
590.647	65574
590.700	67666
590.716	68398
590.753	69947
590.787	71279
590.806	71560
590.859	72129
590.859	72159
590.912	72968
590.930	73215
590.965	73414
591.001	73678
591.018	73834
591.071	74053
591.072	74032
591.124	72972
591.143	72689
591.177	73023
591.214	73303
591.230	73697
591.283	75019
591.285	75036
591.336	73416
591.356	72721
591.389	73316
591.427	74015
591.442	73891
591.495	73293
591.498	73225
591.547	73490
591.569	73650
591.600	74568
591.640	75660
591.653	75915
591.706	76772
591.711	76850
591.759	78676
591.782	79647
591.811	81167
591.853	83137
591.864	82926
591.917	81627
591.924	81403
591.969	81886
591.995	82165
592.022	82520
592.066	83078
592.075	83700
592.127	87361
592.137	87990
592.180	88842
592.208	89291
592.233	89436
592.279	89724
592.285	90095
592.338	92899
592.350	93489
592.390	92067
592.421	90920
592.443	92131
592.491	94769
592.495	94922
592.548	96447
592.562	96822
592.600	96583
592.633	96309
592.653	95762
592.704	93705
592.705	94312
592.775	98099
592.846	100749
592.916	100866
592.987	101035
593.058	102839
593.128	104594
593.199	104479
593.270	105642
593.341	106515
593.411	109881
593.482	112072
593.553	117231
593.623	119006
593.694	121388
593.764	124662
593.835	123074
593.906	121661
593.976	126695
594.047	128982
594.117	135112
594.188	138385
594.258	137319
594.329	139270
594.399	141082
594.470	144836
594.540	149337
594.611	151845
594.681	150635
594.751	152469
594.822	158660
594.892	161438
594.963	169415
595.033	171441
595.103	177627
595.174	179520
595.244	183325
595.314	190540
595.384	191505
595.455	196936
595.525	204584
595.595	209003
595.665	205640
595.736	204595
595.806	208602
595.876	211363
595.946	214166
596.016	220978
596.087	228078
596.157	227892
596.227	231404
596.297	242325
596.367	255052
596.437	270826
596.507	266763
596.577	269394
596.647	275314
596.717	289504
596.787	291939
596.857	290386
596.927	295126
596.997	293178
597.067	297287
597.137	303473
597.207	304495
597.277	305790
597.347	292160
597.417	287518
597.487	285416
597.557	292363
597.626	295986
597.696	299969
597.766	297691
597.836	285162
597.906	271435
597.975	267273
598.045	272723
598.115	283993
598.185	301641
598.254	332218
598.324	354978
598.394	360245
598.464	351919
598.533	344592
598.603	325382
598.672	318098
598.742	325100
598.812	326708
598.881	334548
598.951	332936
599.020	336431
599.090	348018
599.159	350797
599.229	338358
599.299	333631
599.368	340821
599.437	338575
599.507	314247
599.576	304374
599.646	299297
599.715	296769
599.785	292904
599.854	287238
599.924	286641
599.993	282922
600.062	289625
600.132	297018
600.201	311280
600.270	351933
600.340	370437
600.409	364727
600.478	359081
600.547	364172
600.617	333743
600.686	278296
600.755	256000
600.824	243750
600.894	238807
600.963	239122
601.032	237455
601.101	229392
601.170	220611
601.239	216941
601.308	218079
601.378	217396
601.447	219923
601.516	220519
601.585	223968
601.654	226718
601.723	227541
601.792	236769
601.861	240910
601.930	250048
601.999	253273
602.068	251002
602.137	254201
602.206	256134
602.275	262509
602.343	262592
602.412	263962
602.481	267715
602.550	268960
602.619	276352
602.688	278456
602.756	281859
602.825	282600
602.894	290278
602.963	294423
603.032	297161
603.100	298997
603.169	297644
603.238	301119
603.307	300860
603.375	303201
603.444	308310
603.513	311473
603.581	314113
603.650	321318
603.719	310216
603.787	316166
603.856	321794
603.924	331299
603.993	340515
604.061	350139
604.130	363859
604.198	371250
604.267	375440
604.335	381639
604.404	383935
604.472	392491
604.541	394830
604.609	397746
604.678	400062
604.746	403295
604.815	415352
604.883	418068
604.951	413532
605.020	423876
605.088	423679
605.156	428669
605.225	436878
605.293	432012
605.361	440217
605.429	440672
605.498	453430
605.566	457898
605.634	475871
605.702	490234
605.771	499420
605.839	503741
605.907	489030
605.975	475474
606.043	469748
606.111	466316
606.180	470210
606.248	461452
606.316	456647
606.384	458311
606.452	452864
606.520	456477
606.588	472820
606.656	474430
606.724	461593
606.792	437792
606.860	400621
606.928	372803
606.996	360765
607.064	355388
607.132	363888
607.200	381699
607.267	393513
607.335	399087
607.403	406955
607.471	394705
607.539	381906
607.607	384223
607.674	346019
607.742	345005
607.810	341702
607.878	343516
607.946	352129
608.013	366991
608.081	370716
608.149	372795
608.216	387667
608.284	396429
608.352	395834
608.419	393991
608.487	387290
608.555	380326
608.622	392236
608.690	412913
608.757	446868
608.825	455162
608.893	444417
608.960	421683
609.028	403960
609.095	405641
609.163	402669
609.230	365370
609.298	340400
609.365	359136
609.432	383987
609.500	413462
609.567	461337
609.635	514533
609.702	532761
609.769	507464
609.837	415280
609.904	375839
609.971	394706
610.039	437335
610.106	529330
610.173	840268
610.241	1546631
610.308	1065023
610.375	509495
610.442	412784
610.509	388405
610.577	384729
610.644	386851
610.711	398953
610.778	405604
610.845	420438
610.912	439222
610.980	457289
611.047	460156
611.114	448681
611.181	435342
611.248	434372
611.315	456204
611.382	466209
611.449	481815
611.516	485044
611.583	480874
611.650	487261
611.717	494419
611.784	508138
611.851	529780
611.918	565128
611.984	639929
612.051	805001
612.118	1243398
612.185	2109793
612.252	1662504
612.319	812946
612.386	651446
612.452	585666
612.519	548691
612.586	541604
612.653	538322
612.719	553193
612.786	532748
612.853	500164
612.919	489246
612.986	493681
613.053	470290
613.120	446765
613.186	433262
613.253	436487
613.319	437098
613.386	439782
613.453	443190
613.519	443738
613.586	435515
613.652	441953
613.719	437718
613.785	446253
613.852	449064
613.918	446793
613.985	450764
614.051	469325
614.118	469875
614.184	453051
614.250	445399
614.317	455553
614.383	448322
614.449	455628
614.516	451981
614.582	455282
614.648	447576
614.715	443236
614.781	438516
614.847	436379
614.914	434744
614.980	423815
615.046	425774
615.112	439036
615.179	437461
615.245	443153
615.311	437340
615.377	443396
615.443	450458
615.509	452978
615.575	470205
615.642	470192
615.708	480773
615.774	506945
615.840	536922
615.906	576098
615.972	672125
616.038	890761
616.104	1440361
616.170	2281712
616.236	2075515
616.302	1095112
616.368	854077
616.434	656360
616.500	592560
616.565	637493
616.631	781189
616.697	686088
616.763	681149
616.829	921484
616.895	1453940
616.961	1422803
617.026	768054
617.092	535813
617.158	484362
617.224	461989
617.289	429567
617.355	408326
617.421	404211
617.487	401158
617.552	384720
617.618	380810
617.684	380625
617.749	381806
617.815	366738
617.880	360260
617.946	357773
618.012	362377
618.077	372484
618.143	358129
618.208	359235
618.274	380464
618.339	380293
618.405	325113
618.470	324647
618.536	322284
618.601	317070
618.667	299884
618.732	287049
618.798	285129
618.863	284597
618.928	284646
618.994	286761
619.059	285312
619.124	290008
619.190	285875
619.255	283947
619.320	283824
619.386	285560
619.451	284242
619.516	273439
619.581	277405
619.647	280923
619.712	283235
619.777	268963
619.842	272865
619.907	275586
619.972	279718
620.038	276784
620.103	271646
620.168	272574
620.233	276314
620.298	275862
620.363	281104
620.428	288271
620.493	292842
620.558	296575
620.623	298595
620.688	298890
620.753	296595
620.818	300254
620.883	301400
620.948	301776
621.013	298200
621.078	294726
621.143	298569
621.207	300075
621.272	295245
621.337	287564
621.402	284218
621.467	283180
621.532	282379
621.596	283185
621.661	276295
621.726	275785
621.791	277119
621.855	279358
621.920	274833
621.985	282102
622.049	285105
622.114	286285
622.179	287953
622.243	293644
622.308	301413
622.373	313622
622.437	303335
622.502	289987
622.566	288678
622.631	287748
622.695	293538
622.760	291334
622.824	291494
622.889	294290
622.953	292542
623.018	307014
623.082	310964
623.147	306491
623.211	300717
623.276	298176
623.340	288715
623.404	281136
623.469	280806
623.533	283153
623.597	278124
623.662	276916
623.726	260265
623.790	247842
623.854	243108
623.919	245245
623.983	247263
624.047	253182
624.111	254618
624.176	258547
624.240	260387
624.304	265817
624.368	257061
624.432	258511
624.496	265133
624.560	272226
624.625	276358
624.689	272681
624.753	283661
624.817	272262
624.881	264595
624.945	246137
625.009	237541
625.073	242389
625.137	248085
625.201	257425
625.265	258871
625.329	249391
625.393	249406
625.456	253575
625.520	256996
625.584	262145
625.648	268734
625.712	275260
625.776	275795
625.839	263085
625.903	226647
625.967	211714
626.031	223138
626.095	256173
626.158	239918
626.222	193237
626.286	184431
626.349	176987
626.413	167726
626.477	165521
626.540	168645
626.604	165973
626.668	163409
626.731	162691
626.795	164176
626.858	161223
626.922	160650
626.986	157360
627.049	159274
627.113	163595
627.176	159705
627.240	153646
627.303	156644
627.366	152964
627.430	155418
627.493	152591
627.557	150455
627.620	153202
627.684	159727
627.747	158670
627.810	147502
627.874	134263
627.937	130271
628.000	132718
628.064	129801
628.127	119233
628.190	117036
628.253	114231
628.317	109860
628.380	104867
628.443	102548
628.506	101174
628.569	98690
628.632	92651
628.696	93828
628.759	91912
628.822	89603
628.885	87402
628.948	86272
629.011	84467
629.074	81501
629.137	81916
629.200	78433
629.263	77835
629.326	77248
629.389	77489
629.452	76735
629.515	75813
629.578	73413
629.641	75699
629.704	75622
629.767	75312
629.830	72244
629.892	70501
629.955	70296
630.018	72554
630.081	70887
630.144	71407
630.207	69277
630.269	70737
630.332	67189
630.395	66699
630.458	65568
630.520	63719
630.583	65551
630.646	66343
630.708	66181
630.771	67777
630.834	71311
630.896	70264
630.959	68025
631.021	66839
631.084	67526
631.146	67736
631.209	70386
631.272	68078
631.334	70567
631.397	72433
631.459	72421
631.522	75568
631.584	78200
631.646	83965
631.709	85975
631.771	85609
631.834	84552
631.896	79075
631.958	73823
632.021	71536
632.083	66943
632.145	67711
632.208	67505
632.270	65270
632.332	64151
632.395	62393
632.457	65623
632.519	62946
632.581	63442
632.643	62937
632.706	63708
632.768	61150
632.830	62482
632.892	65198
632.954	65084
633.016	65535
633.078	63826
633.141	63440
633.203	64102
633.265	63555
633.327	63367
633.389	63995
633.451	66305
633.513	65089
633.575	66674
633.637	66146
633.698	68339
633.760	71715
633.822	74804
633.884	76104
633.946	79646
634.008	80927
634.070	84437
634.132	90133
634.193	96586
634.255	104519
634.317	106385
634.379	103964
634.441	93399
634.502	85499
634.564	78988
634.626	72454
634.687	68814
634.749	66384
634.811	64603
634.873	64349
634.934	66558
634.996	64616
635.057	64497
635.119	65338
635.181	67573
635.242	67986
635.304	66556
635.365	70114
635.427	67602
635.488	68452
635.550	67498
635.611	69303
635.673	69781
635.734	75713
635.796	77783
635.857	87189
635.918	92479
635.980	102530
636.041	108124
636.102	114379
636.164	115228
636.225	110480
636.286	96341
636.348	86624
636.409	78299
636.470	72549
636.531	69046
636.593	65868
636.654	64123
636.715	61078
636.776	60007
636.838	59353
636.899	57687
636.960	55560
637.021	55824
637.082	54462
637.143	54591
637.204	53235
637.265	53235
637.326	53790
637.387	55960
637.448	53257
637.509	54841
637.570	52721
637.631	53655
637.692	50819
637.753	49932
637.814	50597
637.875	49805
637.936	51730
637.997	49677
638.058	49491
638.119	50380
638.179	50625
638.240	49722
638.301	49884
638.362	47976
638.423	47012
638.483	47772
638.544	45206
638.605	47660
638.666	45578
638.726	47164
638.787	47171
638.848	46344
638.908	45514
638.969	45109
639.030	42797
639.090	43086
639.151	44465
639.211	45927
639.272	45791
639.332	47193
639.393	48543
639.453	50907
639.514	52441
639.574	47106
639.635	43275
639.695	42928
639.756	41289
639.816	41027
639.877	42121
639.937	43373
639.997	43159
640.058	41557
640.118	42714
640.178	43317
640.239	42749
640.299	43999
640.359	43602
640.420	47869
640.480	51711
640.540	58427
640.600	60600
640.661	55587
640.721	50845
640.781	52149
640.841	47567
640.901	44154
640.961	44037
641.021	46264
641.082	48646
641.142	45151
641.202	42574
641.262	38425
641.322	40499
641.382	39839
641.442	41574
641.502	39713
641.562	41897
641.622	41822
641.682	46182
641.742	51875
641.802	48175
641.861	43292
641.921	40042
641.981	39183
642.041	38553
642.101	38054
642.161	37135
642.221	38946
642.280	39053
642.340	37974
642.400	38261
642.460	40231
642.519	39585
642.579	40088
642.639	40409
642.698	38996
642.758	43604
642.818	41103
642.877	40859
642.937	40945
642.997	40596
643.056	41225
643.116	39288
643.175	42533
643.235	43332
643.294	46329
643.354	49096
643.414	54117
643.473	65821
643.532	79084
643.592	102140
643.651	145010
643.711	217674
643.770	374097
643.830	763460
643.889	1302304
643.948	527839
644.008	156408
644.067	90183
644.126	68243
644.186	57214
644.245	51842
644.304	45948
644.363	48153
644.423	44574
644.482	45446
644.541	48520
644.600	51742
644.659	64540
644.719	79680
644.778	110215
644.837	167737
644.896	310764
644.955	653726
645.014	275527
645.073	78468
645.132	57737
645.191	51675
645.250	50631
645.309	53727
645.368	57532
645.427	74323
645.486	120049
645.545	208952
645.604	77968
645.663	46886
645.722	46579
645.781	50967
645.840	59232
645.898	72479
645.957	95825
646.016	134491
646.075	208200
646.134	354866
646.192	789837
646.251	1069754
646.310	312199
646.369	110265
646.427	82478
646.486	63573
646.545	48732
646.603	44309
646.662	42616
646.721	41551
646.779	42673
646.838	47453
646.896	57128
646.955	73662
647.014	105136
647.072	185194
647.131	463729
647.189	271185
647.248	56549
647.306	40968
647.365	36994
647.423	31524
647.481	31213
647.540	29665
647.598	31154
647.657	29139
647.715	31059
647.773	28747
647.832	28848
647.890	27016
647.948	26448
648.007	26702
648.065	24869
648.123	25174
648.181	26832
648.240	26256
648.298	25046
648.356	24889
648.414	25802
648.472	25018
648.531	24706
648.589	23076
648.647	24940
648.705	25052
648.763	25560
648.821	26856
648.879	28213
648.937	33933
648.995	41513
649.053	52402
649.111	72908
649.169	106276
649.227	169698
649.285	324673
649.343	781168
649.401	465503
649.459	94847
649.516	52570
649.574	43395
649.632	48462
649.690	54949
649.748	60525
649.806	80986
649.863	138071
649.921	344161
649.979	271217
650.037	50777
650.094	28201
650.152	25410
650.210	21806
650.268	21986
650.325	20210
650.383	22696
650.440	18368
650.498	18751
650.556	19532
650.613	18037
650.671	18124
650.728	18427
650.786	21135
650.843	29241
650.901	23454
650.958	17244
651.016	16035
651.073	15943
651.131	15611
651.188	14653
651.246	14760
651.303	14229
651.360	15733
651.418	14708
651.475	15112
651.532	14464
651.590	15147
651.647	14161
651.704	14997
651.762	14472
651.819	14581
651.876	14042
651.933	13788
651.990	15104
652.048	11951
652.105	12998
652.162	13404
652.219	12508
652.276	12995
652.333	13474
652.390	11474
652.448	13041
652.505	12898
652.562	11971
652.619	13441
652.676	14295
652.733	14652
652.790	12686
652.847	10770
652.904	12508
652.961	10854
653.017	11224
653.074	12287
653.131	12366
653.188	10951
653.245	11030
653.302	12046
653.359	11743
653.415	12535
653.472	11434
653.529	12460
653.586	11427
653.642	11447
653.699	13265
653.756	11385
653.813	11498
653.869	12919
653.926	12064
653.983	12010
654.039	12138
654.096	11936
654.152	12443
654.209	10969
654.266	11949
654.322	10602
654.379	11317
654.435	12850
654.492	10232
654.548	11135
654.605	11759
654.661	12416
654.717	11345
654.774	11832
654.830	11303
654.887	10814
654.943	11500
655.000	12483
655.056	11732
655.112	11047
655.168	11084
655.225	11173
655.281	13248
655.337	11539
655.394	11290
655.450	11414
655.506	10750
655.562	11174
655.618	11387
655.675	10100
655.731	10803
655.787	10299
655.843	11424
655.899	10331
655.955	11645
656.011	11888
656.067	11564
656.123	12118
656.179	10853
656.235	12599
656.291	10201
656.347	12316
656.403	11116
656.459	11396
656.515	11562
656.571	10416
656.627	10280
656.683	11271
656.739	11334
656.795	11133
656.850	11776
656.906	11265
656.962	13072
657.018	14459
657.074	17375
657.129	19909
657.185	28459
657.241	61299
657.297	45314
657.352	14656
657.408	10838
657.464	11110
657.519	9716
657.575	9304
657.630	9364
657.686	9938
657.742	9359
657.797	8697
657.853	8865
657.908	10796
657.964	8785
658.019	10124
658.075	10140
658.130	10144
658.186	8564
658.241	10232
658.297	8817
658.352	9040
658.407	9333
658.463	7971
658.518	9262
658.573	8882
658.629	8708
658.684	9597
658.739	9127
658.795	8035
658.850	8585
658.905	8411
658.960	9148
659.016	9410
659.071	8600
659.126	8948
659.181	8577
659.236	9782
659.291	10259
659.346	9806
659.401	9457
659.457	8841
659.512	9074
659.567	9979
659.622	7944
659.677	8505
659.732	7809
659.787	8344
659.842	8428
659.897	8596
659.952	9982
660.007	8340
660.061	9223
660.116	7713
660.171	7354
660.226	8616
660.281	8952
660.336	8009
660.391	8400
660.445	7967
660.500	8472
660.555	8860
660.610	8450
660.664	8147
660.719	8103
660.774	8445
660.828	8868
660.883	8290
660.938	8799
660.992	8791
661.047	8760
661.101	7008
661.156	8579
661.211	7389
661.265	8050
661.320	8164
661.374	8701
661.429	8738
661.483	7746
661.538	7420
661.592	7895
661.647	9372
661.701	9500
661.755	8963
661.810	7856
661.864	8122
661.919	7840
661.973	7974
662.027	8224
662.081	7690
662.136	7825
662.190	8870
662.244	8731
662.299	7294
662.353	7809
662.407	8382
662.461	7357
662.515	7798
662.569	7355
662.624	7845
662.678	8399
662.732	7792
662.786	8046
662.840	8037
662.894	7903
662.948	7811
663.002	8329
663.056	8239
663.110	7762
663.164	7763
663.218	7383
663.272	8721
663.326	7698
663.380	8457
663.434	8288
663.488	7284
663.542	8612
663.595	8096
663.649	8324
663.703	8446
663.757	8154
663.811	7827
663.864	7880
663.918	8670
663.972	7780
664.026	8171
664.079	8512
664.133	8512
664.187	8157
664.240	8785
664.294	8620
664.348	8863
664.401	7259
664.455	7602
664.508	7942
664.562	7707
664.615	7924
664.669	7369
664.722	8100
664.776	7653
664.829	7499
664.883	9235
664.936	7379
664.990	7666
665.043	8287
665.097	7801
665.150	9136
665.203	7710
665.257	8945
665.310	8381
665.363	8379
665.417	9246
665.470	9177
665.523	9347
665.576	8961
665.630	8621
665.683	8388
665.736	8971
665.789	9219
665.842	8170
665.895	8650
665.949	7970
666.002	8487
666.055	9024
666.108	8617
666.161	8770
666.214	9821
666.267	9175
666.320	9021
666.373	9680
666.426	9679
666.479	8838
666.532	9328
666.585	9718
666.638	10793
666.691	9575
666.744	9622
666.796	9143
666.849	9218
666.902	9399
666.955	9633
667.008	9159
667.060	8718
667.113	8744
667.166	9144
667.219	9603
667.271	10054
667.324	9742
667.377	9594
667.430	9511
667.482	9312
667.535	9262
667.587	10459
667.640	8930
667.693	8275
667.745	9664
667.798	9234
667.850	9236
667.903	8863
667.955	9985
668.008	9670
668.060	9298
668.113	9325
668.165	8662
668.218	9222
668.270	8208
668.322	8836
668.375	8314
668.427	9171
668.479	9141
668.532	9850
668.584	9182
668.636	8951
668.689	8721
668.741	8299
668.793	9291
668.845	9006
668.898	9042
668.950	9447
669.002	9056
669.054	8124
669.106	8092
669.158	9307
669.211	8104
669.263	8325
669.315	9415
669.367	9015
669.419	8196
669.471	9515
669.523	8611
669.575	9730
669.627	8108
669.679	8463
669.731	8552
669.783	8783
669.835	8888
669.886	8834
669.938	8493
669.990	9652
670.042	8726
670.094	9207
670.146	9337
670.197	9929
670.249	10724
670.301	12806
670.353	15075
670.404	18092
670.456	22331
670.508	30928
670.560	41304
670.611	59897
670.663	94363
670.715	191363
670.766	311222
670.818	136093
670.869	32705
670.921	19730
670.972	16978
671.024	14231
671.075	13011
671.127	12573
671.178	12959
671.230	14205
671.281	16194
671.333	18480
671.384	22320
671.436	29200
671.487	39651
671.538	50917
671.590	70598
671.641	105316
671.692	168703
671.744	299685
671.795	273640
671.846	129710
671.897	61570
671.949	37429
672.000	26553
672.051	20333
672.102	16368
672.153	13323
672.204	12374
672.256	11978
672.307	11363
672.358	10435
672.409	9786
672.460	9654
672.511	8572
672.562	8209
672.613	7252
672.664	6820
672.715	8767
672.766	7880
672.817	6321
672.868	6926
672.919	7043
672.970	6792
673.021	6954
673.071	6092
673.122	6286
673.173	6710
673.224	6076
673.275	6835
673.326	6460
673.376	7187
673.427	6373
673.478	6320
673.528	7009
673.579	6328
673.630	6588
673.680	7496
673.731	6813
673.782	6693
673.832	6843
673.883	6639
673.934	6140
673.984	5996
674.035	6830
674.085	6740
674.136	7523
674.186	6592
674.237	7163
674.287	7541
674.338	7777
674.388	7182
674.438	7891
674.489	8962
674.539	9317
674.589	8351
674.640	8471
674.690	8256
674.740	7771
674.791	8140
674.841	6886
674.891	6906
674.942	6034
674.992	5545
675.042	6660
675.092	6388
675.142	5946
675.193	5883
675.243	5542
675.293	6841
675.343	5908
675.393	6085
675.443	6434
675.493	5686
675.543	6205
675.593	5778
675.643	5870
675.693	6133
675.743	5902
675.793	5782
675.843	5337
675.893	5506
675.943	5511
675.993	5868
676.043	5121
676.093	5316
676.142	6247
676.192	6073
676.242	5254
676.292	5444
676.341	4559
676.391	5838
676.441	5158
676.491	5010
676.540	4082
676.590	5113
676.640	4955
676.689	4889
676.739	4583
676.789	4747
676.838	4557
676.888	4979
676.937	4489
676.987	4565
677.037	4878
677.086	5296
677.136	5082
677.185	4672
677.235	4684
677.284	4895
677.333	4475
677.383	4458
677.432	4143
677.482	4745
677.531	4509
677.580	4628
677.630	4411
677.679	4262
677.728	4374
677.778	4712
677.827	4665
677.876	4643
677.925	4871
677.975	4723
678.024	5269
678.073	5825
678.122	4968
678.171	5528
678.220	6624
678.269	7067
678.319	7905
678.368	7670
678.417	6880
678.466	5747
678.515	5289
678.564	4985
678.613	4852
678.662	3584
678.711	4701
678.760	4612
678.809	4609
678.857	4582
678.906	5988
678.955	5394
679.004	4822
679.053	4527
679.102	4383
679.151	4649
679.199	3582
679.248	4340
679.297	4806
679.346	4376
679.394	3932
679.443	4175
679.492	4742
679.540	3849
679.589	4756
679.638	4512
679.686	4598
679.735	5984
679.784	6395
679.832	7307
679.881	6478
679.929	4892
679.978	4301
680.026	4592
680.075	4683
680.123	3632
680.172	2894
680.220	4298
680.268	4784
680.317	3592
680.365	3640
680.414	3653
680.462	3297
680.510	4238
680.559	3763
680.607	4396
680.655	3962
680.703	4449
680.752	4148
680.800	4179
680.848	3232
680.896	3418
680.945	3169
680.993	3464
681.041	2553
681.089	3821
681.137	3192
681.185	3712
681.233	2913
681.258	3256
681.281	3574
681.329	3549
681.377	3757
681.380	3762
681.425	3741
681.473	4235
681.502	4159
681.521	4091
681.569	5211
681.617	4108
681.624	4178
681.665	4584
681.713	3984
681.745	4457
681.761	4672
681.809	3797
681.857	4412
681.867	4422
681.904	4433
681.952	4178
681.989	4247
682.000	4256
682.048	4071
682.096	3361
682.111	3567
682.143	3969
682.191	3746
682.233	4333
682.239	4412
682.286	4298
682.334	3209
682.354	3408
682.382	3690
682.430	4144
682.476	3476
682.477	3453
682.525	3658
682.572	3422
682.598	3901
682.620	4318
682.667	4499
682.715	4237
682.720	4264
682.763	4416
682.810	4475
682.841	4640
682.857	4717
682.905	3941
682.952	3569
682.963	3786
683.000	4495
683.047	3476
683.085	4278
683.095	4485
683.142	4835
683.190	4856
683.206	4403
683.237	3594
683.284	3792
683.328	3657
683.332	3635
683.379	3794
683.426	3159
683.449	3714
683.473	4301
683.521	3943
683.568	4186
683.571	4221
683.615	4585
683.662	4256
683.693	3960
683.709	3757
683.757	3806
683.804	3741
683.814	3696
683.851	3616
683.898	3649
683.936	4127
683.945	4221
683.992	3738
684.039	4202
684.057	3929
684.086	3507
684.133	4471
684.179	3536
684.180	3498
684.227	4531
684.274	3796
684.300	3999
684.321	4194
684.368	4391
684.415	4533
684.422	4455
684.462	3941
684.509	3754
684.543	4407
684.556	4621
684.603	4490
684.649	4024
684.665	4081
684.696	4206
684.743	3715
684.786	4666
684.790	4740
684.837	3663
684.883	4277
684.908	4430
684.930	4584
684.977	4423
685.023	4874
685.029	4836
685.070	4511
685.117	4589
685.150	4532
685.164	4487
685.210	4872
685.257	4907
685.272	4907
685.303	4869
685.350	4947
685.393	4129
685.396	4062
685.443	3947
685.490	3752
685.514	4245
685.536	4760
685.583	4211
685.629	3900
685.636	3939
685.675	3961
685.722	3918
685.757	4285
685.768	4406
685.815	3635
685.861	4144
685.878	4147
685.908	4161
685.954	4432
686.000	4810
686.000	4817
686.047	4485
686.093	5151
686.121	4870
686.139	4676
686.185	4910
686.232	4863
686.242	4779
686.278	4431
686.324	4374
686.363	4297
686.370	4275
686.416	4692
686.463	5153
686.484	4867
686.509	4596
686.555	4125
686.601	4745
686.606	4750
686.647	4734
686.693	5079
686.727	4759
686.739	4609
686.785	4594
686.831	4581
686.848	4583
686.877	4711
686.923	4646
686.969	4764
686.969	4765
687.015	4874
687.061	5113
687.090	5482
687.107	5562
687.153	5556
687.199	4977
687.211	4881
687.245	4722
687.291	4639
687.332	4816
687.336	4835
687.382	5166
687.428	5050
687.453	4861
687.474	4707
687.520	4734
687.565	5690
687.574	5487
687.611	4866
687.657	5265
687.695	5711
687.702	5791
687.748	5960
687.794	7277
687.816	6941
687.839	6340
687.885	5528
687.931	5321
687.937	5201
687.976	4843
688.022	5782
688.058	5821
688.067	5792
688.113	5062
688.158	5392
688.179	5358
688.204	5443
688.249	5109
688.295	5449
688.300	5493
688.340	5741
688.386	5184
688.421	5178
688.431	5162
688.477	4871
688.522	5312
688.542	5183
688.567	5227
688.613	5612
688.658	6372
688.663	6308
688.703	5476
688.749	5625
688.784	5842
688.794	5934
688.839	5464
688.884	5801
688.905	5702
688.930	5598
688.975	5453
689.020	6173
689.026	6076
689.065	5464
689.110	5780
689.146	5644
689.155	5623
689.201	5548
689.246	6006
689.267	6111
689.291	6091
689.336	5784
689.381	5600
689.388	5605
689.426	5966
689.471	5679
689.509	6409
689.516	6509
689.561	5889
689.606	5950
689.630	5928
689.651	5934
689.696	5462
689.741	5798
689.750	5815
689.785	6035
689.830	5893
689.871	5946
689.875	5927
689.920	5987
689.965	5742
689.992	5673
690.010	5742
690.054	5583
690.099	5444
690.112	5650
690.144	6183
690.189	5731
690.233	5665
690.233	5670
690.278	6010
690.323	5564
690.354	5696
690.367	5774
690.412	6368
690.457	5336
690.474	5681
690.501	6340
690.546	6032
690.590	6358
690.595	6374
690.635	6350
690.680	5913
690.716	5978
690.724	6096
690.769	6818
690.813	7417
690.836	7605
690.857	7997
690.902	8989
690.946	10069
690.957	10417
690.991	12819
691.035	16034
691.077	20010
691.080	20052
691.124	18285
691.168	15791
691.198	14125
691.213	13095
691.257	10885
691.301	8604
691.318	7819
691.346	7552
691.390	7074
691.434	6484
691.439	6459
691.478	6735
691.522	6985
691.559	6694
691.567	6637
691.611	7115
691.655	6929
691.680	6682
691.699	6500
691.743	6818
691.787	6840
691.800	6744
691.831	6569
691.875	6345
691.919	6746
691.921	6735
691.964	6697
692.008	6488
692.041	6486
692.052	6474
692.096	6341
692.139	6436
692.162	6289
692.183	6125
692.227	6270
692.271	6428
692.282	6277
692.315	5987
692.359	6040
692.402	6268
692.403	6280
692.447	6457
692.490	6393
692.523	6589
692.534	6623
692.578	6585
692.622	6718
692.643	6634
692.666	6471
692.709	6126
692.753	5989
692.763	5947
692.797	5981
692.840	6175
692.884	5534
692.884	5540
692.928	5712
692.971	5885
693.004	5817
693.015	5855
693.059	6059
693.102	6237
693.124	6351
693.146	6417
693.189	6522
693.233	6601
693.245	6617
693.276	6790
693.320	7056
693.363	7022
693.365	7018
693.407	7481
693.450	7821
693.485	8262
693.493	8412
693.537	9168
693.580	9911
693.605	10265
693.624	11202
693.667	13377
693.710	15814
693.725	16706
693.753	20746
693.797	27664
693.840	34888
693.845	35521
693.883	32433
693.926	27542
693.966	23599
693.970	23130
694.013	18289
694.056	13871
694.086	10630
694.099	10227
694.142	9298
694.185	8180
694.206	7644
694.229	7560
694.272	7314
694.315	7418
694.326	7382
694.358	7295
694.401	7170
694.444	7186
694.446	7165
694.487	7259
694.530	7306
694.566	7428
694.573	7412
694.616	7050
694.659	6910
694.686	6835
694.702	6900
694.745	6745
694.787	6837
694.806	6798
694.830	6856
694.873	7164
694.916	7133
694.926	7178
694.959	7335
695.002	7221
695.044	7502
695.046	7487
695.087	7443
695.130	7512
695.166	7507
695.172	7556
695.215	7745
695.258	8159
695.286	8230
695.301	8165
695.343	7999
695.386	7987
695.406	7948
695.428	8440
695.471	9297
695.514	10010
695.526	10271
695.556	10932
695.599	11902
695.641	12432
695.646	12490
695.684	11738
695.726	10831
695.766	9857
695.769	9843
695.811	9642
695.854	9254
695.886	9023
695.896	9149
695.938	9494
695.981	9820
696.005	9987
696.023	10212
696.065	10812
696.108	11482
696.125	11658
696.150	11747
696.192	11975
696.235	12047
696.245	12105
696.277	12337
696.319	12375
696.361	12582
696.365	12568
696.404	12659
696.446	12626
696.485	12628
696.488	12642
696.530	12451
696.572	12282
696.604	12211
696.614	12176
696.656	11916
696.698	11588
696.724	11331
696.740	11351
696.783	11447
696.825	11519
696.844	11479
696.867	11619
696.909	11940
696.951	12219
696.964	12280
696.992	12611
697.034	13038
697.076	13487
697.083	13550
697.118	13764
697.160	13947
697.202	14067
697.203	14041
697.244	13800
697.286	13691
697.323	13292
697.327	13329
697.369	13657
697.411	13922
697.442	14063
697.453	14026
697.494	13699
697.536	13520
697.562	13336
697.578	13412
697.620	13508
697.661	13550
697.682	13639
697.703	13929
697.744	14323
697.786	14796
697.801	14901
697.828	14936
697.869	14980
697.911	15008
697.921	14992
697.952	15184
697.994	15364
698.035	15535
698.040	15523
698.077	15228
698.118	14905
698.160	14525
698.160	14492
698.201	15003
698.243	15533
698.279	15964
698.284	16031
698.325	16333
698.367	16618
698.399	16817
698.408	16883
698.449	17023
698.491	17162
698.518	17219
698.532	17239
698.573	17194
698.614	17132
698.638	17065
698.656	17193
698.697	17406
698.738	17634
698.757	17695
698.779	17673
698.820	17564
698.862	17470
698.877	17396
698.903	17442
698.944	17450
698.985	17463
698.996	17431
699.026	17519
699.067	17584
699.116	17626
699.235	17192
699.354	17412
699.474	15436
699.593	16365
699.713	16544
699.832	16048
699.951	17790
700.070	16607
700.190	14676
700.309	14236
700.428	14487
700.547	14111
700.667	14526
700.786	15158
700.905	14482
701.024	14271
701.143	14193
701.262	15058
701.381	15807
701.500	15350
701.619	14981
701.738	15427
701.857	14594
701.976	14578
702.095	14283
702.214	16248
702.333	14597
702.452	15037
702.571	15318
702.690	14368
702.809	14089
702.928	13865
703.047	13105
703.165	14410
703.284	13593
703.403	14512
703.522	12712
703.640	13062
703.759	12276
703.878	13377
703.997	13771
704.115	13668
704.234	13978
704.353	13711
704.471	11503
704.590	12508
704.708	12883
704.827	11811
704.946	12852
705.064	12135
705.183	11499
705.301	12942
705.420	11973
705.538	11352
705.656	10300
705.775	11590
705.893	14201
706.012	14324
706.130	11459
706.249	12034
706.367	11439
706.485	10740
706.604	11650
706.722	11203
706.840	12710
706.958	16571
707.077	12176
707.195	11113
707.313	10657
707.431	10613
707.549	10375
707.668	9871
707.786	10891
707.904	10385
708.022	9995
708.140	9856
708.258	9725
708.376	11354
708.494	9562
708.612	11143
708.730	11050
708.848	10208
708.966	10614
709.084	10138
709.202	10589
709.320	9371
709.438	9721
709.556	10286
709.674	9216
709.791	9758
709.909	9233
710.027	9620
710.145	9031
710.263	8951
710.380	9153
710.498	9547
710.616	8693
710.733	8564
710.851	8173
710.969	9614
711.086	8521
711.204	9203
711.322	9387
711.439	8595
711.557	7458
711.674	8761
711.792	7856
711.909	9230
712.027	7916
712.144	8310
712.262	8676
712.379	8456
712.497	9554
712.614	8787
712.732	9206
712.849	8437
712.966	9094
713.084	9621
713.201	7543
713.318	8950
713.436	9455
713.553	9356
713.670	11092
713.787	9851
713.905	9298
714.022	10061
714.139	10864
714.256	15725
714.373	25504
714.490	55463
714.608	166066
714.725	642603
714.842	446023
714.959	46109
715.076	19863
715.193	15728
715.310	12987
715.427	9252
715.544	10454
715.661	9312
715.778	8819
715.895	9629
716.011	8545
716.128	8164
716.245	8151
716.362	8203
716.479	6757
716.596	7682
716.713	7308
716.829	7402
716.946	6532
717.063	6184
717.180	6698
717.296	6596
717.413	6709
717.530	7654
717.646	6075
717.763	6768
717.880	6651
717.996	5996
718.113	6213
718.229	6490
718.346	5716
718.462	6482
718.579	6154
718.695	6200
718.812	6415
718.928	7189
719.045	5808
719.161	6976
719.277	7338
719.394	6782
719.510	8551
719.626	9433
719.743	13133
719.859	24869
719.975	62528
720.092	265875
720.208	409398
720.324	42508
720.440	12518
720.557	9072
720.673	8442
720.789	8280
720.905	8975
721.021	6820
721.137	6005
721.253	5833
721.369	5760
721.486	5674
721.602	5497
721.718	6176
721.834	6054
721.950	5241
722.066	5786
722.181	4606
722.297	5394
722.413	5383
722.529	5444
722.645	5581
722.761	5056
722.877	6085
722.993	7508
723.108	9613
723.224	7243
723.340	5873
723.456	5576
723.571	5029
723.687	4416
723.803	4415
723.918	5151
724.034	5624
724.150	4495
724.265	5657
724.381	4863
724.497	5041
724.612	4365
724.728	4267
724.843	4836
724.959	4260
725.074	6425
725.190	5526
725.305	4096
725.421	5004
725.536	4550
725.651	5268
725.767	5095
725.882	5072
725.997	4176
726.113	5045
726.228	3474
726.343	4348
726.459	4277
726.574	5041
726.689	4181
726.804	4233
726.920	4326
727.035	3935
727.150	5431
727.265	4153
727.380	4558
727.495	4676
727.610	4523
727.725	4765
727.841	5249
727.956	6954
728.071	5397
728.186	4051
728.301	3818
728.416	5507
728.531	5467
728.645	4075
728.760	4361
728.875	4335
728.990	3991
729.105	4776
729.220	4610
729.335	4295
729.449	3846
729.564	4681
729.679	3909
729.794	4576
729.908	5224
730.023	4738
730.138	3809
730.253	5544
730.367	4348
730.482	4902
730.596	4523
730.711	6223
730.826	8289
730.940	8569
731.055	6535
731.169	7060
731.284	6395
731.398	7411
731.513	7575
731.627	9368
731.742	11742
731.856	14287
731.970	15049
732.085	21432
732.199	34473
732.313	70209
732.428	202076
732.542	496652
732.656	205192
732.771	42591
732.885	23669
732.999	20888
733.113	19140
733.227	18830
733.342	17128
733.456	16811
733.570	15615
733.684	15054
733.798	14419
733.912	15619
734.026	14560
734.140	14674
734.254	12982
734.368	13387
734.482	13608
734.596	12917
734.710	12199
734.824	12137
734.938	13153
735.052	12702
735.166	12288
735.280	12434
735.393	11786
735.507	12041
735.621	11354
735.735	10786
735.849	12299
735.962	11952
736.076	12318
736.190	11439
736.303	11335
736.417	11823
736.531	10981
736.644	11286
736.758	11118
736.872	10802
736.985	11125
737.099	10718
737.212	10429
737.326	10232
737.439	10907
737.553	10108
737.666	10494
737.780	9886
737.893	10527
738.007	10900
738.120	9549
738.233	9585
738.347	10175
738.460	9613
738.573	10801
738.687	10377
738.800	9388
738.913	11204
739.026	10579
739.140	10106
739.253	9984
739.366	9264
739.479	9846
739.592	9285
739.705	8912
739.818	10492
739.932	8622
740.045	9622
740.158	8521
740.271	10592
740.384	8234
740.497	8327
740.610	8862
740.723	9111
740.836	8936
740.949	9037
741.062	9591
741.174	8697
741.287	8846
741.400	8168
741.513	7909
741.626	9447
741.739	7551
741.851	8648
741.964	9017
742.077	7356
742.189	7437
742.302	8819
742.415	7766
742.527	8797
742.640	7030
742.753	7581
742.865	8599
742.978	7579
743.090	6627
743.203	8616
743.316	7252
743.428	7614
743.541	7055
743.653	6350
743.766	7760
743.878	6704
743.990	6333
744.103	8120
744.215	7316
744.327	7104
744.440	7901
744.552	6614
744.664	6918
744.777	8679
744.889	6717
745.001	7367
745.113	8064
745.226	7448
745.338	6513
745.450	8376
745.562	6317
745.674	7070
745.786	8174
745.898	6752
746.010	6552
746.122	7205
746.234	7121
746.347	7690
746.459	6236
746.570	6429
746.682	7459
746.794	8162
746.906	6622
747.018	6309
747.130	6421
747.242	5673
747.354	6556
747.466	7144
747.577	5444
747.689	6390
747.801	6129
747.913	5761
748.024	5780
748.136	6194
748.248	5373
748.359	6492
748.471	7075
748.583	5076
748.694	5636
748.806	6915
748.918	5118
749.029	7033
749.141	6192
749.252	5229
749.364	5560
749.475	5431
749.587	5730
749.698	5512
749.809	6382
749.921	6172
750.032	5340
750.144	5473
750.255	5234
750.366	4970
750.478	4369
750.589	5102
750.700	4705
750.811	6195
750.923	5094
751.034	5180
751.145	6231
751.256	4691
751.367	4715
751.479	4880
751.590	5140
751.701	5296
751.812	4168
751.923	5186
752.034	6426
752.145	5347
752.256	4972
752.367	4477
752.478	4891
752.589	5768
752.700	5519
752.811	4391
752.922	5133
753.032	5267
753.143	5746
753.254	4905
753.365	6647
753.476	5980
753.586	5199
753.697	4446
753.808	5342
753.919	5054
754.029	4608
754.140	4262
754.251	4437
754.361	5093
754.472	5191
754.582	4644
754.693	5337
754.804	5824
754.914	4703
755.025	3875
755.135	6097
755.246	5647
755.356	4876
755.466	3907
755.577	5350
755.687	5145
755.798	4531
755.908	4555
756.018	4695
756.129	5164
756.239	5011
756.349	5956
756.460	6055
756.570	6487
756.680	4308
756.790	5178
756.900	5210
757.011	4548
757.121	5267
757.231	5206
757.341	4422
757.451	4741
757.561	3466
757.671	4833
757.781	5022
757.891	5593
758.001	4628
758.111	5740
758.221	5959
758.331	5754
758.441	5427
758.551	6242
758.661	6047
758.771	6600
758.880	5804
758.990	5939
759.100	6085
759.210	6110
759.320	6396
759.429	6543
759.539	7272
759.649	7649
759.758	8685
759.868	9733
759.978	8673
760.087	10060
760.197	10246
760.307	9396
760.416	8384
760.526	7921
760.635	8487
760.745	10289
760.854	11252
760.964	11722
761.073	11654
761.182	11176
761.292	9203
761.401	8191
761.511	7592
761.620	6773
761.729	6420
761.839	6447
761.948	6743
762.057	5090
762.166	6721
762.276	6374
762.385	7695
762.494	6568
762.603	6664
762.712	7438
762.822	6565
762.931	6980
763.040	5466
763.149	7394
763.258	6594
763.367	8140
763.476	7682
763.585	7411
763.694	8238
763.803	8398
763.912	9215
764.021	9313
764.130	9038
764.238	10980
764.347	10941
764.456	11969
764.565	12905
764.674	12966
764.783	13618
764.891	15070
765.000	17123
765.109	18918
765.217	19702
765.326	24857
765.435	29833
765.543	34350
765.652	43289
765.761	53289
765.869	72617
765.978	101632
766.086	147819
766.195	229523
766.303	355717
766.412	403482
766.520	398653
766.629	289568
766.737	175027
766.846	116698
766.954	83062
767.062	62884
767.171	49230
767.279	39770
767.387	30970
767.496	27095
767.604	22181
767.712	21385
767.820	18870
767.928	16943
768.037	15819
768.145	15259
768.253	14940
768.361	14076
768.469	14505
768.577	14309
768.685	15206
768.793	16680
768.901	18001
769.009	21598
769.117	26032
769.225	32284
769.333	44785
769.441	68962
769.549	109199
769.657	194575
769.765	329993
769.873	362892
769.981	265670
770.088	138732
770.196	82832
770.304	57291
770.412	41903
770.519	33652
770.627	26648
770.735	22338
770.842	18813
770.950	17000
771.058	15887
771.165	16802
771.273	15467
771.380	14791
771.488	17531
771.595	16550
771.703	13916
771.810	14727
771.918	14180
772.025	15399
772.133	17090
772.240	16378
772.348	18262
772.455	15780
772.562	15553
772.670	14366
772.777	14276
772.884	14717
772.991	13488
773.099	14210
773.206	11988
773.313	13099
773.420	13560
773.528	12520
773.635	12340
773.742	13581
773.849	12510
773.956	12684
774.063	12750
774.170	12711
774.277	12103
774.384	11288
774.491	10188
774.598	11989
774.705	10384
774.812	11403
774.919	12180
775.026	10501
775.133	10667
775.239	11267
775.346	10141
775.453	10977
775.560	10054
775.667	10716
775.773	9643
775.880	10989
775.987	10166
776.093	11012
776.200	10807
776.307	8427
776.413	9538
776.520	11602
776.627	9578
776.733	8889
776.840	8362
776.946	11851
777.053	9271
777.159	9028
777.266	7490
777.372	9738
777.478	9719
777.585	8828
777.691	7471
777.798	9907
777.904	7864
778.010	9084
778.117	8695
778.223	8080
778.329	7523
778.435	7458
778.542	9375
778.648	7944
778.754	8085
778.860	8138
778.966	7546
779.072	8018
779.178	8037
779.284	6798
779.391	8127
779.497	8451
779.603	9272
779.708	7950
779.815	13324
779.920	33359
780.026	37642
780.132	10307
780.238	6855
780.344	7266
780.450	8193
780.556	5907
780.661	6646
780.767	6908
780.873	4850
780.979	6444
781.085	6490
781.190	6630
781.296	6341
781.402	7024
781.507	6342
781.613	5155
781.719	6886
781.824	6869
781.930	6549
782.035	6684
782.141	6636
782.246	4934
782.352	5811
782.457	6346
782.563	5867
782.668	6331
782.773	4933
782.879	4659
782.984	6235
783.090	5560
783.195	6282
783.300	6653
783.405	4973
783.511	4561
783.616	5208
783.721	6167
783.826	5029
783.932	5247
784.037	4949
784.142	5854
784.247	4741
784.352	5323
784.457	3810
784.562	5412
784.667	6308
784.772	4237
784.877	3760
784.982	6657
785.087	5502
785.192	5355
785.297	4291
785.402	5272
785.507	3946
785.611	4479
785.716	3816
785.821	4944
785.926	4510
786.031	4571
786.135	4529
786.240	4854
786.345	2883
786.450	4714
786.554	3999
786.659	4297
786.763	3291
786.868	5278
786.973	5008
787.077	4128
787.182	3681
787.286	5494
787.391	5406
787.495	2662
787.600	3151
787.704	3907
787.809	3696
787.913	3537
788.017	3907
788.122	5425
788.226	3520
788.330	2684
788.435	4278
788.539	6035
788.643	2443
788.747	2674
788.852	3704
788.956	3291
789.060	4010
789.164	3782
789.268	3196
789.372	4432
789.476	3098
789.580	3023
789.684	3497
789.788	4282
789.892	3172
789.996	3290
790.100	2991
790.204	3643
790.308	3953
790.412	2416
790.516	2876
790.620	3464
790.724	3798
790.828	3394
790.931	1712
791.035	5039
791.139	3334
791.242	3575
791.346	4087
791.450	3213
791.554	2446
791.657	615
791.761	3247
791.864	5158
791.968	3820
792.072	4059
792.175	2188
792.279	2658
792.382	2640
792.486	2840
792.589	3084
792.693	3480
792.796	1250
792.899	3210
793.003	3887
793.106	1749
793.209	2503
793.313	2848
793.416	841
793.519	2860
793.623	4103
793.726	2806
793.829	1296
793.932	1437
794.035	1615
794.138	4929
794.242	3762
794.345	1833
794.448	3527
794.551	4715
794.654	15280
794.757	19939
794.860	4323
794.963	2963
795.066	1593
795.169	3789
795.272	2502
795.375	3152
795.477	1378
795.580	2468
795.683	1513
795.786	3278
795.889	1002
795.991	3250
796.094	2271
796.197	953
796.300	3564
796.402	2596
796.505	1238
796.608	1069
796.710	2849
796.813	3108
796.915	2034
797.018	3701
797.120	2937
797.223	1940
797.326	3581
797.428	2203
797.530	1778
797.633	2176
797.735	3048
797.838	2433
797.940	3450
798.042	1957
798.145	1685
798.247	2284
798.349	1366
798.452	3368
798.554	2243
798.656	2234
798.758	3552
798.860	2284
798.962	1478
799.065	1661
799.167	1288
799.269	3229
799.371	2998
799.473	4261
799.575	2683
799.677	1819
799.779	3203
799.881	1364
799.983	3582
800.085	2384
800.187	2083
800.289	988
800.390	1807
800.492	2827
800.594	3130
800.696	1138
800.798	1830
800.899	1795
801.001	2345
801.103	1946
801.205	1825
801.306	2394
801.408	1585
801.509	2442
801.611	2252
801.713	2518
801.814	1089
801.916	1916
802.017	1425
802.119	684
802.220	1966
802.322	1020
802.423	2958
802.525	69
802.626	1564
802.727	1719
802.829	2555
802.930	82
803.031	2942
803.133	1462
803.234	702
803.335	1805
803.436	713
803.538	1166
803.639	244
803.740	2490
803.841	1673
803.942	2404
804.043	1506
804.144	1177
804.245	972
804.346	1528
804.447	671
804.548	1624
804.649	2209
804.750	748
804.851	471
804.952	2022
805.053	831
805.154	283
805.255	2242
805.355	1670
805.456	973
805.557	1556
805.658	560
805.758	1991
805.859	1638
805.960	2206
806.061	1040
806.161	1511
806.262	1353
806.362	883
806.463	425
806.564	2301
806.664	1277
806.765	493
806.865	944
806.966	1502
807.066	330
807.166	1410
807.267	1638
807.367	271
807.468	1001
807.568	338
807.668	1349
807.769	2619
807.869	175
807.969	1571
808.069	597
808.170	1649
808.270	406
808.370	2046
808.470	818
808.570	-54
808.670	617
808.770	1975
808.870	921
808.970	1375
809.070	998
809.170	94
809.271	1726
809.370	2155
809.470	1277
809.570	218
809.670	330
809.770	1217
809.870	1389
809.970	1855
810.070	1266
810.169	779
810.269	-245
810.369	2151
810.469	1182
810.568	1398
810.668	566
810.768	539
810.867	1310
810.967	484
811.066	730
811.166	1945
811.265	1454
811.365	494
811.464	1364
811.564	1838
811.663	2312
811.763	373
811.862	1862
811.962	1825
812.061	1056
812.160	562
812.260	1476
812.359	1425
812.458	939
812.557	2676
812.657	1282
812.756	1148
812.855	952
812.954	716
813.053	1217
813.153	421
813.252	-442
813.351	1682
813.450	1575
813.549	1009
813.648	558
813.747	983
813.846	1871
813.945	932
814.044	891
814.143	1428
814.242	1270
814.341	1405
814.439	1130
814.538	2204
814.637	2174
814.736	1353
814.835	2104
814.933	1450
815.032	2615
815.131	4627
815.229	7902
815.328	9042
815.427	6931
815.525	6038
815.624	5157
815.722	5524
815.821	5919
815.919	6111
816.018	4881
816.116	5951
816.215	5831
816.313	7054
816.412	8841
816.510	7189
816.609	9031
816.707	8743
816.805	8102
816.904	8248
817.002	7715
817.100	8583
817.198	9637
817.296	7432
817.395	7495
817.493	7966
817.591	6811
817.689	7373
817.787	6540
817.885	6868
817.983	7006
818.081	7841
818.179	7666
818.277	10483
818.375	7019
818.473	7112
818.571	5135
818.669	7655
818.767	7134
818.865	5893
818.963	5776
819.061	7520
819.158	6709
819.256	8746
819.354	7440
819.452	11126
819.549	8189
819.647	7282
819.745	5430
819.842	6489
819.940	6169
820.038	5000
820.135	5228
820.233	6776
820.330	5027
820.428	5710
820.525	7325
820.623	5731
820.720	4509
820.818	5419
820.915	5407
821.012	5321
821.110	4060
821.207	6231
821.304	4883
821.402	5751
821.499	4931
821.596	5478
821.693	4542
821.791	6127
821.888	4737
821.985	5801
822.082	2534
822.179	6005
822.276	5010
822.373	4308
822.470	4696
822.567	5261
822.664	3512
822.761	5823
822.858	4356
822.955	5435
823.052	3603
823.149	4941
823.246	5004
823.343	4977
823.440	4629
823.536	4914
823.633	4187
823.730	4522
823.827	4800
823.923	4517
824.020	4600
824.117	4548
824.213	3996
824.310	4195
824.407	3304
824.503	5407
824.600	3678
824.696	3302
824.793	5623
824.889	4352
824.986	4142
825.082	2768
825.179	3487
825.275	4954
825.371	4848
825.468	3341
825.564	1897
825.660	5305
825.757	5447
825.853	4364
825.949	1891
826.045	3663
826.142	3577
826.238	3417
826.334	3920
826.430	3050
826.526	2561
826.622	2942
826.718	4410
826.814	4741
826.910	3201
827.006	1851
827.102	2071
827.198	4076
827.294	3976
827.390	4003
827.486	3747
827.582	2045
827.678	2446
827.774	4846
827.869	1595
827.965	3122
828.061	2205
828.157	4475
828.252	3848
828.348	2429
828.444	2668
828.539	2214
828.635	3625
828.731	3403
828.826	2117
828.922	3673
829.017	3886
829.113	4218
829.208	2419
829.304	3878
829.399	4840
829.495	2907
829.590	3316
829.685	2244
829.781	3452
829.876	3020
829.971	1127
830.066	1763
830.162	3022
830.257	4107
830.352	2139
830.447	2601
830.543	2944
830.638	3543
830.733	3933
830.828	2478
830.923	3494
831.018	3177
831.113	3206
831.208	1272
831.303	1901
831.398	1981
831.493	2761
831.588	5267
831.683	1475
831.778	2249
831.873	1980
831.967	3225
832.062	2120
832.157	1482
832.252	3009
832.346	3129
832.441	4035
832.536	2428
832.631	2656
832.725	1711
832.820	2077
832.914	2787
833.009	2110
833.104	2343
833.198	1801
833.293	2413
833.387	2117
833.482	3318
833.576	2170
833.670	3119
833.765	2651
833.859	3083
833.954	2354
834.048	2767
834.142	2568
834.237	1421
834.331	2249
834.425	2490
834.519	1954
834.613	2016
834.708	1462
834.802	2073
834.896	2104
834.990	2310
835.084	1442
835.178	1317
835.272	1799
835.366	2478
835.460	2877
835.554	1770
835.648	1066
835.742	371
835.836	1254
835.930	2170
836.024	2106
836.117	3199
836.211	1056
836.305	1388
836.399	1177
836.493	1293
836.586	2238
836.680	1088
836.774	1007
836.867	3244
836.961	539
837.055	919
837.148	1392
837.242	1916
837.335	1464
837.429	1875
837.522	1137
837.616	1046
837.709	2435
837.803	1777
837.896	2481
837.989	1665
838.083	872
838.176	1488
838.269	463
838.363	1837
838.456	1039
838.549	1994
838.642	1427
838.735	1428
838.829	1183
838.922	793
839.015	558
839.108	1187
839.201	1877
839.294	2290
839.387	1692
839.480	608
839.573	1026
839.666	913
839.759	1357
839.852	1303
839.945	1360
840.038	1149
840.131	1490
840.223	1136
840.316	1687
840.409	2180
840.502	830
840.594	2792
840.687	-957
840.780	474
840.873	512
840.965	1241
841.058	1379
841.150	1765
841.243	119
841.336	779
841.428	1116
841.521	1498
841.613	1261
841.706	1076
841.798	976
841.890	1490
841.983	-130
842.075	1815
842.167	726
842.260	1627
842.352	935
842.444	139
842.537	329
842.629	1060
842.721	224
842.813	747
842.905	611
842.997	1347
843.090	266
843.182	938
843.274	-787
843.366	1459
843.458	1246
843.550	2420
843.642	537
843.734	1563
843.826	325
843.918	1066
844.009	1025
844.101	748
844.193	869
844.285	1234
844.377	973
844.469	1086
844.560	-7
844.652	626
844.744	1312
844.835	783
844.927	1288
845.019	684
845.110	474
845.202	1366
845.293	763
845.385	-2
845.476	583
845.568	1698
845.659	3
845.751	1806
845.842	634
845.934	0
846.025	109
846.116	1072
846.208	576
846.299	282
846.390	452
846.482	542
846.573	1794
846.664	1410
846.755	917
846.846	1585
846.937	-415
847.029	469
847.120	-248
847.211	1233
847.302	1896
847.393	891
847.484	1308
847.575	518
847.666	268
847.757	330
847.847	649
847.938	1638
848.029	1328
848.120	-437
848.211	-85
848.302	-28
848.392	-153
848.483	1751
848.574	-61
848.664	-53
848.755	1450
848.846	942
848.936	324
849.027	2197
849.118	1670
849.208	1407
849.299	3432
849.389	6618
849.480	12150
849.570	23179
849.661	44992
849.751	60509
849.841	17694
849.932	3147
850.022	897
850.112	1343
850.203	558
850.293	535
850.383	401
850.474	585
850.564	476
850.654	721
850.744	532
850.834	652
850.924	378
851.014	882
851.104	863
851.194	156
851.284	238
851.374	907
851.464	26
851.554	1066
851.644	-1
851.734	1492
851.824	800
851.914	586
852.004	1707
852.094	124
852.183	832
852.273	795
852.363	823
852.452	808
852.542	760
852.632	935
852.721	646
852.811	1563
852.901	1622
852.990	1215
853.080	1830
853.169	1941
853.259	1465
853.348	1841
853.438	2547
853.527	4951
853.617	6861
853.706	13765
853.795	24887
853.885	51154
853.974	88938
854.063	156715
854.152	187019
854.242	67787
854.331	17656
854.420	7485
854.509	5760
854.598	4287
854.687	4181
854.777	2716
854.866	1604
854.955	1630
855.044	1644
855.133	1626
855.222	1733
855.311	488
855.400	1375
855.488	1075
855.577	883
855.666	857
855.755	1069
855.844	1472
855.933	1664
856.021	553
856.110	168
856.199	-250
856.288	-238
856.376	261
856.465	-214
856.554	942
856.642	569
856.731	869
856.819	676
856.908	180
856.996	699
857.085	475
857.173	-494
857.262	297
857.350	104
857.438	5
857.527	552
857.615	157
857.703	233
857.792	716
857.880	-320
857.968	431
858.056	415
858.145	467
858.233	270
858.321	208
858.409	1117
858.497	425
858.585	-103
858.673	498
858.761	-461
858.849	1060
858.937	-187
859.025	-118
859.113	965
859.201	-131
859.289	1520
859.377	488
859.465	244
859.552	940
859.640	-79
859.728	205
859.816	66
859.903	687
859.991	-132
860.079	598
860.166	-160
860.254	1098
860.342	647
860.429	174
860.517	-880
860.604	626
860.692	783
860.779	-236
860.867	448
860.954	476
861.042	1028
861.129	405
861.216	225
861.304	866
861.391	1054
861.478	-379
861.565	1002
861.653	1600
861.740	-159
861.827	-109
861.914	182
862.001	743
862.089	-200
862.176	689
862.263	-572
862.350	971
862.437	69
862.524	678
862.611	-120
862.698	1361
862.785	341
862.871	1630
862.958	895
863.045	672
863.132	498
863.219	293
863.306	54
863.392	243
863.479	261
863.566	549
863.652	339
863.739	606
863.826	1065
863.912	1107
863.999	1814
864.086	1036
864.172	1204
864.259	800
864.345	1207
864.432	1423
864.518	1202
864.604	1393
864.691	1034
864.777	1855
864.863	2925
864.950	3746
865.036	5167
865.122	9135
865.209	9221
865.295	7466
865.381	7627
865.467	8790
865.553	10187
865.639	11814
865.726	19175
865.812	31499
865.898	52889
865.984	72924
866.070	128034
866.156	110555
866.242	34822
866.328	13282
866.414	8883
866.499	8751
866.585	7720
866.671	7570
866.757	6715
866.843	6175
866.928	5975
867.014	6905
867.100	5874
867.186	5396
867.271	4981
867.357	6646
867.442	4898
867.528	5548
867.614	5586
867.699	5549
867.785	6330
867.870	5028
867.956	5804
868.041	6077
868.127	4825
868.212	5195
868.297	5473
868.383	6058
868.468	5021
868.553	6026
868.639	4563
868.724	5350
868.809	4902
868.894	5159
868.979	5180
869.065	5304
869.150	3975
869.235	4875
869.320	4319
869.405	4242
869.490	5025
869.575	3850
869.660	3641
869.745	6563
869.830	4840
869.915	4748
870.000	4030
870.085	4604
870.169	5765
870.254	5938
870.339	3267
870.424	3812
870.509	4440
870.593	5382
870.678	4209
870.763	3527
870.847	3089
870.932	5405
871.016	4793
871.101	3402
871.186	4536
871.270	5442
871.355	2313
871.439	4226
871.523	4616
871.608	3055
871.692	3841
871.777	5322
871.861	4854
871.945	3945
872.030	4448
872.114	3647
872.198	2654
872.282	3532
872.367	3455
872.451	3538
872.535	3332
872.619	3378
872.703	2634
872.787	4781
872.871	3719
872.955	2568
873.039	2578
873.123	3980
873.207	4256
873.291	2241
873.375	3287
873.459	3785
873.543	3040
873.627	2847
873.711	2386
873.794	4095
873.878	2387
873.962	1638
874.045	2528
874.129	2725
874.137	2783
874.213	3353
874.245	3191
874.296	2929
874.352	2398
874.380	2135
874.460	3407
874.464	3458
874.547	3235
874.568	3156
874.631	2911
874.676	3140
874.714	3296
874.784	3332
874.798	3354
874.881	3812
874.892	3699
874.965	2935
874.999	3222
875.048	3550
875.107	3155
875.131	2988
875.215	2794
875.215	2794
875.298	3071
875.323	3046
875.381	2966
875.430	3792
875.465	4274
875.538	3138
875.548	2993
875.631	2593
875.646	2501
875.714	2249
875.753	2522
875.798	2794
875.861	3370
875.881	3471
875.964	2567
875.968	2526
876.047	2213
876.076	2693
876.130	3574
876.183	3671
876.213	3696
876.291	4378
876.296	4406
876.379	3274
876.398	3038
876.462	2327
876.506	2356
876.545	2532
876.613	3010
876.628	3135
876.711	4131
876.721	4177
876.794	4334
876.828	3997
876.877	3251
876.935	2963
876.960	3021
877.043	3141
877.043	3142
877.125	3967
877.150	4346
877.208	4870
877.258	3791
877.291	3076
877.365	3088
877.374	3116
877.456	3258
877.472	3132
877.539	2815
877.579	3579
877.622	4348
877.687	4565
877.704	4586
877.787	4130
877.794	4116
877.869	4044
877.901	4057
877.952	3725
878.008	3133
878.034	3017
878.115	3056
878.117	3067
878.199	3168
878.222	3504
878.282	4781
878.329	5419
878.364	5368
878.437	4960
878.447	4898
878.529	2745
878.544	2835
878.611	3776
878.651	3746
878.694	4089
878.758	4805
878.776	4848
878.858	5590
878.865	5516
878.941	3823
878.972	3408
879.023	3406
879.078	3249
879.105	3474
879.185	5292
879.187	5322
879.269	5582
879.292	5556
879.351	5055
879.399	4477
879.433	4092
879.506	4414
879.516	4536
879.598	4548
879.613	4426
879.680	3983
879.720	4710
879.762	5372
879.827	4574
879.844	4300
879.926	4347
879.933	4285
880.007	4498
880.040	4673
880.089	4606
880.147	4736
880.171	5026
880.253	5658
880.254	5648
880.335	4725
880.360	4807
880.417	6256
880.467	6844
880.499	6710
880.574	6673
880.580	6700
880.662	6392
880.680	6289
880.744	4957
880.787	4045
880.825	4264
880.893	5539
880.907	5534
880.989	4464
881.000	4420
881.070	5935
881.106	6156
881.152	5257
881.213	4798
881.233	4921
881.315	4208
881.319	4250
881.396	5377
881.426	5322
881.478	5736
881.532	6826
881.559	6990
881.639	6110
881.641	6087
881.722	5340
881.745	5047
881.803	5690
881.852	6312
881.885	6221
881.958	5580
881.966	5585
882.047	5754
882.064	5783
882.129	5172
882.171	4690
882.210	4365
882.277	3854
882.291	4172
882.372	6266
882.383	6501
882.454	6899
882.489	6966
882.535	7171
882.596	7946
882.616	7995
882.697	6972
882.702	6889
882.778	4818
882.808	4278
882.859	4571
882.914	4766
882.940	4911
883.020	5587
883.021	5615
883.102	6891
883.127	7375
883.183	8543
883.233	8859
883.264	7553
883.339	5008
883.345	4945
883.426	3873
883.445	3680
883.507	4730
883.551	5353
883.587	5947
883.657	7411
883.668	7626
883.749	8310
883.763	8392
883.830	6404
883.869	5359
883.910	5116
883.975	4903
883.991	5223
884.072	6659
884.081	6779
884.152	8206
884.187	8762
884.233	9021
884.292	9346
884.314	8455
884.394	4811
884.398	4630
884.475	3898
884.504	3651
884.555	4060
884.610	4239
884.636	4804
884.716	6819
884.716	6856
884.797	9307
884.821	9927
884.877	9063
884.927	8092
884.958	7340
885.033	5307
885.038	5234
885.118	4399
885.139	4100
885.199	4766
885.244	5296
885.279	6227
885.350	8225
885.359	8553
885.439	11130
885.456	11493
885.520	8530
885.561	6759
885.600	6545
885.667	6243
885.680	6436
885.760	7554
885.773	7672
885.840	5889
885.878	4947
885.920	5489
885.984	6190
886.000	6391
886.080	7147
886.089	7223
886.160	7769
886.195	7973
886.240	7680
886.300	7274
886.320	7420
886.400	7810
886.406	7809
886.480	6783
886.511	6379
886.560	6495
886.616	6455
886.640	6433
886.720	6471
886.722	6446
886.800	6732
886.827	6863
886.879	7162
886.932	7365
886.959	7996
887.038	9918
887.039	9932
887.119	8313
887.143	7859
887.198	7713
887.248	7477
887.278	7445
887.354	7295
887.358	7329
887.437	7417
887.459	7503
887.517	8159
887.564	8537
887.596	7674
887.669	5394
887.676	5329
887.755	4497
887.774	4314
887.835	4715
887.880	4986
887.914	5848
887.985	7400
887.994	7707
888.073	10317
888.090	10823
888.153	12000
888.195	12631
888.232	10362
888.300	6323
888.311	6435
888.391	6859
888.405	6934
888.470	6849
888.510	6734
888.549	7005
888.615	7480
888.628	7926
888.708	10380
888.720	10740
888.787	9231
888.825	8262
888.866	7438
888.930	6170
888.945	6324
889.024	7018
889.035	7089
889.103	8907
889.140	9815
889.182	8344
889.245	6190
889.261	6707
889.340	8976
889.349	9218
889.419	8029
889.454	7373
889.498	7380
889.559	7361
889.577	7795
889.656	9591
889.664	9741
889.735	9052
889.768	8678
889.814	8648
889.873	8544
889.978	8003
890.083	7720
890.187	9510
890.292	10235
890.397	8053
890.501	7415
890.606	6499
890.710	7392
890.815	10532
890.919	8703
891.024	8063
891.128	7037
891.233	6623
891.337	10261
891.442	9765
891.546	8056
891.650	6533
891.755	6179
891.859	9863
891.963	10197
892.068	8453
892.172	6287
892.276	4747
892.380	7765
892.484	11711
892.589	10016
892.693	7736
892.797	5443
892.901	5065
893.005	6847
893.109	11142
893.213	9612
893.317	7234
893.421	4639
893.525	4959
893.629	6886
893.733	9661
893.837	6865
893.941	6427
894.045	6210
894.148	6010
894.252	7638
894.356	10719
894.460	10302
894.564	7319
894.667	5564
894.771	3831
894.875	5133
894.978	7414
895.082	8238
895.186	8586
895.289	6545
895.393	6872
895.496	8651
895.600	6460
895.703	5417
895.807	7032
895.910	7554
896.014	8261
896.117	4768
896.221	7892
896.324	6953
896.427	5772
896.531	5745
896.634	6374
896.737	5938
896.840	7538
896.944	9037
897.047	9412
897.150	7188
897.253	4955
897.356	4497
897.460	4636
897.563	6105
897.666	8629
897.769	8081
897.872	5504
897.975	4919
898.078	6584
898.181	5424
898.284	6519
898.387	7892
898.490	7999
898.593	5080
898.695	5269
898.798	5831
898.901	3894
899.004	5162
899.107	6034
899.209	6401
899.312	9847
899.415	4544
899.518	3889
899.620	4485
899.723	4651
899.826	4702
899.928	4691
900.031	6293
900.133	8454
900.236	5626
900.338	3580
900.441	4530
900.543	6539
900.646	5874
900.748	5744
900.851	7669
900.953	4924
901.055	4902
901.158	5803
901.260	4459
901.362	3974
901.465	4285
901.567	7418
901.669	6868
901.771	5983
901.873	6174
901.976	6018
902.078	6109
902.180	5217
902.282	4274
902.384	6759
902.486	8261
902.588	6504
902.690	4282
902.792	3438
902.894	6144
902.996	6871
903.098	6116
903.200	4647
903.302	4810
903.404	4885
903.505	4453
903.607	5637
903.709	9030
903.811	8010
903.913	5058
904.014	4005
904.116	3678
904.218	4675
904.319	6002
904.421	9430
904.523	7140
904.624	5015
904.726	4790
904.827	3765
904.929	4825
905.030	5442
905.132	8122
905.233	6456
905.335	4402
905.436	3244
905.537	4475
905.639	5542
905.740	5874
905.841	7306
905.943	5651
906.044	5256
906.145	4051
906.247	4006
906.348	5174
906.449	6086
906.550	5943
906.651	4915
906.752	4331
906.854	3866
906.955	4416
907.056	5636
907.157	7388
907.258	6911
907.359	3945
907.460	3554
907.561	3758
907.662	4141
907.762	4531
907.863	6411
907.964	6024
908.065	5158
908.166	3925
908.267	5183
908.367	3617
908.468	4010
908.569	5882
908.670	7064
908.770	5391
908.871	6606
908.971	6353
909.072	4522
909.173	4511
909.273	4924
909.374	6578
909.474	5510
909.575	4097
909.675	4345
909.776	5299
909.876	4821
909.977	4751
910.077	6466
910.177	7417
910.278	5074
910.378	4026
910.478	4366
910.579	6169
910.679	5218
910.779	5553
910.879	6390
910.980	5833
911.080	5771
911.180	3853
911.280	3928
911.380	3787
911.480	3434
911.580	5046
911.680	5328
911.780	5619
911.880	5812
911.980	3515
912.080	5347
912.180	5900
912.280	5498
912.380	4412
912.480	3072
912.580	3878
912.679	5368
912.779	6835
912.879	6181
912.979	4339
913.078	3876
913.178	4569
913.278	3865
913.377	4051
913.477	4410
913.577	4728
913.676	6198
913.776	6818
913.875	4626
913.975	4491
914.074	5593
914.174	5505
914.273	3631
914.373	5374
914.472	4796
914.572	4175
914.671	4799
914.770	4252
914.870	4911
914.969	5017
915.068	5748
915.167	5721
915.267	4786
915.366	5182
915.465	5701
915.564	5829
915.663	5216
915.763	5289
915.862	6974
915.961	5580
916.060	4351
916.159	3837
916.258	4628
916.357	4339
916.456	5929
916.555	5467
916.654	5406
916.752	6502
916.851	5854
916.950	3980
917.049	4725
917.148	4532
917.247	4263
917.345	4132
917.444	4074
917.543	4490
917.642	4821
917.740	6095
917.839	9035
917.937	8534
918.036	6350
918.135	5184
918.233	4835
918.332	3755
918.430	4213
918.529	4448
918.627	5521
918.726	6969
918.824	6234
918.923	4689
919.021	5264
919.119	3770
919.218	4052
919.316	5618
919.414	5478
919.512	7155
919.611	6707
919.709	6623
919.807	8100
919.905	8869
920.003	7752
920.102	7555
920.200	7312
920.298	7981
920.396	8270
920.494	7185
920.592	6910
920.690	7019
920.788	7841
920.886	8588
920.984	9807
921.082	9470
921.180	9604
921.277	9762
921.375	11758
921.473	15404
921.571	14271
921.669	12581
921.766	11930
921.864	13529
921.962	12530
922.060	12468
922.157	12694
922.255	14225
922.352	13898
922.450	14389
922.548	15214
922.645	17701
922.743	22344
922.840	36171
922.938	36567
923.035	33232
923.133	32539
923.230	39311
923.327	45967
923.425	39653
923.522	40455
923.619	35914
923.717	33850
923.814	32837
923.911	32311
924.008	33496
924.106	31680
924.203	31360
924.300	33514
924.397	31029
924.494	32619
924.591	31287
924.688	30568
924.786	31973
924.883	31250
924.979	32241
925.077	32163
925.173	28702
925.270	31563
925.367	31538
925.464	32086
925.561	33740
925.658	32467
925.755	28165
925.852	32858
925.948	29598
926.045	29852
926.142	30716
926.239	29946
926.335	26105
926.432	30575
926.529	31943
926.625	32416
926.722	26513
926.818	28130
926.915	30890
927.011	28780
927.108	28793
927.204	28467
927.301	25126
927.397	31719
927.494	31461
927.590	22405
927.687	26699
927.783	32548
927.879	30275
927.976	25295
928.072	25231
928.168	28758
928.264	27674
928.361	26959
928.457	30095
928.553	23026
928.649	27153
928.745	25698
928.841	24316
928.937	26818
929.033	25818
929.129	26270
929.225	28675
929.321	23474
929.417	24336
929.513	28023
929.609	24232
929.705	24674
929.801	26456
929.897	22396
929.993	23930
930.089	24961
930.184	22397
930.280	25958
930.376	28309
930.471	22693
930.567	19657
930.663	23893
930.758	21554
930.854	22662
930.950	22612
931.045	20546
931.141	22248
931.236	28983
931.332	22523
931.427	20923
931.523	26558
931.618	23229
931.714	16800
931.809	22289
931.905	24175
932.000	16219
932.095	17708
932.191	26574
932.286	28417
932.381	20313
932.476	18054
932.572	21113
932.667	18133
932.762	19313
932.857	22695
932.952	25512
933.047	19771
933.142	17151
933.237	22070
933.332	22668
933.427	23509
933.522	19316
933.617	17509
933.712	18735
933.807	24731
933.902	24936
933.997	23104
934.092	16764
934.187	20665
934.282	20062
934.376	21570
934.471	21260
934.566	17268
934.661	19165
934.755	21332
934.850	21420
934.945	18194
935.039	15894
935.134	14330
935.228	20841
935.323	25232
935.417	15554
935.512	12810
935.606	15625
935.701	20497
935.795	22033
935.890	17931
935.984	15596
936.079	14443
936.173	17916
936.267	16095
936.362	15535
936.456	19664
936.550	23016
936.644	17686
936.738	14498
936.833	14730
936.927	12929
937.021	16207
937.115	19767
937.209	18492
937.303	16810
937.397	14086
937.491	16735
937.585	18919
937.679	16700
937.773	13695
937.867	12762
937.961	14066
938.055	21488
938.149	16050
938.243	11330
938.337	11837
938.430	15519
938.524	18034
938.618	14426
938.712	13225
938.805	14503
938.899	18824
938.993	19504
939.086	11655
939.180	9960
939.274	13239
939.367	17384
939.461	17781
939.554	12770
939.648	12933
939.741	12757
939.835	16890
939.928	20662
940.022	17332
940.115	14984
940.208	17204
940.302	20625
940.395	18949
940.488	13250
940.582	12510
940.675	11382
940.768	13098
940.861	17960
940.954	16318
941.048	10036
941.141	10702
941.234	12513
941.327	13985
941.420	16004
941.513	15941
941.606	11426
941.699	13319
941.792	16309
941.885	14550
941.978	14144
942.071	13775
942.164	10599
942.257	11030
942.349	14184
942.442	13741
942.535	11317
942.628	11587
942.721	12650
942.813	12152
942.906	14043
942.999	12056
943.091	11531
943.184	12616
943.277	12010
943.369	9003
943.462	9141
943.554	11474
943.647	12274
943.739	16141
943.832	13553
943.924	6754
944.017	9292
944.109	9104
944.201	11364
944.294	10802
944.386	12614
944.478	10210
944.571	9718
944.663	9895
944.755	11734
944.847	12489
944.940	10703
945.032	7992
945.124	8614
945.216	11307
945.308	12321
945.400	10354
945.492	10224
945.584	14238
945.676	13980
945.768	11598
945.860	14178
945.952	13862
946.044	10388
946.136	9827
946.228	9747
946.320	10498
946.412	11803
946.503	13546
946.595	12733
946.687	8789
946.779	7971
946.870	9503
946.962	8927
947.054	9752
947.145	12908
947.237	9684
947.329	10198
947.420	11750
947.512	9046
947.603	7727
947.695	8959
947.786	8888
947.878	9483
947.969	10496
948.061	12163
948.152	8531
948.243	7220
948.335	6900
948.426	8487
948.517	10509
948.609	11072
948.700	10862
948.791	8582
948.882	6316
948.973	7987
949.065	10115
949.156	8968
949.247	7033
949.338	8273
949.429	5832
949.520	7975
949.611	9587
949.702	10058
949.793	8730
949.884	9253
949.975	7481
950.066	5432
950.157	6878
950.247	7431
950.338	6605
950.429	7701
950.520	7867
950.611	6923
950.701	9445
950.792	11580
950.883	9904
950.973	8926
951.064	9573
951.155	10149
951.245	10002
951.336	9433
951.427	11432
951.517	11989
951.608	9658
951.698	7865
951.788	6611
951.879	6427
951.969	6775
952.060	7417
952.150	9133
952.240	11087
952.331	8799
952.421	8834
952.511	6536
952.602	5845
952.692	4906
952.782	6104
952.872	7207
952.962	8504
953.052	7335
953.143	6612
953.233	6952
953.323	7749
953.413	9201
953.503	8656
953.593	7585
953.683	7434
953.773	6086
953.863	6034
953.953	5116
954.042	7711
954.132	8172
954.222	7697
954.312	6100
954.402	6474
954.492	6719
954.581	8435
954.671	6420
954.761	6417
954.850	7364
954.940	4103
955.030	5077
955.119	5468
955.209	5960
955.298	8225
955.388	8751
955.477	8067
955.567	5600
955.656	5990
955.746	6018
955.835	4394
955.925	5416
956.014	8452
956.103	9028
956.193	10312
956.282	8523
956.371	7099
956.461	6712
956.550	6668
956.639	5618
956.728	6181
956.817	6477
956.906	7652
956.995	7534
957.085	5899
957.174	6249
957.263	5299
957.352	6127
957.441	6458
957.530	5367
957.619	6024
957.708	6213
957.796	6507
957.885	6600
957.974	6159
958.063	6272
958.152	4843
958.241	5005
958.329	4304
958.418	5722
958.507	6208
958.596	8335
958.684	5680
958.773	6351
958.861	5273
958.950	4957
959.039	4979
959.127	5787
959.216	6590
959.304	5734
959.393	6652
959.481	5998
959.570	4864
959.658	4221
959.746	5267
959.835	5768
959.923	5383
960.011	4929
960.100	7024
960.188	6812
960.276	5759
960.365	4825
960.453	4540
960.541	4309
960.629	4759
960.717	3313
960.805	3945
960.893	4949
960.981	6669
961.069	8818
961.158	8880
961.245	9147
961.333	8188
961.421	5870
961.509	6141
961.597	5485
961.685	5632
961.773	6404
961.861	6337
961.949	7176
962.036	4225
962.124	5033
962.212	4787
962.299	4469
962.387	4447
962.475	4728
962.562	4895
962.650	5459
962.738	5025
962.825	3220
962.913	4447
963.000	4543
963.088	5580
963.175	5288
963.263	4925
963.350	5024
963.438	4917
963.525	4135
963.612	5349
963.700	4805
963.787	5655
963.874	4634
963.962	4504
964.049	3612
964.136	3522
964.223	3804
964.310	3127
964.398	3569
964.485	5239
964.572	4638
964.659	5052
964.746	4085
964.833	3847
964.920	4484
965.007	4207
965.094	4931
965.181	4585
965.268	4782
965.355	5080
965.441	4802
965.528	5146
965.615	4840
965.702	4613
965.789	5025
965.875	6058
965.962	5561
966.049	5093
966.136	7732
966.222	6320
966.309	6043
966.395	4954
966.482	5889
966.569	5222
966.655	6090
966.742	4436
966.828	4620
966.915	4429
967.001	3202
967.087	2998
967.174	3427
967.260	4620
967.347	4291
967.433	4685
967.519	5246
967.605	4608
967.692	4435
967.778	4645
967.864	4200
967.950	3687
968.036	3600
968.123	4904
968.209	3360
968.295	3675
968.381	4599
968.467	4028
968.553	3422
968.639	4956
968.725	4236
968.811	5814
968.897	5564
968.983	4165
969.069	3122
969.154	3499
969.240	3607
969.326	2893
969.412	3366
969.497	3002
969.583	3536
969.669	5810
969.755	5126
969.840	5387
969.926	9225
970.012	10539
970.097	11587
970.183	7492
970.268	6151
970.354	5155
970.439	3727
970.525	5158
970.610	4244
970.696	5571
970.781	3616
970.866	3628
970.952	4762
971.037	4254
971.122	3980
971.208	4534
971.293	4659
971.378	3704
971.463	4247
971.549	3895
971.634	3746
971.719	4124
971.804	3885
971.889	4660
971.974	3088
972.059	4950
972.144	3974
972.229	4705
972.314	3765
972.399	3644
972.484	3397
972.569	3475
972.654	2746
972.739	4605
972.824	3999
972.908	3281
972.993	3074
973.078	3703
973.163	4181
973.247	3241
973.332	2945
973.417	5275
973.501	3542
973.586	4610
973.671	4808
973.755	2775
973.840	4612
973.924	5690
974.009	7562
974.093	6322
974.178	7323
974.262	4525
974.346	4800
974.431	5097
974.515	4868
974.600	4903
974.684	4412
974.768	4642
974.852	5475
974.937	3977
975.021	5210
975.105	4298
975.189	3760
975.273	4271
975.358	3527
975.442	3240
975.526	4725
975.610	3158
975.694	4102
975.778	4345
975.862	3485
975.946	1777
976.030	4983
976.114	4146
976.198	3752
976.281	3499
976.365	4913
976.449	2648
976.533	4315
976.617	3197
976.700	2894
976.784	3480
976.868	3050
976.951	3218
977.035	2959
977.119	4334
977.202	3857
977.286	5197
977.369	6720
977.453	9492
977.536	8940
977.620	6371
977.703	5321
977.787	5206
977.870	6396
977.953	6246
978.037	3465
978.120	4881
978.203	4329
978.287	5787
978.370	4636
978.453	3915
978.536	4692
978.620	5208
978.703	5193
978.786	4113
978.869	3023
978.952	3213
979.035	6147
979.118	4691
979.201	4600
979.284	5530
979.367	3961
979.450	4590
979.533	3623
979.616	3823
979.699	3879
979.782	5000
979.865	4055
979.948	3982
980.030	3797
980.113	3555
980.196	3065
980.279	4371
980.361	4501
980.444	5137
980.526	6110
980.609	9670
980.692	9451
980.774	8565
980.857	5574
980.939	6693
981.022	5179
981.104	5202
981.187	5072
981.269	6343
981.352	6115
981.434	4515
981.516	4883
981.599	6218
981.681	4460
981.763	5400
981.846	4963
981.928	4653
982.010	5089
982.092	4751
982.174	6748
982.256	4969
982.339	4823
982.421	4588
982.503	5070
982.585	4626
982.667	5124
982.749	5271
982.831	4366
982.913	4149
982.995	5601
983.077	5391
983.158	6971
983.240	5630
983.322	8286
983.404	11252
983.486	9493
983.568	8656
983.649	7179
983.731	8016
983.813	5991
983.894	7251
983.976	6813
984.058	5623
984.139	6776
984.221	5553
984.302	6295
984.384	6066
984.465	6186
984.547	6550
984.628	6346
984.710	7186
984.791	6226
984.872	6566
984.954	6400
985.035	6556
985.116	6029
985.198	5410
985.279	6497
985.360	7433
985.441	4999
985.522	7212
985.604	6513
985.685	4821
985.766	6693
985.847	8351
985.928	6099
986.009	6809
986.090	6452
986.171	7479
986.252	6425
986.333	6472
986.414	5854
986.495	7579
986.576	7474
986.656	7813
986.737	7802
986.818	8313
986.899	6815
986.980	7175
987.060	8031
987.141	8053
987.222	8697
987.302	9590
987.383	10570
987.464	9791
987.544	9101
987.625	9365
987.705	11044
987.786	10789
987.866	9223
987.947	9255
988.027	9848
988.108	9061
988.188	8757
988.268	8223
988.349	9636
988.429	8056
988.509	7541
988.589	7974
988.670	6230
988.750	8762
988.830	6852
988.910	8015
988.990	8062
989.070	7766
989.151	7251
989.231	6785
989.311	7099
989.391	5898
989.471	7161
989.551	7211
989.631	6264
989.711	8280
989.791	8803
989.870	6259
989.950	7998
990.030	6784
990.110	6401
990.190	5384
990.269	6070
990.349	7215
990.429	6836
990.509	6596
990.588	4936
990.668	6344
990.747	7138
990.827	5937
990.907	6120
990.986	6044
991.066	6323
991.145	5030
991.225	6668
991.304	6973
991.383	6222
991.463	6040
991.542	5836
991.622	5344
991.701	5002
991.780	4606
991.859	4770
991.939	5525
992.018	6006
992.097	6011
992.176	4716
992.256	5117
992.335	5015
992.414	5803
992.493	4876
992.572	4094
992.651	6706
992.730	5351
992.809	4946
992.888	4297
992.967	4798
993.046	5073
993.125	3644
993.203	5325
993.282	5293
993.361	4623
993.440	3658
993.519	4059
993.597	4492
993.676	5140
993.755	4892
993.834	4278
993.912	3709
993.991	5186
994.069	3928
994.148	4500
994.226	2993
994.305	4224
994.384	5061
994.462	5206
994.540	3806
994.619	3646
994.697	4733
994.776	4512
994.854	4403
994.932	3598
995.011	3028
995.089	3220
995.167	3781
995.245	3353
995.324	3109
995.402	4783
995.480	2649
995.558	4625
995.636	2715
995.714	3689
995.792	4358
995.870	3270
995.948	3347
996.026	4157
996.104	2767
996.182	3908
996.260	2808
996.338	2818
996.416	2611
996.494	3467
996.572	4667
996.649	2372
996.727	2850
996.805	4228
996.883	3207
996.960	3300
997.038	3041
997.116	3449
997.193	2140
997.271	2543
997.348	1686
997.426	2657
997.504	3599
997.581	2802
997.658	2090
997.736	1534
997.813	2195
997.891	3186
997.968	1909
998.046	2526
998.123	1703
998.200	3414
998.277	2877
998.355	2970
998.432	1043
998.509	1658
998.586	3797
998.663	2131
998.741	2487
998.818	1825
998.895	1840
998.972	3339
999.049	3073
999.126	1206
999.203	2034
999.280	2049
999.357	1429
999.434	2126
999.511	2109
999.587	2117
999.664	1013
999.741	2312
999.818	2677
999.895	1928
999.971	1803
1000.048	1490
1000.125	1921
1000.202	1254
1000.278	1709
1000.355	2119
1000.431	809
1000.508	173
1000.584	1885
1000.661	1215
1000.738	1130
1000.814	1499
1000.890	1967
1000.967	831
1001.043	1049
1001.120	505
1001.196	620
1001.272	553
1001.349	1233
1001.425	2192
1001.501	1390
1001.577	1536
1001.654	1417
1001.730	1054
1001.806	1481
1001.882	1790
1001.958	2321
1002.034	1821
1002.110	415
1002.186	835
1002.262	724
1002.338	111
1002.414	1955
1002.490	2001
1002.566	792
1002.642	620
1002.718	1696
1002.794	647
1002.870	861
1002.945	1091
1003.021	1366
1003.097	605
1003.173	1109
1003.248	696
1003.324	531
1003.400	1083
1003.475	611
1003.551	422
1003.626	267
1003.702	747
1003.777	63
1003.853	559
1003.928	159
1004.004	-57
1004.079	1382
1004.155	1540
1004.230	-29
1004.305	618
1004.381	-439
1004.456	986
1004.531	-169
1004.607	374
1004.682	509
1004.757	149
1004.832	-132
1004.907	89
1004.982	570
1005.057	533
1005.133	447
1005.208	-422
1005.283	4
1005.358	683
1005.433	-45
1005.508	651
1005.583	-110
1005.657	897
1005.732	137
1005.807	-516
1005.882	254
1005.957	121
1006.032	105
1006.106	636
1006.181	173
1006.256	1802
1006.331	39
1006.405	283
1006.480	372
1006.554	-525
1006.629	-393
1006.704	72
1006.778	370
1006.853	437
1006.927	-95
1007.002	-475
1007.076	-577
1007.150	-4
1007.225	-109
1007.299	381
1007.373	-742
1007.448	-347
1007.522	255
1007.596	137
1007.671	51
1007.745	729
1007.819	-662
1007.893	144
1007.967	145
1008.041	-771
1008.115	866
1008.190	-977
1008.264	-210
1008.338	-869
1008.412	-1091
1008.486	-321
1008.560	109
1008.633	126
1008.707	40
1008.781	230
1008.855	-280
1008.929	-103
1009.003	-448
1009.076	195
1009.150	-1090
1009.224	22
1009.298	-204
1009.371	-517
1009.445	709
1009.519	-172
1009.592	-918
1009.666	-498
1009.739	-142
1009.813	-369
1009.886	695
1009.960	-1308
1010.033	522
1010.107	20
1010.180	-964
1010.253	-28
1010.327	-85
1010.400	-846
1010.473	-1032
1010.547	468
1010.620	-40
1010.693	-428
1010.766	-899
1010.840	399
1010.913	109
1010.986	-1046
1011.059	-753
1011.132	-273
1011.205	-873
1011.278	-848
1011.351	-770
1011.424	-748
1011.497	-1863
1011.570	-245
1011.643	-1185
1011.716	-652
1011.789	-534
1011.862	-451
1011.934	-313
1012.007	-1561
1012.080	-308
1012.153	-308
1012.225	-1056
1012.298	-501
1012.371	-1485
1012.443	394
1012.516	-1615
1012.588	-1054
1012.661	-1114
1012.733	-1169
1012.806	-781
1012.879	-802
1012.951	-507
1013.023	-1904
1013.096	-259
1013.168	-590
1013.241	131
1013.313	-352
1013.385	-1165
1013.458	-911
1013.530	-365
1013.602	-1670
1013.674	-1065
1013.746	-1920
1013.819	-1487
1013.891	-166
1013.963	-1157
1014.035	-625
1014.107	-590
1014.179	-624
1014.251	-1034
1014.323	-885
1014.395	-1223
1014.467	-805
1014.539	-1204
1014.611	-1160
1014.683	-1039
1014.754	-494
1014.826	-1655
1014.898	-1758
1014.970	-1099
1015.042	-575
1015.113	-487
1015.185	-652
1015.257	-1516
1015.328	-582
1015.400	-985
1015.471	-1500
1015.543	-1213
1015.615	-1167
1015.686	-1636
1015.757	-1036
1015.829	-1517
1015.901	-1230
1015.972	-1123
1016.043	-1470
1016.115	-1597
1016.186	-1290
1016.257	-1492
1016.328	-173
1016.400	-997
1016.471	-1480
1016.542	-647
1016.613	-1275
1016.685	-1017
1016.756	-734
1016.827	-1935
1016.898	-1456
1016.969	-429
1017.040	-1255
1017.111	-1053
1017.182	-1425
1017.253	-2108
1017.324	-1254
1017.395	-1526
1017.466	-1619
1017.537	-1473
1017.608	-1204
1017.678	-1543
1017.749	-826
1017.820	-1104
1017.891	-1773
1017.961	-1335
1018.032	-1453
1018.103	-850
1018.173	-1799
1018.244	-2921
1018.315	-88
1018.385	-1602
1018.456	-1514
1018.526	-1437
1018.597	-1267
1018.667	-1305
1018.738	-2353
1018.808	-1681
1018.878	-1868
1018.949	-1841
1019.019	-1878
1019.089	-1647
1019.160	-1505
1019.230	-2580
1019.300	-1380
1019.371	-2418
1019.441	-885
1019.511	-1317
1019.581	-894
1019.651	-1331
1019.721	-1285
1019.791	-1960
1019.861	-1701
1019.931	-805
1020.001	-2378
1020.071	-1229
1020.141	-1226
1020.211	-1989
1020.281	-1883
1020.351	-2234
1020.421	-1484
1020.491	-1424
1020.560	-2840
1020.630	-2441
1020.700	-819
1020.770	-1304
1020.839	-2126
1020.909	-2177
1020.979	-1970
1021.048	-2105
1021.118	-1999
1021.187	-1136
1021.257	-1345
1021.326	-1926
1021.396	-1495
1021.465	-1712
1021.535	-1931
1021.604	-2114
1021.674	-2592
1021.743	-1109
1021.812	-1867
1021.882	-1336
1021.951	-1802
1022.020	-1575
1022.089	-1125
1022.159	-1563
1022.228	-1412
1022.297	-1506
1022.366	-1800
1022.435	-978
1022.504	-1469
1022.573	-1367
1022.642	-1533
1022.711	-1772
1022.781	-1471
1022.849	-1489
1022.918	-1562
1022.987	-2199
1023.056	-1786
1023.125	-1445
1023.194	-1725
1023.263	-1796
1023.331	-1322
1023.400	-2482
1023.469	-1308
1023.538	-1206
1023.606	-1906
1023.675	-1639
1023.744	-2572
1023.812	-1841
1023.881	-1098
1023.949	-1764
1024.018	-1746
1024.086	-2371
1024.155	-1296
1024.223	-1581
1024.292	-1279
1024.360	-1964
1024.429	-1821
1024.497	-2298
1024.565	-1806
1024.634	-2349
1024.702	-1967
1024.770	-1316
1024.838	-1986
1024.907	-1429
1024.975	-1821
1025.043	-1722
1025.111	-1931
1025.179	-2325
1025.247	-1697
1025.315	-1925
1025.383	-1222
1025.451	-2080
1025.519	-1686
1025.587	-1429
1025.655	-1901
1025.723	-2123
1025.791	-2537
1025.859	-1828
1025.927	-1653
1025.995	-2349
1026.062	-1789
1026.130	-1650
1026.198	-1342
1026.266	-2534
1026.333	-1478
1026.401	-1930
1026.469	-1392
1026.536	-1276
1026.604	-1027
1026.671	-2586
1026.739	-1834
1026.806	-2206
1026.874	-1874
1026.941	-1923
1027.009	-1906
1027.076	-2239
1027.144	-1586
1027.211	-2361
1027.278	-1669
1027.345	-1629
1027.413	-1909
1027.480	-1528
1027.547	-756
1027.614	-1703
1027.682	-1656
1027.749	-1577
1027.816	-2011
1027.883	-1608
1027.950	-1369
1028.017	-1902
1028.084	-1322
1028.151	-1668
1028.218	-1741
1028.285	-1625
1028.352	-2019
1028.419	-2375
1028.486	-1459
1028.553	-1639
1028.619	-1992
1028.686	-1519
1028.753	-1533
1028.820	-2239
1028.886	-2101
1028.953	-1265
1029.020	-1330
1029.086	-2542
1029.153	-2085
1029.220	-2729
1029.286	-1627
1029.353	-1860
1029.419	-2007
1029.486	-1471
1029.552	-2685
1029.619	-1723
1029.685	-1292
1029.751	-1783
1029.818	-1062
1029.884	-2604
1029.951	-1631
1030.017	-2168
1030.083	-2232
1030.149	-2174
1030.216	-1777
1030.282	-1425
1030.348	-1559
1030.414	-2468
1030.480	-2048
1030.546	-1673
1030.612	-1713
1030.678	-1835
1030.744	-1626
1030.810	-2039
1030.876	-2007
1030.942	-1892
1031.008	-2220
1031.074	-2660
1031.140	-1514
1031.206	-1960
1031.272	-1544
1031.337	-1350
1031.403	-1833
1031.469	-2060
1031.534	-2137
1031.600	-883
1031.666	-2110
1031.731	-2495
1031.797	-2058
1031.863	-2079
1031.928	-1984
1031.994	-1814
1032.059	-1826
1032.125	-1249
1032.190	-1198
1032.256	-2080
1032.321	-1775
1032.386	-1974
1032.452	-1872
1032.517	-2355
1032.582	-1307
1032.647	-1442
1032.713	-2063
1032.778	-2070
1032.843	-2268
1032.908	-1166
1032.974	-1784
1033.039	-2240
1033.104	-1099
1033.169	-2140
1033.234	-2014
1033.299	-2061
1033.364	-2332
1033.429	-1554
1033.494	-1790
1033.559	-2429
1033.624	-1659
1033.688	-764
1033.753	-1227
1033.818	-1756
1033.883	-659
1033.948	-862
1034.013	-324
1034.077	40
1034.142	923
1034.207	1777
1034.271	3301
1034.336	4053
1034.400	1503
1034.465	-316
1034.530	-1046
1034.594	-1978
1034.658	-1529
1034.723	-1688
1034.787	-1557
1034.852	-1816
1034.916	-1566
1034.981	-1823
1035.045	-1252
1035.109	-1282
1035.173	-1723
1035.238	-1825
1035.302	-1994
1035.366	-2219
1035.430	-1853
1035.495	-2445
1035.559	-1264
1035.623	-1841
1035.687	-1822
1035.751	-1694
1035.815	-1427
1035.879	-1939
1035.943	-2368
1036.007	-2487
1036.071	-2098
1036.135	-1610
1036.198	-1836
1036.262	-2413
1036.326	-1717
1036.390	-2140
1036.454	-1837
1036.517	-2728
1036.581	-1715
1036.645	-1841
1036.709	-1239
1036.772	-2468
1036.836	-1771
1036.900	-1579
1036.963	-2334
1037.026	-1656
1037.090	-1702
1037.154	-1924
1037.217	-1987
1037.280	-1651
1037.344	-1659
1037.407	-2418
1037.471	-1354
1037.534	-1182
1037.597	-1750
1037.661	-1599
1037.724	-1878
1037.787	-2142
1037.850	-1425
1037.913	-1493
1037.977	-1412
1038.040	-2532
1038.103	-1968
1038.166	-2509
1038.229	-2903
1038.292	-2170
1038.355	-1815
1038.418	-1783
1038.481	-1704
1038.544	-2384
1038.607	-1792
1038.670	-1423
1038.732	-2404
1038.795	-2051
1038.858	-1742
1038.921	-1941
1038.984	-1259
1039.046	-1381
1039.109	-2449
1039.172	-2408
1039.234	-2099
1039.297	-1765
1039.360	-1213
1039.422	-1725
1039.485	-1856
1039.547	-2365
1039.610	-1694
1039.672	-2090
1039.734	-1103
1039.797	-1058
1039.859	-2411
1039.922	-2213
1039.984	-1676
1040.046	-2015
1040.109	-1739
1040.171	-1643
1040.233	-1676
1040.295	-2493
1040.358	-1747
1040.420	-2203
1040.482	-1579
1040.544	-2821
1040.606	-1249
1040.668	-2074
1040.730	-2090
1040.792	-2588
1040.854	-2000
1040.916	-1740
1040.978	-3326
1041.040	-1584
1041.102	-1099
1041.164	-1952
1041.225	-1740
1041.287	-2410
1041.349	-1785
1041.411	-2532
1041.472	-2619
1041.534	-2691
1041.596	-1832
1041.657	-2222
1041.719	-1657
1041.781	-1849
1041.842	-2321
1041.904	-1876
1041.965	-1933
1042.027	-2921
1042.088	-1508
1042.150	-1865
1042.211	-2135
1042.272	-2466
1042.334	-1459
1042.395	-1388
1042.456	-1478
1042.518	-1586
1042.579	-1015
1042.640	-2279
1042.701	-2250
1042.763	-2584
1042.824	-2234
1042.885	-2118
1042.946	-1695
1043.007	-2617
1043.068	-2223
1043.129	-2651
1043.190	-1564
1043.251	-1955
1043.312	-2201
1043.373	-1758
1043.434	-2311
1043.495	-2396
1043.556	-1095
1043.616	-1896
1043.677	-1561
1043.738	-2077
1043.799	-1779
1043.859	-1885
1043.920	-2586
1043.981	-1901
1044.041	-897
1044.102	-2597
1044.162	-946
1044.223	-2522
1044.284	-2082
1044.344	-2073
1044.405	-1720
1044.465	-2308
1044.525	-2258
1044.586	-1894
1044.646	-1543
1044.707	-1082
1044.767	-2121
1044.827	-1791
1044.887	-2270
1044.948	-1499
1045.008	-1934
1045.068	-2322
1045.128	-1834
1045.188	-1246
1045.249	-1616
1045.309	-1726
1045.369	-1797
1045.429	-1441
1045.489	-1542
1045.549	-1825
1045.609	-1156
1045.669	-2109
1045.729	-1873
1045.789	-1382
1045.848	-1770
1045.908	-1706
1045.968	-1130
1046.028	-1702
1046.088	-1292
1046.147	-1786
1046.207	-1305
1046.267	-1234
1046.326	-1682
1046.386	-1978
1046.446	-766
1046.505	-1204
1046.565	-763
1046.624	-1278
1046.684	-748
1046.743	-1305
1046.803	-535
1046.862	-612
1046.922	0
