'Start Wavelength	183.907
'End Wavelength	1046.922
'Gate Delay	5.000
'Gate Width (ms)	1.050
'Laser Output Level	0.000
'X Position	0.000
'Y Position	0.000
'Z Position	0.000
'Grid Point Number	1.000
'Shot Number	100.000
183.907	130.000
183.977	-221.000
184.047	806
184.116	793
184.186	-146
184.256	933
184.325	-186
184.395	-94
184.465	240
184.534	-33
184.604	-992
184.674	-46
184.743	22
184.813	133
184.883	400
184.952	899
185.022	292
185.092	122
185.161	-269
185.231	75
185.301	333
185.370	465
185.440	132
185.509	-245
185.579	512
185.649	758
185.718	-135
185.788	6
185.857	353
185.927	61
185.996	657
186.066	152
186.136	230
186.205	299
186.275	799
186.344	350
186.414	314
186.483	-76
186.553	1713
186.622	1421
186.692	372
186.761	382
186.831	581
186.900	327
186.970	161
187.039	627
187.109	1039
187.178	579
187.248	368
187.317	1007
187.387	317
187.456	369
187.526	-245
187.595	1144
187.664	-67
187.734	921
187.803	-81
187.873	419
187.942	103
188.012	1256
188.081	7
188.150	866
188.220	894
188.289	462
188.358	1916
188.428	282
188.497	121
188.567	979
188.636	598
188.705	-273
188.775	545
188.844	101
188.913	682
188.983	180
189.052	168
189.121	912
189.191	-346
189.260	1251
189.329	259
189.399	-139
189.468	140
189.537	228
189.606	216
189.676	1692
189.745	856
189.814	134
189.883	260
189.953	245
190.022	937
190.091	-492
190.161	1238
190.230	1221
190.299	-356
190.368	-154
190.437	361
190.507	210
190.576	423
190.645	865
190.714	580
190.783	328
190.853	181
190.922	692
190.991	403
191.060	800
191.129	-135
191.198	259
191.268	516
191.337	9
191.406	1210
191.475	200
191.544	-389
191.613	1357
191.682	923
191.752	1183
191.821	-246
191.890	335
191.959	-180
192.028	831
192.097	47
192.166	163
192.235	106
192.304	356
192.373	-318
192.442	449
192.511	-313
192.580	436
192.650	-77
192.719	-295
192.788	692
192.857	563
192.926	-255
192.995	505
193.064	968
193.133	996
193.202	659
193.271	311
193.340	153
193.409	577
193.478	923
193.547	584
193.615	718
193.684	760
193.753	447
193.822	418
193.891	807
193.960	1398
194.029	521
194.098	567
194.167	-118
194.236	965
194.305	-718
194.374	637
194.443	1034
194.512	734
194.580	365
194.649	636
194.718	-140
194.787	-136
194.856	3
194.925	1071
194.994	-188
195.062	1122
195.131	-353
195.200	26
195.269	209
195.338	1079
195.407	993
195.475	52
195.544	499
195.613	-467
195.682	498
195.751	129
195.819	405
195.888	326
195.957	969
196.026	577
196.094	776
196.163	341
196.232	752
196.301	466
196.369	-617
196.438	188
196.507	146
196.576	502
196.644	200
196.713	303
196.782	-197
196.850	1209
196.919	467
196.988	452
197.056	640
197.125	585
197.194	428
197.262	943
197.331	832
197.400	-169
197.468	12
197.537	-37
197.606	-542
197.674	1119
197.743	653
197.812	171
197.880	1500
197.949	425
198.017	930
198.086	58
198.155	48
198.223	588
198.292	703
198.360	88
198.429	592
198.497	518
198.566	733
198.635	1431
198.703	1678
198.772	680
198.840	691
198.909	1292
198.977	-47
199.046	876
199.114	1111
199.183	310
199.251	-382
199.320	274
199.388	27
199.457	349
199.525	27
199.594	391
199.662	1267
199.731	397
199.799	-227
199.867	789
199.936	420
200.004	664
200.073	1047
200.141	330
200.210	-538
200.278	652
200.346	608
200.415	919
200.483	463
200.552	978
200.620	391
200.688	1068
200.757	-14
200.825	112
200.893	449
200.962	448
201.030	853
201.098	679
201.167	150
201.235	231
201.303	44
201.372	709
201.440	643
201.508	20
201.577	604
201.645	143
201.713	618
201.781	656
201.850	956
201.918	274
201.986	45
202.055	1023
202.123	-218
202.191	210
202.259	642
202.327	998
202.396	577
202.464	-105
202.532	399
202.600	647
202.669	110
202.737	841
202.805	-335
202.873	804
202.941	-60
203.009	813
203.078	749
203.146	1361
203.214	-420
203.282	-151
203.350	465
203.418	759
203.487	343
203.555	86
203.623	652
203.691	-128
203.759	511
203.827	583
203.895	-383
203.963	46
204.031	281
204.099	627
204.168	81
204.236	897
204.304	1090
204.372	341
204.440	455
204.508	287
204.576	365
204.644	298
204.712	819
204.780	751
204.848	920
204.916	-532
204.984	-356
205.052	648
205.120	315
205.188	332
205.256	297
205.324	700
205.392	-197
205.460	736
205.528	-794
205.596	523
205.664	361
205.732	369
205.799	-327
205.867	2301
205.935	-904
206.003	656
206.071	482
206.139	338
206.207	274
206.275	645
206.343	666
206.411	-22
206.478	677
206.546	951
206.614	359
206.682	975
206.750	1261
206.818	1224
206.885	1233
206.953	-16
207.021	1336
207.089	623
207.157	231
207.225	562
207.292	-222
207.360	465
207.428	101
207.496	-16
207.563	-203
207.631	-253
207.699	-70
207.767	626
207.834	480
207.902	185
207.970	386
208.038	-2
208.105	563
208.173	395
208.241	1242
208.309	1434
208.376	1294
208.444	264
208.512	-324
208.579	847
208.647	1937
208.715	1155
208.782	-115
208.850	547
208.918	-5
208.985	39
209.053	100
209.120	671
209.188	258
209.256	692
209.323	1
209.391	-100
209.459	1832
209.526	257
209.594	328
209.661	-26
209.729	496
209.796	680
209.864	1119
209.932	-667
209.999	1014
210.067	256
210.134	923
210.202	418
210.269	530
210.337	3237
210.404	1330
210.472	983
210.539	235
210.607	565
210.674	289
210.742	599
210.809	392
210.877	1033
210.944	780
211.012	403
211.079	1454
211.146	539
211.214	1145
211.281	3753
211.349	3507
211.416	998
211.484	1382
211.551	388
211.618	1256
211.686	1091
211.753	338
211.821	1469
211.888	436
211.955	1510
212.023	1092
212.090	1694
212.157	430
212.225	447
212.292	1147
212.359	1677
212.427	6285
212.494	2056
212.561	1153
212.629	768
212.696	666
212.763	214
212.831	124
212.898	1094
212.965	161
213.032	328
213.100	266
213.167	776
213.234	848
213.301	1608
213.369	453
213.436	921
213.503	-233
213.570	893
213.638	58
213.705	272
213.772	45
213.839	-10
213.906	-60
213.973	566
214.041	-228
214.108	1202
214.175	232
214.242	32
214.309	614
214.376	1059
214.444	-279
214.511	805
214.578	1184
214.645	1502
214.712	1184
214.779	1149
214.846	983
214.913	1234
214.980	1585
215.048	2523
215.115	2751
215.182	2110
215.249	1754
215.316	1081
215.383	964
215.450	1240
215.517	488
215.584	483
215.651	636
215.718	999
215.785	826
215.852	-358
215.919	333
215.986	82
216.053	-413
216.120	-118
216.187	793
216.254	1030
216.321	367
216.388	357
216.455	58
216.522	923
216.589	1213
216.656	758
216.722	193
216.789	941
216.856	-98
216.923	1041
216.990	1407
217.057	572
217.124	944
217.191	444
217.258	761
217.324	681
217.391	1396
217.458	969
217.525	687
217.592	968
217.659	-851
217.725	992
217.792	835
217.859	995
217.926	-184
217.993	67
218.059	1188
218.126	233
218.193	326
218.260	-249
218.327	352
218.393	-181
218.460	-346
218.527	-75
218.594	527
218.660	1426
218.727	1015
218.794	-112
218.860	720
218.927	171
218.994	302
219.061	295
219.127	904
219.194	1242
219.261	801
219.327	85
219.394	622
219.461	-809
219.527	259
219.594	982
219.661	761
219.727	-24
219.794	1977
219.860	1292
219.927	2673
219.994	4554
220.060	5372
220.127	6023
220.193	4312
220.260	3040
220.326	1824
220.393	2273
220.460	1950
220.526	742
220.593	485
220.659	2197
220.726	936
220.792	3030
220.859	3040
220.925	3671
220.992	2834
221.058	4625
221.125	3838
221.191	2858
221.258	1041
221.324	1214
221.391	791
221.457	1080
221.524	872
221.590	1407
221.657	4170
221.723	1945
221.789	1641
221.856	2560
221.922	628
221.989	881
222.055	1076
222.121	64
222.188	3224
222.254	1050
222.321	1609
222.387	660
222.453	558
222.520	850
222.586	121
222.652	379
222.719	-128
222.785	1121
222.851	651
222.918	806
222.984	-108
223.050	209
223.116	-870
223.183	1464
223.249	-278
223.315	101
223.382	47
223.448	815
223.514	-236
223.580	437
223.647	-279
223.713	761
223.779	-701
223.845	157
223.911	872
223.978	-46
224.044	599
224.110	-476
224.176	638
224.242	1099
224.309	-388
224.375	1199
224.441	355
224.507	-93
224.573	-782
224.639	705
224.705	-243
224.772	-54
224.838	-723
224.904	428
224.970	-5
225.036	45
225.102	-208
225.168	1528
225.234	1730
225.300	1265
225.366	629
225.432	1404
225.499	1414
225.565	1013
225.631	608
225.697	1349
225.763	634
225.829	384
225.895	454
225.961	828
226.027	1411
226.093	1661
226.159	1916
226.225	2237
226.291	3156
226.357	5312
226.423	1983
226.489	2667
226.554	1730
226.620	1260
226.686	1177
226.752	2146
226.818	3465
226.884	9989
226.950	8019
227.016	2685
227.082	3252
227.148	1784
227.214	1447
227.279	2783
227.345	1889
227.411	3617
227.477	7543
227.543	10598
227.609	13130
227.674	9245
227.740	4567
227.806	3665
227.872	2028
227.938	1672
228.003	1968
228.069	876
228.135	712
228.201	879
228.267	31
228.332	715
228.398	-9
228.464	1389
228.530	617
228.595	1320
228.661	92
228.727	292
228.792	1215
228.858	271
228.924	-762
228.990	1856
229.055	-1393
229.121	1227
229.187	887
229.252	152
229.318	-211
229.384	166
229.449	75
229.515	-441
229.581	-580
229.646	2558
229.712	207
229.777	1134
229.843	760
229.909	1551
229.974	1116
230.040	436
230.105	877
230.171	-294
230.236	1179
230.302	454
230.368	1004
230.433	440
230.499	128
230.564	714
230.630	-153
230.695	382
230.761	1362
230.826	-1290
230.892	1539
230.957	-135
231.023	14
231.088	394
231.154	70
231.219	1095
231.284	472
231.350	437
231.415	-620
231.481	1207
231.546	20
231.612	1263
231.677	-133
231.742	8
231.808	1846
231.873	-108
231.939	-950
232.004	461
232.069	401
232.135	-49
232.200	-264
232.265	330
232.331	551
232.396	-104
232.461	-72
232.527	-92
232.592	-255
232.657	1360
232.723	1306
232.788	1334
232.853	515
232.918	1156
232.984	-77
233.049	490
233.114	246
233.179	1943
233.245	2023
233.310	1166
233.375	-858
233.440	750
233.506	485
233.571	1152
233.636	215
233.701	62
233.766	722
233.832	757
233.897	-40
233.962	-826
234.027	1245
234.092	643
234.157	870
234.222	1628
234.288	1631
234.353	2469
234.418	2205
234.483	2006
234.548	670
234.613	649
234.678	515
234.743	457
234.808	3127
234.873	964
234.938	1665
235.004	1023
235.069	325
235.134	272
235.199	1502
235.264	989
235.329	-766
235.394	1647
235.459	1100
235.524	0
235.589	1332
235.654	532
235.719	-576
235.784	516
235.849	831
235.913	352
235.978	225
236.043	1477
236.108	1155
236.173	500
236.238	1678
236.303	1156
236.368	-124
236.433	1933
236.498	1355
236.563	1382
236.627	2781
236.692	14215
236.757	11046
236.822	3566
236.887	1785
236.952	2675
237.017	249
237.081	2563
237.146	1392
237.211	5403
237.276	14245
237.341	24825
237.405	8379
237.470	4149
237.535	2241
237.600	1972
237.664	2167
237.729	864
237.794	484
237.859	3264
237.923	1761
237.988	459
238.053	2292
238.118	1669
238.182	3648
238.247	4520
238.312	-6
238.376	1480
238.441	-37
238.506	2229
238.570	-375
238.635	2453
238.700	1196
238.764	296
238.829	1650
238.893	1489
238.958	1120
239.023	1092
239.087	1592
239.152	1770
239.216	1264
239.281	1708
239.346	1721
239.410	1498
239.475	964
239.539	5207
239.604	3729
239.668	3879
239.733	5895
239.797	14757
239.862	24065
239.926	21246
239.991	10591
240.055	5989
240.120	3731
240.184	3098
240.249	1701
240.313	1330
240.378	1150
240.442	2803
240.507	4281
240.571	1445
240.635	1722
240.700	1637
240.764	967
240.829	871
240.893	140
240.957	1851
241.022	2381
241.086	3454
241.151	450
241.215	-75
241.279	1668
241.344	1246
241.408	1168
241.472	181
241.537	1271
241.601	2174
241.665	-194
241.730	238
241.794	794
241.858	557
241.922	707
241.987	944
242.051	245
242.115	515
242.179	734
242.244	872
242.308	2031
242.372	1775
242.436	436
242.501	785
242.565	99
242.629	343
242.693	1446
242.757	51
242.822	665
242.886	1072
242.950	1569
243.014	-139
243.078	663
243.142	506
243.206	-96
243.271	1348
243.335	783
243.399	2375
243.463	4748
243.527	18119
243.591	4334
243.655	1930
243.719	1692
243.783	2656
243.847	1604
243.911	2689
243.975	1054
244.040	694
244.104	1679
244.168	1413
244.232	1366
244.296	939
244.360	1222
244.424	809
244.488	1425
244.552	520
244.615	-369
244.679	1012
244.743	1265
244.807	-766
244.871	1310
244.935	1813
244.999	-1157
245.063	597
245.127	2317
245.191	1447
245.255	1008
245.319	1162
245.383	-40
245.446	1841
245.510	-472
245.574	1126
245.638	1226
245.702	-467
245.766	2223
245.829	1566
245.893	222
245.957	595
246.021	1670
246.085	1838
246.149	1059
246.212	3108
246.276	3586
246.340	1201
246.404	1617
246.467	1622
246.531	-606
246.595	2227
246.659	2315
246.722	-102
246.786	2077
246.850	1422
246.913	850
246.977	-123
247.041	1237
247.104	1284
247.168	1231
247.232	2355
247.295	5913
247.359	1517
247.423	756
247.486	2493
247.550	1564
247.614	507
247.677	1552
247.741	1025
247.804	2411
247.868	8379
247.932	3013
247.995	6371
248.059	1885
248.122	645
248.186	2376
248.249	3324
248.313	9072
248.376	9605
248.440	5915
248.503	1043
248.567	2906
248.630	1465
248.694	2375
248.757	3619
248.821	10277
248.884	6133
248.948	4585
249.011	7188
249.075	12195
249.138	11028
249.202	3438
249.265	1488
249.328	3600
249.392	1883
249.455	1958
249.519	2611
249.582	2319
249.645	3352
249.709	2595
249.772	1670
249.835	2601
249.899	1742
249.962	2313
250.025	1369
250.089	4434
250.152	4552
250.215	2560
250.279	777
250.342	2366
250.405	2432
250.468	1258
250.532	2652
250.595	4438
250.658	17986
250.721	31952
250.785	7410
250.848	5192
250.911	2280
250.974	3124
251.038	3241
251.101	6830
251.164	2498
251.227	2625
251.290	3456
251.354	5479
251.417	28269
251.480	25398
251.543	13854
251.606	50417
251.669	32512
251.732	10486
251.795	9055
251.859	11305
251.922	31697
251.985	14564
252.048	5607
252.111	3182
252.174	2755
252.237	5770
252.300	13297
252.363	13116
252.426	40074
252.489	11982
252.552	5123
252.615	2582
252.678	4065
252.741	10723
252.804	14207
252.867	41866
252.930	17576
252.993	7664
253.056	4893
253.119	2588
253.182	1955
253.245	3463
253.308	3312
253.371	1783
253.434	1921
253.497	2941
253.559	5766
253.622	3729
253.685	2994
253.748	2347
253.811	2437
253.874	3183
253.937	1944
254.000	2098
254.062	3662
254.125	5418
254.188	4530
254.251	2779
254.314	1386
254.376	2847
254.439	3238
254.502	2412
254.565	2654
254.628	5698
254.690	1853
254.753	678
254.816	1365
254.878	1917
254.941	4532
255.004	3698
255.067	2158
255.129	467
255.192	1415
255.255	799
255.317	1770
255.380	1925
255.443	2616
255.505	2516
255.568	1703
255.631	847
255.693	2161
255.756	2607
255.819	3584
255.881	2972
255.944	2276
256.006	1336
256.069	468
256.132	1368
256.194	1708
256.257	2948
256.319	3183
256.382	4103
256.444	6388
256.507	4799
256.569	2570
256.632	1827
256.694	2536
256.757	6992
256.819	22560
256.882	7350
256.944	3007
257.007	2899
257.069	2636
257.132	1822
257.194	2486
257.257	1615
257.319	1948
257.381	2298
257.444	6261
257.506	27560
257.569	25827
257.631	8496
257.693	4916
257.756	3169
257.818	1961
257.880	1678
257.943	2682
258.005	673
258.067	1806
258.130	1742
258.192	1934
258.254	1982
258.317	2670
258.379	1939
258.441	3259
258.503	3233
258.566	3766
258.628	4965
258.690	1487
258.753	2468
258.815	2267
258.877	1832
258.939	2288
259.001	2213
259.064	1569
259.126	1670
259.188	2522
259.250	2086
259.312	1678
259.375	2976
259.437	2771
259.499	2380
259.561	1620
259.623	1658
259.685	1109
259.747	2371
259.809	4170
259.872	7051
259.934	10858
259.996	8680
260.058	2301
260.120	1170
260.182	1633
260.244	1857
260.306	1711
260.368	1638
260.430	1330
260.492	2434
260.554	3600
260.616	2163
260.678	4413
260.740	5122
260.802	972
260.864	2158
260.926	1501
260.988	2919
261.050	1476
261.112	2505
261.174	7141
261.236	4478
261.298	1930
261.359	3340
261.421	3887
261.483	1816
261.545	2926
261.607	1024
261.669	2482
261.731	2663
261.793	4388
261.854	1505
261.916	2497
261.978	2005
262.040	2288
262.102	1998
262.164	2198
262.225	2359
262.287	2392
262.349	2147
262.411	2055
262.472	2056
262.534	2055
262.596	3034
262.658	2864
262.719	1191
262.781	3148
262.843	1946
262.904	2979
262.966	2707
263.028	2479
263.090	7919
263.151	18355
263.213	5645
263.275	2271
263.336	2439
263.398	2958
263.459	943
263.521	2552
263.583	2931
263.644	2603
263.706	1827
263.767	1555
263.829	1780
263.891	2235
263.952	1045
264.014	1569
264.075	2126
264.137	2213
264.198	2994
264.260	1589
264.321	1357
264.383	1998
264.444	3802
264.506	1189
264.567	1368
264.629	3259
264.690	1944
264.752	2954
264.813	1922
264.875	1436
264.936	2553
264.998	2287
265.059	3529
265.120	2679
265.182	2839
265.243	9531
265.305	10042
265.366	4472
265.427	2509
265.489	3425
265.550	1819
265.611	2992
265.673	2556
265.734	2745
265.795	2501
265.857	2679
265.918	1934
265.979	4048
266.040	17863
266.102	13805
266.163	5019
266.224	3461
266.286	2917
266.347	2454
266.408	2747
266.469	2729
266.530	2702
266.592	2945
266.653	2487
266.714	2850
266.775	1714
266.836	2206
266.898	2123
266.959	1694
267.020	2067
267.081	2559
267.142	2061
267.203	2652
267.264	1675
267.326	2758
267.387	2040
267.448	1284
267.509	2177
267.570	1937
267.631	1986
267.692	1136
267.753	3066
267.814	1543
267.875	2830
267.936	2905
267.997	2486
268.058	1759
268.119	1157
268.180	1576
268.241	1249
268.302	2157
268.363	1113
268.424	2587
268.485	1497
268.546	2048
268.607	1188
268.668	1718
268.729	2082
268.790	1872
268.851	2249
268.912	2124
268.972	3246
269.033	1088
269.094	1257
269.155	1420
269.216	1936
269.277	2202
269.338	2485
269.398	2656
269.459	1670
269.520	1895
269.581	1406
269.642	1443
269.702	1971
269.763	2629
269.824	1856
269.885	1542
269.945	1275
270.006	1742
270.067	2182
270.128	1987
270.188	1313
270.249	1551
270.310	1848
270.370	2582
270.431	2005
270.492	1271
270.553	2150
270.613	2704
270.674	3141
270.734	1593
270.795	2300
270.856	2535
270.916	2556
270.977	2170
271.038	2314
271.098	2362
271.159	1931
271.219	2604
271.280	2298
271.340	1837
271.401	1868
271.462	1851
271.522	2777
271.583	2668
271.643	1961
271.704	2284
271.764	2372
271.825	3430
271.885	9476
271.946	13074
272.006	5432
272.066	7616
272.127	12806
272.187	15629
272.248	8599
272.308	3943
272.369	7775
272.429	6133
272.489	3329
272.550	3707
272.610	3658
272.671	3401
272.731	3544
272.791	3686
272.852	1772
272.912	3339
272.972	2714
273.033	2866
273.093	2676
273.153	4104
273.214	1980
273.274	2795
273.334	4376
273.394	8305
273.455	3854
273.515	3660
273.575	6105
273.635	5160
273.696	4912
273.756	9049
273.816	4626
273.876	3907
273.936	4563
273.997	6941
274.057	3053
274.117	2243
274.177	3771
274.237	9948
274.297	9018
274.358	5303
274.418	7169
274.478	5189
274.538	3856
274.598	3332
274.658	5360
274.718	6436
274.778	3727
274.838	3891
274.898	4920
274.958	8317
275.018	10446
275.078	7115
275.138	4022
275.198	3652
275.258	2948
275.318	3958
275.378	3052
275.438	4591
275.498	3366
275.558	5660
275.618	8753
275.678	6741
275.738	5807
275.798	4870
275.858	3307
275.918	2014
275.978	3763
276.038	4083
276.098	3615
276.157	4236
276.217	5928
276.277	3541
276.337	3039
276.397	3122
276.457	3113
276.517	4189
276.576	3879
276.636	2855
276.696	2940
276.756	4884
276.815	3850
276.875	4569
276.935	3398
276.995	4356
277.055	4573
277.114	4950
277.174	3962
277.234	5220
277.293	3261
277.353	2991
277.413	2027
277.472	3096
277.532	2521
277.592	4821
277.651	7587
277.711	14161
277.771	6214
277.830	14613
277.890	12163
277.950	11647
278.009	30447
278.069	12250
278.128	12221
278.188	14074
278.248	8006
278.307	14857
278.367	10688
278.426	5811
278.486	4710
278.545	4184
278.605	4787
278.664	2872
278.724	3271
278.783	5942
278.843	10296
278.902	4999
278.962	3169
279.021	4673
279.081	6253
279.140	5799
279.199	5252
279.259	5304
279.318	6664
279.378	7354
279.437	10524
279.496	26660
279.556	92596
279.615	62737
279.675	18650
279.734	11256
279.793	12455
279.853	17707
279.912	9604
279.971	7527
280.031	7341
280.090	10416
280.149	14544
280.208	13725
280.268	63927
280.327	57902
280.386	14018
280.445	9289
280.505	6613
280.564	5398
280.623	4961
280.682	6027
280.742	7282
280.801	4835
280.860	4608
280.919	4754
280.978	3454
281.037	3905
281.097	3284
281.156	4958
281.215	3888
281.274	5119
281.333	6986
281.392	5765
281.451	3331
281.510	3885
281.569	3647
281.628	3501
281.688	3695
281.747	3297
281.806	3421
281.865	4353
281.924	3090
281.983	3613
282.042	3076
282.101	3691
282.160	4005
282.219	4543
282.278	2851
282.337	4960
282.396	3892
282.454	3893
282.513	3819
282.572	5166
282.631	3520
282.690	3690
282.749	3022
282.808	3378
282.867	3718
282.926	3665
282.985	3294
283.043	3715
283.102	3390
283.161	3257
283.220	4721
283.279	6533
283.338	4743
283.396	3352
283.455	3992
283.514	4148
283.573	3648
283.631	3886
283.690	3573
283.749	3347
283.808	4763
283.866	4371
283.925	3395
283.984	4146
284.043	3514
284.101	4925
284.160	2520
284.219	5060
284.277	4814
284.336	4872
284.395	7171
284.453	6682
284.512	4528
284.570	5434
284.629	4886
284.688	5382
284.746	4479
284.805	5788
284.863	7208
284.922	8557
284.981	10285
285.039	13264
285.098	20731
285.156	47099
285.215	101598
285.273	95914
285.332	49511
285.390	25599
285.449	17338
285.507	12639
285.566	9027
285.624	8395
285.683	6863
285.741	6419
285.799	5476
285.858	5522
285.916	5968
285.975	4347
286.033	4203
286.091	4607
286.150	4532
286.208	4215
286.267	3987
286.325	4551
286.383	4604
286.442	4455
286.500	4166
286.558	3956
286.616	3708
286.675	4876
286.733	3386
286.791	4341
286.850	4748
286.908	3790
286.966	4832
287.024	3787
287.083	3411
287.141	4904
287.199	4535
287.257	4632
287.315	4279
287.374	3968
287.432	4625
287.490	4949
287.548	4446
287.606	3954
287.664	4631
287.723	4517
287.781	5205
287.839	4927
287.897	5039
287.955	6307
288.013	7532
288.071	10814
288.129	35740
288.187	96641
288.245	39547
288.303	14122
288.361	9345
288.419	7019
288.477	5482
288.535	5896
288.593	5223
288.651	5450
288.709	4085
288.767	5201
288.825	3996
288.883	4632
288.941	3302
288.999	3866
289.057	3609
289.115	3657
289.173	4482
289.231	4433
289.289	3825
289.346	3658
289.404	4677
289.462	5014
289.520	3905
289.578	4167
289.636	3908
289.694	5063
289.751	4364
289.809	4018
289.867	4326
289.925	4933
289.983	4293
290.040	4361
290.098	4388
290.156	3936
290.214	3815
290.271	3643
290.329	5651
290.387	4950
290.444	5368
290.502	3757
290.560	3738
290.617	4345
290.675	4404
290.733	3618
290.790	4569
290.848	5105
290.906	4034
290.963	4759
291.021	4061
291.078	3745
291.136	3921
291.194	5430
291.251	6037
291.309	4062
291.366	4365
291.424	4106
291.481	4132
291.539	4710
291.596	5179
291.654	3158
291.711	4797
291.769	5239
291.826	4964
291.884	4468
291.941	3541
291.999	4285
292.056	4424
292.114	4296
292.171	4162
292.228	5241
292.286	4420
292.343	4930
292.401	5202
292.458	4954
292.515	4928
292.573	6218
292.630	5315
292.687	4502
292.745	4532
292.802	4254
292.859	4923
292.917	7217
292.974	5321
293.031	4741
293.089	4420
293.146	4132
293.203	4674
293.260	3492
293.318	4886
293.375	4706
293.432	3453
293.489	4182
293.546	4712
293.604	4917
293.661	7609
293.718	12499
293.775	8030
293.832	5587
293.889	5445
293.947	5991
294.004	4708
294.061	4306
294.118	5033
294.175	6342
294.232	7175
294.289	5689
294.346	5785
294.403	4520
294.460	4519
294.517	4413
294.574	5342
294.631	4609
294.688	4947
294.745	6541
294.802	11794
294.859	10339
294.916	6189
294.973	4442
295.030	4309
295.087	4221
295.144	5140
295.201	4302
295.258	4453
295.315	4910
295.372	6472
295.429	10125
295.486	6209
295.542	5203
295.599	5353
295.656	6968
295.713	5514
295.770	8407
295.827	5606
295.883	4329
295.940	4928
295.997	4706
296.054	3633
296.111	5265
296.167	4216
296.224	3727
296.281	4594
296.338	5063
296.394	3840
296.451	3546
296.508	4698
296.564	7237
296.621	5656
296.678	12329
296.734	14793
296.791	7190
296.848	4854
296.904	5294
296.961	6047
297.018	9333
297.074	6690
297.131	5300
297.187	5035
297.244	5553
297.301	10802
297.357	17636
297.414	7936
297.470	5179
297.527	5217
297.583	4818
297.640	4801
297.696	4905
297.753	4107
297.809	3938
297.866	3772
297.922	5604
297.979	3114
298.035	4601
298.092	3915
298.148	7310
298.204	6873
298.261	5212
298.317	7694
298.374	13156
298.430	9180
298.486	5298
298.543	4942
298.599	5430
298.656	5665
298.712	5990
298.768	9373
298.824	7771
298.881	5128
298.937	5373
298.993	4697
299.050	5534
299.106	4679
299.162	4784
299.218	5942
299.275	5536
299.331	5189
299.387	8723
299.443	17542
299.500	37980
299.556	28442
299.612	13898
299.668	13054
299.724	32185
299.780	36316
299.837	16851
299.893	12897
299.949	27815
300.005	36737
300.061	29757
300.117	42696
300.173	21493
300.229	10796
300.285	10261
300.341	9002
300.397	8588
300.453	6346
300.510	7562
300.566	9317
300.622	16274
300.678	47282
300.734	54514
300.790	27951
300.845	21753
300.901	28830
300.957	39422
301.013	20256
301.069	9828
301.125	8498
301.181	7372
301.237	6386
301.293	5811
301.349	6095
301.405	5451
301.461	5343
301.516	5440
301.572	4653
301.628	5441
301.684	4665
301.740	5937
301.796	6841
301.851	5975
301.907	6782
301.963	7226
302.019	11971
302.074	28402
302.130	27532
302.186	13884
302.242	8313
302.297	6047
302.353	5998
302.409	6641
302.464	6636
302.520	6066
302.576	10207
302.631	11440
302.687	6960
302.743	5532
302.798	4360
302.854	4435
302.910	4205
302.965	4697
303.021	4844
303.076	5711
303.132	5187
303.187	5476
303.243	4644
303.299	5043
303.354	4204
303.410	5362
303.465	4121
303.521	4882
303.576	4518
303.632	4897
303.687	5657
303.743	10923
303.798	9606
303.853	6013
303.909	4954
303.964	4142
304.020	5160
304.075	4426
304.130	4651
304.186	5446
304.241	6533
304.297	5795
304.352	4190
304.358	4248
304.407	4721
304.449	4575
304.463	4526
304.518	5236
304.539	4716
304.573	3882
304.629	4625
304.630	4637
304.684	5321
304.720	7641
304.739	8740
304.794	12830
304.811	11192
304.850	7315
304.902	5344
304.905	5227
304.960	5662
304.992	4856
305.015	4218
305.071	5238
305.083	4812
305.126	3311
305.173	3917
305.181	4031
305.236	3685
305.264	4203
305.292	4671
305.347	3962
305.354	4051
305.402	4792
305.445	4705
305.457	4628
305.512	5001
305.535	4862
305.567	4783
305.622	4796
305.626	4856
305.678	6185
305.716	8725
305.733	9557
305.788	9693
305.807	8859
305.843	7961
305.897	10531
305.898	10548
305.953	11050
305.988	7755
306.008	6080
306.063	5329
306.078	5038
306.118	4406
306.168	4394
306.173	4397
306.228	3323
306.259	3794
306.283	4242
306.338	3764
306.349	3974
306.393	4678
306.440	4609
306.448	4595
306.503	4663
306.530	4738
306.558	5007
306.613	5847
306.620	5875
306.668	6165
306.711	7477
306.723	7552
306.778	6645
306.801	5778
306.833	4987
306.888	4859
306.892	4789
306.943	4187
306.982	4060
306.997	4007
307.052	4506
307.072	4442
307.107	4284
307.162	3944
307.163	3947
307.217	4584
307.253	5006
307.272	5104
307.327	4191
307.343	4231
307.381	4575
307.434	4639
307.436	4681
307.491	5936
307.524	6929
307.546	6978
307.600	6971
307.614	6711
307.655	5901
307.704	4953
307.710	4959
307.765	4524
307.795	5278
307.819	5883
307.874	6926
307.885	7003
307.929	7461
307.975	9053
307.984	9770
308.038	14038
308.065	16181
308.093	28972
308.148	61461
308.156	68391
308.202	91775
308.246	102710
308.257	98608
308.312	48744
308.336	29686
308.366	21039
308.421	12723
308.426	12111
308.475	9330
308.517	7542
308.530	7085
308.585	6391
308.607	6144
308.639	6098
308.694	6460
308.697	6473
308.748	7463
308.787	8290
308.803	8224
308.857	7999
308.877	7729
308.912	7900
308.967	9018
308.967	9026
309.021	12231
309.058	14783
309.076	19441
309.130	35288
309.148	41327
309.185	84042
309.238	157216
309.239	157326
309.293	146612
309.328	119206
309.348	100641
309.402	45070
309.418	31634
309.457	22829
309.508	14831
309.511	14632
309.566	13394
309.598	13192
309.620	13603
309.674	15075
309.688	15629
309.729	15108
309.778	13237
309.783	13043
309.837	10588
309.868	9373
309.892	9552
309.946	10450
309.959	10692
310.001	11076
310.049	11293
310.055	11054
310.109	8528
310.139	7026
310.163	6498
310.218	5917
310.229	5736
310.272	5758
310.319	6322
310.326	6283
310.381	5296
310.409	5030
310.435	5225
310.489	5323
310.499	5411
310.543	5096
310.589	4566
310.598	4646
310.652	5131
310.679	5312
310.706	5250
310.760	5312
310.769	5285
310.814	5569
310.859	5961
310.868	5957
310.923	5838
310.948	5859
310.977	5885
311.031	5566
311.038	5570
311.085	5836
311.128	5800
311.139	5836
311.193	6067
311.218	6175
311.247	6029
311.301	5884
311.308	5835
311.356	5410
311.398	5104
311.410	5171
311.464	5407
311.488	5531
311.518	5691
311.572	5936
311.578	5963
311.626	5959
311.668	5878
311.680	5923
311.734	6155
311.758	6206
311.788	6197
311.842	6227
311.847	6221
311.896	6667
311.937	7041
311.950	6954
312.004	6515
312.027	6325
312.058	6380
312.112	6459
312.117	6455
312.165	6106
312.207	5792
312.297	6036
312.386	5538
312.476	6404
312.566	6446
312.656	6340
312.745	6984
312.835	6555
312.925	7071
313.015	6862
313.104	7613
313.194	7847
313.284	8468
313.374	8699
313.463	9430
313.553	10095
313.643	9821
313.732	11158
313.822	11608
313.912	12048
314.001	12788
314.091	12288
314.180	13118
314.270	13012
314.360	12537
314.449	12708
314.539	12504
314.628	12778
314.718	13550
314.808	14185
314.897	14929
314.987	16078
315.076	16946
315.166	16370
315.255	15954
315.345	15460
315.434	16801
315.524	19087
315.613	23820
315.703	41436
315.792	151221
315.881	457079
315.971	132794
316.060	34562
316.150	21750
316.239	18498
316.328	15813
316.418	16034
316.507	17468
316.597	20243
316.686	19774
316.775	17925
316.865	17391
316.954	15166
317.043	14417
317.133	13931
317.222	14176
317.311	13416
317.400	14573
317.490	17685
317.579	22960
317.668	33275
317.757	66338
317.847	253603
317.936	598992
318.025	201971
318.114	217467
318.203	77838
318.293	27891
318.382	30382
318.471	28886
318.560	24454
318.649	23148
318.738	14373
318.828	11548
318.917	9476
319.006	9542
319.095	11916
319.184	18210
319.273	12183
319.362	10972
319.451	8677
319.540	9986
319.629	9462
319.718	11441
319.807	10195
319.896	12711
319.985	20251
320.074	12086
320.163	10156
320.252	10588
320.341	11569
320.430	11766
320.519	13127
320.608	13724
320.697	15601
320.786	17194
320.875	20532
320.964	21089
321.053	22988
321.142	25186
321.230	27649
321.319	28706
321.408	31869
321.497	30125
321.586	26372
321.675	24426
321.764	23933
321.852	23799
321.941	25282
322.030	25359
322.119	28725
322.207	32461
322.296	35111
322.385	37104
322.474	39061
322.562	40475
322.651	31155
322.740	26261
322.829	23804
322.917	21788
323.006	20470
323.095	18476
323.183	16454
323.272	15966
323.361	17679
323.449	22906
323.538	14984
323.626	18165
323.715	13776
323.804	12145
323.892	16228
323.981	12282
324.069	11234
324.158	13427
324.246	11920
324.335	10255
324.424	10466
324.512	9974
324.601	10203
324.689	10004
324.778	10353
324.866	9863
324.954	9521
325.043	8558
325.131	9208
325.220	11160
325.308	9837
325.397	9992
325.485	8072
325.574	8510
325.662	7962
325.750	8259
325.839	8481
325.927	7874
326.015	8171
326.104	8285
326.192	8924
326.280	7453
326.369	7713
326.457	8064
326.545	8798
326.634	7800
326.722	7811
326.810	8576
326.898	10225
326.987	10879
327.075	9145
327.163	10609
327.251	9737
327.340	11088
327.428	14710
327.516	16107
327.604	13428
327.692	11441
327.781	9713
327.869	7864
327.957	7624
328.045	6588
328.133	7334
328.221	6926
328.309	7266
328.397	7612
328.485	8935
328.574	15519
328.662	20663
328.750	14510
328.838	11057
328.926	8410
329.014	6987
329.102	7804
329.190	8404
329.278	6443
329.366	7327
329.454	6376
329.542	6126
329.630	5641
329.718	6930
329.806	6650
329.893	7453
329.981	6567
330.069	6608
330.157	7028
330.245	7528
330.333	6780
330.421	6311
330.509	6611
330.597	9713
330.684	7943
330.772	7020
330.860	7241
330.948	6977
331.036	6513
331.123	6890
331.211	6760
331.299	6855
331.387	7748
331.475	7729
331.562	6872
331.650	6598
331.738	6602
331.825	7876
331.913	6565
332.001	7048
332.089	7499
332.176	8117
332.264	8930
332.352	8171
332.439	7657
332.527	7983
332.614	7928
332.702	8953
332.790	8350
332.877	9136
332.965	10983
333.052	9617
333.140	9437
333.228	12580
333.315	9366
333.403	10241
333.490	11155
333.578	11738
333.665	16343
333.753	14470
333.840	13547
333.928	15596
334.015	19521
334.103	26772
334.190	39074
334.278	40532
334.365	49230
334.452	45995
334.540	36519
334.627	39966
334.715	48749
334.802	68774
334.889	104440
334.977	108079
335.064	65471
335.151	41195
335.239	31499
335.326	27886
335.413	32753
335.501	32828
335.588	31104
335.675	35951
335.762	44467
335.850	60461
335.937	84513
336.024	121867
336.111	162090
336.199	119541
336.286	66756
336.373	42117
336.460	30869
336.547	23808
336.635	21126
336.722	17879
336.809	16610
336.896	15576
336.983	17453
337.070	21689
337.157	24948
337.245	21387
337.332	17892
337.419	14459
337.506	13322
337.593	13226
337.680	14259
337.767	15855
337.854	11914
337.941	11564
338.028	11883
338.115	11016
338.202	12333
338.289	12849
338.376	16338
338.463	11428
338.550	12707
338.637	12064
338.724	9574
338.811	9598
338.898	8134
338.984	8491
339.071	8350
339.158	8930
339.245	9385
339.332	8685
339.419	9303
339.506	9376
339.593	7554
339.679	7777
339.766	8196
339.853	8141
339.940	8344
340.027	7588
340.113	8407
340.200	8202
340.287	7992
340.374	7697
340.460	8244
340.547	6734
340.634	8752
340.720	11441
340.807	7544
340.894	9171
340.980	8066
341.067	7132
341.154	8366
341.240	8397
341.327	8727
341.414	8713
341.500	7795
341.587	8066
341.674	8048
341.760	8945
341.847	8465
341.933	7792
342.020	7040
342.106	7360
342.193	7352
342.279	8012
342.366	7480
342.452	7842
342.539	7369
342.625	8295
342.712	10156
342.798	8289
342.885	6797
342.971	7654
343.058	6963
343.144	6919
343.230	8013
343.317	7257
343.403	7268
343.490	8121
343.576	7541
343.662	7520
343.749	7539
343.835	8498
343.921	10527
344.008	30609
344.094	40742
344.180	12152
344.267	9246
344.353	12586
344.439	10503
344.525	7801
344.612	9150
344.698	7956
344.784	7432
344.870	7912
344.957	6700
345.043	8200
345.129	7045
345.215	7688
345.301	6883
345.387	8022
345.474	7308
345.560	7020
345.646	7392
345.732	7689
345.818	7249
345.904	6516
345.990	7068
346.076	7211
346.162	7895
346.249	7934
346.335	7051
346.421	8653
346.507	11762
346.593	15979
346.679	8411
346.765	11360
346.851	16632
346.937	13320
347.023	9957
347.108	9124
347.194	8033
347.280	9919
347.366	14798
347.452	36633
347.538	45518
347.624	24279
347.710	14243
347.796	8814
347.882	9047
347.967	8300
348.053	7833
348.139	7810
348.225	8106
348.311	7594
348.397	7986
348.482	9996
348.568	11674
348.654	18092
348.740	47793
348.825	47825
348.911	23065
348.997	20538
349.083	20403
349.168	9610
349.254	8840
349.340	7400
349.425	7895
349.511	8035
349.597	8060
349.682	9078
349.768	12516
349.854	9151
349.939	8421
350.025	8141
350.110	7828
350.196	7675
350.282	7250
350.367	7872
350.453	7956
350.538	7314
350.624	7561
350.709	7295
350.795	7793
350.880	7191
350.966	7734
351.051	7579
351.137	7034
351.222	7741
351.308	9045
351.393	10699
351.479	7368
351.564	7247
351.649	8091
351.735	7637
351.820	6963
351.906	7851
351.991	7397
352.076	9864
352.162	9751
352.247	8064
352.332	7613
352.418	8120
352.503	7895
352.588	12871
352.673	9513
352.759	7440
352.844	6831
352.929	7822
353.014	6255
353.100	8381
353.185	8312
353.270	8001
353.355	8783
353.441	8166
353.526	6848
353.611	8055
353.696	7510
353.781	8512
353.866	6550
353.952	8127
354.037	7840
354.122	9531
354.207	8733
354.292	8073
354.377	7621
354.462	7850
354.547	7807
354.632	7329
354.717	8590
354.802	7927
354.887	7483
354.972	8258
355.057	8002
355.142	7788
355.227	8166
355.312	8340
355.397	8501
355.482	11186
355.567	8810
355.652	9514
355.737	9151
355.822	13371
355.907	10120
355.991	9437
356.076	7276
356.161	8643
356.246	7500
356.331	8671
356.416	10700
356.501	28348
356.585	20536
356.670	8790
356.755	9890
356.840	9996
356.924	25525
357.009	51835
357.094	19012
357.179	9248
357.263	9373
357.348	9860
357.433	9306
357.517	9461
357.602	8789
357.687	8363
357.771	10806
357.856	11740
357.941	12363
358.025	28053
358.110	66499
358.195	26975
358.279	11539
358.364	12040
358.448	15161
358.533	20976
358.617	15546
358.702	14590
358.787	10105
358.871	9983
358.956	10032
359.040	9725
359.125	8526
359.209	8732
359.294	12668
359.378	20772
359.462	16095
359.547	9545
359.631	8925
359.716	8469
359.800	8220
359.885	9343
359.969	8223
360.053	9864
360.138	8306
360.222	9209
360.306	8866
360.391	9937
360.475	11968
360.559	12735
360.644	11965
360.728	11603
360.812	22242
360.896	33112
360.981	16149
361.065	11384
361.149	11571
361.233	11012
361.318	9945
361.402	11543
361.486	12381
361.570	12782
361.654	13679
361.739	16636
361.823	33990
361.907	40980
361.991	22575
362.075	27942
362.159	40636
362.243	76007
362.327	152289
362.411	161409
362.495	71086
362.580	45021
362.664	44769
362.748	54855
362.832	88864
362.916	182680
363.000	365301
363.084	368173
363.168	165079
363.252	66340
363.336	42337
363.420	34253
363.503	37050
363.587	32767
363.671	27444
363.755	28061
363.839	33577
363.923	37172
364.007	48582
364.091	68792
364.175	112581
364.258	233863
364.342	450719
364.426	538576
364.510	278626
364.594	111927
364.677	65649
364.761	59757
364.845	40100
364.929	26131
365.013	20375
365.096	19205
365.180	17748
365.264	19600
365.347	28758
365.431	17358
365.515	12955
365.598	12027
365.682	14264
365.766	12384
365.849	13589
365.933	12097
366.017	12759
366.100	12893
366.184	12457
366.267	13057
366.351	12189
366.435	11206
366.518	11419
366.602	12425
366.685	11447
366.769	12106
366.852	12152
366.936	12643
367.019	12291
367.103	10841
367.186	12669
367.270	12370
367.353	12183
367.436	14799
367.520	13738
367.603	14939
367.687	13470
367.770	13177
367.853	13469
367.937	17916
368.020	17806
368.104	11018
368.187	12272
368.270	12433
368.353	11064
368.437	11696
368.520	14051
368.603	12507
368.687	13359
368.770	15192
368.853	10871
368.936	11835
369.020	9884
369.103	8459
369.186	8866
369.269	9412
369.352	10320
369.436	10038
369.519	10075
369.602	7451
369.685	10620
369.768	8094
369.851	9663
369.934	9073
370.018	8624
370.101	9651
370.184	11936
370.267	11128
370.350	13342
370.433	21403
370.516	89109
370.599	243861
370.682	113028
370.765	26200
370.848	20126
370.931	20494
371.014	14197
371.097	9174
371.180	9993
371.263	9860
371.346	8115
371.429	10021
371.511	9068
371.594	9607
371.677	10348
371.760	11239
371.843	12882
371.926	33140
372.009	48579
372.091	19024
372.174	14779
372.257	22137
372.340	13111
372.423	11567
372.505	11929
372.588	10277
372.671	14361
372.754	19272
372.836	14391
372.919	14456
373.002	15701
373.085	11259
373.167	13893
373.250	17116
373.332	26414
373.415	49960
373.498	79645
373.580	97069
373.663	340267
373.746	289760
373.828	55884
373.911	22216
373.993	17985
374.076	21720
374.159	18867
374.241	17132
374.324	22296
374.406	20404
374.489	31280
374.571	48111
374.654	22318
374.736	22433
374.819	38713
374.901	56134
374.983	49733
375.066	19413
375.148	17613
375.231	22441
375.313	26093
375.395	17709
375.478	16343
375.560	16587
375.643	17079
375.725	24997
375.807	44951
375.890	31354
375.972	15791
376.054	16311
376.136	16158
376.219	14411
376.301	22298
376.383	30565
376.465	17050
376.548	12961
376.630	16928
376.712	24354
376.794	14848
376.877	10860
376.959	9183
377.041	10232
377.123	10358
377.205	10538
377.287	9266
377.369	9998
377.452	10564
377.534	9962
377.616	9510
377.698	10245
377.780	9462
377.862	9228
377.944	11536
378.026	8620
378.108	10221
378.190	9291
378.272	9905
378.354	9257
378.436	8863
378.518	9310
378.600	11227
378.682	11634
378.764	13511
378.846	12550
378.928	9948
379.010	10027
379.091	10334
379.173	10412
379.255	9094
379.337	10068
379.419	12910
379.501	17231
379.583	11172
379.664	10138
379.746	10015
379.828	15122
379.910	15579
379.991	14765
380.073	9475
380.155	9496
380.237	9762
380.318	9653
380.400	10184
380.482	10699
380.564	11247
380.645	11337
380.727	10136
380.809	11254
380.890	10412
380.972	9752
381.053	9987
381.135	11296
381.217	11816
381.298	15281
381.380	12880
381.461	15320
381.543	28990
381.624	28280
381.706	13051
381.787	12202
381.869	14441
381.951	27399
382.032	54335
382.113	32496
382.195	13136
382.276	14587
382.358	17822
382.439	26763
382.521	36861
382.602	45919
382.684	26755
382.765	34984
382.846	47099
382.928	63638
383.009	39440
383.090	46222
383.172	117778
383.253	128104
383.334	49247
383.416	41672
383.497	27829
383.578	25140
383.659	44241
383.741	128948
383.822	218801
383.903	97715
383.984	39401
384.066	43618
384.147	29660
384.228	23955
384.309	25160
384.390	27235
384.471	25024
384.553	23803
384.634	20876
384.715	20351
384.796	19198
384.877	19395
384.958	24596
385.039	23360
385.120	19039
385.201	19202
385.282	19513
385.363	21751
385.444	24163
385.525	26405
385.606	33969
385.687	30484
385.768	24337
385.849	25439
385.930	45053
386.011	53068
386.092	28820
386.173	25935
386.254	23019
386.335	22021
386.416	21877
386.496	24053
386.577	25819
386.658	23145
386.739	23611
386.820	24746
386.901	24478
386.981	29064
387.062	32855
387.143	34900
387.224	36727
387.304	36382
387.385	35862
387.466	34349
387.547	38304
387.627	37792
387.708	40065
387.789	47873
387.869	46011
387.950	35238
388.031	32215
388.111	29951
388.192	34820
388.273	37052
388.353	31232
388.434	21984
388.514	23546
388.595	36477
388.676	33379
388.756	23175
388.837	22233
388.917	20772
388.998	16341
389.078	19361
389.159	18534
389.239	16224
389.320	19088
389.400	16768
389.480	20368
389.561	21717
389.641	20361
389.722	18385
389.802	18844
389.883	20850
389.963	24986
390.043	20857
390.124	16885
390.204	19728
390.284	22910
390.365	19833
390.445	26549
390.525	42459
390.605	36692
390.686	21409
390.766	21582
390.846	22052
390.927	20662
391.007	19537
391.087	23023
391.167	22456
391.247	22064
391.328	24595
391.408	26261
391.488	27057
391.568	25791
391.648	28123
391.728	30901
391.808	33173
391.888	33655
391.969	38790
392.049	41301
392.129	43052
392.209	47909
392.289	56373
392.369	56559
392.449	62218
392.529	67793
392.609	80158
392.689	93481
392.769	114893
392.849	141995
392.929	184882
393.009	257367
393.089	391460
393.169	680809
393.248	1148945
393.328	1420799
393.408	1316936
393.488	986014
393.568	560402
393.648	327246
393.728	212461
393.807	150366
393.887	117637
393.967	94101
394.047	76986
394.127	67553
394.206	67463
394.286	116626
394.366	271367
394.446	234461
394.525	73180
394.605	44529
394.685	42057
394.764	48276
394.844	72611
394.924	78441
395.003	46510
395.083	35426
395.163	32941
395.242	31853
395.322	33054
395.402	31714
395.481	37897
395.561	49764
395.640	110417
395.720	169254
395.799	98860
395.879	58606
395.958	60766
396.038	137622
396.117	342674
396.197	312826
396.276	122110
396.356	96710
396.435	118514
396.515	165928
396.594	262916
396.673	521410
396.753	1020252
396.832	1305242
396.912	1059236
396.991	561301
397.070	275828
397.150	166273
397.229	133860
397.308	191140
397.388	258991
397.467	138165
397.546	63950
397.625	46647
397.705	42212
397.784	36702
397.863	32764
397.942	30044
398.022	28034
398.101	26258
398.180	30950
398.259	24726
398.338	23084
398.417	20304
398.497	19646
398.576	19695
398.655	17640
398.734	17007
398.813	16531
398.892	18197
398.971	23127
399.050	17162
399.129	13936
399.208	14977
399.287	15410
399.366	13204
399.445	14067
399.524	13566
399.603	12047
399.682	13812
399.761	15626
399.840	21518
399.919	17740
399.998	11326
400.077	11096
400.156	10514
400.235	13592
400.313	10101
400.392	10294
400.471	13689
400.550	13560
400.629	9917
400.708	10662
400.786	8859
400.865	9899
400.944	9824
401.023	11274
401.102	8414
401.180	9600
401.259	9280
401.338	9407
401.416	9169
401.495	7498
401.574	9125
401.652	8288
401.731	8550
401.810	7192
401.888	8058
401.967	7508
402.046	8125
402.124	8202
402.203	7079
402.281	8603
402.360	8217
402.438	9437
402.517	6711
402.596	8412
402.674	7624
402.753	8247
402.831	8465
402.910	9582
402.988	11222
403.066	16533
403.145	13297
403.223	12504
403.302	14900
403.380	15059
403.459	13902
403.537	12183
403.615	11658
403.694	9752
403.772	11597
403.850	10850
403.929	9391
404.007	9302
404.085	11551
404.164	9944
404.242	10590
404.320	16677
404.398	25983
404.477	24534
404.555	36923
404.633	29094
404.711	19903
404.789	13946
404.868	8571
404.946	7964
405.024	8473
405.102	8256
405.180	6830
405.258	6241
405.336	7783
405.415	6746
405.493	7600
405.571	8062
405.649	7649
405.727	7741
405.805	9205
405.883	9885
405.961	10606
406.039	7712
406.117	6467
406.195	8778
406.273	11354
406.351	22181
406.429	14989
406.507	7233
406.585	7233
406.663	7811
406.740	7715
406.818	6741
406.896	6674
406.974	9428
407.052	7989
407.130	18036
407.208	17439
407.285	9779
407.363	7527
407.441	8583
407.519	7983
407.596	12854
407.674	38999
407.752	103347
407.830	65416
407.907	14716
407.985	8512
408.063	8064
408.141	7131
408.218	8263
408.296	6876
408.373	8658
408.451	9238
408.529	9252
408.606	8737
408.684	10295
408.762	10528
408.839	12016
408.917	12515
408.994	14406
409.072	16183
409.149	21042
409.227	33504
409.304	44633
409.382	51452
409.459	60028
409.537	70952
409.614	65329
409.692	58443
409.769	60216
409.846	77103
409.924	83701
410.001	67830
410.079	53365
410.156	41287
410.233	33398
410.311	26967
410.388	23339
410.465	21036
410.543	18259
410.620	17976
410.697	17080
410.775	16129
410.852	14917
410.929	17168
411.006	17720
411.083	14832
411.161	14596
411.238	14987
411.315	13411
411.392	12479
411.469	12898
411.547	11798
411.624	9456
411.701	9726
411.778	10028
411.855	10158
411.932	9146
412.009	8468
412.086	9036
412.163	8718
412.240	9156
412.317	8779
412.394	8330
412.471	8418
412.548	7079
412.625	7180
412.702	7947
412.779	6963
412.856	7308
412.933	6257
413.010	7153
413.087	7889
413.164	8437
413.241	9309
413.318	6347
413.395	7388
413.471	6640
413.548	6362
413.625	6854
413.702	6492
413.779	5910
413.855	5606
413.932	5518
414.009	5051
414.086	5570
414.162	5860
414.239	6740
414.316	8104
414.393	10801
414.469	5766
414.546	5746
414.623	5294
414.699	5594
414.776	5421
414.853	5164
414.929	5156
415.006	5042
415.082	5753
415.159	4879
415.236	5281
415.312	6432
415.389	5920
415.465	5162
415.542	5712
415.618	4396
415.695	5707
415.771	5824
415.848	5926
415.924	5171
416.000	5256
416.077	6365
416.153	4796
416.230	4006
416.306	5573
416.383	5166
416.459	6109
416.535	4684
416.612	5008
416.688	5159
416.764	5195
416.841	4697
416.917	4831
416.993	5219
417.069	5109
417.146	4991
417.222	5330
417.298	5268
417.374	5311
417.451	5768
417.527	5228
417.603	5402
417.679	5030
417.755	5767
417.831	5241
417.908	6768
417.984	5546
418.060	5140
418.136	6533
418.212	5933
418.288	5520
418.364	6048
418.440	5081
418.516	6363
418.592	6906
418.668	5762
418.744	6570
418.820	7026
418.896	5789
418.972	5365
419.048	6558
419.124	7536
419.200	5674
419.276	7043
419.352	6034
419.428	7103
419.504	7291
419.579	8098
419.655	7979
419.731	8803
419.807	8429
419.883	9403
419.959	8666
420.034	9305
420.110	9748
420.186	11981
420.262	11648
420.337	10523
420.413	11253
420.489	11862
420.565	13729
420.640	12783
420.716	14590
420.792	14293
420.867	16131
420.943	15631
421.019	17374
421.094	18855
421.170	19614
421.245	21386
421.321	24328
421.397	28014
421.472	48635
421.548	80976
421.623	57077
421.699	41284
421.774	44821
421.850	49989
421.925	61017
422.001	70151
422.076	88260
422.152	107688
422.227	141832
422.302	192864
422.378	267524
422.453	379594
422.529	450364
422.604	363681
422.679	279991
422.755	400834
422.830	435815
422.905	346432
422.981	252825
423.056	187012
423.131	143257
423.207	110850
423.282	89401
423.357	73687
423.432	62139
423.508	54054
423.583	46627
423.658	42014
423.733	37957
423.808	35565
423.883	35643
423.959	38430
424.034	41910
424.109	36892
424.184	28780
424.259	24327
424.334	21247
424.409	18222
424.484	16888
424.559	15651
424.634	14659
424.709	13149
424.784	13797
424.859	13043
424.934	12165
425.009	13324
425.084	14927
425.159	10885
425.234	10130
425.309	10371
425.384	10995
425.459	9908
425.534	9745
425.609	8627
425.683	7445
425.758	8861
425.833	8008
425.908	8667
425.983	8905
426.058	10846
426.132	8785
426.207	8294
426.282	8499
426.357	6531
426.431	7030
426.506	7722
426.581	7098
426.655	6777
426.730	6418
426.805	5964
426.879	6706
426.954	6284
427.029	7320
427.103	11822
427.178	16718
427.253	9316
427.327	7005
427.402	6828
427.476	7623
427.551	6680
427.625	6422
427.700	6508
427.774	6174
427.849	7755
427.923	8247
427.998	9662
428.072	14138
428.147	32833
428.221	129455
428.296	263223
428.370	129104
428.444	27388
428.519	13577
428.593	11930
428.667	12974
428.742	18534
428.816	57910
428.890	190462
428.965	220237
429.039	59866
429.113	16253
429.188	10217
429.262	8380
429.336	8437
429.410	9320
429.485	9313
429.559	9977
429.633	10982
429.707	17717
429.781	53190
429.855	182163
429.930	196691
430.004	65237
430.078	56795
430.152	162172
430.226	371752
430.300	300582
430.374	86137
430.448	31810
430.522	22546
430.596	30767
430.670	82642
430.744	225995
430.818	189206
430.892	41854
430.966	12804
431.040	9209
431.114	6625
431.188	5742
431.262	6062
431.336	5994
431.410	7731
431.484	7617
431.557	9656
431.631	10801
431.705	26236
431.779	109503
431.853	259387
431.927	147119
432.000	29225
432.074	10874
432.148	6646
432.222	5620
432.295	3752
432.369	3813
432.443	3413
432.516	9970
432.590	15769
432.664	6813
432.737	2669
432.811	2698
432.885	2573
432.958	2955
433.032	2583
433.106	3253
433.179	3292
433.253	3336
433.326	2929
433.400	3115
433.473	3084
433.547	2631
433.620	2884
433.694	3405
433.767	4237
433.841	4555
433.914	3976
433.988	4481
434.061	4499
434.134	3878
434.208	3776
434.281	2972
434.355	3049
434.428	4537
434.501	3482
434.575	2688
434.648	3783
434.721	3570
434.795	3927
434.868	3679
434.941	4614
435.014	5255
435.088	5102
435.161	6858
435.234	8281
435.307	10081
435.381	13298
435.454	21275
435.527	31165
435.600	33712
435.673	30114
435.746	24822
435.819	19195
435.892	15125
435.966	12365
436.039	9777
436.112	8566
436.185	7283
436.258	6244
436.331	5394
436.404	6283
436.477	5122
436.550	4350
436.623	4972
436.696	2969
436.769	4458
436.842	3952
436.915	3733
436.987	3528
437.060	3088
437.133	2502
437.206	2410
437.279	3141
437.352	3543
437.425	2349
437.498	2361
437.570	2959
437.643	2822
437.716	2493
437.789	2414
437.861	2007
437.934	2824
438.007	2146
438.080	1390
438.152	2530
438.225	4085
438.298	13401
438.370	23980
438.443	9536
438.516	3856
438.588	2490
438.661	2606
438.734	2751
438.806	2120
438.879	3115
438.951	2473
439.024	2661
439.096	1856
439.169	1512
439.241	2385
439.314	1610
439.386	2277
439.459	2497
439.531	2019
439.604	1754
439.676	2645
439.749	2218
439.821	1685
439.893	2349
439.966	2012
440.038	2099
440.110	2949
440.183	2380
440.255	1932
440.327	4101
440.400	6692
440.472	12751
440.544	6956
440.617	3365
440.689	3589
440.761	2557
440.833	2598
440.905	2968
440.978	2491
441.050	3580
441.122	2627
441.194	3031
441.266	3192
441.338	3063
441.411	3685
441.483	6804
441.555	6478
441.627	4188
441.699	4828
441.771	4302
441.843	4855
441.915	5330
441.987	5490
442.059	7083
442.131	8707
442.203	12157
442.275	16404
442.347	29107
442.419	77905
442.491	266053
442.563	376692
442.635	151222
442.706	43115
442.778	21044
442.850	15478
442.922	14500
442.994	14420
443.066	16676
443.137	20917
443.209	30051
443.281	50162
443.353	112402
443.425	315191
443.496	586152
443.568	540082
443.640	238282
443.711	74629
443.783	34277
443.855	22313
443.926	16518
443.998	12776
444.070	11205
444.141	9757
444.213	8895
444.285	8964
444.356	8052
444.428	7764
444.499	8139
444.571	8366
444.642	8782
444.714	9235
444.785	11469
444.857	12228
444.928	14195
445.000	16744
445.071	22898
445.143	30880
445.214	48037
445.285	86217
445.357	212069
445.428	479013
445.500	612825
445.571	547653
445.642	351618
445.714	137781
445.785	53007
445.856	28717
445.928	20403
445.999	15375
446.070	12151
446.141	10500
446.213	8712
446.284	6836
446.355	6741
446.426	5124
446.497	4848
446.569	4037
446.640	4384
446.711	4131
446.782	4019
446.853	3041
446.924	3113
446.995	2948
447.066	2958
447.138	2444
447.209	2699
447.280	2012
447.351	2370
447.422	1927
447.493	1918
447.564	1726
447.635	1866
447.706	1239
447.777	1943
447.847	1593
447.918	995
447.989	1880
448.060	1008
448.131	2338
448.202	2204
448.273	915
448.344	1500
448.414	1961
448.485	1220
448.556	1489
448.627	1493
448.698	2379
448.768	873
448.839	1206
448.910	1240
448.981	1336
449.051	918
449.122	934
449.193	945
449.263	379
449.334	1159
449.405	2913
449.475	1988
449.546	2717
449.616	3633
449.687	2681
449.758	2174
449.828	1303
449.899	2090
449.969	1063
450.040	649
450.110	1569
450.181	1760
450.251	1055
450.322	1448
450.392	1757
450.463	1535
450.533	1315
450.604	1450
450.674	2772
450.744	2921
450.815	3179
450.885	4265
450.955	4136
451.026	3917
451.096	3568
451.166	4028
451.237	4905
451.307	6841
451.377	5136
451.447	3635
451.518	2565
451.588	2272
451.658	2255
451.728	2191
451.799	2922
451.869	2583
451.939	1695
452.009	1830
452.079	1721
452.149	2775
452.219	2651
452.289	3790
452.360	3931
452.430	5427
452.500	6649
452.570	13596
452.640	32187
452.710	66676
452.780	67030
452.850	39861
452.920	21084
452.990	12200
453.060	8222
453.129	5998
453.199	4794
453.269	5456
453.339	6242
453.409	7062
453.479	7454
453.549	8946
453.619	7738
453.688	3402
453.758	2535
453.828	1811
453.898	1304
453.968	1170
454.037	1793
454.087	1279
454.107	1031
454.168	965
454.177	906
454.247	1657
454.249	1660
454.316	748
454.330	858
454.386	1112
454.411	1308
454.456	1500
454.492	1816
454.525	2023
454.574	2011
454.595	1971
454.655	1449
454.665	1308
454.734	2477
454.736	2532
454.804	2461
454.817	2692
454.873	3412
454.898	3351
454.943	3141
454.979	2524
455.013	1888
455.060	2031
455.082	2074
455.141	2222
455.152	2237
455.221	3504
455.222	3590
455.291	5109
455.303	5771
455.360	7844
455.384	9528
455.430	11351
455.465	8199
455.499	5531
455.546	4467
455.569	3988
455.627	3212
455.638	3024
455.707	2909
455.708	2949
455.777	1806
455.789	2009
455.846	2815
455.869	2893
455.916	2856
455.950	3145
455.985	3386
456.031	3258
456.054	3084
456.112	3133
456.124	3135
456.193	3732
456.193	3687
456.262	4021
456.274	4168
456.332	4710
456.355	4696
456.401	4468
456.436	4301
456.470	4070
456.516	4311
456.540	4275
456.597	4441
456.609	4471
456.678	5146
456.678	5100
456.747	5376
456.759	5311
456.817	4790
456.840	5133
456.886	5547
456.920	5465
456.955	5397
457.001	6024
457.024	6238
457.082	6831
457.093	6918
457.162	7424
457.163	7480
457.232	7689
457.243	7815
457.301	8357
457.324	8420
457.370	8759
457.405	9841
457.439	11028
457.485	12561
457.508	13490
457.566	16987
457.577	18747
457.646	30120
457.647	30407
457.715	66062
457.727	74523
457.784	120854
457.808	152377
457.853	187284
457.889	204746
457.922	198058
457.969	148770
457.991	150530
458.050	183289
458.060	190207
458.129	301251
458.130	304271
458.198	272398
458.211	247652
458.267	145640
458.292	107215
458.336	85061
458.372	83983
458.405	110407
458.453	160168
458.474	190403
458.533	308448
458.543	316081
458.611	429103
458.614	430414
458.680	261733
458.694	214989
458.749	111192
458.775	79433
458.818	52056
458.855	40196
458.887	33769
458.936	27215
458.955	25187
459.016	20550
459.024	20140
459.093	18152
459.097	18088
459.162	15831
459.177	15529
459.230	14729
459.257	14264
459.299	13987
459.338	13739
459.368	13226
459.418	12697
459.437	12553
459.499	12208
459.505	12137
459.574	12073
459.579	12079
459.643	11638
459.659	11540
459.711	11685
459.740	11918
459.780	11855
459.820	11736
459.849	11722
459.900	11901
459.917	11810
459.981	11490
459.986	11471
460.054	11118
460.061	11116
460.123	11003
460.141	11047
460.191	11237
460.222	11568
460.260	11943
460.302	11932
460.328	11860
460.382	12340
460.397	12726
460.462	14290
460.465	14830
460.534	27705
460.543	29467
460.602	55919
460.623	66498
460.671	96547
460.703	123387
460.739	103490
460.783	63656
460.808	52108
460.864	18589
460.876	15808
460.944	12915
460.945	12875
461.013	11290
461.024	11199
461.081	11653
461.104	11891
461.150	11881
461.184	11827
461.218	11907
461.264	11991
461.286	11953
461.345	11880
461.355	11715
461.423	10925
461.425	10894
461.491	11016
461.505	11262
461.559	12036
461.585	12134
461.628	12801
461.665	13447
461.696	13652
461.745	14160
461.764	13680
461.825	11574
461.832	11604
461.901	12157
461.905	12224
461.969	11665
461.985	11419
462.037	12371
462.065	12987
462.105	12705
462.145	12317
462.173	12598
462.225	13240
462.241	13406
462.305	14128
462.310	14138
462.378	13832
462.385	13860
462.446	13583
462.465	13380
462.514	13234
462.545	13112
462.582	12875
462.625	12519
462.650	12397
462.705	12402
462.718	12489
462.785	12955
462.786	12960
462.854	12809
462.865	12684
462.922	12666
462.945	12916
462.990	12901
463.025	12592
463.058	12655
463.104	12657
463.126	12648
463.184	13196
463.194	13223
463.262	12790
463.264	12770
463.330	13011
463.344	13066
463.398	13390
463.424	13491
463.466	12920
463.504	12528
463.533	12990
463.583	13437
463.601	13412
463.663	13285
463.669	13279
463.737	13425
463.743	13404
463.805	14446
463.823	14716
463.873	15238
463.903	15632
463.940	15752
463.982	15756
464.008	15152
464.062	13853
464.076	13880
464.142	13589
464.144	13580
464.211	13132
464.221	12980
464.279	13220
464.301	13418
464.347	13711
464.381	13830
464.414	13769
464.461	13617
464.482	13729
464.540	14068
464.550	14034
464.617	13577
464.620	13544
464.685	14951
464.699	15238
464.753	15644
464.779	15706
464.820	15878
464.859	16229
464.888	15909
464.938	15144
464.956	15456
465.018	16303
465.023	16258
465.091	15592
465.098	15477
465.158	15517
465.177	15548
465.226	15340
465.257	15122
465.293	15980
465.336	16981
465.361	16849
465.416	16430
465.428	16402
465.495	16053
465.496	16088
465.563	17037
465.575	17190
465.631	17844
465.654	18065
465.698	16677
465.734	15409
465.765	15583
465.813	15845
465.833	15930
465.893	16145
465.900	16182
465.968	16200
465.972	16167
466.035	16851
466.052	16984
466.102	16409
466.131	16073
466.170	16042
466.210	15927
466.237	16018
466.290	16100
466.304	16201
466.369	16467
466.372	16516
466.439	16952
466.449	16987
466.506	17258
466.528	17325
466.573	18536
466.607	19315
466.641	20092
466.687	21149
466.708	21613
466.766	22721
466.775	22243
466.842	18285
466.845	18058
466.909	18480
466.925	18541
466.977	19149
467.004	19414
467.044	19263
467.083	19032
467.111	19994
467.163	21678
467.178	21781
467.242	21966
467.245	22012
467.312	22004
467.321	21955
467.379	21787
467.400	21660
467.446	22170
467.480	22454
467.559	22975
467.638	22752
467.717	24840
467.796	26565
467.875	28083
467.955	29444
468.034	34943
468.113	41966
468.192	50808
468.271	57914
468.350	74408
468.429	90139
468.508	85010
468.588	59393
468.667	43067
468.746	34542
468.825	29930
468.904	27189
468.983	26915
469.062	26130
469.141	24477
469.220	22482
469.299	23079
469.378	22423
469.456	23630
469.535	22022
469.614	21335
469.693	21364
469.772	21882
469.851	23767
469.930	21896
470.009	21719
470.088	23066
470.166	24457
470.245	25888
470.324	27063
470.403	24908
470.482	23442
470.560	22851
470.639	21968
470.718	21999
470.797	20588
470.875	20918
470.954	21455
471.033	21603
471.111	20182
471.190	19368
471.269	20011
471.347	20602
471.426	19232
471.505	20496
471.583	20818
471.662	20884
471.740	20529
471.819	20177
471.898	19787
471.976	19993
472.055	19943
472.133	20909
472.212	22982
472.290	20652
472.369	18322
472.447	19591
472.526	20573
472.604	20660
472.683	20182
472.761	20007
472.839	21260
472.918	20685
472.996	19988
473.075	20760
473.153	21742
473.231	20743
473.310	22924
473.388	21846
473.466	21755
473.545	22891
473.623	23779
473.701	22778
473.780	23232
473.858	20868
473.936	22479
474.014	22197
474.093	25113
474.171	25733
474.249	24315
474.327	22612
474.405	21399
474.484	22066
474.562	21672
474.640	22191
474.718	21289
474.796	19932
474.874	20721
474.952	19125
475.030	19626
475.108	19706
475.187	20292
475.265	21341
475.343	20595
475.421	21127
475.499	20433
475.577	20739
475.655	20745
475.733	21573
475.811	24251
475.889	22888
475.966	21058
476.044	19235
476.122	19428
476.200	20537
476.278	18878
476.356	19192
476.434	18663
476.512	20026
476.590	21486
476.667	20400
476.745	19358
476.823	19741
476.901	19163
476.979	19185
477.056	19159
477.134	19279
477.212	19044
477.290	20082
477.367	17908
477.445	19092
477.523	17014
477.601	18807
477.678	19123
477.756	19074
477.834	18482
477.911	18193
477.989	18897
478.066	18540
478.144	20104
478.222	20620
478.299	20710
478.377	22071
478.454	20330
478.532	19369
478.609	19123
478.687	19521
478.764	18070
478.842	19916
478.919	18495
478.997	19217
479.074	17787
479.152	18866
479.229	18750
479.307	18121
479.384	19729
479.461	19220
479.539	19239
479.616	19800
479.694	19035
479.771	19656
479.848	18545
479.926	19709
480.003	21482
480.080	20335
480.157	20356
480.235	19099
480.312	21128
480.389	21235
480.467	22543
480.544	24137
480.621	25848
480.698	25807
480.775	24127
480.853	22775
480.930	22717
481.007	23612
481.084	27369
481.161	35076
481.238	24772
481.315	21625
481.392	23061
481.470	24117
481.547	24253
481.624	23506
481.701	24550
481.778	24968
481.855	26411
481.932	29315
482.009	32273
482.086	33097
482.163	36820
482.240	40109
482.317	39101
482.393	36008
482.470	33946
482.547	33069
482.624	30866
482.701	31165
482.778	29880
482.855	30205
482.932	31380
483.009	34282
483.085	40195
483.162	46623
483.239	43850
483.316	42651
483.393	41663
483.469	37535
483.546	34215
483.623	32873
483.699	28525
483.776	28578
483.853	27567
483.930	28804
484.006	30536
484.083	36392
484.160	34961
484.236	42520
484.313	38320
484.389	38923
484.466	43771
484.543	50509
484.619	56409
484.696	55974
484.772	40616
484.849	36211
484.925	31918
485.002	30278
485.078	29216
485.155	28341
485.231	26688
485.308	26556
485.384	26756
485.461	28865
485.537	28484
485.614	28539
485.690	25178
485.766	25433
485.843	24109
485.919	25550
485.995	25368
486.072	25044
486.148	24557
486.224	24997
486.301	25154
486.377	25701
486.453	26135
486.530	27940
486.606	31984
486.682	30302
486.758	32025
486.835	33205
486.911	33292
486.987	39806
487.063	43189
487.139	49671
487.215	58192
487.292	59437
487.368	68065
487.444	84771
487.520	116516
487.596	196600
487.672	466415
487.748	1118431
487.824	1464218
487.900	660823
487.976	230200
488.052	123592
488.128	83358
488.204	59514
488.280	50907
488.356	45671
488.432	42767
488.508	40657
488.584	32770
488.660	32495
488.736	29486
488.812	29231
488.888	28908
488.964	29328
489.039	31722
489.115	35643
489.191	31449
489.267	26659
489.343	24840
489.418	24289
489.494	24325
489.570	23470
489.646	25917
489.722	24369
489.797	24663
489.873	27698
489.949	29659
490.024	27529
490.100	25227
490.176	25138
490.251	24333
490.327	26040
490.403	24537
490.478	23587
490.554	23217
490.629	23650
490.705	22791
490.781	23589
490.856	21779
490.932	22627
491.007	22143
491.083	20928
491.158	21016
491.234	21332
491.309	24738
491.385	22498
491.460	20287
491.536	20765
491.611	18822
491.686	20110
491.762	21069
491.837	23291
491.913	26326
491.988	29461
492.063	30053
492.139	21228
492.214	20051
492.289	19025
492.365	18246
492.440	18984
492.515	18191
492.590	19210
492.666	18546
492.741	19559
492.816	20255
492.891	18361
492.967	18892
493.042	19400
493.117	18411
493.192	20177
493.267	26440
493.342	46587
493.418	47754
493.493	19303
493.568	17204
493.643	17398
493.718	17370
493.793	18254
493.868	18628
493.943	17896
494.018	17420
494.093	17835
494.168	16524
494.243	16442
494.318	16444
494.393	16922
494.468	16831
494.543	15857
494.618	16343
494.693	16661
494.768	15372
494.842	16481
494.917	15744
494.992	16746
495.067	16565
495.142	16951
495.217	17071
495.292	16482
495.366	16311
495.441	16232
495.516	16982
495.591	19024
495.665	29408
495.740	41913
495.815	23252
495.890	16734
495.964	14503
496.039	19860
496.114	21845
496.188	28973
496.263	22357
496.338	16016
496.412	15749
496.487	18016
496.561	16957
496.636	17402
496.710	17430
496.785	18151
496.860	16063
496.934	15859
497.009	15016
497.083	16107
497.158	15462
497.232	16357
497.307	17140
497.381	16043
497.455	15898
497.530	17634
497.604	16168
497.679	16240
497.753	17969
497.827	18262
497.902	16055
497.976	19607
498.050	33236
498.125	74315
498.199	55137
498.273	18445
498.348	16946
498.422	17626
498.496	16609
498.570	18567
498.645	16261
498.719	14958
498.793	17565
498.867	18687
498.941	21287
499.016	40689
499.090	69235
499.164	26350
499.238	18063
499.312	17332
499.386	17979
499.460	18632
499.534	17959
499.609	19218
499.683	18596
499.757	20736
499.831	28188
499.905	52623
499.979	38523
500.053	19103
500.127	19890
500.201	18483
500.275	18697
500.349	18439
500.422	18066
500.496	20034
500.570	24899
500.644	38336
500.718	47748
500.792	21131
500.866	19792
500.940	19139
501.013	20365
501.087	19791
501.161	21143
501.235	21323
501.309	31260
501.382	47207
501.456	35810
501.530	22905
501.603	24527
501.677	19359
501.751	16151
501.825	20440
501.898	22268
501.972	28619
502.046	21483
502.119	18071
502.193	21856
502.266	27298
502.340	20166
502.413	21608
502.487	25504
502.561	20371
502.634	19476
502.708	20907
502.781	19380
502.855	20236
502.928	18933
503.002	19550
503.075	19439
503.149	19899
503.222	21266
503.295	21969
503.369	25876
503.442	28131
503.516	38233
503.589	51428
503.662	47567
503.736	50719
503.809	70303
503.882	89789
503.956	148369
504.029	300050
504.102	669168
504.175	828625
504.249	393928
504.322	174265
504.395	97627
504.468	67282
504.542	49284
504.615	37802
504.688	33599
504.761	27512
504.834	27970
504.907	22630
504.980	23115
505.053	19801
505.127	17778
505.200	20848
505.273	17888
505.346	17540
505.419	16607
505.492	17192
505.565	16092
505.638	16921
505.711	15529
505.784	14986
505.857	14504
505.930	15635
506.003	12292
506.076	16746
506.149	13811
506.221	13027
506.294	15579
506.367	16350
506.440	26496
506.513	16297
506.586	13437
506.659	12345
506.731	12562
506.804	13151
506.877	13591
506.950	12748
507.022	14023
507.095	11712
507.168	13628
507.241	13692
507.313	12659
507.386	11704
507.459	14089
507.531	12232
507.604	11648
507.677	12750
507.749	11426
507.822	13637
507.894	14519
507.967	16635
508.040	13921
508.112	14696
508.185	13847
508.257	11547
508.330	15449
508.402	13326
508.475	13574
508.547	13924
508.620	13144
508.692	14555
508.765	13918
508.837	12727
508.909	13839
508.982	11806
509.054	13419
509.127	12695
509.199	13092
509.271	11883
509.344	12248
509.416	13015
509.488	12719
509.560	12297
509.633	12706
509.705	12713
509.777	14246
509.849	14708
509.922	12613
509.994	12859
510.066	13607
510.138	12477
510.210	18174
510.283	14537
510.355	14502
510.427	14541
510.499	13646
510.571	13256
510.643	13030
510.715	13966
510.787	12236
510.859	13948
510.931	13711
511.003	14495
511.076	14148
511.148	13057
511.219	13683
511.291	15638
511.363	15299
511.435	13648
511.507	13198
511.579	13679
511.651	13943
511.723	12208
511.795	12573
511.867	12552
511.939	13063
512.010	14277
512.082	14561
512.154	12280
512.226	13383
512.298	16088
512.369	15508
512.441	14886
512.513	14665
512.585	13335
512.656	14734
512.728	13938
512.800	12960
512.871	14060
512.943	14044
513.015	13527
513.086	12790
513.158	14376
513.230	12759
513.301	14714
513.373	14910
513.444	14593
513.516	12791
513.588	14178
513.659	14149
513.731	14151
513.802	13482
513.874	16327
513.945	17106
514.016	13915
514.088	13155
514.159	12363
514.231	15498
514.302	15513
514.374	14541
514.445	13564
514.516	17534
514.588	13617
514.659	14338
514.730	14840
514.802	14700
514.873	11862
514.944	15784
515.016	14030
515.087	13639
515.158	14426
515.229	16506
515.301	12900
515.372	14020
515.443	13340
515.514	13537
515.585	13423
515.656	14580
515.728	14789
515.799	14687
515.870	15740
515.941	15480
516.012	14788
516.083	17391
516.154	16912
516.225	16858
516.296	18552
516.367	17779
516.438	18148
516.509	19652
516.580	27462
516.651	69031
516.722	149658
516.793	54988
516.864	22883
516.935	23532
517.006	25798
517.077	32287
517.148	71205
517.219	250518
517.289	275394
517.360	53802
517.431	27134
517.502	22061
517.573	22539
517.643	22407
517.714	23392
517.785	26514
517.856	28763
517.926	33611
517.997	35794
518.068	41530
518.138	51669
518.209	78893
518.280	234540
518.350	553228
518.421	206714
518.492	98926
518.562	121592
518.633	172592
518.703	293281
518.774	626042
518.845	1166095
518.915	918837
518.986	348546
519.056	165127
519.127	105307
519.197	81149
519.268	68867
519.338	50825
519.408	38914
519.479	31933
519.549	28476
519.620	26989
519.690	24112
519.760	23623
519.831	22234
519.901	21151
519.971	19247
520.042	19324
520.112	17648
520.182	18832
520.253	17777
520.323	16254
520.393	16627
520.463	20268
520.534	16110
520.604	20928
520.674	18320
520.744	16653
520.814	19908
520.885	19738
520.955	20947
521.025	31180
521.095	18651
521.165	17363
521.235	15253
521.305	14687
521.375	15685
521.445	16167
521.515	15530
521.585	17708
521.655	14199
521.725	17577
521.795	16727
521.865	12540
521.935	18015
522.005	14979
522.075	15482
522.145	17567
522.215	15444
522.285	17431
522.355	18138
522.424	20068
522.494	17718
522.564	18430
522.634	19729
522.704	26748
522.774	17717
522.843	16718
522.913	17396
522.983	17068
523.053	15523
523.122	17405
523.192	17274
523.262	21969
523.331	19043
523.401	17721
523.471	16902
523.540	17136
523.610	15986
523.680	18894
523.749	20163
523.819	20739
523.888	20767
523.958	19468
524.027	19023
524.097	18314
524.166	19231
524.236	18074
524.305	20281
524.375	17897
524.444	16812
524.514	20455
524.583	19941
524.653	19261
524.722	21010
524.791	19542
524.861	22262
524.930	20561
524.999	22209
525.069	23235
525.138	24129
525.207	25314
525.277	27823
525.346	29615
525.415	34745
525.484	39499
525.554	45314
525.623	54009
525.692	65219
525.761	75671
525.830	92471
525.900	124704
525.969	215242
526.038	415592
526.107	920776
526.176	1804161
526.245	1298947
526.314	538973
526.383	1130717
526.452	1310651
526.522	1665750
526.591	1276453
526.660	316570
526.729	192329
526.797	207356
526.867	344098
526.935	953547
527.004	1967034
527.073	1244201
527.142	286996
527.211	130406
527.280	84855
527.349	63562
527.418	47653
527.487	42351
527.555	34745
527.624	31496
527.693	29249
527.762	29355
527.831	25683
527.899	25448
527.968	23778
528.037	20470
528.106	22968
528.174	22615
528.243	21812
528.312	23507
528.380	21316
528.449	19224
528.518	21112
528.586	17481
528.655	20573
528.723	19616
528.792	19122
528.861	18528
528.929	17505
528.998	19004
529.066	21279
529.135	24933
529.203	25244
529.272	30164
529.340	31185
529.409	31261
529.477	26417
529.545	27479
529.614	30458
529.682	32161
529.751	33786
529.819	39387
529.887	38269
529.956	35416
530.024	35279
530.092	32209
530.161	33503
530.229	34634
530.297	36265
530.365	35349
530.434	39615
530.502	35612
530.570	34731
530.638	30714
530.707	31342
530.775	33755
530.843	32904
530.911	34413
530.979	35389
531.047	37934
531.115	35269
531.183	33430
531.252	32641
531.320	32501
531.388	31898
531.456	36702
531.524	34536
531.592	39932
531.660	41503
531.728	35959
531.796	35822
531.864	35744
531.932	36161
532.000	36067
532.067	38972
532.135	40797
532.203	44036
532.271	44958
532.339	47490
532.407	47965
532.475	43818
532.542	41952
532.610	41090
532.678	44715
532.746	57911
532.814	65506
532.881	47278
532.949	43079
533.017	41999
533.084	39098
533.152	37947
533.220	38717
533.287	39468
533.355	40209
533.423	41468
533.490	40841
533.558	41810
533.625	40420
533.693	38789
533.761	38170
533.828	41143
533.896	39787
533.963	45632
534.031	48554
534.098	54757
534.166	55559
534.233	53059
534.300	57774
534.368	57531
534.435	56696
534.503	59283
534.570	65806
534.637	71536
534.705	83694
534.772	113200
534.840	270238
534.907	979453
534.974	847075
535.041	141507
535.109	69796
535.176	56828
535.243	52984
535.310	50219
535.378	48356
535.445	46900
535.512	46889
535.579	44960
535.646	44133
535.714	46213
535.781	48407
535.848	49428
535.915	47545
535.982	46197
536.049	44279
536.116	44936
536.183	41213
536.250	40614
536.317	42636
536.384	45727
536.451	45051
536.518	45295
536.585	43363
536.652	46225
536.719	45587
536.786	42223
536.853	42606
536.920	44446
536.987	43266
537.053	42648
537.120	54365
537.187	52128
537.254	46043
537.321	46341
537.388	46680
537.454	43672
537.521	45091
537.588	43405
537.654	44360
537.721	48175
537.788	46016
537.855	45118
537.921	44987
537.988	42759
538.055	41292
538.121	38756
538.188	38244
538.254	38308
538.321	40259
538.388	42931
538.454	47415
538.521	45816
538.587	46841
538.654	45000
538.720	43985
538.787	45038
538.853	43954
538.920	40825
538.986	39408
539.053	37435
539.119	40184
539.185	39742
539.252	43181
539.318	45172
539.385	48488
539.451	44349
539.517	42566
539.583	44207
539.650	45707
539.716	45974
539.782	39823
539.849	39137
539.915	41173
539.981	39835
540.047	40190
540.114	40913
540.180	42377
540.246	44983
540.312	46952
540.378	45160
540.444	45242
540.510	47743
540.576	50479
540.643	42066
540.709	40574
540.775	42424
540.841	41070
540.907	40948
540.973	43132
541.039	40991
541.105	41708
541.171	46174
541.237	44914
541.303	44804
541.369	45269
541.435	45070
541.500	43355
541.566	39812
541.632	40446
541.698	41075
541.764	43303
541.830	41677
541.896	40821
541.961	40773
542.027	40959
542.093	45652
542.159	43923
542.224	41503
542.290	43546
542.356	42258
542.421	41208
542.487	40113
542.553	39782
542.618	40522
542.684	39975
542.750	41326
542.815	43411
542.881	41940
542.947	51023
543.012	44721
543.078	39868
543.143	39626
543.209	40321
543.274	38205
543.340	40366
543.405	42738
543.471	45460
543.536	43903
543.602	42582
543.667	40194
543.732	43304
543.798	41283
543.863	43529
543.928	42267
543.994	42466
544.059	43706
544.124	44778
544.190	44800
544.255	46137
544.320	45947
544.386	44935
544.451	48102
544.516	46694
544.581	47253
544.646	53124
544.712	51941
544.777	47852
544.842	47629
544.907	47445
544.972	46871
545.037	50214
545.102	50724
545.168	52087
545.233	50855
545.298	52437
545.363	54025
545.428	54979
545.493	57653
545.558	59797
545.623	55204
545.688	54401
545.753	58723
545.818	59705
545.883	64733
545.947	65673
546.012	65940
546.077	68182
546.142	72087
546.207	74629
546.272	79041
546.337	78282
546.401	83273
546.466	86693
546.531	89109
546.596	95584
546.661	99151
546.725	104549
546.790	111280
546.855	122150
546.919	131242
546.984	144570
547.049	157171
547.113	176992
547.178	197664
547.243	223061
547.307	255470
547.372	274182
547.436	273847
547.501	293667
547.565	302764
547.630	276947
547.695	269991
547.759	273763
547.823	279620
547.888	282550
547.952	291503
548.017	303195
548.081	309280
548.146	302152
548.210	315148
548.274	338333
548.339	318267
548.403	293290
548.468	281049
548.532	282100
548.596	284160
548.660	291166
548.725	318090
548.789	334788
548.853	317908
548.917	311023
548.982	293518
549.046	265724
549.110	246568
549.174	266921
549.238	306905
549.303	327289
549.367	328086
549.431	308663
549.495	294552
549.559	303699
549.623	354039
549.687	363503
549.751	372671
549.815	433278
549.879	422214
549.943	420019
550.007	434150
550.071	416703
550.135	379478
550.199	370046
550.263	358450
550.327	345655
550.391	361986
550.455	400560
550.519	414799
550.582	443455
550.646	492647
550.710	494971
550.774	490663
550.838	501236
550.901	526035
550.965	557865
551.029	592770
551.093	646069
551.156	726558
551.220	814751
551.284	807365
551.347	640832
551.411	549832
551.475	521007
551.538	523675
551.602	474668
551.666	458231
551.729	429289
551.793	421560
551.856	412924
551.920	407366
551.983	405937
552.047	398867
552.110	404886
552.174	410180
552.237	409363
552.301	377188
552.364	365906
552.428	361602
552.491	375620
552.554	377175
552.618	373997
552.681	377880
552.745	363960
552.808	385719
552.871	396564
552.934	385341
552.998	373064
553.061	363698
553.124	348994
553.187	351874
553.251	363405
553.314	361795
553.377	372195
553.440	392445
553.503	417020
553.567	409975
553.630	389012
553.693	385762
553.756	382888
553.819	369381
553.882	356488
553.945	362691
554.008	361107
554.071	368722
554.134	361627
554.197	342832
554.260	336824
554.323	344841
554.386	353033
554.449	366496
554.512	360233
554.575	351546
554.638	346465
554.701	346583
554.764	338665
554.827	329934
554.889	316643
554.952	297370
555.015	297763
555.078	304726
555.141	305269
555.203	296649
555.266	299106
555.329	294091
555.391	284274
555.454	280388
555.517	272128
555.580	266313
555.642	256526
555.705	254350
555.768	248805
555.830	241710
555.893	229162
555.955	224175
556.018	221881
556.080	227060
556.143	232593
556.206	225991
556.268	221670
556.330	217941
556.393	211269
556.455	206187
556.518	203103
556.580	196232
556.643	189838
556.705	187488
556.767	183597
556.830	181030
556.892	178043
556.955	175665
557.017	170976
557.079	172682
557.142	167096
557.204	169318
557.266	172604
557.328	157474
557.391	149509
557.453	144518
557.515	145902
557.577	148568
557.639	150426
557.701	150312
557.764	150952
557.826	154589
557.888	160260
557.950	166775
558.012	192313
558.074	283409
558.136	691969
558.198	1146972
558.260	383073
558.322	191364
558.384	182720
558.446	187599
558.508	200105
558.570	224412
558.632	266100
558.694	368346
558.756	682767
558.818	1607934
558.880	2123979
558.942	1295785
559.003	1309130
559.065	549924
559.127	265080
559.189	244793
559.251	276810
559.312	434563
559.374	1027798
559.436	1867092
559.498	938002
559.559	317737
559.621	248190
559.683	293307
559.744	523546
559.806	1360132
559.868	1399769
559.929	406622
559.991	301555
560.052	561553
560.114	1210027
560.176	683646
560.237	848500
560.299	958332
560.360	222282
560.422	107574
560.483	90675
560.545	83793
560.606	78260
560.667	74695
560.729	69191
560.790	64815
560.852	64325
560.913	61703
560.974	60861
561.036	59807
561.097	59421
561.158	58136
561.220	57302
561.281	53526
561.342	52733
561.403	54710
561.465	53315
561.526	55657
561.587	54549
561.648	49445
561.709	49280
561.771	48924
561.832	46387
561.893	46701
561.954	46988
562.015	46124
562.076	45524
562.137	45681
562.198	44766
562.259	46104
562.320	45864
562.381	45812
562.442	45466
562.503	42767
562.564	42517
562.625	40979
562.686	42879
562.747	42270
562.808	41143
562.869	40374
562.930	40383
562.991	39434
563.051	39483
563.112	39153
563.173	39204
563.234	38625
563.294	38376
563.355	36851
563.416	38003
563.477	38361
563.537	37410
563.598	36122
563.659	36811
563.720	36234
563.780	37088
563.841	37387
563.901	36849
563.962	35587
564.023	34566
564.083	35131
564.144	34676
564.204	34097
564.265	33963
564.325	34377
564.386	36207
564.446	34148
564.507	33150
564.567	32678
564.628	32383
564.688	32435
564.749	31754
564.809	33175
564.869	33679
564.930	31931
564.990	32620
565.050	31742
565.111	32286
565.171	31560
565.231	32257
565.292	32737
565.352	31663
565.412	32156
565.472	33449
565.532	31805
565.593	30678
565.653	31177
565.713	32412
565.773	32783
565.833	32513
565.893	33513
565.953	30157
566.013	28873
566.074	29086
566.134	29550
566.194	29332
566.254	29657
566.314	28987
566.374	29153
566.434	29035
566.494	30426
566.554	30279
566.614	29457
566.673	30515
566.733	31173
566.793	31622
566.853	30872
566.913	31114
566.973	30950
567.033	30839
567.092	29815
567.152	31152
567.212	31719
567.272	31926
567.331	32134
567.391	32375
567.451	33829
567.511	34651
567.570	32289
567.630	33219
567.690	30343
567.749	29818
567.809	30997
567.868	29894
567.928	31236
567.988	31085
568.047	31642
568.107	30767
568.166	31039
568.226	31025
568.285	31982
568.345	31135
568.404	32591
568.464	31808
568.523	30820
568.582	31113
568.642	32258
568.701	29764
568.761	28593
568.820	29753
568.879	30116
568.939	31722
568.998	30540
569.057	31039
569.116	30378
569.176	31083
569.235	31550
569.294	30176
569.353	29360
569.413	29347
569.472	29132
569.531	28101
569.590	27981
569.649	28300
569.708	27848
569.767	29964
569.827	29747
569.886	28434
569.945	28526
570.004	29924
570.063	29760
570.122	30671
570.181	30332
570.240	32577
570.299	30699
570.358	30047
570.417	30404
570.475	32083
570.534	31277
570.593	30648
570.652	32635
570.711	31491
570.770	30694
570.829	30587
570.887	30404
570.946	32134
571.005	31027
571.064	32079
571.122	31905
571.181	30930
571.240	31692
571.299	30143
571.357	29316
571.416	30153
571.475	30240
571.533	31795
571.592	34716
571.650	33607
571.709	36117
571.768	42368
571.826	42554
571.885	38504
571.943	33952
572.002	30502
572.060	30674
572.119	30260
572.177	30923
572.236	30392
572.294	32210
572.352	34553
572.411	34045
572.469	32153
572.528	30207
572.586	28858
572.644	29312
572.703	29555
572.761	28817
572.819	28287
572.877	26713
572.936	27825
572.994	27952
573.052	27422
573.110	28749
573.169	30923
573.227	30716
573.285	29608
573.343	29484
573.401	29574
573.459	29567
573.517	31156
573.576	32950
573.634	34630
573.692	32517
573.750	33189
573.808	30652
573.866	29797
573.924	30091
573.982	29026
574.040	29573
574.098	29587
574.155	28424
574.213	29620
574.271	31499
574.329	35201
574.387	31994
574.445	27785
574.503	27762
574.560	26545
574.618	28341
574.676	28484
574.734	27371
574.792	26804
574.849	25138
574.907	23563
574.965	22513
575.022	20657
575.080	21032
575.138	22224
575.195	20420
575.253	20968
575.311	21450
575.368	21870
575.426	20496
575.483	22177
575.541	22988
575.598	22619
575.656	23566
575.713	25432
575.771	26769
575.828	25215
575.886	22856
575.943	21732
576.001	21232
576.058	19955
576.115	21928
576.173	22606
576.230	22625
576.287	23009
576.345	23081
576.402	24043
576.459	23943
576.517	22064
576.574	22042
576.631	20260
576.688	20336
576.746	20113
576.803	19860
576.860	19391
576.917	20711
576.974	19786
577.031	20988
577.089	20443
577.146	19170
577.203	18179
577.260	18789
577.317	18501
577.374	18940
577.431	18932
577.488	19000
577.545	19875
577.602	19273
577.659	19134
577.716	19742
577.773	19785
577.830	19149
577.886	19067
577.943	18336
578.000	18951
578.057	18550
578.114	18847
578.171	20534
578.227	21554
578.284	19889
578.341	19676
578.398	18968
578.454	18975
578.511	18840
578.568	20437
578.625	18859
578.681	18999
578.738	18467
578.794	19135
578.851	18731
578.908	18526
578.964	18897
579.021	20078
579.077	19193
579.134	19987
579.190	19343
579.247	19712
579.303	18549
579.360	18155
579.416	19511
579.473	18676
579.529	18630
579.586	19530
579.642	18846
579.698	19484
579.755	20188
579.811	19803
579.867	19838
579.924	19261
579.980	20142
580.036	22724
580.093	23784
580.149	27327
580.205	25950
580.261	23559
580.317	23399
580.374	23280
580.430	22065
580.486	22771
580.542	22352
580.598	21668
580.619	22008
580.654	22627
580.692	22295
580.710	22172
580.765	22503
580.767	22545
580.823	23660
580.838	23561
580.879	23383
580.911	23162
580.935	23051
580.984	21854
580.991	21721
581.047	23296
581.057	23113
581.103	22406
581.130	22548
581.159	22774
581.203	22724
581.215	22732
581.270	21227
581.276	21236
581.326	21576
581.349	21513
581.382	21460
581.422	21384
581.438	21389
581.494	21385
581.494	21351
581.550	19687
581.567	20356
581.606	21919
581.640	21009
581.661	20460
581.713	21515
581.717	21622
581.773	20874
581.786	21025
581.829	21489
581.859	21180
581.885	21048
581.932	21467
581.940	21535
581.996	22415
582.004	22351
582.052	22042
582.077	21461
582.107	20886
582.150	21024
582.163	21048
582.219	21152
582.223	21145
582.274	21312
582.296	21169
582.330	20997
582.368	21032
582.386	21078
582.441	21784
582.441	21794
582.497	21711
582.514	21519
582.552	21131
582.587	21241
582.608	21367
582.659	21451
582.663	21456
582.719	22630
582.732	22623
582.774	22621
582.805	22156
582.830	21862
582.877	22813
582.885	22938
582.941	23032
582.950	23232
582.996	24520
583.023	25369
583.052	26343
583.095	26264
583.107	26185
583.162	25998
583.168	25903
583.218	24980
583.240	24322
583.273	23461
583.313	22883
583.328	22651
583.384	21616
583.385	21610
583.439	21434
583.458	21336
583.494	21279
583.531	21257
583.549	21171
583.603	21109
583.605	21109
583.660	20606
583.676	20663
583.715	20637
583.748	21103
583.770	21500
583.820	21037
583.825	20971
583.881	21351
583.893	21176
583.936	20798
583.965	21177
583.991	21325
584.038	21210
584.046	21206
584.101	21001
584.110	21021
584.156	21199
584.183	21151
584.211	20985
584.255	21915
584.266	22168
584.321	21731
584.328	21859
584.376	22993
584.400	23210
584.431	23228
584.472	23083
584.486	23126
584.541	24866
584.545	24911
584.596	25172
584.617	25189
584.651	25466
584.689	26493
584.706	26794
584.761	27801
584.762	27821
584.816	28558
584.834	29064
584.871	30118
584.906	31595
584.926	32427
584.978	34118
584.980	34175
585.035	38513
585.051	39339
585.090	41444
585.123	43794
585.145	45774
585.195	51679
585.200	52269
585.254	60468
585.267	62632
585.309	70223
585.340	77450
585.364	84128
585.412	100876
585.419	103552
585.473	132734
585.484	142524
585.528	192637
585.556	248036
585.583	330987
585.628	541772
585.637	607626
585.692	1177022
585.700	1239761
585.747	1439837
585.772	1264240
585.801	862009
585.845	395026
585.856	323487
585.910	156395
585.917	141492
585.965	99218
585.989	83890
586.019	71638
586.061	60928
586.074	58530
586.128	50347
586.133	49909
586.183	45676
586.205	44027
586.237	42217
586.277	40495
586.292	39874
586.346	38505
586.349	38460
586.401	37401
586.421	37149
586.455	36620
586.493	36017
586.509	36047
586.564	36964
586.565	37039
586.618	39625
586.637	41073
586.672	45868
586.709	53283
586.727	56787
586.781	63391
586.781	63345
586.835	49239
586.853	45928
586.889	39920
586.925	35522
586.944	34278
586.996	33276
586.998	33238
587.052	32031
587.068	31759
587.106	31012
587.140	30641
587.161	30398
587.212	30510
587.215	30528
587.269	30944
587.284	31275
587.323	31378
587.356	31526
587.377	32028
587.427	33181
587.431	33160
587.485	32816
587.499	32971
587.539	33809
587.571	34331
587.593	34588
587.643	36063
587.648	36161
587.702	36420
587.715	36559
587.755	36257
587.786	36118
587.810	36232
587.858	36984
587.864	36993
587.917	36782
587.930	36766
587.971	36399
588.001	36390
588.025	36310
588.073	36048
588.079	35980
588.133	35666
588.145	35725
588.187	36176
588.217	36664
588.241	37094
588.288	38239
588.295	38324
588.348	39104
588.360	39258
588.402	38729
588.431	38338
588.456	38690
588.503	40094
588.510	40323
588.564	42969
588.575	43576
588.617	45050
588.646	46089
588.671	47187
588.718	50423
588.725	51032
588.778	59058
588.789	61705
588.832	85564
588.861	106974
588.886	149770
588.932	253465
588.939	265235
588.993	319925
589.004	316328
589.047	160354
589.075	81864
589.100	65727
589.147	46107
589.154	45669
589.207	43744
589.218	43623
589.261	44458
589.290	45438
589.314	46181
589.361	48770
589.368	49853
589.421	62642
589.433	66497
589.475	103719
589.504	137824
589.528	182853
589.576	265780
589.582	258045
589.635	127973
589.647	106513
589.689	65630
589.718	42555
589.742	40877
589.790	37846
589.795	37726
589.849	37806
589.861	37815
589.902	37332
589.932	37102
589.955	36812
590.004	36552
590.009	36496
590.062	36258
590.075	36284
590.115	35431
590.146	34689
590.168	34483
590.218	34536
590.222	34573
590.275	36058
590.289	36485
590.328	36802
590.360	36784
590.381	36688
590.431	37100
590.435	37063
590.488	37220
590.503	37419
590.541	38025
590.574	38505
590.594	38831
590.645	40102
590.647	40069
590.700	40707
590.716	41049
590.753	41730
590.787	42382
590.806	42866
590.859	44284
590.859	44225
590.912	44604
590.930	44951
590.965	44771
591.001	44408
591.018	44346
591.071	44393
591.072	44461
591.124	43377
591.143	43202
591.177	43247
591.214	43553
591.230	43738
591.283	44151
591.285	44245
591.336	43866
591.356	43816
591.389	43994
591.427	44195
591.442	43809
591.495	42814
591.498	42822
591.547	43001
591.569	43198
591.600	43886
591.640	44871
591.653	44783
591.706	44758
591.711	44864
591.759	45666
591.782	46115
591.811	47065
591.853	48687
591.864	48538
591.917	48105
591.924	48130
591.969	47996
591.995	48109
592.022	48443
592.066	49207
592.075	49257
592.127	50160
592.137	50443
592.180	51404
592.208	52136
592.233	52438
592.279	53302
592.285	53353
592.338	54669
592.350	55057
592.390	53839
592.421	53140
592.443	53628
592.491	55058
592.495	55037
592.548	56264
592.562	56706
592.600	56269
592.633	56110
592.653	55750
592.704	54799
592.705	55135
592.775	56516
592.846	58487
592.916	59071
592.987	59829
593.058	60191
593.128	60328
593.199	60648
593.270	61581
593.341	62100
593.411	64858
593.482	67192
593.553	69278
593.623	69150
593.694	72375
593.764	72081
593.835	72500
593.906	73218
593.976	75708
594.047	75447
594.117	81297
594.188	81966
594.258	81974
594.329	82198
594.399	85151
594.470	87622
594.540	90380
594.611	91803
594.681	89890
594.751	91498
594.822	95873
594.892	98767
594.963	100441
595.033	104184
595.103	107587
595.174	108391
595.244	111720
595.314	115430
595.384	118529
595.455	120154
595.525	124640
595.595	128720
595.665	130392
595.736	125583
595.806	128836
595.876	130748
595.946	131894
596.016	138571
596.087	143267
596.157	141207
596.227	142753
596.297	148655
596.367	160711
596.437	167164
596.507	167466
596.577	167864
596.647	172821
596.717	180537
596.787	185259
596.857	184158
596.927	185861
596.997	187633
597.067	189287
597.137	192276
597.207	192199
597.277	192606
597.347	186705
597.417	180279
597.487	181932
597.557	184442
597.626	189138
597.696	192288
597.766	188903
597.836	180543
597.906	171995
597.975	166704
598.045	170058
598.115	179230
598.185	190588
598.254	212950
598.324	231032
598.394	234270
598.464	227173
598.533	221303
598.603	208922
598.672	202918
598.742	207867
598.812	209684
598.881	217240
598.951	211699
599.020	216781
599.090	224586
599.159	226012
599.229	217799
599.299	214182
599.368	221626
599.437	217824
599.507	199284
599.576	193976
599.646	188784
599.715	187877
599.785	186631
599.854	181331
599.924	179203
599.993	178006
600.062	181278
600.132	188067
600.201	197486
600.270	227563
600.340	240287
600.409	235983
600.478	233835
600.547	239964
600.617	215599
600.686	174278
600.755	158765
600.824	148647
600.894	147235
600.963	147580
601.032	145497
601.101	140613
601.170	133499
601.239	129116
601.308	128274
601.378	130558
601.447	131809
601.516	132718
601.585	133192
601.654	134795
601.723	135297
601.792	139832
601.861	144021
601.930	150162
601.999	151419
602.068	152494
602.137	152419
602.206	156266
602.275	157828
602.343	158877
602.412	160850
602.481	161718
602.550	163335
602.619	168687
602.688	169956
602.756	171596
602.825	173690
602.894	177704
602.963	180662
603.032	183275
603.100	184291
603.169	183377
603.238	185186
603.307	185919
603.375	189001
603.444	192548
603.513	195298
603.581	197484
603.650	200438
603.719	196088
603.787	200361
603.856	206465
603.924	210529
603.993	219063
604.061	225737
604.130	236082
604.198	241265
604.267	245620
604.335	250510
604.404	253935
604.472	255649
604.541	258440
604.609	260212
604.678	261988
604.746	263232
604.815	270941
604.883	275007
604.951	275947
605.020	280126
605.088	283412
605.156	287357
605.225	293839
605.293	293656
605.361	295374
605.429	297076
605.498	302365
605.566	309029
605.634	322356
605.702	335011
605.771	342806
605.839	343493
605.907	336589
605.975	324940
606.043	319109
606.111	319528
606.180	317796
606.248	313733
606.316	311620
606.384	311684
606.452	312492
606.520	317098
606.588	329824
606.656	331741
606.724	325230
606.792	307645
606.860	276600
606.928	254728
606.996	244794
607.064	240016
607.132	247407
607.200	261447
607.267	270536
607.335	274418
607.403	280981
607.471	271145
607.539	263697
607.607	265600
607.674	238841
607.742	234571
607.810	233155
607.878	232755
607.946	239296
608.013	249667
608.081	254375
608.149	256416
608.216	265915
608.284	275130
608.352	272690
608.419	270711
608.487	266552
608.555	259755
608.622	270912
608.690	285060
608.757	313869
608.825	321336
608.893	311415
608.960	293630
609.028	281720
609.095	282634
609.163	279397
609.230	251099
609.298	232006
609.365	244833
609.432	264084
609.500	287509
609.567	323655
609.635	367675
609.702	384955
609.769	368362
609.837	294603
609.904	261353
609.971	278889
610.039	321424
610.106	425530
610.173	774693
610.241	1586311
610.308	1047453
610.375	393746
610.442	301516
610.509	274789
610.577	268420
610.644	270080
610.711	279708
610.778	284253
610.845	294305
610.912	311190
610.980	323796
611.047	322133
611.114	315158
611.181	305735
611.248	305066
611.315	321399
611.382	330227
611.449	343662
611.516	347272
611.583	343944
611.650	346031
611.717	357286
611.784	365020
611.851	389512
611.918	422362
611.984	505975
612.051	693417
612.118	1206381
612.185	2209174
612.252	1752088
612.319	713602
612.386	513155
612.452	443270
612.519	409793
612.586	389841
612.653	395700
612.719	403410
612.786	388964
612.853	358561
612.919	352767
612.986	357090
613.053	335074
613.120	314248
613.186	305831
613.253	307509
613.319	306146
613.386	307835
613.453	311592
613.519	313154
613.586	307328
613.652	312110
613.719	308164
613.785	312486
613.852	317106
613.918	312999
613.985	316950
614.051	331079
614.118	330793
614.184	316228
614.250	314350
614.317	321194
614.383	317304
614.449	321757
614.516	319906
614.582	322532
614.648	315250
614.715	313212
614.781	305539
614.847	305361
614.914	303246
614.980	295307
615.046	296838
615.112	306185
615.179	308007
615.245	311877
615.311	306527
615.377	312270
615.443	318191
615.509	324602
615.575	338995
615.642	340209
615.708	346392
615.774	369680
615.840	401215
615.906	446160
615.972	554615
616.038	803457
616.104	1447010
616.170	2392042
616.236	2209023
616.302	1064116
616.368	761033
616.434	549413
616.500	470364
616.565	519112
616.631	674841
616.697	574648
616.763	568819
616.829	839720
616.895	1456843
616.961	1454080
617.026	709146
617.092	429879
617.158	364945
617.224	338016
617.289	307349
617.355	290529
617.421	285518
617.487	278891
617.552	264931
617.618	261529
617.684	260018
617.749	261945
617.815	247259
617.880	244508
617.946	241949
618.012	247972
618.077	252521
618.143	240517
618.208	242122
618.274	260662
618.339	260078
618.405	215462
618.470	215623
618.536	215687
618.601	211454
618.667	195485
618.732	186565
618.798	184123
618.863	183549
618.928	180541
618.994	186155
619.059	181480
619.124	186178
619.190	180279
619.255	179709
619.320	180211
619.386	181445
619.451	179126
619.516	174886
619.581	174855
619.647	181163
619.712	181180
619.777	172978
619.842	172231
619.907	178578
619.972	179552
620.038	179353
620.103	173193
620.168	173539
620.233	175644
620.298	177165
620.363	179193
620.428	185561
620.493	189994
620.558	190768
620.623	193865
620.688	193204
620.753	190562
620.818	195187
620.883	195498
620.948	195370
621.013	193189
621.078	188654
621.143	191409
621.207	195846
621.272	190531
621.337	186043
621.402	181163
621.467	181243
621.532	179800
621.596	181952
621.661	174568
621.726	173361
621.791	177367
621.855	178072
621.920	172810
621.985	177876
622.049	181779
622.114	181761
622.179	186013
622.243	189555
622.308	194277
622.373	201931
622.437	198561
622.502	187367
622.566	183614
622.631	182054
622.695	187226
622.760	186817
622.824	186128
622.889	186499
622.953	187372
623.018	197766
623.082	200650
623.147	198990
623.211	193986
623.276	195297
623.340	184874
623.404	179828
623.469	180928
623.533	183618
623.597	178798
623.662	176987
623.726	162823
623.790	154583
623.854	148953
623.919	152925
623.983	155960
624.047	158672
624.111	159254
624.176	162896
624.240	162885
624.304	169288
624.368	162486
624.432	162437
624.496	166428
624.560	175937
624.625	177557
624.689	175494
624.753	183617
624.817	175231
624.881	171042
624.945	154277
625.009	147443
625.073	152206
625.137	157014
625.201	166104
625.265	162837
625.329	156011
625.393	159292
625.456	162120
625.520	166380
625.584	168037
625.648	173834
625.712	176427
625.776	175815
625.839	166837
625.903	141019
625.967	133076
626.031	142601
626.095	167811
626.158	156551
626.222	121729
626.286	113711
626.349	110729
626.413	100943
626.477	102269
626.540	103230
626.604	103236
626.668	101102
626.731	98692
626.795	100451
626.858	99918
626.922	98990
626.986	98454
627.049	97263
627.113	103160
627.176	99821
627.240	96620
627.303	97037
627.366	96096
627.430	98009
627.493	96733
627.557	94856
627.620	96965
627.684	100607
627.747	102623
627.810	91519
627.874	84343
627.937	81580
628.000	85342
628.064	81922
628.127	73107
628.190	71942
628.253	69997
628.317	67107
628.380	65800
628.443	62544
628.506	61987
628.569	60396
628.632	56352
628.696	56482
628.759	56234
628.822	54232
628.885	53033
628.948	52295
629.011	51791
629.074	50531
629.137	48830
629.200	46271
629.263	47775
629.326	45528
629.389	47106
629.452	46326
629.515	46306
629.578	43841
629.641	47038
629.704	45161
629.767	45953
629.830	43648
629.892	43129
629.955	43413
630.018	45451
630.081	42964
630.144	46037
630.207	41607
630.269	45100
630.332	41758
630.395	42740
630.458	40645
630.520	38364
630.583	41685
630.646	41129
630.708	41597
630.771	41872
630.834	45796
630.896	44331
630.959	43284
631.021	43959
631.084	43106
631.146	44671
631.209	46091
631.272	44541
631.334	47265
631.397	48318
631.459	49668
631.522	53687
631.584	57525
631.646	61925
631.709	65462
631.771	65748
631.834	63306
631.896	58893
631.958	51894
632.021	50957
632.083	45988
632.145	46488
632.208	44498
632.270	44443
632.332	42307
632.395	41672
632.457	42334
632.519	41422
632.581	41263
632.643	41118
632.706	41693
632.768	40036
632.830	41158
632.892	42883
632.954	41702
633.016	43682
633.078	41482
633.141	42628
633.203	41488
633.265	42116
633.327	41727
633.389	42148
633.451	43624
633.513	42427
633.575	45704
633.637	44948
633.698	45690
633.760	50475
633.822	51814
633.884	53766
633.946	57290
634.008	60405
634.070	66438
634.132	71510
634.193	80077
634.255	88245
634.317	90627
634.379	87681
634.441	77120
634.502	67147
634.564	61059
634.626	54221
634.687	50444
634.749	48565
634.811	45771
634.873	44891
634.934	45387
634.996	46515
635.057	44414
635.119	46918
635.181	47971
635.242	49591
635.304	47766
635.365	51214
635.427	48559
635.488	48449
635.550	47915
635.611	50114
635.673	51466
635.734	58405
635.796	62800
635.857	71363
635.918	78195
635.980	88858
636.041	95538
636.102	103493
636.164	104589
636.225	97370
636.286	84693
636.348	73343
636.409	62670
636.470	56694
636.531	51493
636.593	48100
636.654	46551
636.715	44242
636.776	42781
636.838	40284
636.899	38722
636.960	38282
637.021	36808
637.082	35711
637.143	36383
637.204	33656
637.265	35015
637.326	35493
637.387	34380
637.448	35449
637.509	35386
637.570	35897
637.631	34709
637.692	31459
637.753	30801
637.814	31678
637.875	30895
637.936	32205
637.997	30896
638.058	30328
638.119	31096
638.179	31498
638.240	29595
638.301	30844
638.362	28419
638.423	28576
638.483	29388
638.544	26005
638.605	28655
638.666	28075
638.726	27275
638.787	28361
638.848	27296
638.908	27430
638.969	26007
639.030	26558
639.090	24765
639.151	25900
639.211	27847
639.272	28529
639.332	28377
639.393	30950
639.453	33826
639.514	35881
639.574	29240
639.635	25813
639.695	26250
639.756	24120
639.816	24413
639.877	24475
639.937	25552
639.997	25362
640.058	24339
640.118	24589
640.178	25512
640.239	25140
640.299	25147
640.359	27057
640.420	30196
640.480	35110
640.540	43284
640.600	45957
640.661	38462
640.721	35710
640.781	37282
640.841	32301
640.901	27277
640.961	28398
641.021	30090
641.082	32909
641.142	27103
641.202	26606
641.262	22195
641.322	24518
641.382	21493
641.442	23918
641.502	22939
641.562	25246
641.622	25321
641.682	30084
641.742	36403
641.802	33320
641.861	26784
641.921	24462
641.981	23113
642.041	22691
642.101	21310
642.161	19898
642.221	21126
642.280	22287
642.340	21710
642.400	21827
642.460	24040
642.519	23665
642.579	22955
642.639	24544
642.698	21958
642.758	26768
642.818	25270
642.877	23874
642.937	24064
642.997	25016
643.056	25034
643.116	23354
643.175	26321
643.235	27526
643.294	29202
643.354	31610
643.414	35373
643.473	43886
643.532	56634
643.592	81160
643.651	125013
643.711	209062
643.770	387154
643.830	837280
643.889	1429269
643.948	549697
644.008	137148
644.067	74518
644.126	51803
644.186	41457
644.245	34719
644.304	29991
644.363	31245
644.423	28981
644.482	29490
644.541	33565
644.600	34459
644.659	47866
644.719	61828
644.778	93997
644.837	158965
644.896	319978
644.955	699110
645.014	267051
645.073	62595
645.132	42518
645.191	37218
645.250	34368
645.309	36679
645.368	42338
645.427	59289
645.486	110472
645.545	200066
645.604	60145
645.663	32275
645.722	30757
645.781	34948
645.840	40703
645.898	52949
645.957	76949
646.016	115358
646.075	198907
646.134	366416
646.192	860347
646.251	1159086
646.310	301319
646.369	92644
646.427	68689
646.486	48726
646.545	35236
646.603	30496
646.662	28549
646.721	28056
646.779	27836
646.838	31053
646.896	42735
646.955	58244
647.014	95198
647.072	185756
647.131	493715
647.189	258317
647.248	41738
647.306	26362
647.365	23815
647.423	18548
647.481	19992
647.540	15840
647.598	17984
647.657	17222
647.715	17674
647.773	15750
647.832	16325
647.890	13440
647.948	15094
648.007	14855
648.065	13429
648.123	13537
648.181	15774
648.240	13491
648.298	13538
648.356	12778
648.414	14680
648.472	12794
648.531	13411
648.589	12870
648.647	13677
648.705	14377
648.763	15181
648.821	16236
648.879	17571
648.937	20987
648.995	28171
649.053	37975
649.111	59284
649.169	94611
649.227	166999
649.285	340773
649.343	842686
649.401	470684
649.459	79110
649.516	40325
649.574	30598
649.632	33025
649.690	38220
649.748	45893
649.806	70534
649.863	132699
649.921	366116
649.979	263329
650.037	37694
650.094	18698
650.152	16845
650.210	13187
650.268	12800
650.325	12921
650.383	13800
650.440	10655
650.498	11731
650.556	9976
650.613	9352
650.671	9808
650.728	11242
650.786	12484
650.843	21179
650.901	14152
650.958	10034
651.016	8808
651.073	9078
651.131	7466
651.188	7374
651.246	7484
651.303	6998
651.360	8073
651.418	8461
651.475	7862
651.532	7189
651.590	8681
651.647	7526
651.704	7736
651.762	6833
651.819	6637
651.876	7538
651.933	6968
651.990	7463
652.048	6315
652.105	5838
652.162	6393
652.219	7111
652.276	6076
652.333	7019
652.390	5457
652.448	6605
652.505	5889
652.562	7445
652.619	5780
652.676	7036
652.733	7871
652.790	7113
652.847	5047
652.904	7189
652.961	4634
653.017	5239
653.074	6280
653.131	6211
653.188	5126
653.245	6571
653.302	5684
653.359	6259
653.415	5971
653.472	6143
653.529	5475
653.586	5483
653.642	5373
653.699	7194
653.756	5433
653.813	6605
653.869	7504
653.926	6562
653.983	5615
654.039	6426
654.096	6112
654.152	6645
654.209	4170
654.266	5729
654.322	4568
654.379	6446
654.435	5904
654.492	5694
654.548	4858
654.605	5462
654.661	6523
654.717	5260
654.774	5485
654.830	5568
654.887	5685
654.943	6424
655.000	6785
655.056	6409
655.112	5265
655.168	5398
655.225	5803
655.281	7591
655.337	5865
655.394	6095
655.450	5315
655.506	6016
655.562	4888
655.618	6453
655.675	4334
655.731	6183
655.787	4637
655.843	5997
655.899	4702
655.955	7289
656.011	6020
656.067	5705
656.123	7126
656.179	7902
656.235	7583
656.291	6023
656.347	8376
656.403	6916
656.459	5465
656.515	6265
656.571	5410
656.627	5941
656.683	5639
656.739	6362
656.795	6090
656.850	5873
656.906	6859
656.962	7032
657.018	6931
657.074	9078
657.129	11980
657.185	21747
657.241	49472
657.297	30284
657.352	7832
657.408	5465
657.464	4111
657.519	5442
657.575	4211
657.630	5204
657.686	4213
657.742	4140
657.797	5105
657.853	4107
657.908	5099
657.964	4419
658.019	4256
658.075	4557
658.130	4886
658.186	4187
658.241	4107
658.297	3304
658.352	4193
658.407	5043
658.463	4117
658.518	4749
658.573	4318
658.629	3444
658.684	3196
658.739	5813
658.795	3821
658.850	4964
658.905	3900
658.960	4634
659.016	3174
659.071	4573
659.126	4546
659.181	4061
659.236	5330
659.291	5255
659.346	2746
659.401	4654
659.457	3801
659.512	4175
659.567	4517
659.622	4145
659.677	3670
659.732	3241
659.787	3578
659.842	3458
659.897	3132
659.952	4150
660.007	3424
660.061	4191
660.116	3558
660.171	4236
660.226	4347
660.281	4248
660.336	3035
660.391	3782
660.445	2410
660.500	3800
660.555	4172
660.610	3111
660.664	4067
660.719	3204
660.774	3722
660.828	3897
660.883	3096
660.938	4897
660.992	2576
661.047	4217
661.101	3658
661.156	3661
661.211	3291
661.265	3430
661.320	2197
661.374	3949
661.429	3131
661.483	4255
661.538	2776
661.592	3322
661.647	4305
661.701	5648
661.755	3245
661.810	3674
661.864	2304
661.919	3735
661.973	3008
662.027	3509
662.081	3541
662.136	3584
662.190	2714
662.244	3432
662.299	2918
662.353	3408
662.407	2985
662.461	3867
662.515	3317
662.569	3701
662.624	3228
662.678	3123
662.732	2776
662.786	3700
662.840	3485
662.894	4667
662.948	3340
663.002	4344
663.056	3349
663.110	3255
663.164	3037
663.218	3414
663.272	3923
663.326	3605
663.380	3454
663.434	4368
663.488	3083
663.542	4055
663.595	4908
663.649	4434
663.703	4206
663.757	3815
663.811	3366
663.864	3809
663.918	3578
663.972	4193
664.026	4435
664.079	3526
664.133	4355
664.187	4886
664.240	3775
664.294	4740
664.348	4188
664.401	4584
664.455	3053
664.508	4241
664.562	4359
664.615	3910
664.669	2535
664.722	4090
664.776	3401
664.829	4162
664.883	4572
664.936	3430
664.990	3295
665.043	4422
665.097	3096
665.150	4862
665.203	4101
665.257	4365
665.310	5029
665.363	4744
665.417	4720
665.470	4436
665.523	4099
665.576	5374
665.630	3752
665.683	4724
665.736	4532
665.789	5108
665.842	3917
665.895	3658
665.949	4344
666.002	5170
666.055	5233
666.108	5630
666.161	4486
666.214	5245
666.267	4847
666.320	5290
666.373	5124
666.426	5352
666.479	4954
666.532	5226
666.585	5634
666.638	5468
666.691	5230
666.744	5105
666.796	3847
666.849	4268
666.902	4753
666.955	4957
667.008	3656
667.060	4963
667.113	4345
667.166	5006
667.219	5574
667.271	5115
667.324	4469
667.377	4823
667.430	4756
667.482	4481
667.535	5510
667.587	5030
667.640	4355
667.693	4593
667.745	4051
667.798	5399
667.850	3947
667.903	5334
667.955	4966
668.008	5361
668.060	4879
668.113	4401
668.165	4419
668.218	4543
668.270	4183
668.322	5105
668.375	4432
668.427	4377
668.479	4148
668.532	5676
668.584	4100
668.636	4551
668.689	4920
668.741	4625
668.793	4627
668.845	5212
668.898	5120
668.950	4539
669.002	4803
669.054	4862
669.106	3750
669.158	5311
669.211	4332
669.263	4194
669.315	4671
669.367	4791
669.419	3819
669.471	4867
669.523	3766
669.575	5045
669.627	4106
669.679	4835
669.731	4302
669.783	5436
669.835	4043
669.886	4492
669.938	5025
669.990	4907
670.042	4068
670.094	4483
670.146	5012
670.197	5263
670.249	5210
670.301	6581
670.353	6953
670.404	8831
670.456	10117
670.508	15702
670.560	21428
670.611	34303
670.663	55726
670.715	130959
670.766	219900
670.818	79990
670.869	16400
670.921	11159
670.972	9951
671.024	8881
671.075	7298
671.127	6465
671.178	7789
671.230	8925
671.281	9732
671.333	11708
671.384	14296
671.436	20004
671.487	27875
671.538	39744
671.590	61167
671.641	96836
671.692	166390
671.744	302707
671.795	271229
671.846	119272
671.897	55980
671.949	33229
672.000	22024
672.051	18366
672.102	13948
672.153	10926
672.204	9414
672.256	8717
672.307	7825
672.358	7214
672.409	6106
672.460	7930
672.511	5242
672.562	5497
672.613	4676
672.664	4883
672.715	5286
672.766	4824
672.817	4511
672.868	4709
672.919	4138
672.970	3353
673.021	4024
673.071	3959
673.122	3883
673.173	3965
673.224	4430
673.275	3723
673.326	3903
673.376	3372
673.427	3428
673.478	4381
673.528	4768
673.579	3852
673.630	3565
673.680	4224
673.731	3257
673.782	3698
673.832	3650
673.883	3451
673.934	3491
673.984	3632
674.035	3031
674.085	5015
674.136	3940
674.186	4526
674.237	4081
674.287	4812
674.338	4146
674.388	4633
674.438	5499
674.489	6003
674.539	5326
674.589	6095
674.640	5581
674.690	5867
674.740	4909
674.791	4391
674.841	3748
674.891	4292
674.942	4433
674.992	3779
675.042	3094
675.092	4081
675.142	2499
675.193	2979
675.243	3149
675.293	3924
675.343	3723
675.393	3789
675.443	4307
675.493	4355
675.543	3584
675.593	3894
675.643	3920
675.693	4011
675.743	3679
675.793	4064
675.843	2107
675.893	2593
675.943	2218
675.993	3224
676.043	2997
676.093	3038
676.142	3277
676.192	2665
676.242	2467
676.292	3264
676.341	2327
676.391	3024
676.441	2215
676.491	2925
676.540	1680
676.590	3083
676.640	2842
676.689	2686
676.739	1788
676.789	2864
676.838	1814
676.888	3379
676.937	2929
676.987	2775
677.037	3601
677.086	2452
677.136	2631
677.185	2123
677.235	2666
677.284	2811
677.333	2336
677.383	2290
677.432	1609
677.482	2504
677.531	2734
677.580	2033
677.630	1467
677.679	2749
677.728	1784
677.778	1959
677.827	2668
677.876	1981
677.925	2517
677.975	3504
678.024	2926
678.073	2680
678.122	2599
678.171	3990
678.220	3513
678.269	5775
678.319	5353
678.368	6767
678.417	4710
678.466	3883
678.515	3597
678.564	3155
678.613	2223
678.662	2609
678.711	2062
678.760	2400
678.809	2838
678.857	2683
678.906	2486
678.955	3008
679.004	3095
679.053	2573
679.102	2382
679.151	2650
679.199	1530
679.248	2601
679.297	2120
679.346	2481
679.394	1334
679.443	2501
679.492	1762
679.540	2547
679.589	2001
679.638	2186
679.686	2717
679.735	3597
679.784	3496
679.832	6014
679.881	4398
679.929	2754
679.978	1905
680.026	2281
680.075	2247
680.123	2190
680.172	947
680.220	1878
680.268	1798
680.317	2444
680.365	1765
680.414	1564
680.462	1576
680.510	3296
680.559	2488
680.607	1634
680.655	1751
680.703	2355
680.752	1717
680.800	2659
680.848	2033
680.896	2168
680.945	2182
680.993	1657
681.041	1652
681.089	2970
681.137	1608
681.185	1876
681.233	2051
681.258	2095
681.281	2123
681.329	1506
681.377	2219
681.380	2219
681.425	1950
681.473	2158
681.502	2243
681.521	2270
681.569	3179
681.617	2770
681.624	2796
681.665	2858
681.713	2363
681.745	2384
681.761	2373
681.809	2252
681.857	3363
681.867	3167
681.904	2431
681.952	2998
681.989	2541
682.000	2388
682.048	2410
682.096	1635
682.111	1823
682.143	2168
682.191	1684
682.233	3683
682.239	3972
682.286	2771
682.334	2218
682.354	2190
682.382	2106
682.430	2905
682.476	2542
682.477	2521
682.525	2251
682.572	2434
682.598	2329
682.620	2211
682.667	2257
682.715	3075
682.720	3037
682.763	2574
682.810	3336
682.841	2695
682.857	2328
682.905	2870
682.952	3079
682.963	3041
683.000	2856
683.047	2780
683.085	3348
683.095	3501
683.142	3341
683.190	3570
683.206	3184
683.237	2420
683.284	3846
683.328	3567
683.332	3535
683.379	2857
683.426	2835
683.449	3323
683.473	3803
683.521	2547
683.568	3688
683.571	3657
683.615	3071
683.662	3972
683.693	3462
683.709	3130
683.757	2956
683.804	2390
683.814	2557
683.851	3186
683.898	3184
683.936	3865
683.945	4018
683.992	3548
684.039	3150
684.057	3143
684.086	3102
684.133	3510
684.179	2176
684.180	2123
684.227	3536
684.274	3251
684.300	3630
684.321	3932
684.368	2612
684.415	3441
684.422	3432
684.462	3344
684.509	3600
684.543	3582
684.556	3558
684.603	3970
684.649	3553
684.665	3406
684.696	3089
684.743	3837
684.786	3952
684.790	3946
684.837	3523
684.883	4265
684.908	3913
684.930	3620
684.977	3457
685.023	3461
685.029	3558
685.070	4193
685.117	3235
685.150	4214
685.164	4606
685.210	3753
685.257	4330
685.272	4401
685.303	4421
685.350	4259
685.393	3883
685.396	3849
685.443	3844
685.490	3691
685.514	3733
685.536	3794
685.583	3802
685.629	3424
685.636	3488
685.675	3905
685.722	3884
685.757	3863
685.768	3809
685.815	3950
685.861	3757
685.878	3803
685.908	3981
685.954	3567
686.000	4058
686.000	4062
686.047	4079
686.093	4284
686.121	4245
686.139	4168
686.185	4453
686.232	4403
686.242	4420
686.278	4500
686.324	3966
686.363	4050
686.370	4056
686.416	3991
686.463	4862
686.484	4753
686.509	4694
686.555	4589
686.601	4347
686.606	4436
686.647	5117
686.693	3803
686.727	4645
686.739	4945
686.785	4233
686.831	4859
686.848	4682
686.877	4451
686.923	5167
686.969	4608
686.969	4604
687.015	5495
687.061	5299
687.090	5392
687.107	5390
687.153	5217
687.199	5236
687.211	5001
687.245	4395
687.291	5091
687.332	5202
687.336	5223
687.382	5029
687.428	4989
687.453	5200
687.474	5341
687.520	5763
687.565	5618
687.574	5529
687.611	5351
687.657	6107
687.695	6542
687.702	6623
687.748	6739
687.794	7541
687.816	7492
687.839	7188
687.885	6235
687.931	6220
687.937	6154
687.976	5900
688.022	5986
688.058	5327
688.067	5183
688.113	5648
688.158	5369
688.179	5491
688.204	5659
688.249	5370
688.295	5554
688.300	5438
688.340	4764
688.386	5791
688.421	5665
688.431	5627
688.477	5479
688.522	5873
688.542	5903
688.567	6008
688.613	6568
688.658	7157
688.663	7082
688.703	6392
688.749	6608
688.784	6271
688.794	6155
688.839	6304
688.884	6538
688.905	6525
688.930	6519
688.975	6357
689.020	6077
689.026	6041
689.065	5982
689.110	6150
689.146	6122
689.155	6102
689.201	6137
689.246	6293
689.267	6130
689.291	5939
689.336	5983
689.381	5976
689.388	5858
689.426	5407
689.471	6080
689.509	6266
689.516	6296
689.561	6424
689.606	5809
689.630	5873
689.651	5979
689.696	5845
689.741	6413
689.750	6317
689.785	5952
689.830	6453
689.871	5988
689.875	5943
689.920	6203
689.965	6291
689.992	5925
690.010	5799
690.054	5730
690.099	6496
690.112	6497
690.144	6306
690.189	6335
690.233	5935
690.233	5942
690.278	6107
690.323	5877
690.354	5973
690.367	6116
690.412	6263
690.457	6422
690.474	6512
690.501	6549
690.546	6413
690.590	6531
690.595	6541
690.635	6592
690.680	6095
690.716	6120
690.724	6244
690.769	6613
690.813	7770
690.836	7384
690.857	7143
690.902	8647
690.946	8846
690.957	9128
690.991	10932
691.035	13264
691.077	15830
691.080	15855
691.124	14168
691.168	12564
691.198	11787
691.213	11282
691.257	9840
691.301	8244
691.318	7765
691.346	7683
691.390	7291
691.434	7348
691.439	7276
691.478	7146
691.522	7582
691.559	7336
691.567	7284
691.611	7774
691.655	7600
691.680	7493
691.699	7380
691.743	7137
691.787	7206
691.800	7041
691.831	6826
691.875	7079
691.919	7022
691.921	7015
691.964	7214
692.008	7073
692.041	7386
692.052	7472
692.096	7027
692.139	7315
692.162	7108
692.183	6953
692.227	7148
692.271	7028
692.282	7106
692.315	7365
692.359	6835
692.402	6961
692.403	6977
692.447	6844
692.490	7211
692.523	7155
692.534	7102
692.578	7081
692.622	7071
692.643	6990
692.666	7061
692.709	7068
692.753	7226
692.763	7265
692.797	7412
692.840	7436
692.884	7589
692.884	7604
692.928	7778
692.971	7252
693.004	7089
693.015	7089
693.059	7080
693.102	7288
693.124	7130
693.146	7040
693.189	7292
693.233	7112
693.245	7181
693.276	7505
693.320	7601
693.363	7661
693.365	7643
693.407	7742
693.450	8360
693.485	8552
693.493	8648
693.537	9179
693.580	9251
693.605	9701
693.624	10405
693.667	11468
693.710	13142
693.725	13635
693.753	16377
693.797	20943
693.840	25769
693.845	26156
693.883	23917
693.926	20984
693.966	18747
693.970	18446
694.013	15153
694.056	11987
694.086	9556
694.099	9339
694.142	8823
694.185	8310
694.206	8116
694.229	8272
694.272	8456
694.315	8766
694.326	8703
694.358	8250
694.401	8226
694.444	7797
694.446	7758
694.487	7815
694.530	7959
694.566	8098
694.573	8116
694.616	8190
694.659	7827
694.686	7893
694.702	8017
694.745	8316
694.787	8261
694.806	8317
694.830	8419
694.873	8506
694.916	8515
694.926	8508
694.959	8547
695.002	8795
695.044	8672
695.046	8664
695.087	9103
695.130	9029
695.166	9216
695.172	9248
695.215	8983
695.258	9295
695.286	9161
695.301	9204
695.343	9402
695.386	9701
695.406	9810
695.428	10183
695.471	10774
695.514	11573
695.526	11731
695.556	12372
695.599	13545
695.641	14063
695.646	14121
695.684	13315
695.726	12435
695.766	11544
695.769	11555
695.811	11476
695.854	11175
695.886	10948
695.896	10984
695.938	11007
695.981	11320
696.005	11326
696.023	11769
696.065	12783
696.108	14053
696.125	14467
696.150	14442
696.192	14206
696.235	14078
696.245	14034
696.277	14225
696.319	14341
696.361	14641
696.365	14617
696.404	14608
696.446	14549
696.485	14514
696.488	14528
696.530	14436
696.572	14040
696.604	13796
696.614	13827
696.656	13763
696.698	13803
696.724	13805
696.740	13958
696.783	14232
696.825	14538
696.844	14667
696.867	14706
696.909	14396
696.951	14405
696.964	14342
696.992	14431
697.034	14584
697.076	14600
697.083	14595
697.118	15331
697.160	16097
697.202	16826
697.203	16806
697.244	16285
697.286	15803
697.323	15218
697.327	15275
697.369	15573
697.411	15792
697.442	15910
697.453	15977
697.494	16091
697.536	16305
697.562	16312
697.578	16237
697.620	16031
697.661	15695
697.682	15577
697.703	16044
697.744	16828
697.786	17707
697.801	17911
697.828	17787
697.869	17630
697.911	17415
697.921	17350
697.952	17264
697.994	16942
698.035	16779
698.040	16700
698.077	16654
698.118	16716
698.160	16639
698.160	16597
698.201	17122
698.243	17577
698.279	18014
698.284	18101
698.325	18421
698.367	18815
698.399	19019
698.408	19104
698.449	19361
698.491	19537
698.518	19649
698.532	19745
698.573	19847
698.614	19997
698.638	20039
698.656	20144
698.697	20235
698.738	20343
698.757	20354
698.779	20323
698.820	20147
698.862	19987
698.877	19877
698.903	19811
698.944	19638
698.985	19452
698.996	19357
699.026	19319
699.067	19203
699.116	19020
699.235	20376
699.354	18713
699.474	18378
699.593	18031
699.713	18536
699.832	19392
699.951	19632
700.070	19253
700.190	18077
700.309	18319
700.428	16150
700.547	16767
700.667	15849
700.786	17084
700.905	16277
701.024	16553
701.143	15449
701.262	16288
701.381	17692
701.500	17591
701.619	16837
701.738	16988
701.857	16383
701.976	15428
702.095	16409
702.214	17070
702.333	15720
702.452	16783
702.571	16870
702.690	16708
702.809	17408
702.928	16532
703.047	15618
703.165	15573
703.284	15801
703.403	14827
703.522	14979
703.640	14815
703.759	14472
703.878	14094
703.997	14928
704.115	15537
704.234	14992
704.353	14719
704.471	14105
704.590	13464
704.708	13298
704.827	14008
704.946	12713
705.064	12991
705.183	13387
705.301	13747
705.420	12890
705.538	13137
705.656	12157
705.775	11718
705.893	13230
706.012	14778
706.130	12035
706.249	13355
706.367	13170
706.485	12222
706.604	11508
706.722	12262
706.840	13709
706.958	16770
707.077	13383
707.195	11023
707.313	11484
707.431	10790
707.549	10650
707.668	10482
707.786	12370
707.904	10025
708.022	11732
708.140	10627
708.258	11143
708.376	12087
708.494	9954
708.612	12308
708.730	11610
708.848	12146
708.966	11621
709.084	11732
709.202	11618
709.320	10143
709.438	10016
709.556	10101
709.674	9102
709.791	10167
709.909	9009
710.027	9746
710.145	9594
710.263	9985
710.380	9539
710.498	9152
710.616	9591
710.733	8138
710.851	8891
710.969	9824
711.086	9334
711.204	9070
711.322	10144
711.439	8839
711.557	8694
711.674	8505
711.792	8907
711.909	8875
712.027	8297
712.144	8556
712.262	8562
712.379	8326
712.497	8477
712.614	8939
712.732	8426
712.849	8175
712.966	8936
713.084	9763
713.201	8409
713.318	9146
713.436	10390
713.553	9730
713.670	11079
713.787	10512
713.905	10317
714.022	11102
714.139	11967
714.256	16698
714.373	28271
714.490	60772
714.608	182625
714.725	735444
714.842	597532
714.959	59364
715.076	22522
715.193	16926
715.310	14245
715.427	11161
715.544	10400
715.661	10698
715.778	8691
715.895	9795
716.011	9250
716.128	8754
716.245	8260
716.362	8105
716.479	7210
716.596	8654
716.713	8490
716.829	7056
716.946	6790
717.063	7214
717.180	6560
717.296	6722
717.413	7383
717.530	6126
717.646	6423
717.763	6493
717.880	6618
717.996	5906
718.113	5939
718.229	5980
718.346	4915
718.462	6246
718.579	6315
718.695	6448
718.812	6510
718.928	6348
719.045	5843
719.161	5793
719.277	7094
719.394	7833
719.510	7369
719.626	9715
719.743	13073
719.859	26011
719.975	65054
720.092	282461
720.208	511260
720.324	56121
720.440	14353
720.557	9966
720.673	9993
720.789	8029
720.905	7712
721.021	6528
721.137	5946
721.253	5140
721.369	6077
721.486	6226
721.602	5812
721.718	4972
721.834	4791
721.950	5073
722.066	4773
722.181	5032
722.297	5211
722.413	4887
722.529	6018
722.645	5577
722.761	5116
722.877	5332
722.993	7319
723.108	10957
723.224	7495
723.340	5521
723.456	4991
723.571	5256
723.687	5046
723.803	5255
723.918	4926
724.034	4597
724.150	4809
724.265	4868
724.381	4032
724.497	4878
724.612	4186
724.728	4518
724.843	3361
724.959	3763
725.074	4813
725.190	4757
725.305	4188
725.421	5121
725.536	4709
725.651	4050
725.767	4874
725.882	5323
725.997	4535
726.113	5114
726.228	4792
726.343	4453
726.459	4425
726.574	4938
726.689	3951
726.804	3897
726.920	3442
727.035	4490
727.150	5431
727.265	4195
727.380	4474
727.495	5354
727.610	3844
727.725	3609
727.841	4294
727.956	5429
728.071	4307
728.186	4313
728.301	3768
728.416	4673
728.531	4496
728.645	3947
728.760	4532
728.875	4971
728.990	4308
729.105	4371
729.220	3625
729.335	4339
729.449	4117
729.564	3820
729.679	3373
729.794	4198
729.908	4141
730.023	3636
730.138	4128
730.253	4400
730.367	4825
730.482	4864
730.596	5015
730.711	5816
730.826	8386
730.940	7725
731.055	6212
731.169	6538
731.284	7868
731.398	6682
731.513	7354
731.627	8758
731.742	10997
731.856	13178
731.970	14981
732.085	20628
732.199	34079
732.313	68746
732.428	194200
732.542	511978
732.656	246221
732.771	47530
732.885	24528
732.999	19411
733.113	19550
733.227	18410
733.342	15201
733.456	15679
733.570	14007
733.684	14175
733.798	12722
733.912	13051
734.026	13903
734.140	12755
734.254	12026
734.368	12253
734.482	12536
734.596	12420
734.710	11594
734.824	10612
734.938	10923
735.052	11164
735.166	11642
735.280	11937
735.393	11045
735.507	11449
735.621	10277
735.735	10029
735.849	10037
735.962	9654
736.076	10446
736.190	9633
736.303	10364
736.417	10921
736.531	9681
736.644	9420
736.758	9500
736.872	8727
736.985	9870
737.099	9039
737.212	9574
737.326	8671
737.439	10156
737.553	8885
737.666	8901
737.780	8941
737.893	9708
738.007	9376
738.120	9827
738.233	8205
738.347	9873
738.460	8786
738.573	9706
738.687	8493
738.800	8331
738.913	9620
739.026	8755
739.140	8343
739.253	9138
739.366	8071
739.479	7847
739.592	8802
739.705	7896
739.818	8918
739.932	7464
740.045	8974
740.158	7979
740.271	8872
740.384	8362
740.497	7384
740.610	7715
740.723	7512
740.836	7434
740.949	8208
741.062	8336
741.174	7449
741.287	7472
741.400	7431
741.513	6285
741.626	7885
741.739	6779
741.851	7637
741.964	7729
742.077	7435
742.189	6374
742.302	9072
742.415	8013
742.527	7231
742.640	6654
742.753	6497
742.865	6763
742.978	6966
743.090	6412
743.203	6673
743.316	6113
743.428	5504
743.541	7227
743.653	5928
743.766	6701
743.878	6268
743.990	6563
744.103	7944
744.215	9167
744.327	6299
744.440	7817
744.552	6219
744.664	5598
744.777	6868
744.889	5425
745.001	6390
745.113	7017
745.226	5415
745.338	6139
745.450	6255
745.562	5726
745.674	5601
745.786	6874
745.898	6853
746.010	7097
746.122	5892
746.234	7100
746.347	6614
746.459	6602
746.570	5676
746.682	8738
746.794	10821
746.906	5770
747.018	5857
747.130	6336
747.242	5430
747.354	5217
747.466	5281
747.577	4670
747.689	4745
747.801	5748
747.913	4577
748.024	4978
748.136	5355
748.248	4598
748.359	5194
748.471	6173
748.583	5303
748.694	4508
748.806	6264
748.918	4631
749.029	4679
749.141	5601
749.252	4762
749.364	4529
749.475	4280
749.587	4142
749.698	4303
749.809	5431
749.921	4324
750.032	5009
750.144	3849
750.255	4336
750.366	4220
750.478	4368
750.589	3936
750.700	4216
750.811	5023
750.923	3827
751.034	4278
751.145	4791
751.256	4420
751.367	3897
751.479	4128
751.590	4358
751.701	4174
751.812	4019
751.923	4570
752.034	5681
752.145	4611
752.256	4688
752.367	3831
752.478	4423
752.589	4847
752.700	4481
752.811	3872
752.922	4262
753.032	4801
753.143	4403
753.254	4416
753.365	5818
753.476	4233
753.586	3911
753.697	4314
753.808	3822
753.919	3934
754.029	3515
754.140	3600
754.251	3620
754.361	4491
754.472	4832
754.582	4177
754.693	3927
754.804	4677
754.914	3785
755.025	2430
755.135	3315
755.246	4204
755.356	3444
755.466	3713
755.577	3810
755.687	4473
755.798	2950
755.908	4061
756.018	4016
756.129	3677
756.239	4376
756.349	4902
756.460	5244
756.570	5249
756.680	4335
756.790	3769
756.900	3971
757.011	3906
757.121	3195
757.231	3442
757.341	3589
757.451	2826
757.561	3051
757.671	4682
757.781	3309
757.891	4095
758.001	3581
758.111	4662
758.221	4496
758.331	4238
758.441	4382
758.551	4732
758.661	5588
758.771	5181
758.880	5122
758.990	3972
759.100	4918
759.210	5156
759.320	4935
759.429	5596
759.539	5821
759.649	6150
759.758	8356
759.868	9148
759.978	7858
760.087	8718
760.197	10292
760.307	8001
760.416	6954
760.526	6978
760.635	8138
760.745	8236
760.854	9341
760.964	10955
761.073	10995
761.182	9068
761.292	8599
761.401	6499
761.511	5534
761.620	4847
761.729	5956
761.839	5077
761.948	4954
762.057	3938
762.166	4583
762.276	3984
762.385	5729
762.494	4147
762.603	3865
762.712	4842
762.822	4233
762.931	4581
763.040	3546
763.149	4043
763.258	3734
763.367	4078
763.476	4524
763.585	4160
763.694	4895
763.803	4379
763.912	4863
764.021	4345
764.130	4998
764.238	4796
764.347	5806
764.456	5769
764.565	6749
764.674	6523
764.783	5642
764.891	6195
765.000	7466
765.109	7086
765.217	8519
765.326	9509
765.435	10587
765.543	12839
765.652	15120
765.761	20581
765.869	29088
765.978	43917
766.086	73126
766.195	135658
766.303	283152
766.412	456117
766.520	364702
766.629	205022
766.737	98246
766.846	55280
766.954	37028
767.062	27658
767.171	19780
767.279	16873
767.387	13600
767.496	11409
767.604	10699
767.712	9776
767.820	8620
767.928	7373
768.037	7130
768.145	6749
768.253	6856
768.361	6550
768.469	6764
768.577	6227
768.685	7754
768.793	7698
768.901	8283
769.009	9219
769.117	9688
769.225	13761
769.333	19711
769.441	30141
769.549	53555
769.657	114600
769.765	278195
769.873	366222
769.981	200723
770.088	74919
770.196	37810
770.304	25753
770.412	17843
770.519	14364
770.627	11354
770.735	10061
770.842	9304
770.950	8836
771.058	7867
771.165	8459
771.273	7777
771.380	8152
771.488	9933
771.595	10649
771.703	9679
771.810	9616
771.918	8493
772.025	10898
772.133	10775
772.240	10564
772.348	12448
772.455	11961
772.562	9861
772.670	9981
772.777	11317
772.884	10693
772.991	9642
773.099	10093
773.206	8873
773.313	10285
773.420	9893
773.528	9434
773.635	9292
773.742	9812
773.849	9071
773.956	9799
774.063	8190
774.170	8788
774.277	9755
774.384	8284
774.491	8856
774.598	8824
774.705	8687
774.812	8325
774.919	7948
775.026	8874
775.133	7975
775.239	8361
775.346	7614
775.453	7349
775.560	7561
775.667	8508
775.773	7173
775.880	7990
775.987	7616
776.093	8228
776.200	8400
776.307	6230
776.413	7199
776.520	8832
776.627	7047
776.733	6363
776.840	6163
776.946	10486
777.053	11390
777.159	15176
777.266	8909
777.372	14656
777.478	12567
777.585	8894
777.691	6177
777.798	8665
777.904	6667
778.010	5857
778.117	6979
778.223	6496
778.329	5791
778.435	5458
778.542	7577
778.648	5571
778.754	5868
778.860	6759
778.966	5886
779.072	5861
779.178	5954
779.284	4622
779.391	4296
779.497	5250
779.603	7778
779.708	5807
779.815	8208
779.920	17946
780.026	25492
780.132	7513
780.238	4706
780.344	5297
780.450	7139
780.556	4490
780.661	4561
780.767	5914
780.873	3644
780.979	5531
781.085	5473
781.190	5397
781.296	4730
781.402	4902
781.507	5096
781.613	3557
781.719	4010
781.824	5529
781.930	4853
782.035	4802
782.141	5361
782.246	3383
782.352	4140
782.457	4532
782.563	4765
782.668	4704
782.773	3363
782.879	3869
782.984	3825
783.090	4446
783.195	4471
783.300	5103
783.405	3626
783.511	2964
783.616	4078
783.721	4752
783.826	3760
783.932	4302
784.037	4651
784.142	4388
784.247	3343
784.352	4197
784.457	2875
784.562	3907
784.667	4665
784.772	3836
784.877	2363
784.982	4247
785.087	4288
785.192	3879
785.297	2874
785.402	4218
785.507	3511
785.611	3697
785.716	3111
785.821	3446
785.926	4552
786.031	3539
786.135	3659
786.240	3415
786.345	2614
786.450	3629
786.554	3632
786.659	2441
786.763	2202
786.868	3769
786.973	4589
787.077	2290
787.182	2821
787.286	3151
787.391	4107
787.495	2791
787.600	2214
787.704	2557
787.809	3821
787.913	3494
788.017	3782
788.122	3210
788.226	3378
788.330	2237
788.435	3338
788.539	3600
788.643	2980
788.747	2263
788.852	2970
788.956	2504
789.060	4260
789.164	3160
789.268	2183
789.372	3121
789.476	2927
789.580	2169
789.684	1642
789.788	2933
789.892	2278
789.996	2563
790.100	1489
790.204	3207
790.308	3210
790.412	2212
790.516	2195
790.620	2048
790.724	3107
790.828	2889
790.931	1016
791.035	2846
791.139	1411
791.242	1969
791.346	2812
791.450	1863
791.554	2730
791.657	948
791.761	3378
791.864	3089
791.968	2258
792.072	2439
792.175	1708
792.279	1768
792.382	2285
792.486	2394
792.589	1918
792.693	2598
792.796	1425
792.899	3339
793.003	2940
793.106	1247
793.209	2001
793.313	2148
793.416	-363
793.519	2282
793.623	3167
793.726	1935
793.829	1180
793.932	1723
794.035	1278
794.138	3624
794.242	2961
794.345	1764
794.448	2346
794.551	1601
794.654	8651
794.757	12949
794.860	3817
794.963	2424
795.066	1278
795.169	2708
795.272	1477
795.375	2203
795.477	1439
795.580	1591
795.683	379
795.786	2002
795.889	1116
795.991	1773
796.094	2239
796.197	653
796.300	3666
796.402	2373
796.505	619
796.608	829
796.710	2505
796.813	3015
796.915	2364
797.018	2480
797.120	2403
797.223	696
797.326	3370
797.428	1614
797.530	1294
797.633	1146
797.735	3492
797.838	1833
797.940	3097
798.042	1656
798.145	1582
798.247	1797
798.349	378
798.452	2578
798.554	2286
798.656	1793
798.758	3157
798.860	1628
798.962	2287
799.065	1439
799.167	616
799.269	2968
799.371	3623
799.473	4503
799.575	2821
799.677	2456
799.779	3613
799.881	531
799.983	3487
800.085	1652
800.187	1822
800.289	1211
800.390	1350
800.492	2041
800.594	2709
800.696	1141
800.798	2146
800.899	1754
801.001	2030
801.103	1895
801.205	1951
801.306	2369
801.408	1711
801.509	1938
801.611	1837
801.713	1980
801.814	1112
801.916	1136
802.017	1213
802.119	873
802.220	2034
802.322	28
802.423	2926
802.525	175
802.626	1467
802.727	1322
802.829	2211
802.930	-376
803.031	2554
803.133	2158
803.234	1290
803.335	1262
803.436	292
803.538	1208
803.639	437
803.740	1806
803.841	1985
803.942	1802
804.043	1895
804.144	344
804.245	2190
804.346	650
804.447	1181
804.548	996
804.649	1234
804.750	680
804.851	1078
804.952	1197
805.053	1355
805.154	554
805.255	1997
805.355	1102
805.456	1121
805.557	905
805.658	489
805.758	2185
805.859	1358
805.960	1573
806.061	292
806.161	952
806.262	1006
806.362	-78
806.463	333
806.564	1306
806.664	626
806.765	235
806.865	1257
806.966	394
807.066	327
807.166	1378
807.267	704
807.367	167
807.468	1039
807.568	-844
807.668	1804
807.769	1605
807.869	830
807.969	1905
808.069	1060
808.170	1123
808.270	94
808.370	829
808.470	296
808.570	-319
808.670	658
808.770	1141
808.870	923
808.970	533
809.070	1018
809.170	1201
809.271	2239
809.370	748
809.470	1207
809.570	-527
809.670	450
809.770	1005
809.870	1908
809.970	1471
810.070	1331
810.169	1002
810.269	-268
810.369	1854
810.469	860
810.568	788
810.668	416
810.768	206
810.867	1188
810.967	0
811.066	871
811.166	-146
811.265	1506
811.365	461
811.464	625
811.564	1059
811.663	651
811.763	-301
811.862	1533
811.962	1879
812.061	242
812.160	536
812.260	805
812.359	1025
812.458	-72
812.557	1826
812.657	1103
812.756	1583
812.855	895
812.954	981
813.053	1143
813.153	947
813.252	108
813.351	1463
813.450	1737
813.549	843
813.648	1192
813.747	500
813.846	1045
813.945	1211
814.044	673
814.143	933
814.242	2062
814.341	820
814.439	1519
814.538	1082
814.637	1821
814.736	1144
814.835	2743
814.933	804
815.032	2050
815.131	3303
815.229	6607
815.328	9493
815.427	5700
815.525	5717
815.624	5157
815.722	5502
815.821	6514
815.919	5914
816.018	5461
816.116	6178
816.215	6540
816.313	6233
816.412	7386
816.510	8064
816.609	9439
816.707	9293
816.805	8028
816.904	8290
817.002	7472
817.100	9182
817.198	9623
817.296	7683
817.395	8648
817.493	7574
817.591	6902
817.689	7819
817.787	8229
817.885	6885
817.983	6482
818.081	6860
818.179	6804
818.277	9499
818.375	8057
818.473	7953
818.571	6389
818.669	7575
818.767	8073
818.865	5952
818.963	5751
819.061	6942
819.158	6250
819.256	8541
819.354	6920
819.452	10398
819.549	7005
819.647	7354
819.745	5504
819.842	6484
819.940	7546
820.038	6324
820.135	5682
820.233	7886
820.330	6478
820.428	4782
820.525	7222
820.623	5530
820.720	5557
820.818	6563
820.915	6587
821.012	5642
821.110	4517
821.207	6894
821.304	5187
821.402	6827
821.499	7139
821.596	6895
821.693	6053
821.791	6059
821.888	5591
821.985	6300
822.082	4497
822.179	6625
822.276	5777
822.373	4851
822.470	5395
822.567	5361
822.664	4479
822.761	5657
822.858	5448
822.955	4880
823.052	4894
823.149	5118
823.246	5215
823.343	3258
823.440	5152
823.536	5549
823.633	5154
823.730	4705
823.827	4849
823.923	4329
824.020	5787
824.117	5394
824.213	5339
824.310	5099
824.407	3528
824.503	5665
824.600	5193
824.696	3757
824.793	6071
824.889	5375
824.986	5174
825.082	2620
825.179	3816
825.275	6099
825.371	5074
825.468	4091
825.564	2265
825.660	5039
825.757	5721
825.853	4292
825.949	3453
826.045	3534
826.142	4557
826.238	4692
826.334	5821
826.430	3619
826.526	2733
826.622	2971
826.718	5671
826.814	5284
826.910	4859
827.006	2033
827.102	2030
827.198	4968
827.294	4154
827.390	4436
827.486	4219
827.582	1610
827.678	4049
827.774	5304
827.869	3101
827.965	3666
828.061	2727
828.157	4806
828.252	4246
828.348	2852
828.444	2984
828.539	3177
828.635	3958
828.731	3341
828.826	2767
828.922	4880
829.017	4403
829.113	4467
829.208	3381
829.304	3172
829.399	6814
829.495	3431
829.590	3934
829.685	3769
829.781	4362
829.876	3328
829.971	1508
830.066	1442
830.162	4552
830.257	5582
830.352	3759
830.447	2978
830.543	2749
830.638	3528
830.733	4503
830.828	2708
830.923	4945
831.018	4153
831.113	4035
831.208	2519
831.303	2248
831.398	2490
831.493	3860
831.588	5081
831.683	2263
831.778	2226
831.873	2264
831.967	4343
832.062	3338
832.157	3105
832.252	3231
832.346	3067
832.441	4578
832.536	4437
832.631	3836
832.725	2204
832.820	2274
832.914	2952
833.009	2356
833.104	2389
833.198	3152
833.293	3033
833.387	5132
833.482	3804
833.576	2320
833.670	3116
833.765	3866
833.859	3961
833.954	4392
834.048	2761
834.142	2169
834.237	2078
834.331	2567
834.425	3122
834.519	2180
834.613	2401
834.708	2496
834.802	2621
834.896	2648
834.990	3343
835.084	2855
835.178	1968
835.272	2383
835.366	3852
835.460	3738
835.554	3183
835.648	2234
835.742	1151
835.836	2007
835.930	1906
836.024	3737
836.117	3558
836.211	2389
836.305	2533
836.399	2273
836.493	2488
836.586	3935
836.680	1863
836.774	1795
836.867	2650
836.961	1388
837.055	1540
837.148	1747
837.242	2007
837.335	2141
837.429	1958
837.522	2433
837.616	2587
837.709	2449
837.803	1712
837.896	2667
837.989	2837
838.083	1577
838.176	1332
838.269	856
838.363	2775
838.456	1704
838.549	2916
838.642	2277
838.735	1677
838.829	3540
838.922	1770
839.015	1910
839.108	2058
839.201	2070
839.294	3390
839.387	2228
839.480	1004
839.573	1037
839.666	1135
839.759	2634
839.852	1186
839.945	2869
840.038	1041
840.131	942
840.223	1526
840.316	3026
840.409	1417
840.502	1823
840.594	2767
840.687	119
840.780	1016
840.873	1047
840.965	1728
841.058	3250
841.150	3193
841.243	1415
841.336	1581
841.428	1549
841.521	2181
841.613	1640
841.706	2226
841.798	1975
841.890	1972
841.983	853
842.075	1420
842.167	815
842.260	2002
842.352	2800
842.444	1416
842.537	1448
842.629	1456
842.721	2059
842.813	2142
842.905	1091
842.997	1666
843.090	2015
843.182	1431
843.274	1140
843.366	1248
843.458	2491
843.550	2885
843.642	2006
843.734	2684
843.826	1489
843.918	1409
844.009	2274
844.101	1046
844.193	1806
844.285	2008
844.377	2735
844.469	2048
844.560	1683
844.652	2387
844.744	1518
844.835	2719
844.927	1968
845.019	1746
845.110	1906
845.202	2579
845.293	1741
845.385	534
845.476	2119
845.568	2306
845.659	891
845.751	1762
845.842	1385
845.934	1400
846.025	1623
846.116	1182
846.208	1588
846.299	965
846.390	1072
846.482	2121
846.573	1832
846.664	2287
846.755	1903
846.846	1393
846.937	-180
847.029	1177
847.120	866
847.211	614
847.302	2658
847.393	1297
847.484	2149
847.575	630
847.666	122
847.757	1156
847.847	2194
847.938	2564
848.029	1540
848.120	878
848.211	969
848.302	1113
848.392	1101
848.483	1932
848.574	938
848.664	1300
848.755	1887
848.846	1304
848.936	1004
849.027	1843
849.118	3128
849.208	3261
849.299	6706
849.389	11250
849.480	21884
849.570	41363
849.661	79902
849.751	107496
849.841	34101
849.932	7347
850.022	3315
850.112	2837
850.203	2854
850.293	2262
850.383	2288
850.474	1342
850.564	1494
850.654	1862
850.744	1106
850.834	1163
850.924	1653
851.014	2365
851.104	1279
851.194	1510
851.284	1674
851.374	1057
851.464	1448
851.554	1514
851.644	901
851.734	2291
851.824	1857
851.914	2162
852.004	3070
852.094	1555
852.183	988
852.273	1606
852.363	1648
852.452	1735
852.542	2255
852.632	1683
852.721	1471
852.811	2096
852.901	3266
852.990	3096
853.080	2881
853.169	3672
853.259	4010
853.348	5365
853.438	6189
853.527	9497
853.617	14013
853.706	25090
853.795	45888
853.885	88150
853.974	147560
854.063	251591
854.152	295633
854.242	123509
854.331	37616
854.420	18504
854.509	12204
854.598	9694
854.687	7323
854.777	5522
854.866	4380
854.955	4046
855.044	3548
855.133	3203
855.222	3253
855.311	1921
855.400	2770
855.488	2102
855.577	1611
855.666	1360
855.755	1734
855.844	1976
855.933	1729
856.021	2550
856.110	1874
856.199	700
856.288	630
856.376	1178
856.465	998
856.554	2191
856.642	2320
856.731	2359
856.819	1819
856.908	1452
856.996	1329
857.085	1418
857.173	188
857.262	670
857.350	972
857.438	802
857.527	1149
857.615	1469
857.703	1891
857.792	1086
857.880	638
857.968	891
858.056	1445
858.145	712
858.233	901
858.321	1367
858.409	2103
858.497	1226
858.585	1123
858.673	1264
858.761	611
858.849	1573
858.937	911
859.025	930
859.113	2265
859.201	1740
859.289	2699
859.377	1637
859.465	2164
859.552	1848
859.640	984
859.728	1264
859.816	1284
859.903	1071
859.991	446
860.079	1557
860.166	1515
860.254	1183
860.342	1604
860.429	1484
860.517	1335
860.604	1354
860.692	1118
860.779	1343
860.867	1174
860.954	1890
861.042	1575
861.129	918
861.216	1802
861.304	1279
861.391	1737
861.478	1652
861.565	1270
861.653	1929
861.740	587
861.827	1128
861.914	1905
862.001	1528
862.089	1797
862.176	1512
862.263	1634
862.350	458
862.437	1215
862.524	1375
862.611	1467
862.698	2115
862.785	2137
862.871	2343
862.958	1953
863.045	2429
863.132	2059
863.219	1593
863.306	1016
863.392	1741
863.479	1692
863.566	2177
863.652	2166
863.739	777
863.826	2207
863.912	2828
863.999	1582
864.086	2590
864.172	3293
864.259	3268
864.345	3410
864.432	3844
864.518	1980
864.604	3269
864.691	2721
864.777	4237
864.863	5417
864.950	7685
865.036	9145
865.122	16147
865.209	16638
865.295	14571
865.381	14920
865.467	15298
865.553	17810
865.639	23412
865.726	33875
865.812	56183
865.898	89884
865.984	129504
866.070	215552
866.156	188987
866.242	65955
866.328	27604
866.414	18163
866.499	15416
866.585	14428
866.671	13394
866.757	13639
866.843	12607
866.928	11539
867.014	11795
867.100	11018
867.186	10601
867.271	9824
867.357	10643
867.442	10642
867.528	11001
867.614	11016
867.699	10754
867.785	10985
867.870	10868
867.956	11372
868.041	11300
868.127	10006
868.212	9969
868.297	9491
868.383	10042
868.468	9763
868.553	10466
868.639	9362
868.724	10002
868.809	9702
868.894	8565
868.979	9086
869.065	9159
869.150	7770
869.235	9322
869.320	9528
869.405	8028
869.490	9922
869.575	8693
869.660	7873
869.745	10735
869.830	9383
869.915	7894
870.000	9059
870.085	7828
870.169	10422
870.254	10359
870.339	6779
870.424	6586
870.509	9551
870.593	10484
870.678	10007
870.763	7398
870.847	7007
870.932	9156
871.016	8312
871.101	7023
871.186	9802
871.270	9337
871.355	6439
871.439	7612
871.523	8834
871.608	6498
871.692	8067
871.777	10112
871.861	8665
871.945	7594
872.030	8385
872.114	7055
872.198	6624
872.282	7427
872.367	6829
872.451	6884
872.535	7134
872.619	6608
872.703	7136
872.787	8322
872.871	7719
872.955	5157
873.039	5665
873.123	7926
873.207	7831
873.291	4961
873.375	6396
873.459	8166
873.543	7212
873.627	6235
873.711	6014
873.794	7448
873.878	6440
873.962	4781
874.045	6325
874.129	6755
874.137	6777
874.213	6990
874.245	6701
874.296	6237
874.352	5975
874.380	5844
874.460	5465
874.464	5450
874.547	5571
874.568	5962
874.631	7097
874.676	6881
874.714	6703
874.784	7112
874.798	7186
874.881	6215
874.892	6084
874.965	5332
874.999	6274
875.048	7426
875.107	6806
875.131	6555
875.215	5099
875.215	5098
875.298	4919
875.323	5433
875.381	6646
875.430	7258
875.465	7594
875.538	6811
875.548	6697
875.631	5177
875.646	4961
875.714	4068
875.753	4815
875.798	5772
875.861	7423
875.881	7851
875.964	6683
875.968	6605
876.047	5409
876.076	5388
876.130	5450
876.183	6430
876.213	6941
876.291	6765
876.296	6736
876.379	6494
876.398	6185
876.462	5165
876.506	4908
876.545	4904
876.613	6110
876.628	6368
876.711	6026
876.721	6242
876.794	7684
876.828	7395
876.877	6736
876.935	5545
876.960	5198
877.043	5544
877.043	5546
877.125	6757
877.150	7204
877.208	7841
877.258	6620
877.291	5743
877.365	5614
877.374	5629
877.456	5902
877.472	5756
877.539	5316
877.579	6123
877.622	6949
877.687	6703
877.704	6687
877.787	7130
877.794	7169
877.869	7375
877.901	7437
877.952	6908
878.008	5747
878.034	5535
878.115	5603
878.117	5610
878.199	5612
878.222	5881
878.282	6948
878.329	7704
878.364	7930
878.437	7672
878.447	7571
878.529	5554
878.544	5490
878.611	5734
878.651	5951
878.694	6683
878.758	7332
878.776	7301
878.858	7546
878.865	7480
878.941	6197
878.972	5640
879.023	5186
879.078	6191
879.105	6955
879.185	7769
879.187	7779
879.269	7533
879.292	7785
879.351	8129
879.399	7342
879.433	6702
879.506	6761
879.516	6868
879.598	6881
879.613	6800
879.680	6309
879.720	6736
879.762	7195
879.827	6502
879.844	6202
879.926	6310
879.933	6258
880.007	6581
880.040	6352
880.089	5768
880.147	6369
880.171	7032
880.253	8836
880.254	8827
880.335	7092
880.360	7272
880.417	9015
880.467	9478
880.499	9277
880.574	8827
880.580	8838
880.662	9525
880.680	9178
880.744	6887
880.787	6179
880.825	6342
880.893	6921
880.907	6949
880.989	6609
881.000	6753
881.070	8421
881.106	8347
881.152	7622
881.213	6584
881.233	6233
881.315	6068
881.319	6048
881.396	7461
881.426	7634
881.478	7597
881.532	8659
881.559	9192
881.639	8451
881.641	8406
881.722	7133
881.745	6855
881.803	8046
881.852	8551
881.885	8086
881.958	6840
881.966	6861
882.047	7795
882.064	7882
882.129	7065
882.171	6401
882.210	6070
882.277	5809
882.291	6028
882.372	7600
882.383	7745
882.454	8875
882.489	9359
882.535	9251
882.596	9365
882.616	9556
882.697	9398
882.702	9376
882.778	6823
882.808	6029
882.859	6322
882.914	6605
882.940	6780
883.020	7040
883.021	7064
883.102	8737
883.127	9221
883.183	10515
883.233	10942
883.264	9482
883.339	6570
883.345	6507
883.426	5341
883.445	5156
883.507	5957
883.551	6686
883.587	7690
883.657	9480
883.668	9662
883.749	10087
883.763	10102
883.830	7517
883.869	6382
883.910	6545
883.975	6591
883.991	6810
884.072	7753
884.081	7891
884.152	9883
884.187	10671
884.233	11306
884.292	11563
884.314	10446
884.394	6144
884.398	5945
884.475	5513
884.504	5214
884.555	5411
884.610	5749
884.636	6164
884.716	7965
884.716	8004
884.797	11367
884.821	12124
884.877	10542
884.927	9055
884.958	8562
885.033	7396
885.038	7300
885.118	5819
885.139	5421
885.199	6108
885.244	6677
885.279	7641
885.350	9488
885.359	9831
885.439	12775
885.456	13154
885.520	10122
885.561	8470
885.600	8033
885.667	7624
885.680	7930
885.760	8845
885.773	9044
885.840	7667
885.878	6818
885.920	6799
885.984	6845
886.000	7187
886.080	8547
886.089	8717
886.160	10167
886.195	10518
886.240	9813
886.300	9307
886.320	9274
886.400	8812
886.406	8752
886.480	7567
886.511	7211
886.560	7624
886.616	7696
886.640	7688
886.720	7896
886.722	7883
886.800	7496
886.827	7279
886.879	7963
886.932	8862
886.959	9548
887.038	11016
887.039	11028
887.119	9749
887.143	9426
887.198	9226
887.248	8866
887.278	8957
887.354	9190
887.358	9187
887.437	8466
887.459	8343
887.517	9293
887.564	9796
887.596	9154
887.669	7701
887.676	7599
887.755	6258
887.774	5880
887.835	6214
887.880	6640
887.914	7716
887.985	9495
887.994	9670
888.073	11234
888.090	11495
888.153	13120
888.195	14097
888.232	12299
888.300	9031
888.311	8922
888.391	7881
888.405	7679
888.470	7682
888.510	7694
888.549	7811
888.615	7982
888.628	8554
888.708	11738
888.720	12204
888.787	11605
888.825	11226
888.866	9394
888.930	6499
888.945	6847
889.024	8632
889.035	8840
889.103	10733
889.140	11692
889.182	10690
889.245	9243
889.261	9477
889.340	10375
889.349	10457
889.419	9806
889.454	9427
889.498	8778
889.559	7860
889.577	8313
889.656	10205
889.664	10370
889.735	10639
889.768	10722
889.814	10049
889.873	9086
889.978	9457
890.083	8838
890.187	10332
890.292	12594
890.397	9111
890.501	9874
890.606	7410
890.710	9246
890.815	13747
890.919	10249
891.024	11039
891.128	10145
891.233	8084
891.337	11193
891.442	11106
891.546	10392
891.650	7448
891.755	7571
891.859	10583
891.963	11985
892.068	10115
892.172	8719
892.276	5825
892.380	7761
892.484	12670
892.589	13942
892.693	10317
892.797	6991
892.901	6578
893.005	8200
893.109	12047
893.213	12096
893.317	8837
893.421	6305
893.525	5781
893.629	7447
893.733	10863
893.837	8721
893.941	8755
894.045	6162
894.148	6385
894.252	8098
894.356	11734
894.460	12999
894.564	8722
894.667	8217
894.771	6515
894.875	5206
894.978	7526
895.082	9988
895.186	10524
895.289	9162
895.393	7440
895.496	10721
895.600	8105
895.703	6275
895.807	7979
895.910	8655
896.014	8640
896.117	7097
896.221	8294
896.324	9390
896.427	6454
896.531	6828
896.634	7534
896.737	7235
896.840	8752
896.944	9736
897.047	10236
897.150	9265
897.253	6783
897.356	5688
897.460	5464
897.563	6321
897.666	9482
897.769	10396
897.872	5839
897.975	6754
898.078	7486
898.181	7479
898.284	7133
898.387	10499
898.490	10459
898.593	7415
898.695	6289
898.798	7051
898.901	6986
899.004	7084
899.107	7920
899.209	8683
899.312	11411
899.415	8042
899.518	5461
899.620	5733
899.723	6135
899.826	7599
899.928	6468
900.031	7825
900.133	10638
900.236	8437
900.338	4674
900.441	6097
900.543	7647
900.646	7840
900.748	7614
900.851	9429
900.953	7382
901.055	6171
901.158	7031
901.260	6582
901.362	4307
901.465	5638
901.567	8231
901.669	9695
901.771	6800
901.873	7757
901.976	7229
902.078	8411
902.180	6037
902.282	5737
902.384	6701
902.486	10222
902.588	8945
902.690	6060
902.792	5092
902.894	7255
902.996	9447
903.098	8131
903.200	5146
903.302	5860
903.404	5484
903.505	5401
903.607	6692
903.709	9458
903.811	10083
903.913	6891
904.014	5184
904.116	5519
904.218	5338
904.319	7496
904.421	10944
904.523	8675
904.624	6134
904.726	5560
904.827	5404
904.929	6160
905.030	6276
905.132	10333
905.233	8665
905.335	6514
905.436	4773
905.537	5466
905.639	6341
905.740	6510
905.841	8808
905.943	7001
906.044	6776
906.145	5516
906.247	5112
906.348	6395
906.449	7079
906.550	8563
906.651	6569
906.752	5076
906.854	5502
906.955	5899
907.056	6423
907.157	9355
907.258	8696
907.359	6364
907.460	4765
907.561	4835
907.662	5470
907.762	7630
907.863	7555
907.964	8872
908.065	6360
908.166	6557
908.267	6778
908.367	5983
908.468	6679
908.569	7386
908.670	8905
908.770	7568
908.871	7918
908.971	8648
909.072	6551
909.173	5753
909.273	6159
909.374	8738
909.474	7713
909.575	6282
909.675	6718
909.776	8186
909.876	7218
909.977	5938
910.077	7372
910.177	9561
910.278	7146
910.378	6277
910.478	6434
910.579	7808
910.679	8662
910.779	8915
910.879	8200
910.980	7352
911.080	8126
911.180	6592
911.280	5609
911.380	5140
911.480	5017
911.580	7468
911.680	6836
911.780	8012
911.880	9274
911.980	5938
912.080	5798
912.180	7779
912.280	7046
912.380	6992
912.480	4776
912.580	6170
912.679	5763
912.779	8133
912.879	7921
912.979	6804
913.078	6398
913.178	5631
913.278	5287
913.377	6165
913.477	5245
913.577	6395
913.676	8295
913.776	8416
913.875	6990
913.975	6600
914.074	6936
914.174	8119
914.273	5346
914.373	7028
914.472	6322
914.572	5929
914.671	6093
914.770	6781
914.870	5843
914.969	5784
915.068	7807
915.167	9262
915.267	6465
915.366	6989
915.465	7357
915.564	7752
915.663	7160
915.763	7623
915.862	8492
915.961	9584
916.060	6679
916.159	6320
916.258	5524
916.357	6608
916.456	8180
916.555	8125
916.654	7707
916.752	9552
916.851	8107
916.950	6558
917.049	6020
917.148	6750
917.247	6120
917.345	6112
917.444	6845
917.543	7041
917.642	6485
917.740	8190
917.839	11161
917.937	11293
918.036	9794
918.135	8069
918.233	7412
918.332	6905
918.430	7002
918.529	6986
918.627	7488
918.726	9382
918.824	8489
918.923	7377
919.021	6726
919.119	5820
919.218	6498
919.316	8502
919.414	8354
919.512	9641
919.611	9629
919.709	9160
919.807	10707
919.905	12572
920.003	10638
920.102	10523
920.200	10772
920.298	12281
920.396	10273
920.494	10570
920.592	9729
920.690	11161
920.788	9981
920.886	10827
920.984	10869
921.082	13062
921.180	12202
921.277	13220
921.375	15027
921.473	19995
921.571	18790
921.669	17924
921.766	16171
921.864	16855
921.962	17050
922.060	16284
922.157	17658
922.255	17807
922.352	17780
922.450	18642
922.548	19542
922.645	21455
922.743	26752
922.840	39913
922.938	46383
923.035	40471
923.133	40240
923.230	44622
923.327	54595
923.425	50120
923.522	48245
923.619	45786
923.717	41782
923.814	41206
923.911	40862
924.008	41800
924.106	40302
924.203	39894
924.300	42383
924.397	40554
924.494	40432
924.591	40431
924.688	37215
924.786	39514
924.883	39730
924.979	39616
925.077	38334
925.173	37074
925.270	37893
925.367	38154
925.464	40968
925.561	41343
925.658	43959
925.755	35344
925.852	40178
925.948	38550
926.045	37904
926.142	38533
926.239	40928
926.335	32639
926.432	36693
926.529	39985
926.625	41370
926.722	36049
926.818	33101
926.915	39533
927.011	36433
927.108	36784
927.204	37952
927.301	33275
927.397	36767
927.494	42971
927.590	30052
927.687	30403
927.783	40845
927.879	40127
927.976	34519
928.072	32218
928.168	35682
928.264	37868
928.361	33420
928.457	40360
928.553	33324
928.649	32548
928.745	35943
928.841	32337
928.937	34040
929.033	35366
929.129	31634
929.225	37582
929.321	33679
929.417	28459
929.513	36567
929.609	31482
929.705	29783
929.801	35345
929.897	29962
929.993	30500
930.089	31878
930.184	29514
930.280	31453
930.376	38750
930.471	30844
930.567	25835
930.663	30090
930.758	27135
930.854	30297
930.950	29230
931.045	27434
931.141	29532
931.236	35425
931.332	32505
931.427	24781
931.523	34930
931.618	32315
931.714	23618
931.809	26378
931.905	32975
932.000	24828
932.095	21964
932.191	32811
932.286	36259
932.381	31043
932.476	24349
932.572	27240
932.667	24995
932.762	25888
932.857	28476
932.952	33066
933.047	28603
933.142	23033
933.237	27246
933.332	29715
933.427	32010
933.522	27549
933.617	24490
933.712	25188
933.807	31376
933.902	34422
933.997	32859
934.092	24404
934.187	25859
934.282	29288
934.376	28036
934.471	30643
934.566	25197
934.661	23189
934.755	28303
934.850	31081
934.945	25249
935.039	21613
935.134	21348
935.228	23391
935.323	36053
935.417	25324
935.512	18200
935.606	20643
935.701	27718
935.795	28528
935.890	26050
935.984	22354
936.079	19174
936.173	24462
936.267	22284
936.362	20653
936.456	24405
936.550	31570
936.644	27382
936.738	20561
936.833	21413
936.927	17328
937.021	22271
937.115	24928
937.209	26718
937.303	23982
937.397	19145
937.491	22404
937.585	25686
937.679	25086
937.773	20537
937.867	18630
937.961	16618
938.055	27352
938.149	25537
938.243	16010
938.337	16327
938.430	19853
938.524	26662
938.618	22408
938.712	18712
938.805	20172
938.899	23930
938.993	28632
939.086	20031
939.180	14013
939.274	18017
939.367	23073
939.461	25642
939.554	19392
939.648	17731
939.741	18183
939.835	21454
939.928	27672
940.022	25641
940.115	20407
940.208	24096
940.302	26160
940.395	28734
940.488	20802
940.582	19397
940.675	16843
940.768	17058
940.861	23118
940.954	25957
941.048	17678
941.141	15378
941.234	17907
941.327	20038
941.420	21346
941.513	22090
941.606	18887
941.699	17483
941.792	22973
941.885	21855
941.978	20343
942.071	21381
942.164	16011
942.257	14889
942.349	18285
942.442	21602
942.535	16078
942.628	16648
942.721	17613
942.813	19037
942.906	18873
942.999	18393
943.091	16068
943.184	17585
943.277	17988
943.369	14683
943.462	11896
943.554	17320
943.647	18403
943.739	20816
943.832	23947
943.924	12233
944.017	12926
944.109	14337
944.201	15578
944.294	16921
944.386	17518
944.478	17012
944.571	14157
944.663	15662
944.755	16309
944.847	18844
944.940	17175
945.032	13711
945.124	12757
945.216	16063
945.308	17087
945.400	17480
945.492	14207
945.584	20825
945.676	20820
945.768	17551
945.860	19169
945.952	20787
946.044	18240
946.136	15141
946.228	15631
946.320	15554
946.412	17479
946.503	20323
946.595	20170
946.687	15079
946.779	12623
946.870	12200
946.962	13335
947.054	14291
947.145	16845
947.237	15031
947.329	15190
947.420	17326
947.512	15616
947.603	11735
947.695	12326
947.786	13479
947.878	13916
947.969	17330
948.061	17449
948.152	15657
948.243	11484
948.335	11241
948.426	11534
948.517	15401
948.609	17242
948.700	16597
948.791	15200
948.882	11425
948.973	11820
949.065	15309
949.156	16021
949.247	12055
949.338	13539
949.429	11260
949.520	11765
949.611	14114
949.702	17068
949.793	13606
949.884	13291
949.975	12977
950.066	9656
950.157	11154
950.247	12984
950.338	11041
950.429	12459
950.520	13632
950.611	10977
950.701	12504
950.792	17919
950.883	16802
950.973	14115
951.064	15086
951.155	15702
951.245	15540
951.336	15666
951.427	16122
951.517	18300
951.608	15038
951.698	13294
951.788	11330
951.879	10857
951.969	12046
952.060	12338
952.150	13816
952.240	15751
952.331	15916
952.421	15923
952.511	11615
952.602	9812
952.692	10104
952.782	10655
952.872	10948
952.962	13945
953.052	12940
953.143	11154
953.233	11394
953.323	11922
953.413	13525
953.503	14696
953.593	12889
953.683	12862
953.773	10539
953.863	10189
953.953	9669
954.042	12412
954.132	13866
954.222	13617
954.312	10153
954.402	11179
954.492	11455
954.581	11976
954.671	12970
954.761	10820
954.850	13317
954.940	8325
955.030	9428
955.119	10208
955.209	9626
955.298	11984
955.388	13698
955.477	14396
955.567	10058
955.656	10365
955.746	11418
955.835	10794
955.925	10756
956.014	12999
956.103	14734
956.193	16746
956.282	15326
956.371	11625
956.461	13111
956.550	12085
956.639	12010
956.728	11801
956.817	11808
956.906	11521
956.995	14675
957.085	11223
957.174	11034
957.263	10670
957.352	11351
957.441	12024
957.530	11489
957.619	10293
957.708	10989
957.796	11318
957.885	11746
957.974	10429
958.063	11603
958.152	8458
958.241	10130
958.329	9011
958.418	10266
958.507	10769
958.596	13856
958.684	10850
958.773	12050
958.861	9493
958.950	9303
959.039	9539
959.127	10120
959.216	11703
959.304	10743
959.393	10918
959.481	12468
959.570	10134
959.658	8822
959.746	8641
959.835	10782
959.923	10290
960.011	9376
960.100	10844
960.188	12292
960.276	11424
960.365	10133
960.453	8373
960.541	7980
960.629	9230
960.717	8644
960.805	7273
960.893	8860
960.981	10763
961.069	14508
961.158	14448
961.245	16467
961.333	14148
961.421	11330
961.509	10419
961.597	11731
961.685	9573
961.773	9901
961.861	11320
961.949	12094
962.036	10546
962.124	8965
962.212	8498
962.299	9558
962.387	8643
962.475	9569
962.562	8519
962.650	12412
962.738	9043
962.825	7387
962.913	8313
963.000	8852
963.088	10884
963.175	10517
963.263	8466
963.350	9951
963.438	9654
963.525	8562
963.612	9243
963.700	9301
963.787	11351
963.874	9560
963.962	8149
964.049	7602
964.136	7336
964.223	8009
964.310	8246
964.398	8656
964.485	9523
964.572	10578
964.659	10094
964.746	7105
964.833	7549
964.920	8358
965.007	8281
965.094	7915
965.181	9382
965.268	10466
965.355	10209
965.441	9611
965.528	8372
965.615	10280
965.702	9463
965.789	9112
965.875	10610
965.962	10842
966.049	10098
966.136	12451
966.222	12166
966.309	11909
966.395	11256
966.482	10875
966.569	10950
966.655	10977
966.742	9691
966.828	8467
966.915	7850
967.001	9303
967.087	7070
967.174	8648
967.260	8240
967.347	8790
967.433	9592
967.519	9116
967.605	9598
967.692	9399
967.778	9242
967.864	8980
967.950	9490
968.036	9238
968.123	10428
968.209	9574
968.295	7235
968.381	8760
968.467	8101
968.553	7722
968.639	9768
968.725	10436
968.811	11735
968.897	11789
968.983	9989
969.069	8087
969.154	7479
969.240	7557
969.326	7386
969.412	8263
969.497	8080
969.583	7810
969.669	9662
969.755	10133
969.840	10163
969.926	15161
970.012	18608
970.097	21641
970.183	17009
970.268	12869
970.354	11035
970.439	8264
970.525	9466
970.610	8974
970.696	11275
970.781	9372
970.866	6581
970.952	9297
971.037	8416
971.122	10083
971.208	9609
971.293	9025
971.378	7863
971.463	9267
971.549	9199
971.634	8710
971.719	9159
971.804	8276
971.889	9257
971.974	8933
972.059	9158
972.144	8278
972.229	7816
972.314	8400
972.399	7923
972.484	6890
972.569	7249
972.654	7601
972.739	8505
972.824	7995
972.908	8316
972.993	7465
973.078	7636
973.163	8992
973.247	9134
973.332	6769
973.417	9182
973.501	7794
973.586	9560
973.671	9000
973.755	7537
973.840	8777
973.924	9872
974.009	12660
974.093	13831
974.178	12417
974.262	10265
974.346	9571
974.431	9651
974.515	9509
974.600	9639
974.684	10601
974.768	8745
974.852	9955
974.937	8415
975.021	9903
975.105	9973
975.189	8984
975.273	8884
975.358	7909
975.442	7817
975.526	8473
975.610	7771
975.694	7780
975.778	9522
975.862	7402
975.946	7098
976.030	10944
976.114	8087
976.198	8323
976.281	7960
976.365	9561
976.449	8206
976.533	9031
976.617	7786
976.700	7699
976.784	7702
976.868	8183
976.951	7754
977.035	8476
977.119	7221
977.202	8835
977.286	9539
977.369	12002
977.453	16454
977.536	15804
977.620	13709
977.703	11300
977.787	10484
977.870	11567
977.953	10733
978.037	9322
978.120	9264
978.203	9017
978.287	11185
978.370	10728
978.453	9087
978.536	9302
978.620	9167
978.703	11176
978.786	9693
978.869	7531
978.952	8190
979.035	10922
979.118	10935
979.201	8322
979.284	9385
979.367	9900
979.450	9347
979.533	8853
979.616	8370
979.699	8113
979.782	8505
979.865	8949
979.948	8273
980.030	8395
980.113	8353
980.196	9293
980.279	9654
980.361	8980
980.444	9021
980.526	11796
980.609	14811
980.692	18807
980.774	16314
980.857	12026
980.939	12916
981.022	10949
981.104	10733
981.187	10408
981.269	10963
981.352	11149
981.434	10228
981.516	11031
981.599	10570
981.681	11074
981.763	10460
981.846	10237
981.928	10826
982.010	11025
982.092	9751
982.174	11934
982.256	10668
982.339	10797
982.421	9587
982.503	10483
982.585	8946
982.667	10528
982.749	10039
982.831	10386
982.913	9871
982.995	10387
983.077	10428
983.158	12877
983.240	10518
983.322	13477
983.404	17895
983.486	17905
983.568	16389
983.649	14190
983.731	13734
983.813	12892
983.894	13162
983.976	13347
984.058	11767
984.139	12663
984.221	10831
984.302	13018
984.384	11411
984.465	12158
984.547	11944
984.628	11223
984.710	13707
984.791	12881
984.872	11940
984.954	11891
985.035	12583
985.116	13516
985.198	11626
985.279	13114
985.360	11996
985.441	12244
985.522	12533
985.604	12760
985.685	11300
985.766	12972
985.847	13201
985.928	12352
986.009	12220
986.090	12198
986.171	12914
986.252	11758
986.333	12972
986.414	11951
986.495	12667
986.576	14304
986.656	14155
986.737	14677
986.818	14088
986.899	13915
986.980	13949
987.060	14048
987.141	14444
987.222	17125
987.302	16361
987.383	18801
987.464	17286
987.544	17332
987.625	16009
987.705	16885
987.786	18296
987.866	16634
987.947	16280
988.027	17603
988.108	15426
988.188	15850
988.268	14967
988.349	15905
988.429	15492
988.509	14599
988.589	14352
988.670	14181
988.750	15110
988.830	14311
988.910	15649
988.990	14779
989.070	14427
989.151	13552
989.231	13959
989.311	14736
989.391	12630
989.471	13432
989.551	13366
989.631	13134
989.711	14745
989.791	14452
989.870	12848
989.950	14005
990.030	14386
990.110	14732
990.190	12156
990.269	12131
990.349	13311
990.429	13786
990.509	11627
990.588	11556
990.668	12740
990.747	12874
990.827	11382
990.907	12532
990.986	14252
991.066	12788
991.145	10334
991.225	12136
991.304	12814
991.383	13509
991.463	11965
991.542	12231
991.622	10132
991.701	11289
991.780	11052
991.859	11161
991.939	10749
992.018	12168
992.097	13407
992.176	10047
992.256	9310
992.335	11570
992.414	12198
992.493	10196
992.572	9060
992.651	10829
992.730	11834
992.809	10657
992.888	9004
992.967	11347
993.046	10564
993.125	8544
993.203	9981
993.282	10710
993.361	10241
993.440	9839
993.519	8873
993.597	9956
993.676	9712
993.755	11695
993.834	9476
993.912	7927
993.991	10306
994.069	9308
994.148	10743
994.226	8871
994.305	9074
994.384	9538
994.462	11860
994.540	9454
994.619	7701
994.697	8800
994.776	9839
994.854	10405
994.932	8116
995.011	8463
995.089	8721
995.167	8829
995.245	9107
995.324	8486
995.402	9471
995.480	8571
995.558	7680
995.636	8190
995.714	7855
995.792	9889
995.870	7714
995.948	7694
996.026	7732
996.104	7418
996.182	8687
996.260	7715
996.338	6273
996.416	6275
996.494	8443
996.572	9449
996.649	6488
996.727	6765
996.805	8492
996.883	8422
996.960	7620
997.038	7882
997.116	8526
997.193	6895
997.271	6438
997.348	4972
997.426	6870
997.504	7476
997.581	8870
997.658	7380
997.736	3739
997.813	5325
997.891	7747
997.968	6998
998.046	6283
998.123	7487
998.200	8312
998.277	7673
998.355	7619
998.432	5015
998.509	5719
998.586	7717
998.663	7229
998.741	7249
998.818	5972
998.895	6070
998.972	6468
999.049	7357
999.126	5557
999.203	6669
999.280	5824
999.357	6719
999.434	5879
999.511	5828
999.587	5975
999.664	4366
999.741	5112
999.818	7677
999.895	6198
999.971	6473
1000.048	5340
1000.125	7292
1000.202	6142
1000.278	4961
1000.355	6882
1000.431	5915
1000.508	3741
1000.584	4308
1000.661	5657
1000.738	5776
1000.814	5539
1000.890	5384
1000.967	5543
1001.043	6451
1001.120	4326
1001.196	5271
1001.272	4316
1001.349	4770
1001.425	5382
1001.501	5331
1001.577	5248
1001.654	5812
1001.730	5051
1001.806	5007
1001.882	4245
1001.958	6638
1002.034	5604
1002.110	4572
1002.186	3684
1002.262	4559
1002.338	4032
1002.414	5772
1002.490	5549
1002.566	3400
1002.642	4335
1002.718	4859
1002.794	4462
1002.870	4721
1002.945	5003
1003.021	4341
1003.097	4007
1003.173	4618
1003.248	3742
1003.324	4873
1003.400	4566
1003.475	3574
1003.551	3591
1003.626	4556
1003.702	3817
1003.777	2996
1003.853	3240
1003.928	4318
1004.004	3620
1004.079	5041
1004.155	3798
1004.230	3317
1004.305	4175
1004.381	3637
1004.456	3134
1004.531	2891
1004.607	3522
1004.682	4060
1004.757	4000
1004.832	3838
1004.907	2733
1004.982	3711
1005.057	3860
1005.133	3411
1005.208	2906
1005.283	3115
1005.358	3575
1005.433	3082
1005.508	4002
1005.583	3542
1005.657	4130
1005.732	4616
1005.807	2956
1005.882	2846
1005.957	2210
1006.032	3030
1006.106	3125
1006.181	3707
1006.256	4543
1006.331	3761
1006.405	2077
1006.480	2817
1006.554	2461
1006.629	2976
1006.704	2316
1006.778	3337
1006.853	2783
1006.927	3134
1007.002	2330
1007.076	2737
1007.150	3155
1007.225	3304
1007.299	2562
1007.373	3133
1007.448	2390
1007.522	3397
1007.596	3106
1007.671	2863
1007.745	3143
1007.819	3146
1007.893	3285
1007.967	3753
1008.041	2256
1008.115	3427
1008.190	1754
1008.264	2672
1008.338	2243
1008.412	2259
1008.486	2831
1008.560	3159
1008.633	2503
1008.707	3479
1008.781	3397
1008.855	3317
1008.929	3111
1009.003	1671
1009.076	2642
1009.150	2082
1009.224	2949
1009.298	2998
1009.371	1104
1009.445	2897
1009.519	2520
1009.592	2225
1009.666	2962
1009.739	2399
1009.813	2081
1009.886	3285
1009.960	1214
1010.033	2258
1010.107	2571
1010.180	2241
1010.253	1500
1010.327	2041
1010.400	1366
1010.473	2157
1010.547	2178
1010.620	1989
1010.693	2465
1010.766	1474
1010.840	2160
1010.913	2373
1010.986	1150
1011.059	1521
1011.132	1578
1011.205	2298
1011.278	1389
1011.351	1770
1011.424	2254
1011.497	2286
1011.570	1747
1011.643	1324
1011.716	2032
1011.789	2736
1011.862	1786
1011.934	1923
1012.007	635
1012.080	1668
1012.153	2483
1012.225	2676
1012.298	810
1012.371	1695
1012.443	1673
1012.516	1633
1012.588	2258
1012.661	1404
1012.733	959
1012.806	1931
1012.879	932
1012.951	1321
1013.023	1324
1013.096	2498
1013.168	1397
1013.241	2203
1013.313	1202
1013.385	1744
1013.458	1544
1013.530	2886
1013.602	679
1013.674	2541
1013.746	198
1013.819	1256
1013.891	2610
1013.963	1443
1014.035	2167
1014.107	2052
1014.179	1567
1014.251	1366
1014.323	2152
1014.395	1906
1014.467	992
1014.539	1737
1014.611	611
1014.683	1139
1014.754	1080
1014.826	900
1014.898	1436
1014.970	1212
1015.042	2169
1015.113	1211
1015.185	1197
1015.257	1300
1015.328	1710
1015.400	1026
1015.471	1345
1015.543	502
1015.615	1597
1015.686	1815
1015.757	834
1015.829	1268
1015.901	1070
1015.972	1408
1016.043	1402
1016.115	960
1016.186	1645
1016.257	742
1016.328	1501
1016.400	1126
1016.471	955
1016.542	1617
1016.613	1543
1016.685	1526
1016.756	1559
1016.827	1128
1016.898	933
1016.969	1304
1017.040	743
1017.111	747
1017.182	179
1017.253	599
1017.324	1134
1017.395	820
1017.466	721
1017.537	1717
1017.608	382
1017.678	1241
1017.749	1507
1017.820	2055
1017.891	211
1017.961	462
1018.032	715
1018.103	1171
1018.173	-71
1018.244	1098
1018.315	736
1018.385	1054
1018.456	415
1018.526	842
1018.597	951
1018.667	703
1018.738	961
1018.808	847
1018.878	223
1018.949	858
1019.019	24
1019.089	800
1019.160	302
1019.230	627
1019.300	1416
1019.371	66
1019.441	1344
1019.511	158
1019.581	582
1019.651	443
1019.721	363
1019.791	1084
1019.861	1063
1019.931	992
1020.001	969
1020.071	1683
1020.141	969
1020.211	467
1020.281	-695
1020.351	671
1020.421	270
1020.491	978
1020.560	-71
1020.630	1462
1020.700	968
1020.770	354
1020.839	-578
1020.909	575
1020.979	399
1021.048	1107
1021.118	-256
1021.187	-4
1021.257	1223
1021.326	1661
1021.396	28
1021.465	714
1021.535	1137
1021.604	639
1021.674	1515
1021.743	373
1021.812	908
1021.882	1087
1021.951	367
1022.020	1790
1022.089	790
1022.159	291
1022.228	1254
1022.297	1078
1022.366	630
1022.435	260
1022.504	133
1022.573	164
1022.642	209
1022.711	456
1022.781	-166
1022.849	932
1022.918	-490
1022.987	344
1023.056	-520
1023.125	308
1023.194	481
1023.263	91
1023.331	359
1023.400	637
1023.469	112
1023.538	649
1023.606	233
1023.675	231
1023.744	-102
1023.812	-475
1023.881	-53
1023.949	1121
1024.018	571
1024.086	-61
1024.155	133
1024.223	-224
1024.292	246
1024.360	1302
1024.429	4
1024.497	263
1024.565	460
1024.634	715
1024.702	89
1024.770	168
1024.838	211
1024.907	353
1024.975	-295
1025.043	-11
1025.111	70
1025.179	-80
1025.247	-45
1025.315	-211
1025.383	-230
1025.451	-542
1025.519	-26
1025.587	-231
1025.655	310
1025.723	-376
1025.791	-277
1025.859	160
1025.927	832
1025.995	576
1026.062	546
1026.130	396
1026.198	-294
1026.266	-555
1026.333	-362
1026.401	169
1026.469	-3
1026.536	1093
1026.604	29
1026.671	70
1026.739	-388
1026.806	128
1026.874	-354
1026.941	-1058
1027.009	-45
1027.076	-438
1027.144	224
1027.211	-845
1027.278	-204
1027.345	849
1027.413	-598
1027.480	-74
1027.547	-562
1027.614	-167
1027.682	8
1027.749	576
1027.816	-156
1027.883	-226
1027.950	128
1028.017	-80
1028.084	298
1028.151	-172
1028.218	-517
1028.285	-58
1028.352	-226
1028.419	-535
1028.486	-865
1028.553	-47
1028.619	244
1028.686	263
1028.753	-194
1028.820	-190
1028.886	-11
1028.953	557
1029.020	353
1029.086	300
1029.153	-884
1029.220	-3
1029.286	-139
1029.353	-611
1029.419	-142
1029.486	261
1029.552	-1062
1029.619	-385
1029.685	-431
1029.751	-483
1029.818	-274
1029.884	-751
1029.951	607
1030.017	-506
1030.083	-75
1030.149	-363
1030.216	-915
1030.282	-247
1030.348	334
1030.414	-1040
1030.480	-421
1030.546	-638
1030.612	-1289
1030.678	-867
1030.744	-131
1030.810	346
1030.876	-701
1030.942	621
1031.008	-623
1031.074	-176
1031.140	-708
1031.206	178
1031.272	-1069
1031.337	-173
1031.403	-264
1031.469	-437
1031.534	-908
1031.600	-255
1031.666	-1031
1031.731	-311
1031.797	-1435
1031.863	-334
1031.928	-712
1031.994	-1493
1032.059	-883
1032.125	-323
1032.190	-715
1032.256	-184
1032.321	-1058
1032.386	-253
1032.452	-253
1032.517	-902
1032.582	-277
1032.647	-160
1032.713	-1575
1032.778	-308
1032.843	-1338
1032.908	-1527
1032.974	-721
1033.039	-572
1033.104	-480
1033.169	-112
1033.234	-774
1033.299	-60
1033.364	-571
1033.429	-707
1033.494	-623
1033.559	-378
1033.624	-558
1033.688	-140
1033.753	-201
1033.818	605
1033.883	465
1033.948	1393
1034.013	1402
1034.077	3332
1034.142	3431
1034.207	5082
1034.271	7992
1034.336	10033
1034.400	6403
1034.465	3625
1034.530	671
1034.594	626
1034.658	230
1034.723	-857
1034.787	-109
1034.852	-796
1034.916	-831
1034.981	-582
1035.045	-697
1035.109	-90
1035.173	-107
1035.238	-660
1035.302	-339
1035.366	-709
1035.430	-847
1035.495	-662
1035.559	-692
1035.623	-779
1035.687	-922
1035.751	-417
1035.815	-1583
1035.879	-146
1035.943	-1200
1036.007	-1028
1036.071	-471
1036.135	-925
1036.198	-1517
1036.262	-463
1036.326	-730
1036.390	-154
1036.454	-1449
1036.517	-1060
1036.581	-447
1036.645	-164
1036.709	-987
1036.772	-1207
1036.836	-725
1036.900	-802
1036.963	-1359
1037.026	-903
1037.090	-782
1037.154	-906
1037.217	-1220
1037.280	-1559
1037.344	-87
1037.407	-1416
1037.471	-799
1037.534	-224
1037.597	-865
1037.661	-271
1037.724	-417
1037.787	-650
1037.850	-920
1037.913	-743
1037.977	-679
1038.040	-520
1038.103	-1199
1038.166	-1329
1038.229	-969
1038.292	-1438
1038.355	-1388
1038.418	-1701
1038.481	-184
1038.544	-404
1038.607	-1123
1038.670	-968
1038.732	-1471
1038.795	-1239
1038.858	-1638
1038.921	-1044
1038.984	-611
1039.046	-1361
1039.109	-999
1039.172	-1152
1039.234	-1905
1039.297	-1047
1039.360	-747
1039.422	-519
1039.485	-1224
1039.547	-947
1039.610	-935
1039.672	-1420
1039.734	-881
1039.797	-889
1039.859	-1126
1039.922	-359
1039.984	-1240
1040.046	-1163
1040.109	-613
1040.171	-1193
1040.233	-1190
1040.295	-328
1040.358	-1678
1040.420	-898
1040.482	-895
1040.544	-1808
1040.606	-1622
1040.668	-1139
1040.730	-605
1040.792	-1251
1040.854	-1849
1040.916	-861
1040.978	-768
1041.040	-365
1041.102	-886
1041.164	-759
1041.225	-1108
1041.287	-1221
1041.349	-1709
1041.411	-610
1041.472	-1050
1041.534	-1216
1041.596	-1449
1041.657	-936
1041.719	-1639
1041.781	-1309
1041.842	-801
1041.904	-1659
1041.965	-1894
1042.027	-361
1042.088	-1747
1042.150	-1002
1042.211	-1278
1042.272	-989
1042.334	-1849
1042.395	-1223
1042.456	-1521
1042.518	-580
1042.579	-1721
1042.640	-1926
1042.701	-2056
1042.763	-1509
1042.824	-1699
1042.885	-1426
1042.946	-1269
1043.007	-1271
1043.068	-1091
1043.129	-1111
1043.190	-1311
1043.251	-1113
1043.312	-1359
1043.373	-279
1043.434	-1290
1043.495	-857
1043.556	-1169
1043.616	-1459
1043.677	-1127
1043.738	-614
1043.799	-1182
1043.859	-1340
1043.920	-1924
1043.981	-756
1044.041	-1180
1044.102	-1497
1044.162	-283
1044.223	-1121
1044.284	-496
1044.344	-903
1044.405	-977
1044.465	-1129
1044.525	-1114
1044.586	-661
1044.646	-986
1044.707	-1047
1044.767	-1421
1044.827	-1491
1044.887	-852
1044.948	-938
1045.008	-904
1045.068	-796
1045.128	-985
1045.188	-1962
1045.249	-1294
1045.309	-523
1045.369	-1222
1045.429	-1410
1045.489	-1397
1045.549	-1002
1045.609	-849
1045.669	-1429
1045.729	-1424
1045.789	-552
1045.848	-869
1045.908	-189
1045.968	-713
1046.028	-76
1046.088	138
1046.147	496
1046.207	-591
1046.267	-1026
1046.326	-1081
1046.386	-69
1046.446	-1501
1046.505	-423
1046.565	-1062
1046.624	-87
1046.684	-876
1046.743	165
1046.803	658
1046.862	793
1046.922	0
