'Start Wavelength	183.907
'End Wavelength	1046.922
'Gate Delay	5.000
'Gate Width (ms)	1.050
'Laser Output Level	0.000
'X Position	0.000
'Y Position	0.000
'Z Position	0.000
'Grid Point Number	1.000
'Shot Number	100.000
183.907	661.000
183.977	134.000
184.047	-139
184.116	468
184.186	434
184.256	364
184.325	326
184.395	-760
184.465	1195
184.534	-91
184.604	-133
184.674	157
184.743	103
184.813	264
184.883	-127
184.952	500
185.022	211
185.092	892
185.161	592
185.231	-23
185.301	54
185.370	798
185.440	373
185.509	-164
185.579	121
185.649	-83
185.718	309
185.788	1355
185.857	467
185.927	806
185.996	-132
186.066	179
186.136	194
186.205	256
186.275	297
186.344	813
186.414	123
186.483	433
186.553	1380
186.622	809
186.692	463
186.761	-786
186.831	477
186.900	-366
186.970	1079
187.039	424
187.109	620
187.178	980
187.248	414
187.317	420
187.387	-27
187.456	327
187.526	112
187.595	614
187.664	239
187.734	-166
187.803	745
187.873	311
187.942	176
188.012	1176
188.081	556
188.150	198
188.220	1035
188.289	936
188.358	1035
188.428	709
188.497	124
188.567	97
188.636	521
188.705	767
188.775	-189
188.844	-246
188.913	580
188.983	117
189.052	585
189.121	259
189.191	73
189.260	510
189.329	522
189.399	-78
189.468	257
189.537	861
189.606	600
189.676	530
189.745	934
189.814	270
189.883	676
189.953	254
190.022	107
190.091	-94
190.161	287
190.230	633
190.299	509
190.368	75
190.437	894
190.507	-204
190.576	-458
190.645	395
190.714	201
190.783	-51
190.853	536
190.922	617
190.991	672
191.060	825
191.129	293
191.198	687
191.268	108
191.337	370
191.406	889
191.475	374
191.544	448
191.613	332
191.682	324
191.752	-180
191.821	290
191.890	128
191.959	266
192.028	-361
192.097	408
192.166	711
192.235	-426
192.304	259
192.373	414
192.442	540
192.511	-40
192.580	631
192.650	519
192.719	-79
192.788	456
192.857	705
192.926	-95
192.995	224
193.064	673
193.133	687
193.202	59
193.271	-60
193.340	3
193.409	460
193.478	1353
193.547	507
193.615	769
193.684	227
193.753	432
193.822	607
193.891	-74
193.960	728
194.029	274
194.098	555
194.167	-334
194.236	213
194.305	-224
194.374	72
194.443	791
194.512	608
194.580	723
194.649	430
194.718	196
194.787	707
194.856	5
194.925	147
194.994	372
195.062	114
195.131	1066
195.200	182
195.269	24
195.338	520
195.407	1222
195.475	476
195.544	-18
195.613	-267
195.682	449
195.751	455
195.819	190
195.888	568
195.957	749
196.026	496
196.094	598
196.163	189
196.232	485
196.301	1024
196.369	200
196.438	1115
196.507	508
196.576	167
196.644	102
196.713	536
196.782	489
196.850	1142
196.919	109
196.988	-52
197.056	-39
197.125	237
197.194	60
197.262	-267
197.331	304
197.400	263
197.468	787
197.537	1172
197.606	149
197.674	28
197.743	34
197.812	376
197.880	752
197.949	982
198.017	603
198.086	-103
198.155	382
198.223	410
198.292	675
198.360	308
198.429	-162
198.497	31
198.566	356
198.635	-158
198.703	663
198.772	790
198.840	856
198.909	-313
198.977	319
199.046	226
199.114	459
199.183	-113
199.251	555
199.320	421
199.388	353
199.457	182
199.525	1014
199.594	-177
199.662	369
199.731	563
199.799	331
199.867	1032
199.936	-155
200.004	630
200.073	149
200.141	-116
200.210	177
200.278	434
200.346	1031
200.415	720
200.483	976
200.552	-38
200.620	235
200.688	700
200.757	384
200.825	546
200.893	117
200.962	843
201.030	176
201.098	-250
201.167	1004
201.235	223
201.303	1015
201.372	417
201.440	1431
201.508	547
201.577	1236
201.645	337
201.713	344
201.781	453
201.850	310
201.918	-83
201.986	-3
202.055	853
202.123	70
202.191	346
202.259	-77
202.327	689
202.396	594
202.464	415
202.532	559
202.600	929
202.669	456
202.737	419
202.805	480
202.873	401
202.941	231
203.009	-140
203.078	550
203.146	870
203.214	758
203.282	145
203.350	368
203.418	219
203.487	331
203.555	751
203.623	634
203.691	327
203.759	-613
203.827	-667
203.895	769
203.963	1054
204.031	71
204.099	51
204.168	-132
204.236	-64
204.304	436
204.372	799
204.440	545
204.508	24
204.576	586
204.644	-89
204.712	-5
204.780	-171
204.848	231
204.916	119
204.984	431
205.052	423
205.120	-8
205.188	432
205.256	577
205.324	-253
205.392	-425
205.460	621
205.528	49
205.596	954
205.664	191
205.732	-493
205.799	368
205.867	571
205.935	216
206.003	414
206.071	502
206.139	-260
206.207	-398
206.275	-295
206.343	507
206.411	-436
206.478	-481
206.546	8
206.614	-250
206.682	-243
206.750	-493
206.818	871
206.885	1362
206.953	-278
207.021	-45
207.089	769
207.157	-385
207.225	686
207.292	-423
207.360	84
207.428	-532
207.496	-406
207.563	940
207.631	378
207.699	383
207.767	159
207.834	38
207.902	700
207.970	19
208.038	-121
208.105	-215
208.173	476
208.241	286
208.309	161
208.376	570
208.444	-943
208.512	103
208.579	-1439
208.647	1140
208.715	807
208.782	-623
208.850	-37
208.918	-109
208.985	57
209.053	411
209.120	856
209.188	-368
209.256	-413
209.323	-995
209.391	-241
209.459	1405
209.526	463
209.594	-588
209.661	525
209.729	292
209.796	518
209.864	829
209.932	-1071
209.999	1463
210.067	151
210.134	-144
210.202	648
210.269	237
210.337	1237
210.404	-267
210.472	208
210.539	309
210.607	-333
210.674	578
210.742	-88
210.809	246
210.877	427
210.944	729
211.012	-272
211.079	1280
211.146	-96
211.214	120
211.281	1280
211.349	713
211.416	87
211.484	726
211.551	486
211.618	448
211.686	799
211.753	385
211.821	839
211.888	800
211.955	549
212.023	611
212.090	598
212.157	-451
212.225	-163
212.292	788
212.359	1167
212.427	1776
212.494	526
212.561	188
212.629	-177
212.696	-289
212.763	516
212.831	88
212.898	381
212.965	-1
213.032	-87
213.100	456
213.167	-621
213.234	524
213.301	607
213.369	-76
213.436	188
213.503	605
213.570	966
213.638	-295
213.705	-464
213.772	-361
213.839	-584
213.906	758
213.973	582
214.041	-346
214.108	765
214.175	280
214.242	-154
214.309	32
214.376	392
214.444	-794
214.511	-305
214.578	708
214.645	974
214.712	-70
214.779	407
214.846	-1114
214.913	506
214.980	1321
215.048	1176
215.115	1110
215.182	1039
215.249	604
215.316	97
215.383	365
215.450	1
215.517	581
215.584	25
215.651	-307
215.718	-174
215.785	500
215.852	-516
215.919	395
215.986	-237
216.053	661
216.120	200
216.187	978
216.254	231
216.321	-159
216.388	406
216.455	-231
216.522	572
216.589	95
216.656	70
216.722	39
216.789	175
216.856	287
216.923	-827
216.990	35
217.057	-132
217.124	235
217.191	-479
217.258	664
217.324	7
217.391	-28
217.458	447
217.525	158
217.592	77
217.659	-1050
217.725	362
217.792	-28
217.859	934
217.926	101
217.993	467
218.059	142
218.126	-373
218.193	260
218.260	-526
218.327	-354
218.393	-186
218.460	-31
218.527	61
218.594	139
218.660	-424
218.727	743
218.794	-260
218.860	634
218.927	-39
218.994	-440
219.061	-765
219.127	-126
219.194	188
219.261	360
219.327	-234
219.394	1328
219.461	-765
219.527	889
219.594	1006
219.661	348
219.727	-610
219.794	702
219.860	-148
219.927	708
219.994	1279
220.060	2092
220.127	2323
220.193	2289
220.260	913
220.326	1383
220.393	586
220.460	787
220.526	621
220.593	56
220.659	1814
220.726	234
220.792	1534
220.859	1125
220.925	1173
220.992	364
221.058	1276
221.125	1422
221.191	975
221.258	87
221.324	586
221.391	-79
221.457	351
221.524	47
221.590	591
221.657	915
221.723	347
221.789	659
221.856	757
221.922	-121
221.989	1298
222.055	-137
222.121	-895
222.188	2444
222.254	420
222.321	1068
222.387	335
222.453	-243
222.520	193
222.586	126
222.652	427
222.719	222
222.785	194
222.851	-691
222.918	216
222.984	278
223.050	42
223.116	-1213
223.183	818
223.249	-347
223.315	34
223.382	-277
223.448	351
223.514	-511
223.580	818
223.647	133
223.713	-361
223.779	272
223.845	-521
223.911	276
223.978	221
224.044	276
224.110	-734
224.176	394
224.242	-36
224.309	-547
224.375	-228
224.441	-67
224.507	-653
224.573	-278
224.639	404
224.705	-902
224.772	513
224.838	226
224.904	324
224.970	732
225.036	-259
225.102	-513
225.168	422
225.234	273
225.300	428
225.366	730
225.432	365
225.499	624
225.565	-68
225.631	8
225.697	152
225.763	406
225.829	70
225.895	-134
225.961	310
226.027	749
226.093	459
226.159	484
226.225	947
226.291	1779
226.357	2544
226.423	742
226.489	679
226.554	960
226.620	584
226.686	975
226.752	629
226.818	1015
226.884	3874
226.950	3319
227.016	1518
227.082	1590
227.148	162
227.214	847
227.279	472
227.345	225
227.411	1884
227.477	3054
227.543	4531
227.609	5593
227.674	3934
227.740	1423
227.806	972
227.872	1262
227.938	928
228.003	375
228.069	130
228.135	-243
228.201	1309
228.267	-428
228.332	-439
228.398	-883
228.464	353
228.530	-491
228.595	609
228.661	-988
228.727	-584
228.792	1232
228.858	-445
228.924	-1709
228.990	1602
229.055	-564
229.121	-380
229.187	-363
229.252	-73
229.318	495
229.384	253
229.449	-250
229.515	-1350
229.581	-864
229.646	1346
229.712	611
229.777	80
229.843	-125
229.909	479
229.974	509
230.040	262
230.105	116
230.171	-1201
230.236	-574
230.302	-109
230.368	178
230.433	-672
230.499	-478
230.564	941
230.630	-40
230.695	447
230.761	948
230.826	-1338
230.892	414
230.957	-265
231.023	-942
231.088	-152
231.154	214
231.219	280
231.284	-454
231.350	1142
231.415	-6
231.481	63
231.546	-634
231.612	38
231.677	-445
231.742	-1367
231.808	1288
231.873	-192
231.939	-1468
232.004	1309
232.069	921
232.135	-415
232.200	-94
232.265	1010
232.331	-80
232.396	-99
232.461	413
232.527	-182
232.592	-510
232.657	-24
232.723	211
232.788	-684
232.853	-197
232.918	257
232.984	-83
233.049	-154
233.114	-259
233.179	619
233.245	1683
233.310	599
233.375	-746
233.440	101
233.506	-328
233.571	-93
233.636	-210
233.701	267
233.766	100
233.832	-135
233.897	-16
233.962	-956
234.027	424
234.092	157
234.157	428
234.222	-478
234.288	360
234.353	476
234.418	148
234.483	921
234.548	471
234.613	74
234.678	782
234.743	-442
234.808	1296
234.873	-1022
234.938	628
235.004	91
235.069	-392
235.134	-241
235.199	1520
235.264	221
235.329	-976
235.394	382
235.459	778
235.524	-759
235.589	551
235.654	246
235.719	-926
235.784	178
235.849	97
235.913	-165
235.978	346
236.043	12
236.108	444
236.173	-1103
236.238	341
236.303	-592
236.368	-489
236.433	35
236.498	-219
236.563	241
236.627	612
236.692	6975
236.757	4424
236.822	888
236.887	478
236.952	985
237.017	-1164
237.081	1094
237.146	484
237.211	2627
237.276	6134
237.341	9663
237.405	2731
237.470	751
237.535	724
237.600	713
237.664	700
237.729	-1120
237.794	-693
237.859	1736
237.923	206
237.988	-238
238.053	752
238.118	-334
238.182	1044
238.247	1340
238.312	-1238
238.376	963
238.441	-1111
238.506	830
238.570	-612
238.635	1675
238.700	615
238.764	-573
238.829	-69
238.893	-395
238.958	584
239.023	-494
239.087	792
239.152	1064
239.216	-535
239.281	398
239.346	273
239.410	-43
239.475	323
239.539	2210
239.604	547
239.668	1308
239.733	2529
239.797	5967
239.862	10974
239.926	9234
239.991	4320
240.055	1982
240.120	2110
240.184	851
240.249	-241
240.313	-218
240.378	558
240.442	973
240.507	1374
240.571	-592
240.635	-222
240.700	512
240.764	332
240.829	456
240.893	-956
240.957	445
241.022	605
241.086	1225
241.151	-756
241.215	-372
241.279	817
241.344	-391
241.408	170
241.472	-364
241.537	783
241.601	605
241.665	-414
241.730	-758
241.794	906
241.858	-788
241.922	743
241.987	278
242.051	54
242.115	-468
242.179	619
242.244	-48
242.308	137
242.372	469
242.436	-408
242.501	769
242.565	-422
242.629	391
242.693	1317
242.757	-775
242.822	-517
242.886	241
242.950	893
243.014	-275
243.078	67
243.142	-25
243.206	-1098
243.271	-24
243.335	180
243.399	796
243.463	689
243.527	5151
243.591	534
243.655	-640
243.719	-582
243.783	1320
243.847	-259
243.911	906
243.975	-94
244.040	-271
244.104	1291
244.168	869
244.232	51
244.296	-70
244.360	443
244.424	-512
244.488	567
244.552	-54
244.615	-520
244.679	35
244.743	-304
244.807	-1132
244.871	170
244.935	989
244.999	-1141
245.063	-691
245.127	728
245.191	392
245.255	-296
245.319	544
245.383	-1377
245.446	1930
245.510	-258
245.574	281
245.638	595
245.702	-1125
245.766	1095
245.829	1047
245.893	-634
245.957	-55
246.021	999
246.085	-72
246.149	-315
246.212	1620
246.276	994
246.340	149
246.404	208
246.467	407
246.531	-786
246.595	-85
246.659	1700
246.722	-1024
246.786	6
246.850	-50
246.913	213
246.977	-944
247.041	722
247.104	-135
247.168	639
247.232	990
247.295	2178
247.359	1586
247.423	79
247.486	128
247.550	915
247.614	-845
247.677	943
247.741	420
247.804	-17
247.868	1479
247.932	142
247.995	3401
248.059	314
248.122	-1106
248.186	1120
248.249	610
248.313	4724
248.376	3838
248.440	1289
248.503	-424
248.567	2888
248.630	-860
248.694	510
248.757	1681
248.821	4904
248.884	2716
248.948	1792
249.011	2968
249.075	4694
249.138	3503
249.202	607
249.265	-900
249.328	1317
249.392	-364
249.455	448
249.519	296
249.582	430
249.645	1682
249.709	457
249.772	-168
249.835	746
249.899	-180
249.962	527
250.025	613
250.089	1439
250.152	1455
250.215	-125
250.279	248
250.342	474
250.405	1252
250.468	245
250.532	877
250.595	1420
250.658	4664
250.721	10171
250.785	2471
250.848	3353
250.911	-397
250.974	869
251.038	878
251.101	2096
251.164	262
251.227	1653
251.290	1021
251.354	2008
251.417	8705
251.480	8290
251.543	3570
251.606	17655
251.669	11423
251.732	3166
251.795	2853
251.859	3836
251.922	10151
251.985	4711
252.048	2233
252.111	1247
252.174	225
252.237	1968
252.300	4926
252.363	4811
252.426	15537
252.489	3368
252.552	2105
252.615	928
252.678	1753
252.741	4357
252.804	4436
252.867	15170
252.930	5726
252.993	2463
253.056	2007
253.119	517
253.182	140
253.245	650
253.308	1193
253.371	-315
253.434	-389
253.497	923
253.559	2756
253.622	854
253.685	1019
253.748	541
253.811	221
253.874	1459
253.937	430
254.000	796
254.062	1279
254.125	1979
254.188	2810
254.251	1090
254.314	-215
254.376	104
254.439	1309
254.502	1202
254.565	435
254.628	3188
254.690	284
254.753	452
254.816	467
254.878	1027
254.941	2147
255.004	1608
255.067	1096
255.129	-248
255.192	229
255.255	-403
255.317	59
255.380	392
255.443	704
255.505	208
255.568	-926
255.631	-92
255.693	1326
255.756	-77
255.819	721
255.881	888
255.944	853
256.006	486
256.069	-1008
256.132	-194
256.194	-767
256.257	408
256.319	787
256.382	1516
256.444	3263
256.507	972
256.569	17
256.632	290
256.694	-561
256.757	3410
256.819	9325
256.882	1590
256.944	1230
257.007	849
257.069	334
257.132	226
257.194	1871
257.257	555
257.319	-320
257.381	352
257.444	2980
257.506	12280
257.569	11191
257.631	3087
257.693	1959
257.756	642
257.818	41
257.880	450
257.943	659
258.005	-762
258.067	493
258.130	92
258.192	763
258.254	658
258.317	-280
258.379	623
258.441	1410
258.503	1071
258.566	46
258.628	968
258.690	-118
258.753	1728
258.815	1193
258.877	413
258.939	785
259.001	560
259.064	-253
259.126	-350
259.188	498
259.250	1302
259.312	1
259.375	974
259.437	443
259.499	46
259.561	245
259.623	486
259.685	84
259.747	11
259.809	1472
259.872	1714
259.934	1931
259.996	2923
260.058	679
260.120	-391
260.182	565
260.244	-394
260.306	785
260.368	782
260.430	-174
260.492	946
260.554	1328
260.616	276
260.678	1165
260.740	329
260.802	757
260.864	842
260.926	-479
260.988	1604
261.050	1082
261.112	423
261.174	2136
261.236	1343
261.298	660
261.359	1838
261.421	1653
261.483	-321
261.545	1174
261.607	-10
261.669	844
261.731	1136
261.793	1588
261.854	-280
261.916	480
261.978	195
262.040	1673
262.102	826
262.164	773
262.225	376
262.287	686
262.349	98
262.411	910
262.472	1053
262.534	-150
262.596	404
262.658	889
262.719	-291
262.781	576
262.843	446
262.904	1268
262.966	864
263.028	515
263.090	1183
263.151	4382
263.213	1895
263.275	906
263.336	478
263.398	1705
263.459	477
263.521	402
263.583	1278
263.644	1078
263.706	-254
263.767	-40
263.829	658
263.891	858
263.952	1005
264.014	-460
264.075	126
264.137	1140
264.198	1470
264.260	301
264.321	79
264.383	223
264.444	1938
264.506	1000
264.567	1159
264.629	1591
264.690	379
264.752	812
264.813	1078
264.875	622
264.936	1558
264.998	727
265.059	719
265.120	1006
265.182	1125
265.243	4660
265.305	5118
265.366	936
265.427	1033
265.489	1923
265.550	-597
265.611	685
265.673	-144
265.734	907
265.795	1700
265.857	343
265.918	95
265.979	1989
266.040	7836
266.102	6243
266.163	1974
266.224	613
266.286	647
266.347	-291
266.408	988
266.469	484
266.530	381
266.592	611
266.653	711
266.714	413
266.775	340
266.836	311
266.898	146
266.959	120
267.020	688
267.081	1492
267.142	536
267.203	229
267.264	-295
267.326	1997
267.387	292
267.448	-276
267.509	986
267.570	149
267.631	-209
267.692	-489
267.753	924
267.814	-539
267.875	833
267.936	709
267.997	292
268.058	296
268.119	498
268.180	1294
268.241	-440
268.302	550
268.363	-946
268.424	108
268.485	13
268.546	163
268.607	278
268.668	919
268.729	296
268.790	571
268.851	74
268.912	893
268.972	822
269.033	-227
269.094	-48
269.155	190
269.216	277
269.277	457
269.338	1012
269.398	569
269.459	92
269.520	808
269.581	-193
269.642	294
269.702	-245
269.763	244
269.824	842
269.885	767
269.945	277
270.006	328
270.067	-466
270.128	483
270.188	10
270.249	479
270.310	38
270.370	917
270.431	-208
270.492	-96
270.553	647
270.613	785
270.674	1507
270.734	434
270.795	128
270.856	816
270.916	621
270.977	846
271.038	1074
271.098	-89
271.159	403
271.219	478
271.280	1084
271.340	198
271.401	78
271.462	430
271.522	1165
271.583	327
271.643	484
271.704	491
271.764	1156
271.825	486
271.885	4239
271.946	4953
272.006	1874
272.066	3173
272.127	5528
272.187	8065
272.248	3294
272.308	1092
272.369	4313
272.429	2238
272.489	1216
272.550	1340
272.610	892
272.671	433
272.731	1339
272.791	1188
272.852	428
272.912	869
272.972	435
273.033	844
273.093	618
273.153	914
273.214	671
273.274	1147
273.334	2531
273.394	2744
273.455	834
273.515	1579
273.575	2518
273.635	1602
273.696	2365
273.756	3680
273.816	1975
273.876	927
273.936	1337
273.997	1983
274.057	966
274.117	1084
274.177	1252
274.237	3882
274.297	3400
274.358	1726
274.418	2682
274.478	2307
274.538	1522
274.598	477
274.658	2144
274.718	1135
274.778	1532
274.838	1462
274.898	961
274.958	2176
275.018	3507
275.078	1910
275.138	1368
275.198	1238
275.258	1074
275.318	818
275.378	1354
275.438	973
275.498	1626
275.558	1494
275.618	2139
275.678	2348
275.738	1389
275.798	1411
275.858	683
275.918	1437
275.978	902
276.038	1821
276.098	980
276.157	500
276.217	2167
276.277	1280
276.337	956
276.397	1283
276.457	1867
276.517	1489
276.576	1945
276.636	1116
276.696	1779
276.756	1573
276.815	1405
276.875	1844
276.935	955
276.995	1122
277.055	1076
277.114	2232
277.174	1888
277.234	1808
277.293	594
277.353	1032
277.413	746
277.472	1046
277.532	679
277.592	2080
277.651	4577
277.711	5774
277.771	2592
277.830	6821
277.890	5879
277.950	5065
278.009	14091
278.069	5560
278.128	6166
278.188	6023
278.248	3185
278.307	7775
278.367	5225
278.426	2359
278.486	1655
278.545	958
278.605	2223
278.664	692
278.724	849
278.783	3004
278.843	4688
278.902	1980
278.962	1498
279.021	1783
279.081	2377
279.140	2188
279.199	2076
279.259	2331
279.318	2885
279.378	3837
279.437	4300
279.496	9838
279.556	30586
279.615	20419
279.675	6731
279.734	4680
279.793	4571
279.853	6875
279.912	4241
279.971	3321
280.031	3118
280.090	4705
280.149	5581
280.208	4733
280.268	21793
280.327	18007
280.386	4606
280.445	4390
280.505	1944
280.564	2542
280.623	1594
280.682	2157
280.742	3846
280.801	1559
280.860	1804
280.919	1677
280.978	1120
281.037	512
281.097	1069
281.156	2390
281.215	1678
281.274	900
281.333	3350
281.392	1456
281.451	1545
281.510	1333
281.569	1645
281.628	1176
281.688	1886
281.747	2115
281.806	978
281.865	1286
281.924	1179
281.983	1523
282.042	829
282.101	813
282.160	1846
282.219	1813
282.278	870
282.337	1396
282.396	1031
282.454	1694
282.513	1101
282.572	2977
282.631	2023
282.690	1270
282.749	754
282.808	1123
282.867	1130
282.926	1779
282.985	1278
283.043	1118
283.102	919
283.161	1086
283.220	2679
283.279	3051
283.338	2652
283.396	826
283.455	2174
283.514	1900
283.573	1910
283.631	2478
283.690	2473
283.749	496
283.808	1826
283.866	2306
283.925	1030
283.984	1565
284.043	1830
284.101	1600
284.160	577
284.219	2119
284.277	1714
284.336	1814
284.395	3469
284.453	2218
284.512	2204
284.570	2610
284.629	1841
284.688	2477
284.746	3240
284.805	3234
284.863	3697
284.922	5170
284.981	5834
285.039	8444
285.098	12737
285.156	28145
285.215	48875
285.273	43931
285.332	28257
285.390	16520
285.449	9941
285.507	7497
285.566	5995
285.624	4889
285.683	4261
285.741	2704
285.799	3311
285.858	2765
285.916	2592
285.975	1763
286.033	1865
286.091	1845
286.150	1181
286.208	2202
286.267	2907
286.325	1539
286.383	2516
286.442	2149
286.500	1354
286.558	2244
286.616	1123
286.675	1867
286.733	1517
286.791	1426
286.850	2282
286.908	1812
286.966	2341
287.024	1211
287.083	2101
287.141	1776
287.199	2013
287.257	1748
287.315	1583
287.374	1241
287.432	1917
287.490	1055
287.548	1037
287.606	1650
287.664	1477
287.723	2052
287.781	2238
287.839	2324
287.897	2503
287.955	2785
288.013	2260
288.071	3981
288.129	12710
288.187	31397
288.245	12934
288.303	4357
288.361	3508
288.419	2403
288.477	2287
288.535	1851
288.593	1824
288.651	2052
288.709	882
288.767	1896
288.825	845
288.883	2117
288.941	895
288.999	1701
289.057	2049
289.115	1159
289.173	2426
289.231	1719
289.289	1687
289.346	1698
289.404	2248
289.462	1843
289.520	2302
289.578	1955
289.636	1588
289.694	1419
289.751	1257
289.809	2187
289.867	1862
289.925	2023
289.983	2314
290.040	1838
290.098	1648
290.156	1779
290.214	1404
290.271	1318
290.329	2859
290.387	1346
290.444	1594
290.502	1674
290.560	1421
290.617	1472
290.675	1572
290.733	1216
290.790	1703
290.848	2275
290.906	1384
290.963	1383
291.021	1697
291.078	1407
291.136	1734
291.194	2228
291.251	2798
291.309	1344
291.366	2322
291.424	1001
291.481	1377
291.539	1882
291.596	1803
291.654	1930
291.711	2403
291.769	1671
291.826	2552
291.884	1756
291.941	1621
291.999	2475
292.056	1772
292.114	1607
292.171	2493
292.228	2272
292.286	2755
292.343	995
292.401	1674
292.458	1991
292.515	1466
292.573	1660
292.630	1815
292.687	2019
292.745	1766
292.802	1384
292.859	2639
292.917	3325
292.974	2314
293.031	2026
293.089	2353
293.146	1707
293.203	1443
293.260	1959
293.318	1975
293.375	1584
293.432	1521
293.489	2020
293.546	2009
293.604	1922
293.661	3253
293.718	5768
293.775	2840
293.832	3202
293.889	2425
293.947	2383
294.004	1583
294.061	1019
294.118	2177
294.175	3777
294.232	4137
294.289	2193
294.346	2319
294.403	2225
294.460	1812
294.517	1870
294.574	1927
294.631	2305
294.688	1823
294.745	2637
294.802	6182
294.859	3843
294.916	2710
294.973	807
295.030	1707
295.087	1357
295.144	1778
295.201	1629
295.258	1970
295.315	2988
295.372	2877
295.429	4884
295.486	2683
295.542	1584
295.599	3511
295.656	3132
295.713	3136
295.770	3165
295.827	2209
295.883	1735
295.940	988
295.997	1710
296.054	1872
296.111	1762
296.167	1680
296.224	1799
296.281	1125
296.338	1127
296.394	1646
296.451	1484
296.508	1838
296.564	2194
296.621	2771
296.678	5160
296.734	6254
296.791	2689
296.848	2962
296.904	2659
296.961	3045
297.018	4226
297.074	2852
297.131	1775
297.187	1938
297.244	2663
297.301	4840
297.357	7972
297.414	3139
297.470	2323
297.527	1920
297.583	1269
297.640	1540
297.696	1641
297.753	1626
297.809	770
297.866	1332
297.922	1226
297.979	1375
298.035	1164
298.092	1907
298.148	2699
298.204	3267
298.261	1650
298.317	2910
298.374	5186
298.430	2797
298.486	1539
298.543	1088
298.599	2100
298.656	1657
298.712	2227
298.768	2619
298.824	2088
298.881	1652
298.937	1797
298.993	1840
299.050	1542
299.106	1586
299.162	1364
299.218	2210
299.275	1326
299.331	2222
299.387	2640
299.443	7642
299.500	15477
299.556	11002
299.612	5245
299.668	5128
299.724	13751
299.780	14845
299.837	6429
299.893	5607
299.949	11785
300.005	15586
300.061	12099
300.117	17730
300.173	7894
300.229	4529
300.285	3324
300.341	3756
300.397	3152
300.453	2731
300.510	2602
300.566	3301
300.622	6198
300.678	20601
300.734	23031
300.790	11469
300.845	9111
300.901	12016
300.957	16261
301.013	7989
301.069	3911
301.125	3367
301.181	1706
301.237	3108
301.293	1538
301.349	2610
301.405	2914
301.461	1589
301.516	2144
301.572	1839
301.628	755
301.684	1332
301.740	2620
301.796	2560
301.851	1735
301.907	2822
301.963	2268
302.019	5212
302.074	12348
302.130	11412
302.186	5462
302.242	3139
302.297	1667
302.353	2345
302.409	2091
302.464	2960
302.520	2241
302.576	3479
302.631	4668
302.687	2368
302.743	1188
302.798	1876
302.854	1456
302.910	1821
302.965	1535
303.021	1970
303.076	1607
303.132	1581
303.187	2068
303.243	1722
303.299	1742
303.354	1167
303.410	2038
303.465	1188
303.521	999
303.576	1306
303.632	1332
303.687	2218
303.743	5184
303.798	4059
303.853	2460
303.909	1716
303.964	939
304.020	2449
304.075	2184
304.130	2050
304.186	2353
304.241	3239
304.297	2084
304.352	939
304.358	1022
304.407	1695
304.449	1579
304.463	1545
304.518	1516
304.539	1329
304.573	1008
304.629	2112
304.630	2109
304.684	2036
304.720	2745
304.739	3063
304.794	5714
304.811	4639
304.850	2123
304.902	2174
304.905	2179
304.960	1192
304.992	1403
305.015	1548
305.071	1552
305.083	1461
305.126	1163
305.173	701
305.181	629
305.236	1391
305.264	1659
305.292	1900
305.347	1515
305.354	1440
305.402	1107
305.445	1693
305.457	1787
305.512	1771
305.535	1396
305.567	1039
305.622	1113
305.626	1141
305.678	1947
305.716	3404
305.733	3843
305.788	3877
305.807	3647
305.843	3532
305.897	4406
305.898	4407
305.953	4099
305.988	3323
306.008	3052
306.063	2176
306.078	1951
306.118	1538
306.168	1161
306.173	1116
306.228	1122
306.259	1194
306.283	1243
306.338	1495
306.349	1528
306.393	1736
306.440	1701
306.448	1702
306.503	1946
306.530	2231
306.558	2540
306.613	2592
306.620	2582
306.668	2750
306.711	3769
306.723	3857
306.778	2924
306.801	2500
306.833	2216
306.888	2002
306.892	1986
306.943	1775
306.982	1715
306.997	1701
307.052	1473
307.072	1434
307.107	1528
307.162	1632
307.163	1635
307.217	1841
307.253	1510
307.272	1337
307.327	1524
307.343	1479
307.381	1544
307.434	1483
307.436	1504
307.491	2468
307.524	3052
307.546	3128
307.600	3212
307.614	2992
307.655	2147
307.704	2092
307.710	2170
307.765	1631
307.795	1959
307.819	2079
307.874	2845
307.885	2835
307.929	3000
307.975	3365
307.984	3579
308.038	5143
308.065	6121
308.093	11350
308.148	23715
308.156	26530
308.202	36019
308.246	39696
308.257	38101
308.312	19136
308.336	11965
308.366	8634
308.421	5024
308.426	4777
308.475	3647
308.517	3242
308.530	3103
308.585	2567
308.607	2277
308.639	2189
308.694	2456
308.697	2466
308.748	2795
308.787	3095
308.803	3085
308.857	2736
308.877	2739
308.912	3145
308.967	3522
308.967	3528
309.021	5379
309.058	6915
309.076	8619
309.130	13901
309.148	15930
309.185	33835
309.238	65052
309.239	65103
309.293	60201
309.328	48603
309.348	40794
309.402	18023
309.418	12541
309.457	9301
309.508	6235
309.511	6171
309.566	5873
309.598	6108
309.620	6766
309.674	8445
309.688	8953
309.729	8610
309.778	7457
309.783	7290
309.837	5045
309.868	3803
309.892	4104
309.946	5363
309.959	5677
310.001	6026
310.049	6307
310.055	6191
310.109	4479
310.139	3688
310.163	3227
310.218	2453
310.229	2274
310.272	2590
310.319	2969
310.326	2887
310.381	2026
310.409	1719
310.435	1946
310.489	2342
310.499	2418
310.543	2577
310.589	2778
310.598	2782
310.652	2630
310.679	2552
310.706	2474
310.760	2330
310.769	2289
310.814	2495
310.859	2838
310.868	2731
310.923	1954
310.948	1569
310.977	1765
311.031	2364
311.038	2415
311.085	2459
311.128	2461
311.139	2507
311.193	2841
311.218	2973
311.247	3104
311.301	3272
311.308	3296
311.356	2984
311.398	2609
311.410	2570
311.464	2409
311.488	2318
311.518	2500
311.572	2821
311.578	2854
311.626	2612
311.668	2419
311.680	2584
311.734	3201
311.758	3493
311.788	3515
311.842	3558
311.847	3553
311.896	3318
311.937	3109
311.950	2982
312.004	2412
312.027	2164
312.058	2095
312.112	1974
312.117	1962
312.165	2865
312.207	3637
312.297	2686
312.386	2439
312.476	3362
312.566	2938
312.656	3200
312.745	2797
312.835	3452
312.925	3511
313.015	2903
313.104	2678
313.194	3401
313.284	3096
313.374	3660
313.463	4574
313.553	5284
313.643	3727
313.732	4728
313.822	5040
313.912	5048
314.001	5315
314.091	6073
314.180	5475
314.270	6375
314.360	5672
314.449	5283
314.539	4937
314.628	5177
314.718	5342
314.808	5986
314.897	6848
314.987	7922
315.076	7525
315.166	6920
315.255	6672
315.345	6982
315.434	5794
315.524	6418
315.613	7558
315.703	9858
315.792	23805
315.881	51507
315.971	13994
316.060	8453
316.150	7174
316.239	6926
316.328	5856
316.418	6316
316.507	7003
316.597	7871
316.686	8026
316.775	7643
316.865	6734
316.954	6694
317.043	5442
317.133	5760
317.222	5553
317.311	4981
317.400	4327
317.490	6766
317.579	5491
317.668	6240
317.757	10116
317.847	37501
317.936	76141
318.025	23718
318.114	22012
318.203	10238
318.293	7506
318.382	11918
318.471	10642
318.560	11603
318.649	12817
318.738	6448
318.828	4838
318.917	4014
319.006	4612
319.095	5866
319.184	11592
319.273	6595
319.362	5516
319.451	3845
319.540	4043
319.629	5511
319.718	5441
319.807	5146
319.896	5712
319.985	13218
320.074	7138
320.163	5567
320.252	5353
320.341	5620
320.430	4889
320.519	6669
320.608	5170
320.697	8068
320.786	7494
320.875	9695
320.964	9379
321.053	10614
321.142	11565
321.230	14081
321.319	13033
321.408	16953
321.497	14565
321.586	12289
321.675	10207
321.764	10179
321.852	9684
321.941	11393
322.030	10645
322.119	12081
322.207	15704
322.296	15700
322.385	16941
322.474	20796
322.562	22149
322.651	15501
322.740	11652
322.829	11357
322.917	10072
323.006	8732
323.095	7511
323.183	7478
323.272	7414
323.361	7706
323.449	9525
323.538	6534
323.626	7547
323.715	6528
323.804	5610
323.892	7108
323.981	5565
324.069	5421
324.158	6084
324.246	5443
324.335	4925
324.424	5498
324.512	4192
324.601	4710
324.689	6069
324.778	7466
324.866	4328
324.954	4316
325.043	4631
325.131	4498
325.220	5101
325.308	5007
325.397	4730
325.485	4304
325.574	3708
325.662	4173
325.750	3251
325.839	4107
325.927	3768
326.015	4601
326.104	3359
326.192	4382
326.280	4363
326.369	4324
326.457	4382
326.545	5179
326.634	4228
326.722	4464
326.810	4655
326.898	5623
326.987	5542
327.075	5486
327.163	5228
327.251	4648
327.340	5439
327.428	8237
327.516	8218
327.604	5635
327.692	4444
327.781	3963
327.869	3564
327.957	4324
328.045	2655
328.133	4540
328.221	3673
328.309	4441
328.397	4243
328.485	5840
328.574	8291
328.662	11618
328.750	6869
328.838	5047
328.926	3363
329.014	4237
329.102	4230
329.190	5240
329.278	4112
329.366	3409
329.454	3491
329.542	4348
329.630	3296
329.718	4059
329.806	3738
329.893	4736
329.981	3491
330.069	4694
330.157	6748
330.245	11648
330.333	6400
330.421	4549
330.509	4253
330.597	5031
330.684	4030
330.772	3550
330.860	3292
330.948	4454
331.036	3870
331.123	3191
331.211	3724
331.299	3253
331.387	4190
331.475	5000
331.562	3880
331.650	3650
331.738	3827
331.825	3724
331.913	3293
332.001	3654
332.089	3337
332.176	4291
332.264	3469
332.352	5091
332.439	4032
332.527	4537
332.614	3512
332.702	4771
332.790	3812
332.877	4672
332.965	5317
333.052	4901
333.140	5575
333.228	6933
333.315	4086
333.403	4756
333.490	5278
333.578	5884
333.665	7908
333.753	6526
333.840	5786
333.928	7367
334.015	8082
334.103	11314
334.190	18916
334.278	16342
334.365	23454
334.452	21560
334.540	15684
334.627	14969
334.715	19514
334.802	26866
334.889	45909
334.977	56471
335.064	33760
335.151	17550
335.239	12850
335.326	12131
335.413	15790
335.501	15350
335.588	11903
335.675	13022
335.762	15479
335.850	22337
335.937	32051
336.024	52396
336.111	82900
336.199	66526
336.286	30337
336.373	19084
336.460	12833
336.547	10699
336.635	8823
336.722	7934
336.809	7103
336.896	7137
336.983	8843
337.070	12955
337.157	13808
337.245	9701
337.332	7585
337.419	6458
337.506	5701
337.593	6068
337.680	7492
337.767	10214
337.854	5732
337.941	5085
338.028	4922
338.115	4845
338.202	5796
338.289	6662
338.376	6618
338.463	4758
338.550	7382
338.637	7161
338.724	5017
338.811	5570
338.898	3986
338.984	4100
339.071	4340
339.158	4378
339.245	5145
339.332	4910
339.419	4661
339.506	4419
339.593	3377
339.679	4083
339.766	3981
339.853	4425
339.940	4381
340.027	3699
340.113	3692
340.200	4068
340.287	3532
340.374	3468
340.460	4639
340.547	3435
340.634	3990
340.720	6422
340.807	4370
340.894	4833
340.980	3707
341.067	4710
341.154	4308
341.240	5490
341.327	4688
341.414	5608
341.500	3500
341.587	4970
341.674	4061
341.760	4656
341.847	4309
341.933	3586
342.020	2918
342.106	3991
342.193	3602
342.279	4426
342.366	4564
342.452	4033
342.539	4413
342.625	5169
342.712	5556
342.798	4909
342.885	3410
342.971	2792
343.058	2902
343.144	4511
343.230	4629
343.317	4500
343.403	3431
343.490	4014
343.576	2854
343.662	3908
343.749	3494
343.835	4501
343.921	5497
344.008	18846
344.094	27093
344.180	7568
344.267	4448
344.353	10133
344.439	7712
344.525	4447
344.612	4596
344.698	4600
344.784	3308
344.870	3826
344.957	3758
345.043	4787
345.129	3200
345.215	4184
345.301	3503
345.387	4747
345.474	3511
345.560	3459
345.646	3365
345.732	3797
345.818	4264
345.904	4512
345.990	3487
346.076	3737
346.162	3509
346.249	4944
346.335	3453
346.421	4755
346.507	7096
346.593	11806
346.679	4596
346.765	5614
346.851	9323
346.937	6267
347.023	5145
347.108	4706
347.194	4175
347.280	4739
347.366	6186
347.452	19440
347.538	24423
347.624	14454
347.710	8438
347.796	4695
347.882	4479
347.967	4453
348.053	4406
348.139	4105
348.225	3279
348.311	4040
348.397	3805
348.482	4767
348.568	5564
348.654	7976
348.740	23432
348.825	21455
348.911	10194
348.997	10933
349.083	13733
349.168	5440
349.254	4061
349.340	4321
349.425	4319
349.511	4466
349.597	4281
349.682	5584
349.768	8494
349.854	5919
349.939	5104
350.025	4920
350.110	3631
350.196	4766
350.282	3371
350.367	4458
350.453	4317
350.538	4159
350.624	3520
350.709	4693
350.795	3951
350.880	3743
350.966	5309
351.051	4476
351.137	3391
351.222	4306
351.308	5116
351.393	7165
351.479	3949
351.564	3933
351.649	4081
351.735	3994
351.820	3693
351.906	3862
351.991	4189
352.076	5792
352.162	6510
352.247	5729
352.332	3488
352.418	5054
352.503	4325
352.588	8370
352.673	5653
352.759	4423
352.844	4169
352.929	4315
353.014	4091
353.100	3359
353.185	3671
353.270	4376
353.355	4250
353.441	4553
353.526	3723
353.611	4199
353.696	2859
353.781	5011
353.866	3462
353.952	4235
354.037	3195
354.122	4938
354.207	4983
354.292	3926
354.377	3805
354.462	3944
354.547	4036
354.632	4146
354.717	4192
354.802	3296
354.887	3963
354.972	3406
355.057	3807
355.142	3579
355.227	4764
355.312	4250
355.397	3860
355.482	6149
355.567	4037
355.652	5172
355.737	5254
355.822	9702
355.907	7629
355.991	5414
356.076	3775
356.161	4257
356.246	3828
356.331	3631
356.416	6273
356.501	18371
356.585	14015
356.670	4844
356.755	6124
356.840	6140
356.924	13566
357.009	31248
357.094	12157
357.179	5067
357.263	4886
357.348	5199
357.433	4926
357.517	5342
357.602	4566
357.687	5009
357.771	5714
357.856	7958
357.941	6930
358.025	14210
358.110	38039
358.195	14322
358.279	6243
358.364	5863
358.448	7291
358.533	12839
358.617	9530
358.702	10673
358.787	6191
358.871	6256
358.956	5104
359.040	5299
359.125	3805
359.209	5160
359.294	7068
359.378	10800
359.462	7402
359.547	5009
359.631	4275
359.716	4024
359.800	4194
359.885	5012
359.969	3618
360.053	5746
360.138	4424
360.222	4486
360.306	4770
360.391	5206
360.475	7078
360.559	7860
360.644	7227
360.728	6124
360.812	12646
360.896	21978
360.981	8278
361.065	6640
361.149	6266
361.233	5095
361.318	4649
361.402	5615
361.486	6274
361.570	6044
361.654	6444
361.739	8007
361.823	18391
361.907	24584
361.991	9493
362.075	10840
362.159	14289
362.243	28464
362.327	64753
362.411	83592
362.495	32778
362.580	17874
362.664	16281
362.748	19693
362.832	29979
362.916	62756
363.000	155849
363.084	186337
363.168	80766
363.252	27807
363.336	16670
363.420	15181
363.503	17416
363.587	16841
363.671	10598
363.755	10520
363.839	13237
363.923	12563
364.007	17122
364.091	23983
364.175	37644
364.258	85001
364.342	179687
364.426	262331
364.510	135164
364.594	47573
364.677	27122
364.761	29645
364.845	20493
364.929	10470
365.013	9451
365.096	8550
365.180	6910
365.264	10987
365.347	19206
365.431	9587
365.515	4918
365.598	5940
365.682	6761
365.766	6161
365.849	6505
365.933	7026
366.017	7388
366.100	5905
366.184	6163
366.267	7743
366.351	5536
366.435	5862
366.518	5150
366.602	6809
366.685	6185
366.769	6408
366.852	6313
366.936	7363
367.019	5877
367.103	5374
367.186	7157
367.270	6043
367.353	6100
367.436	8356
367.520	6657
367.603	7737
367.687	6106
367.770	7035
367.853	8158
367.937	11546
368.020	11158
368.104	6215
368.187	5978
368.270	6885
368.353	5798
368.437	5765
368.520	6950
368.603	6328
368.687	7507
368.770	10332
368.853	6338
368.936	6665
369.020	6171
369.103	5448
369.186	4197
369.269	4683
369.352	5645
369.436	5603
369.519	5109
369.602	3356
369.685	5990
369.768	4412
369.851	5298
369.934	4507
370.018	4347
370.101	5193
370.184	6758
370.267	5999
370.350	6046
370.433	7324
370.516	19803
370.599	35428
370.682	11801
370.765	10328
370.848	11280
370.931	13478
371.014	7935
371.097	4018
371.180	5978
371.263	5684
371.346	4211
371.429	5933
371.511	3926
371.594	4203
371.677	6217
371.760	7293
371.843	6556
371.926	20813
372.009	30070
372.091	13260
372.174	9562
372.257	16700
372.340	7933
372.423	6480
372.505	7158
372.588	5907
372.671	8619
372.754	13327
372.836	8654
372.919	8440
373.002	10159
373.085	5897
373.167	6576
373.250	9111
373.332	15851
373.415	26546
373.498	40171
373.580	25975
373.663	58242
373.746	49260
373.828	12204
373.911	9420
373.993	8156
374.076	12558
374.159	10394
374.241	8448
374.324	13857
374.406	12042
374.489	18824
374.571	33937
374.654	14832
374.736	13723
374.819	23981
374.901	34079
374.983	29935
375.066	11634
375.148	9043
375.231	14144
375.313	17349
375.395	10862
375.478	8439
375.560	9153
375.643	8626
375.725	14034
375.807	27747
375.890	19442
375.972	7231
376.054	7774
376.136	7372
376.219	6776
376.301	12597
376.383	20470
376.465	10301
376.548	6863
376.630	9339
376.712	16511
376.794	10037
376.877	6527
376.959	4101
377.041	5479
377.123	4970
377.205	5249
377.287	4020
377.369	6056
377.452	5685
377.534	6275
377.616	5577
377.698	6042
377.780	4376
377.862	5415
377.944	6117
378.026	5137
378.108	5608
378.190	6208
378.272	5300
378.354	5664
378.436	5016
378.518	4634
378.600	5641
378.682	7402
378.764	9137
378.846	8756
378.928	5676
379.010	5658
379.091	5128
379.173	6012
379.255	4443
379.337	5357
379.419	6672
379.501	11861
379.583	6700
379.664	5814
379.746	4814
379.828	10021
379.910	9990
379.991	10045
380.073	4842
380.155	5548
380.237	4773
380.318	4974
380.400	4244
380.482	5446
380.564	5892
380.645	4943
380.727	4909
380.809	6173
380.890	3859
380.972	4040
381.053	4338
381.135	5463
381.217	6389
381.298	10030
381.380	6082
381.461	8186
381.543	17688
381.624	17649
381.706	6355
381.787	6387
381.869	6640
381.951	13536
382.032	31269
382.113	20902
382.195	5825
382.276	7791
382.358	8473
382.439	17033
382.521	23108
382.602	29589
382.684	15255
382.765	20887
382.846	25986
382.928	39876
383.009	23276
383.090	23088
383.172	68434
383.253	81187
383.334	28467
383.416	26209
383.497	15770
383.578	12581
383.659	19702
383.741	67749
383.822	131983
383.903	59898
383.984	21410
384.066	27824
384.147	16384
384.228	10994
384.309	9904
384.390	10872
384.471	10337
384.553	9559
384.634	7798
384.715	8401
384.796	7182
384.877	8298
384.958	11513
385.039	10121
385.120	7524
385.201	8061
385.282	7656
385.363	9266
385.444	8794
385.525	11647
385.606	18329
385.687	16184
385.768	10320
385.849	10355
385.930	23719
386.011	30966
386.092	13281
386.173	11294
386.254	8622
386.335	9653
386.416	8627
386.496	11836
386.577	12604
386.658	10742
386.739	9435
386.820	10943
386.901	10637
386.981	11942
387.062	12342
387.143	14596
387.224	18708
387.304	19529
387.385	17358
387.466	15994
387.547	17746
387.627	17652
387.708	19416
387.789	25014
387.869	24345
387.950	16035
388.031	12661
388.111	10572
388.192	13514
388.273	13290
388.353	11848
388.434	9313
388.514	10690
388.595	21757
388.676	20232
388.756	12609
388.837	11360
388.917	8897
388.998	6883
389.078	8931
389.159	7997
389.239	6918
389.320	8886
389.400	6590
389.480	10097
389.561	12126
389.641	10460
389.722	8259
389.802	6754
389.883	10569
389.963	14426
390.043	10259
390.124	7093
390.204	9725
390.284	11211
390.365	8781
390.445	10840
390.525	13509
390.605	12704
390.686	8757
390.766	7629
390.846	9063
390.927	8103
391.007	6701
391.087	9066
391.167	8197
391.247	7560
391.328	10030
391.408	9577
391.488	9806
391.568	8459
391.648	9783
391.728	11050
391.808	11893
391.888	11107
391.969	14415
392.049	14613
392.129	14768
392.209	15684
392.289	21306
392.369	18374
392.449	17327
392.529	17551
392.609	22161
392.689	23969
392.769	31600
392.849	36402
392.929	44358
393.009	61914
393.089	88610
393.169	164263
393.248	369514
393.328	616260
393.408	541016
393.488	279247
393.568	129172
393.648	71537
393.728	47097
393.807	33093
393.887	29113
393.967	24314
394.047	20215
394.127	17179
394.206	19857
394.286	41964
394.366	115241
394.446	102271
394.525	27121
394.605	14126
394.685	13501
394.764	16861
394.844	29950
394.924	33200
395.003	15924
395.083	11641
395.163	11581
395.242	9282
395.322	10856
395.402	8380
395.481	13704
395.561	16962
395.640	46576
395.720	74210
395.799	40314
395.879	19629
395.958	19927
396.038	50424
396.117	146626
396.197	134111
396.276	40847
396.356	25980
396.435	30256
396.515	38517
396.594	58834
396.673	131678
396.753	336291
396.832	534330
396.912	366703
396.991	141941
397.070	65275
397.150	39658
397.229	38490
397.308	69791
397.388	107222
397.467	51671
397.546	20324
397.625	13116
397.705	15081
397.784	12547
397.863	12121
397.942	9413
398.022	10271
398.101	10445
398.180	15037
398.259	10093
398.338	10400
398.417	7267
398.497	6948
398.576	8137
398.655	6699
398.734	7013
398.813	7529
398.892	8830
398.971	13435
399.050	8887
399.129	6122
399.208	6690
399.287	7893
399.366	5345
399.445	6502
399.524	6050
399.603	4821
399.682	6925
399.761	7918
399.840	14411
399.919	11640
399.998	5395
400.077	4567
400.156	4479
400.235	8093
400.313	4544
400.392	5208
400.471	7416
400.550	9070
400.629	4678
400.708	5996
400.786	3237
400.865	5786
400.944	4562
401.023	7098
401.102	3632
401.180	5030
401.259	4400
401.338	4580
401.416	5022
401.495	4282
401.574	5367
401.652	4313
401.731	4990
401.810	3390
401.888	4148
401.967	3986
402.046	4532
402.124	4843
402.203	2966
402.281	5564
402.360	4243
402.438	5554
402.517	3922
402.596	5304
402.674	3633
402.753	4153
402.831	4929
402.910	5900
402.988	5267
403.066	7890
403.145	6727
403.223	7300
403.302	6550
403.380	7609
403.459	7227
403.537	5535
403.615	4770
403.694	4496
403.772	5793
403.850	5153
403.929	4545
404.007	3808
404.085	5105
404.164	4318
404.242	4205
404.320	8009
404.398	11712
404.477	12887
404.555	22990
404.633	19739
404.711	10073
404.789	7033
404.868	3764
404.946	3535
405.024	3845
405.102	3736
405.180	3410
405.258	2985
405.336	4232
405.415	3531
405.493	4385
405.571	4845
405.649	2890
405.727	3159
405.805	5705
405.883	5007
405.961	5248
406.039	4100
406.117	2639
406.195	5244
406.273	5860
406.351	15485
406.429	9827
406.507	4435
406.585	3246
406.663	3932
406.740	3969
406.818	3752
406.896	2878
406.974	4894
407.052	3065
407.130	10227
407.208	11297
407.285	5973
407.363	3358
407.441	3684
407.519	3755
407.596	5869
407.674	13452
407.752	34987
407.830	23309
407.907	6698
407.985	3793
408.063	4418
408.141	3572
408.218	5759
408.296	2596
408.373	4003
408.451	5433
408.529	4778
408.606	4785
408.684	6451
408.762	5212
408.839	6297
408.917	5566
408.994	6830
409.072	7066
409.149	9503
409.227	16229
409.304	22463
409.382	24077
409.459	28644
409.537	34169
409.614	29538
409.692	24337
409.769	24663
409.846	36323
409.924	41256
410.001	28667
410.079	20387
410.156	15811
410.233	13452
410.311	10917
410.388	9158
410.465	8599
410.543	8404
410.620	8108
410.697	8534
410.775	7498
410.852	6811
410.929	9732
411.006	9333
411.083	7835
411.161	7835
411.238	8407
411.315	6887
411.392	6224
411.469	7198
411.547	5600
411.624	4371
411.701	4873
411.778	6344
411.855	5722
411.932	5539
412.009	4249
412.086	5283
412.163	4914
412.240	4967
412.317	4353
412.394	5135
412.471	4947
412.548	4351
412.625	4733
412.702	4617
412.779	4305
412.856	4809
412.933	3513
413.010	3772
413.087	4788
413.164	6063
413.241	6288
413.318	3905
413.395	5196
413.471	3516
413.548	4634
413.625	4310
413.702	3848
413.779	3969
413.855	3518
413.932	2948
414.009	2671
414.086	3583
414.162	3959
414.239	4060
414.316	5189
414.393	8144
414.469	3069
414.546	3712
414.623	3887
414.699	2967
414.776	3202
414.853	4042
414.929	3149
415.006	3017
415.082	3566
415.159	4064
415.236	4086
415.312	4018
415.389	4263
415.465	3221
415.542	4089
415.618	2868
415.695	4179
415.771	2879
415.848	2928
415.924	3849
416.000	3177
416.077	5083
416.153	2904
416.230	2435
416.306	3364
416.383	3812
416.459	3689
416.535	3423
416.612	3129
416.688	3711
416.764	3133
416.841	3489
416.917	2648
416.993	4046
417.069	3338
417.146	3237
417.222	3522
417.298	3703
417.374	2739
417.451	4178
417.527	2613
417.603	3280
417.679	3565
417.755	3661
417.831	2486
417.908	3424
417.984	2676
418.060	2682
418.136	3579
418.212	3413
418.288	3364
418.364	3902
418.440	3291
418.516	3924
418.592	3910
418.668	4895
418.744	3514
418.820	4761
418.896	3771
418.972	3847
419.048	3457
419.124	5318
419.200	3417
419.276	4287
419.352	3516
419.428	4350
419.504	3345
419.579	5131
419.655	3892
419.731	4662
419.807	5642
419.883	6031
419.959	5367
420.034	5955
420.110	5943
420.186	7674
420.262	7857
420.337	7366
420.413	6625
420.489	7027
420.565	8063
420.640	7935
420.716	9293
420.792	8677
420.867	10465
420.943	8870
421.019	9981
421.094	11629
421.170	12027
421.245	12943
421.321	13061
421.397	15419
421.472	21978
421.548	34487
421.623	26546
421.699	23801
421.774	24711
421.850	28405
421.925	33333
422.001	39907
422.076	47846
422.152	59422
422.227	76498
422.302	103054
422.378	140879
422.453	201574
422.529	264301
422.604	259029
422.679	202453
422.755	240322
422.830	241118
422.905	189540
422.981	140743
423.056	106620
423.131	81712
423.207	63908
423.282	50500
423.357	43007
423.432	35987
423.508	32291
423.583	26307
423.658	25106
423.733	21718
423.808	20219
423.883	20174
423.959	21018
424.034	22158
424.109	21658
424.184	15908
424.259	13484
424.334	12448
424.409	10941
424.484	9810
424.559	9687
424.634	8154
424.709	8260
424.784	8599
424.859	7937
424.934	6953
425.009	8257
425.084	9254
425.159	7347
425.234	7241
425.309	6121
425.384	7034
425.459	6720
425.534	7229
425.609	5442
425.683	5168
425.758	5766
425.833	5303
425.908	6472
425.983	4851
426.058	8411
426.132	5751
426.207	5105
426.282	5408
426.357	4722
426.431	4385
426.506	5363
426.581	3664
426.655	4296
426.730	3750
426.805	4310
426.879	4613
426.954	4529
427.029	4560
427.103	9051
427.178	11799
427.253	8056
427.327	4783
427.402	3521
427.476	5210
427.551	4324
427.625	3356
427.700	4324
427.774	3750
427.849	4598
427.923	4360
427.998	5017
428.072	5459
428.147	14223
428.221	57833
428.296	126147
428.370	62644
428.444	13100
428.519	7096
428.593	6113
428.667	6125
428.742	8804
428.816	24871
428.890	88962
428.965	106127
429.039	29358
429.113	8063
429.188	5109
429.262	4254
429.336	4990
429.410	5369
429.485	4904
429.559	5297
429.633	6653
429.707	7184
429.781	22791
429.855	83817
429.930	95774
430.004	30232
430.078	24017
430.152	70054
430.226	174333
430.300	143680
430.374	38692
430.448	14399
430.522	10709
430.596	14890
430.670	37263
430.744	106310
430.818	95610
430.892	20845
430.966	6071
431.040	5209
431.114	3602
431.188	3468
431.262	4192
431.336	3477
431.410	4446
431.484	3777
431.557	5524
431.631	4920
431.705	9962
431.779	46057
431.853	122969
431.927	71644
432.000	14350
432.074	4403
432.148	3855
432.222	2549
432.295	3044
432.369	1574
432.443	2490
432.516	6003
432.590	11765
432.664	5312
432.737	1639
432.811	1236
432.885	2209
432.958	2014
433.032	1796
433.106	954
433.179	2565
433.253	1839
433.326	2513
433.400	2142
433.473	2973
433.547	2383
433.620	1755
433.694	1475
433.767	2697
433.841	1288
433.914	3045
433.988	2306
434.061	2305
434.134	1854
434.208	2991
434.281	1673
434.355	2030
434.428	2366
434.501	1809
434.575	1394
434.648	2380
434.721	2078
434.795	2103
434.868	1986
434.941	2009
435.014	2222
435.088	2674
435.161	3365
435.234	4059
435.307	4233
435.381	6406
435.454	10766
435.527	18258
435.600	17862
435.673	14255
435.746	10464
435.819	8449
435.892	6271
435.966	5992
436.039	3130
436.112	4226
436.185	2939
436.258	2770
436.331	2232
436.404	2861
436.477	1855
436.550	3471
436.623	2868
436.696	2352
436.769	1693
436.842	1929
436.915	2344
436.987	2117
437.060	1854
437.133	1547
437.206	1417
437.279	2605
437.352	1253
437.425	1853
437.498	1653
437.570	2096
437.643	2016
437.716	1561
437.789	2014
437.861	1832
437.934	1011
438.007	1428
438.080	1332
438.152	1709
438.225	2232
438.298	8843
438.370	17883
438.443	7083
438.516	2303
438.588	2116
438.661	1768
438.734	2441
438.806	925
438.879	3173
438.951	2361
439.024	1552
439.096	993
439.169	2119
439.241	1358
439.314	1976
439.386	1347
439.459	1890
439.531	1337
439.604	1582
439.676	1425
439.749	2652
439.821	1783
439.893	2307
439.966	1283
440.038	1717
440.110	1157
440.183	2291
440.255	1454
440.327	2770
440.400	3956
440.472	10449
440.544	6069
440.617	2413
440.689	2429
440.761	2488
440.833	1903
440.905	2915
440.978	1743
441.050	2318
441.122	2474
441.194	2349
441.266	1880
441.338	2609
441.411	2066
441.483	4008
441.555	4598
441.627	2546
441.699	3017
441.771	3302
441.843	2112
441.915	3223
441.987	2552
442.059	3655
442.131	3848
442.203	5075
442.275	6413
442.347	11439
442.419	29475
442.491	114104
442.563	178510
442.635	68625
442.706	18742
442.778	10318
442.850	6359
442.922	6329
442.994	6028
443.066	6430
443.137	8230
443.209	11954
443.281	17770
443.353	41472
443.425	134097
443.496	284018
443.568	259029
443.640	109851
443.711	30534
443.783	14637
443.855	9457
443.926	8011
443.998	5769
444.070	5623
444.141	4216
444.213	4926
444.285	4179
444.356	4258
444.428	4095
444.499	4071
444.571	3993
444.642	5005
444.714	3712
444.785	4748
444.857	5565
444.928	6900
445.000	7206
445.071	9956
445.143	11382
445.214	18236
445.285	31039
445.357	80604
445.428	220369
445.500	306783
445.571	251127
445.642	162580
445.714	61100
445.785	23995
445.856	11631
445.928	8952
445.999	6772
446.070	5410
446.141	4196
446.213	4500
446.284	2682
446.355	3461
446.426	2785
446.497	2788
446.569	1977
446.640	2165
446.711	2459
446.782	2322
446.853	1714
446.924	1672
446.995	2186
447.066	1628
447.138	1708
447.209	2111
447.280	1326
447.351	1290
447.422	1032
447.493	1714
447.564	278
447.635	2005
447.706	565
447.777	492
447.847	1159
447.918	201
447.989	776
448.060	1586
448.131	1643
448.202	908
448.273	892
448.344	1967
448.414	724
448.485	1075
448.556	1989
448.627	698
448.698	1597
448.768	1047
448.839	437
448.910	1062
448.981	1452
449.051	790
449.122	257
449.193	897
449.263	812
449.334	1134
449.405	697
449.475	1934
449.546	1591
449.616	2235
449.687	1369
449.758	562
449.828	341
449.899	1398
449.969	737
450.040	613
450.110	841
450.181	1028
450.251	445
450.322	1644
450.392	624
450.463	871
450.533	-108
450.604	1489
450.674	690
450.744	2905
450.815	1909
450.885	2271
450.955	2069
451.026	2546
451.096	1710
451.166	1658
451.237	2964
451.307	3807
451.377	1923
451.447	1849
451.518	1720
451.588	1368
451.658	574
451.728	1095
451.799	1709
451.869	2459
451.939	775
452.009	1368
452.079	997
452.149	2469
452.219	1262
452.289	2733
452.360	2163
452.430	2159
452.500	2595
452.570	5657
452.640	14952
452.710	34633
452.780	33731
452.850	16943
452.920	7318
452.990	4809
453.060	3198
453.129	1709
453.199	2110
453.269	3707
453.339	4415
453.409	5153
453.479	5047
453.549	6181
453.619	6339
453.688	2558
453.758	1745
453.828	1826
453.898	613
453.968	1239
454.037	601
454.087	1039
454.107	1211
454.168	233
454.177	81
454.247	1079
454.249	1045
454.316	-112
454.330	200
454.386	1401
454.411	1340
454.456	1156
454.492	1398
454.525	1651
454.574	1073
454.595	787
454.655	946
454.665	971
454.734	1277
454.736	1299
454.804	1670
454.817	1715
454.873	1840
454.898	1849
454.943	1818
454.979	1213
455.013	694
455.060	1041
455.082	1157
455.141	1012
455.152	995
455.221	2185
455.222	2195
455.291	1852
455.303	1957
455.360	2566
455.384	3316
455.430	4471
455.465	3493
455.499	2533
455.546	1805
455.569	1499
455.627	1513
455.638	1543
455.707	1143
455.708	1159
455.777	1120
455.789	1063
455.846	859
455.869	1087
455.916	1489
455.950	1225
455.985	1006
456.031	1436
456.054	1578
456.112	1110
456.124	1071
456.193	1893
456.193	1883
456.262	1614
456.274	1599
456.332	1709
456.355	1673
456.401	1489
456.436	1632
456.470	1773
456.516	1955
456.540	1954
456.597	1482
456.609	1450
456.678	1716
456.678	1704
456.747	1926
456.759	1775
456.817	1307
456.840	1608
456.886	1903
456.920	1793
456.955	1891
457.001	2007
457.024	1890
457.082	1981
457.093	2056
457.162	2304
457.163	2316
457.232	2383
457.243	2326
457.301	2184
457.324	2280
457.370	2308
457.405	2447
457.439	2903
457.485	3045
457.508	2950
457.566	4750
457.577	5412
457.646	7430
457.647	7492
457.715	15443
457.727	17632
457.784	28572
457.808	39072
457.853	54128
457.889	59980
457.922	60910
457.969	42576
457.991	39774
458.050	45771
458.060	46611
458.129	81537
458.130	82297
458.198	86146
458.211	77269
458.267	42579
458.292	31245
458.336	20610
458.372	19998
458.405	26039
458.453	38237
458.474	43961
458.533	74828
458.543	77696
458.611	124891
458.614	124859
458.680	80476
458.694	65654
458.749	28954
458.775	21285
458.818	12932
458.855	9849
458.887	7706
458.936	6191
458.955	5738
459.016	4430
459.024	4370
459.093	5361
459.097	5326
459.162	3282
459.177	3194
459.230	3876
459.257	4018
459.299	3588
459.338	3337
459.368	3463
459.418	3468
459.437	3323
459.499	3232
459.505	3250
459.574	2813
459.579	2845
459.643	2968
459.659	2783
459.711	2684
459.740	3116
459.780	3221
459.820	2680
459.849	2541
459.900	2996
459.917	3067
459.981	2779
459.986	2757
460.054	3125
460.061	3125
460.123	3096
460.141	3209
460.191	3560
460.222	3324
460.260	2701
460.302	2533
460.328	2815
460.382	3437
460.397	3514
460.462	3181
460.465	3333
460.534	8203
460.543	8777
460.602	17030
460.623	20556
460.671	28909
460.703	38703
460.739	36978
460.783	26502
460.808	22559
460.864	7099
460.876	5283
460.944	3365
460.945	3343
461.013	3228
461.024	3123
461.081	2681
461.104	2946
461.150	3415
461.184	3366
461.218	3277
461.264	3225
461.286	3203
461.345	3052
461.355	2993
461.423	2865
461.425	2847
461.491	2497
461.505	2661
461.559	2870
461.585	2523
461.628	2830
461.665	3761
461.696	3974
461.745	3645
461.764	3604
461.825	3515
461.832	3439
461.901	2993
461.905	2962
461.969	2797
461.985	2694
462.037	3210
462.065	3761
462.105	3672
462.145	3134
462.173	3240
462.225	3934
462.241	3979
462.305	3782
462.310	3767
462.378	3663
462.385	3614
462.446	3550
462.465	3682
462.514	3283
462.545	2890
462.582	3236
462.625	3673
462.650	3377
462.705	2458
462.718	2493
462.785	3254
462.786	3251
462.854	2421
462.865	2396
462.922	3635
462.945	4040
462.990	3706
463.025	3191
463.058	3268
463.104	3487
463.126	3137
463.184	2638
463.194	2824
463.262	3435
463.264	3476
463.330	3315
463.344	3254
463.398	3820
463.424	3958
463.466	3256
463.504	2666
463.533	2900
463.583	3416
463.601	3496
463.663	3580
463.669	3579
463.737	3675
463.743	3668
463.805	3991
463.823	4194
463.873	4256
463.903	4041
463.940	3675
463.982	3500
464.008	3745
464.062	4006
464.076	3907
464.142	3836
464.144	3857
464.211	3861
464.221	3915
464.279	3145
464.301	2843
464.347	3434
464.381	3854
464.414	3574
464.461	3162
464.482	3148
464.540	3272
464.550	3315
464.617	3257
464.620	3263
464.685	4735
464.699	4988
464.753	3712
464.779	3088
464.820	3572
464.859	4106
464.888	3762
464.938	3233
464.956	3728
465.018	5206
465.023	5118
465.091	3960
465.098	3832
465.158	4231
465.177	4419
465.226	4383
465.257	4262
465.293	4308
465.336	4363
465.361	4318
465.416	4146
465.428	4228
465.495	4719
465.496	4717
465.563	3169
465.575	2938
465.631	4847
465.654	5638
465.698	4592
465.734	3676
465.765	3903
465.813	4141
465.833	4062
465.893	3922
465.900	4039
465.968	5060
465.972	5114
466.035	3631
466.052	3245
466.102	3878
466.131	4238
466.170	3775
466.210	3228
466.237	3660
466.290	4567
466.304	4520
466.369	4152
466.372	4156
466.439	4202
466.449	4174
466.506	4299
466.528	4383
466.573	5150
466.607	5667
466.641	5142
466.687	4438
466.708	4991
466.766	6455
466.775	6218
466.842	4432
466.845	4337
466.909	5187
466.925	5388
466.977	5111
467.004	4961
467.044	5096
467.083	5216
467.111	5164
467.163	5037
467.178	5136
467.242	5510
467.245	5484
467.312	4793
467.321	4694
467.379	5036
467.400	5147
467.446	5262
467.480	5332
467.559	5211
467.638	5030
467.717	5314
467.796	5739
467.875	6547
467.955	5753
468.034	8081
468.113	8717
468.192	11485
468.271	11303
468.350	16441
468.429	22223
468.508	23550
468.588	13626
468.667	9945
468.746	6612
468.825	6600
468.904	5577
468.983	6146
469.062	5605
469.141	6777
469.220	4675
469.299	5551
469.378	4532
469.456	5621
469.535	4982
469.614	5276
469.693	4935
469.772	5389
469.851	6090
469.930	5347
470.009	5840
470.088	6177
470.166	4494
470.245	7364
470.324	5507
470.403	6339
470.482	4800
470.560	5813
470.639	4408
470.718	6879
470.797	4545
470.875	5353
470.954	3259
471.033	6221
471.111	4565
471.190	5177
471.269	3631
471.347	4899
471.426	4308
471.505	6206
471.583	5038
471.662	6457
471.740	4303
471.819	5508
471.898	5251
471.976	5175
472.055	5530
472.133	5742
472.212	6814
472.290	5011
472.369	4553
472.447	6210
472.526	5472
472.604	5176
472.683	5748
472.761	5615
472.839	5052
472.918	5327
472.996	4376
473.075	5637
473.153	4909
473.231	5448
473.310	4615
473.388	6372
473.466	5067
473.545	6287
473.623	5020
473.701	5765
473.780	4916
473.858	4550
473.936	6037
474.014	5578
474.093	5721
474.171	6325
474.249	6427
474.327	5790
474.405	4742
474.484	6052
474.562	5020
474.640	5176
474.718	5047
474.796	5638
474.874	5450
474.952	5429
475.030	4968
475.108	6022
475.187	4491
475.265	5679
475.343	4980
475.421	5401
475.499	5001
475.577	5213
475.655	6178
475.733	6671
475.811	5837
475.889	6515
475.966	5661
476.044	4528
476.122	4713
476.200	4996
476.278	3860
476.356	5363
476.434	5367
476.512	6919
476.590	4818
476.667	6807
476.745	4818
476.823	6617
476.901	5302
476.979	4920
477.056	5136
477.134	5267
477.212	5366
477.290	5806
477.367	4861
477.445	5539
477.523	4962
477.601	5730
477.678	5016
477.756	5550
477.834	5162
477.911	5450
477.989	4480
478.066	5463
478.144	4913
478.222	5906
478.299	5843
478.377	6501
478.454	5703
478.532	6778
478.609	4517
478.687	5727
478.764	4507
478.842	5840
478.919	3878
478.997	5677
479.074	3834
479.152	5160
479.229	5070
479.307	5050
479.384	4795
479.461	6013
479.539	4176
479.616	5033
479.694	4116
479.771	5636
479.848	4249
479.926	4239
480.003	6562
480.080	6043
480.157	4685
480.235	5140
480.312	5156
480.389	5587
480.467	4869
480.544	7088
480.621	6157
480.698	6931
480.775	5808
480.853	6865
480.930	5661
481.007	6903
481.084	6481
481.161	9298
481.238	7728
481.315	5873
481.392	4821
481.470	6377
481.547	5470
481.624	6272
481.701	6142
481.778	5991
481.855	6212
481.932	7579
482.009	7235
482.086	8517
482.163	8687
482.240	10771
482.317	9494
482.393	8599
482.470	7836
482.547	8785
482.624	6438
482.701	7122
482.778	6254
482.855	7650
482.932	6383
483.009	8441
483.085	8127
483.162	10992
483.239	11377
483.316	10266
483.393	10247
483.469	9322
483.546	7544
483.623	7646
483.699	6530
483.776	6996
483.853	5932
483.930	7207
484.006	6581
484.083	9567
484.160	8971
484.236	11798
484.313	9237
484.389	10239
484.466	11637
484.543	12593
484.619	14663
484.696	16836
484.772	11319
484.849	10056
484.925	8956
485.002	8596
485.078	7685
485.155	6966
485.231	6760
485.308	7328
485.384	6918
485.461	8415
485.537	7264
485.614	8680
485.690	6505
485.766	7520
485.843	6520
485.919	7280
485.995	6086
486.072	7277
486.148	6393
486.224	6811
486.301	6680
486.377	6974
486.453	6140
486.530	8082
486.606	8702
486.682	9028
486.758	9209
486.835	9121
486.911	7648
486.987	11460
487.063	10620
487.139	12694
487.215	13608
487.292	14941
487.368	15102
487.444	18951
487.520	25768
487.596	42018
487.672	112848
487.748	295260
487.824	422059
487.900	163142
487.976	48649
488.052	25322
488.128	18017
488.204	13133
488.280	11734
488.356	10487
488.432	10865
488.508	12216
488.584	7810
488.660	8238
488.736	6981
488.812	6713
488.888	7610
488.964	7800
489.039	7646
489.115	10068
489.191	8529
489.267	7219
489.343	7619
489.418	6297
489.494	6731
489.570	5749
489.646	8379
489.722	7404
489.797	7281
489.873	7825
489.949	7446
490.024	8143
490.100	6706
490.176	7163
490.251	5943
490.327	7262
490.403	7017
490.478	7492
490.554	5840
490.629	6510
490.705	5455
490.781	7671
490.856	5947
490.932	6528
491.007	6487
491.083	5773
491.158	5700
491.234	6335
491.309	6330
491.385	5626
491.460	5686
491.536	7681
491.611	4840
491.686	5897
491.762	5483
491.837	6600
491.913	7736
491.988	9841
492.063	7858
492.139	7196
492.214	5330
492.289	6370
492.365	5069
492.440	6392
492.515	4511
492.590	5896
492.666	4308
492.741	6559
492.816	4562
492.891	6169
492.967	5517
493.042	5919
493.117	3775
493.192	5812
493.267	6752
493.342	10006
493.418	10944
493.493	5903
493.568	5545
493.643	5973
493.718	4772
493.793	5595
493.868	5407
493.943	5729
494.018	4697
494.093	5599
494.168	5037
494.243	4840
494.318	4416
494.393	5305
494.468	3932
494.543	6096
494.618	4440
494.693	5022
494.768	4686
494.842	5224
494.917	5189
494.992	5354
495.067	4412
495.142	5450
495.217	4517
495.292	5488
495.366	4773
495.441	4637
495.516	5248
495.591	6226
495.665	7560
495.740	12163
495.815	6834
495.890	5430
495.964	2789
496.039	8039
496.114	5792
496.188	9393
496.263	7335
496.338	5669
496.412	4518
496.487	5435
496.561	4545
496.636	5287
496.710	4828
496.785	5732
496.860	4647
496.934	5205
497.009	5007
497.083	5531
497.158	4794
497.232	6324
497.307	4689
497.381	5438
497.455	4600
497.530	5647
497.604	5102
497.679	6102
497.753	4392
497.827	5977
497.902	5118
497.976	6992
498.050	10767
498.125	24863
498.199	25214
498.273	7630
498.348	5139
498.422	6660
498.496	5026
498.570	6176
498.645	4631
498.719	5053
498.793	5225
498.867	6590
498.941	6882
499.016	14137
499.090	23406
499.164	13027
499.238	5442
499.312	6033
499.386	5535
499.460	6286
499.534	5742
499.609	6657
499.683	5438
499.757	6798
499.831	8180
499.905	17466
499.979	16138
500.053	6111
500.127	6266
500.201	5110
500.275	5069
500.349	5842
500.422	4909
500.496	6418
500.570	6759
500.644	13989
500.718	16994
500.792	8930
500.866	5753
500.940	5698
501.013	4706
501.087	6351
501.161	6133
501.235	6005
501.309	10650
501.382	15781
501.456	14423
501.530	7217
501.603	6584
501.677	6798
501.751	4156
501.825	6809
501.898	5942
501.972	8529
502.046	7343
502.119	4494
502.193	6593
502.266	8623
502.340	6810
502.413	7334
502.487	8066
502.561	6137
502.634	5246
502.708	7725
502.781	4671
502.855	6540
502.928	4389
503.002	6771
503.075	5082
503.149	5600
503.222	5293
503.295	6710
503.369	7199
503.442	7488
503.516	10810
503.589	14866
503.662	13948
503.736	13367
503.809	18024
503.882	21773
503.956	36280
504.029	77702
504.102	194295
504.175	270526
504.249	118506
504.322	45060
504.395	24088
504.468	16777
504.542	11672
504.615	8507
504.688	7732
504.761	6014
504.834	7606
504.907	6517
504.980	6105
505.053	5526
505.127	3002
505.200	7540
505.273	4460
505.346	4888
505.419	4316
505.492	6202
505.565	4281
505.638	5663
505.711	3552
505.784	3899
505.857	2438
505.930	6438
506.003	3138
506.076	6012
506.149	3882
506.221	3148
506.294	5303
506.367	4109
506.440	8043
506.513	7348
506.586	4241
506.659	4627
506.731	3831
506.804	4524
506.877	2698
506.950	5759
507.022	3902
507.095	3733
507.168	4227
507.241	3888
507.313	2998
507.386	3001
507.459	5105
507.531	3335
507.604	3001
507.677	5067
507.749	2644
507.822	5247
507.894	3927
507.967	7012
508.040	4215
508.112	5442
508.185	4858
508.257	3255
508.330	5047
508.402	4222
508.475	3475
508.547	4851
508.620	3520
508.692	5316
508.765	3826
508.837	4315
508.909	4173
508.982	3805
509.054	4163
509.127	3956
509.199	3704
509.271	3593
509.344	3439
509.416	4759
509.488	3482
509.560	5307
509.633	3924
509.705	3688
509.777	3834
509.849	5297
509.922	2521
509.994	4519
510.066	4774
510.138	3921
510.210	6616
510.283	5436
510.355	4361
510.427	5814
510.499	4163
510.571	4522
510.643	4336
510.715	5930
510.787	2657
510.859	6405
510.931	4061
511.003	4570
511.076	5017
511.148	4827
511.219	3801
511.291	5149
511.363	4871
511.435	4860
511.507	3247
511.579	5034
511.651	5475
511.723	4541
511.795	3647
511.867	4305
511.939	4180
512.010	5199
512.082	4485
512.154	2996
512.226	4948
512.298	5954
512.369	4563
512.441	5380
512.513	4053
512.585	3750
512.656	4822
512.728	5203
512.800	4095
512.871	5473
512.943	4152
513.015	3884
513.086	4726
513.158	5354
513.230	3381
513.301	5123
513.373	5183
513.444	4311
513.516	4121
513.588	4703
513.659	4722
513.731	4271
513.802	3805
513.874	5872
513.945	4697
514.016	4123
514.088	4253
514.159	3962
514.231	4684
514.302	6017
514.374	4123
514.445	3692
514.516	6733
514.588	4816
514.659	3501
514.730	4755
514.802	5237
514.873	2874
514.944	6237
515.016	5073
515.087	3222
515.158	5199
515.229	6241
515.301	4389
515.372	5210
515.443	4651
515.514	4292
515.585	4221
515.656	5629
515.728	6198
515.799	4323
515.870	5745
515.941	4671
516.012	4861
516.083	5780
516.154	4950
516.225	5785
516.296	6827
516.367	6199
516.438	5764
516.509	6262
516.580	10511
516.651	22632
516.722	57761
516.793	28110
516.864	8670
516.935	8895
517.006	8757
517.077	9879
517.148	24166
517.219	86038
517.289	127639
517.360	22622
517.431	11555
517.502	6039
517.573	8145
517.643	6689
517.714	7890
517.785	7382
517.856	8648
517.926	10411
517.997	12344
518.068	9993
518.138	16355
518.209	23380
518.280	75676
518.350	210823
518.421	94155
518.492	26984
518.562	30206
518.633	42159
518.703	71150
518.774	166719
518.845	377241
518.915	337584
518.986	107764
519.056	45272
519.127	27798
519.197	21614
519.268	19232
519.338	16549
519.408	12452
519.479	10289
519.549	8669
519.620	8429
519.690	7641
519.760	6890
519.831	6706
519.901	5432
519.971	6604
520.042	5988
520.112	6690
520.182	6416
520.253	7357
520.323	5373
520.393	5505
520.463	8212
520.534	3460
520.604	8649
520.674	7287
520.744	4958
520.814	7241
520.885	6625
520.955	7259
521.025	11795
521.095	8611
521.165	5955
521.235	5627
521.305	4927
521.375	6566
521.445	5601
521.515	5427
521.585	6520
521.655	4959
521.725	6834
521.795	6600
521.865	3083
521.935	8408
522.005	4843
522.075	5490
522.145	5722
522.215	5198
522.285	6042
522.355	6441
522.424	7618
522.494	5842
522.564	5328
522.634	7009
522.704	9118
522.774	6735
522.843	5570
522.913	6554
522.983	6166
523.053	5853
523.122	7052
523.192	5905
523.262	7029
523.331	7297
523.401	5984
523.471	6721
523.540	6785
523.610	5972
523.680	6712
523.749	6878
523.819	7396
523.888	6608
523.958	7178
524.027	6923
524.097	6373
524.166	7256
524.236	5568
524.305	8434
524.375	4781
524.444	6345
524.514	8405
524.583	6448
524.653	5032
524.722	8754
524.791	5102
524.861	8312
524.930	5515
524.999	7489
525.069	8996
525.138	9131
525.207	7069
525.277	9862
525.346	10256
525.415	11149
525.484	11772
525.554	13184
525.623	16221
525.692	21927
525.761	22073
525.830	28294
525.900	35505
525.969	60030
526.038	124335
526.107	265498
526.176	655217
526.245	487336
526.314	163388
526.383	343245
526.452	451887
526.522	577850
526.591	494116
526.660	100915
526.729	53618
526.797	57971
526.867	92273
526.935	281335
527.004	773736
527.073	484359
527.142	89924
527.211	39422
527.280	24771
527.349	18830
527.418	13376
527.487	14300
527.555	9841
527.624	10836
527.693	8581
527.762	9930
527.831	7078
527.899	9839
527.968	7063
528.037	6373
528.106	7763
528.174	8487
528.243	7396
528.312	8666
528.380	7844
528.449	7744
528.518	7903
528.586	6237
528.655	7771
528.723	7347
528.792	6728
528.861	6853
528.929	5800
528.998	8158
529.066	7771
529.135	10815
529.203	9029
529.272	11258
529.340	13986
529.409	14361
529.477	10693
529.545	11170
529.614	13130
529.682	13673
529.751	13571
529.819	18778
529.887	17265
529.956	14849
530.024	15001
530.092	13798
530.161	14037
530.229	15069
530.297	14765
530.365	17417
530.434	15851
530.502	16037
530.570	15552
530.638	12660
530.707	13529
530.775	14950
530.843	12627
530.911	15233
530.979	14905
531.047	17281
531.115	15505
531.183	15821
531.252	13923
531.320	14567
531.388	12842
531.456	15935
531.524	14231
531.592	17870
531.660	19164
531.728	16421
531.796	14999
531.864	15959
531.932	15502
532.000	15815
532.067	16625
532.135	18650
532.203	19472
532.271	20323
532.339	20247
532.407	21203
532.475	19561
532.542	19513
532.610	18584
532.678	18377
532.746	23992
532.814	30857
532.881	21641
532.949	20427
533.017	18392
533.084	17659
533.152	17075
533.220	17357
533.287	17663
533.355	18994
533.423	19083
533.490	20149
533.558	18336
533.625	18545
533.693	17635
533.761	17863
533.828	17935
533.896	17308
533.963	19416
534.031	21311
534.098	23973
534.166	24769
534.233	22675
534.300	25954
534.368	24402
534.435	23994
534.503	24941
534.570	27395
534.637	27960
534.705	31174
534.772	38932
534.840	83844
534.907	317420
534.974	344239
535.041	54226
535.109	29249
535.176	23354
535.243	24404
535.310	22102
535.378	21912
535.445	20461
535.512	20739
535.579	21003
535.646	19770
535.714	20432
535.781	22324
535.848	21737
535.915	23060
535.982	20559
536.049	21116
536.116	21030
536.183	19984
536.250	18155
536.317	19941
536.384	20548
536.451	22098
536.518	21482
536.585	19572
536.652	21953
536.719	22283
536.786	18345
536.853	19993
536.920	21175
536.987	21190
537.053	19379
537.120	24844
537.187	25251
537.254	22062
537.321	20193
537.388	24389
537.454	20201
537.521	21842
537.588	19798
537.654	22014
537.721	22009
537.788	22714
537.855	21014
537.921	22114
537.988	18993
538.055	21295
538.121	17711
538.188	18420
538.254	18253
538.321	19723
538.388	19844
538.454	23916
538.521	23002
538.587	22856
538.654	22013
538.720	22256
538.787	21971
538.853	22311
538.920	19971
538.986	19086
539.053	18183
539.119	20088
539.185	19913
539.252	22589
539.318	20724
539.385	24196
539.451	20991
539.517	22516
539.583	21695
539.650	22050
539.716	22694
539.782	20327
539.849	18120
539.915	21122
539.981	19513
540.047	19659
540.114	19177
540.180	22417
540.246	20001
540.312	23653
540.378	21069
540.444	23028
540.510	22460
540.576	25622
540.643	20905
540.709	20469
540.775	20140
540.841	19962
540.907	19492
540.973	21389
541.039	20261
541.105	21360
541.171	21366
541.237	22643
541.303	21608
541.369	24409
541.435	22612
541.500	21674
541.566	19025
541.632	20731
541.698	20204
541.764	23665
541.830	19700
541.896	19648
541.961	20673
542.027	21140
542.093	22539
542.159	23868
542.224	19078
542.290	23714
542.356	20261
542.421	22570
542.487	19981
542.553	19899
542.618	20567
542.684	20895
542.750	19768
542.815	21994
542.881	21839
542.947	25141
543.012	24238
543.078	19998
543.143	19830
543.209	20623
543.274	18609
543.340	19647
543.405	21696
543.471	22895
543.536	21453
543.602	21916
543.667	20142
543.732	22374
543.798	21555
543.863	23017
543.928	21943
543.994	22089
544.059	23469
544.124	23967
544.190	22823
544.255	24006
544.320	23014
544.386	23190
544.451	23970
544.516	24292
544.581	22789
544.646	27274
544.712	26535
544.777	25316
544.842	24633
544.907	24311
544.972	24116
545.037	26093
545.102	25551
545.168	27000
545.233	26383
545.298	28314
545.363	26381
545.428	29075
545.493	30178
545.558	30019
545.623	28228
545.688	29144
545.753	29493
545.818	31476
545.883	33288
545.947	33793
546.012	33969
546.077	35331
546.142	38081
546.207	38080
546.272	40989
546.337	40923
546.401	43130
546.466	45601
546.531	46922
546.596	51687
546.661	51700
546.725	55952
546.790	57069
546.855	62727
546.919	68516
546.984	76937
547.049	80397
547.113	92611
547.178	102270
547.243	117013
547.307	134238
547.372	147273
547.436	146251
547.501	156386
547.565	165738
547.630	150124
547.695	146788
547.759	149829
547.823	147598
547.888	151795
547.952	156163
548.017	164304
548.081	167585
548.146	164141
548.210	168228
548.274	184942
548.339	177246
548.403	163335
548.468	153342
548.532	153400
548.596	154595
548.660	157071
548.725	172159
548.789	183888
548.853	178242
548.917	172303
548.982	166547
549.046	149328
549.110	135440
549.174	143568
549.238	165238
549.303	182186
549.367	185472
549.431	175305
549.495	165306
549.559	168631
549.623	193886
549.687	208162
549.751	203875
549.815	242418
549.879	243084
549.943	236883
550.007	246016
550.071	243026
550.135	218115
550.199	211672
550.263	207741
550.327	197713
550.391	203075
550.455	225013
550.519	234757
550.582	249980
550.646	281438
550.710	280021
550.774	277806
550.838	282778
550.901	289136
550.965	307862
551.029	319261
551.093	342385
551.156	375424
551.220	415449
551.284	430312
551.347	351693
551.411	307378
551.475	295967
551.538	303022
551.602	283841
551.666	270109
551.729	254849
551.793	248673
551.856	245621
551.920	242290
551.983	243630
552.047	238917
552.110	243729
552.174	247448
552.237	249455
552.301	232897
552.364	224547
552.428	218921
552.491	227430
552.554	227336
552.618	228531
552.681	231583
552.745	220956
552.808	230413
552.871	242542
552.934	236391
552.998	230162
553.061	223958
553.124	218178
553.187	217710
553.251	224161
553.314	223525
553.377	227842
553.440	243672
553.503	252284
553.567	252194
553.630	246211
553.693	243996
553.756	247558
553.819	240008
553.882	234234
553.945	234015
554.008	233709
554.071	237155
554.134	237259
554.197	226456
554.260	222130
554.323	225263
554.386	228694
554.449	236456
554.512	234860
554.575	227302
554.638	226024
554.701	225371
554.764	221983
554.827	214073
554.889	207352
554.952	196512
555.015	195506
555.078	198606
555.141	200275
555.203	194147
555.266	195505
555.329	193539
555.391	186652
555.454	183709
555.517	178001
555.580	172191
555.642	167922
555.705	165378
555.768	163741
555.830	158844
555.893	151272
555.955	147038
556.018	147247
556.080	145099
556.143	150372
556.206	145347
556.268	143484
556.330	140797
556.393	137666
556.455	133406
556.518	130200
556.580	127321
556.643	122846
556.705	120566
556.767	119092
556.830	117302
556.892	115525
556.955	112525
557.017	110448
557.079	109801
557.142	107733
557.204	106346
557.266	107051
557.328	98459
557.391	92882
557.453	91053
557.515	90383
557.577	91654
557.639	92876
557.701	90691
557.764	91060
557.826	89282
557.888	92470
557.950	94811
558.012	102327
558.074	130716
558.136	277300
558.198	517602
558.260	191780
558.322	100087
558.384	95977
558.446	97294
558.508	103119
558.570	107324
558.632	121679
558.694	154188
558.756	266689
558.818	677072
558.880	1068727
558.942	544578
559.003	566910
559.065	258592
559.127	120781
559.189	110982
559.251	120644
559.312	173505
559.374	403754
559.436	874896
559.498	432348
559.559	137929
559.621	110507
559.683	123229
559.744	206964
559.806	563794
559.868	650917
559.929	181487
559.991	126994
560.052	214609
560.114	513094
560.176	306033
560.237	336306
560.299	436573
560.360	107663
560.422	55695
560.483	48816
560.545	46202
560.606	44623
560.667	41238
560.729	40547
560.790	38806
560.852	37394
560.913	36469
560.974	35542
561.036	34953
561.097	35992
561.158	34327
561.220	35393
561.281	32395
561.342	31785
561.403	32462
561.465	32286
561.526	32805
561.587	33596
561.648	30133
561.709	30521
561.771	29913
561.832	29080
561.893	28493
561.954	29661
562.015	27852
562.076	27892
562.137	26273
562.198	27325
562.259	27948
562.320	27685
562.381	27983
562.442	27218
562.503	25311
562.564	27189
562.625	25227
562.686	26015
562.747	24777
562.808	25534
562.869	23906
562.930	25009
562.991	24607
563.051	24115
563.112	23465
563.173	24086
563.234	22794
563.294	23589
563.355	22218
563.416	23090
563.477	21466
563.537	22954
563.598	23266
563.659	22395
563.720	20950
563.780	21739
563.841	21804
563.901	21379
563.962	21477
564.023	21787
564.083	21720
564.144	21746
564.204	20465
564.265	21767
564.325	21105
564.386	22206
564.446	21150
564.507	21220
564.567	19241
564.628	20069
564.688	18894
564.749	20093
564.809	20651
564.869	20723
564.930	20174
564.990	21174
565.050	18726
565.111	19968
565.171	18981
565.231	19856
565.292	20130
565.352	18466
565.412	19503
565.472	20918
565.532	19784
565.593	19932
565.653	18509
565.713	19448
565.773	19695
565.833	20418
565.893	20017
565.953	19342
566.013	17668
566.074	19055
566.134	17684
566.194	18752
566.254	18855
566.314	18666
566.374	17591
566.434	18159
566.494	17649
566.554	18519
566.614	18140
566.673	19776
566.733	19895
566.793	19441
566.853	19256
566.913	19934
566.973	18439
567.033	19723
567.092	19693
567.152	18882
567.212	19129
567.272	20154
567.331	19652
567.391	20511
567.451	20962
567.511	21459
567.570	20172
567.630	20187
567.690	19851
567.749	19039
567.809	18509
567.868	19769
567.928	18547
567.988	20314
568.047	19922
568.107	18930
568.166	20304
568.226	21300
568.285	21326
568.345	22318
568.404	21033
568.464	21128
568.523	18400
568.582	21080
568.642	20060
568.701	20083
568.761	20096
568.820	23122
568.879	22287
568.939	23358
568.998	20294
569.057	19046
569.116	20014
569.176	20571
569.235	19000
569.294	19750
569.353	18997
569.413	18774
569.472	17780
569.531	18051
569.590	18244
569.649	19173
569.708	17507
569.767	19301
569.827	17888
569.886	18158
569.945	17966
570.004	18886
570.063	18308
570.122	19511
570.181	18982
570.240	19427
570.299	19094
570.358	19078
570.417	18718
570.475	19304
570.534	18798
570.593	18935
570.652	18816
570.711	19665
570.770	17472
570.829	18391
570.887	19348
570.946	20036
571.005	18586
571.064	20314
571.122	19967
571.181	19320
571.240	18561
571.299	17729
571.357	18034
571.416	18590
571.475	19002
571.533	21166
571.592	19773
571.650	20375
571.709	20145
571.768	23655
571.826	23074
571.885	22234
571.943	19362
572.002	18878
572.060	18881
572.119	18852
572.177	18129
572.236	19219
572.294	19283
572.352	21157
572.411	18841
572.469	18605
572.528	18287
572.586	17971
572.644	17458
572.703	18562
572.761	17069
572.819	18435
572.877	15803
572.936	16708
572.994	15505
573.052	16561
573.110	17045
573.169	18714
573.227	17555
573.285	18627
573.343	17717
573.401	16729
573.459	17453
573.517	18383
573.576	18047
573.634	18723
573.692	17674
573.750	18259
573.808	16882
573.866	16831
573.924	16541
573.982	17650
574.040	16460
574.098	16794
574.155	15963
574.213	16460
574.271	16556
574.329	18337
574.387	16529
574.445	16478
574.503	14750
574.560	15837
574.618	15305
574.676	15133
574.734	14780
574.792	15431
574.849	14674
574.907	13007
574.965	12649
575.022	12911
575.080	12975
575.138	13340
575.195	12218
575.253	12505
575.311	12139
575.368	13768
575.426	11841
575.483	14331
575.541	13004
575.598	13237
575.656	12717
575.713	13837
575.771	13563
575.828	14119
575.886	12387
575.943	13630
576.001	11959
576.058	11899
576.115	11557
576.173	14024
576.230	12428
576.287	13974
576.345	13012
576.402	13818
576.459	12953
576.517	12657
576.574	12799
576.631	11957
576.688	10842
576.746	11715
576.803	11218
576.860	11799
576.917	11886
576.974	12550
577.031	11042
577.089	12041
577.146	10272
577.203	11454
577.260	11478
577.317	10933
577.374	10663
577.431	12130
577.488	10675
577.545	11416
577.602	10850
577.659	11571
577.716	10513
577.773	11844
577.830	10787
577.886	11755
577.943	9977
578.000	11327
578.057	10807
578.114	11648
578.171	11581
578.227	11937
578.284	10875
578.341	11864
578.398	10964
578.454	11525
578.511	10179
578.568	11850
578.625	10581
578.681	11241
578.738	10592
578.794	11892
578.851	10230
578.908	12347
578.964	10775
579.021	11025
579.077	10836
579.134	11861
579.190	10731
579.247	12171
579.303	10662
579.360	10090
579.416	11110
579.473	11603
579.529	9999
579.586	11558
579.642	11305
579.698	11379
579.755	10993
579.811	11047
579.867	11472
579.924	11991
579.980	10824
580.036	12480
580.093	12379
580.149	13680
580.205	13183
580.261	12966
580.317	12761
580.374	13229
580.430	11954
580.486	12934
580.542	11021
580.598	12844
580.619	12420
580.654	11693
580.692	12113
580.710	12339
580.765	11953
580.767	11951
580.823	13445
580.838	13334
580.879	13067
580.911	12675
580.935	12418
580.984	12839
580.991	12908
581.047	13517
581.057	13189
581.103	11757
581.130	12540
581.159	13362
581.203	12936
581.215	12844
581.270	13067
581.276	12926
581.326	11632
581.349	12224
581.382	13169
581.422	13004
581.438	12915
581.494	12031
581.494	12014
581.550	10770
581.567	11694
581.606	13687
581.640	12104
581.661	11158
581.713	13538
581.717	13731
581.773	12853
581.786	12911
581.829	13120
581.859	12805
581.885	12541
581.932	13238
581.940	13381
581.996	13126
582.004	13194
582.052	13465
582.077	13042
582.107	12632
582.150	13328
582.163	13513
582.219	12760
582.223	12793
582.274	13362
582.296	13218
582.330	12893
582.368	13112
582.386	13292
582.441	12837
582.441	12837
582.497	13668
582.514	13392
582.552	12931
582.587	13392
582.608	13582
582.659	13383
582.663	13384
582.719	13924
582.732	13841
582.774	13589
582.805	14350
582.830	14943
582.877	14408
582.885	14316
582.941	15718
582.950	15657
582.996	15428
583.023	16290
583.052	17366
583.095	16724
583.107	16461
583.162	16681
583.168	16511
583.218	14986
583.240	15216
583.273	15570
583.313	15142
583.328	14983
583.384	14815
583.385	14801
583.439	14384
583.458	14542
583.494	14806
583.531	14335
583.549	14208
583.603	14756
583.605	14759
583.660	14367
583.676	14271
583.715	14283
583.748	14215
583.770	14087
583.820	14259
583.825	14302
583.881	14469
583.893	14600
583.936	14862
583.965	14452
583.991	14163
584.038	14878
584.046	14987
584.101	14414
584.110	14554
584.156	15473
584.183	15370
584.211	15005
584.255	15253
584.266	15430
584.321	15122
584.328	15241
584.376	15975
584.400	16069
584.431	16293
584.472	17027
584.486	17195
584.541	17033
584.545	17093
584.596	18262
584.617	17600
584.651	16765
584.689	18277
584.706	18779
584.761	18962
584.762	18965
584.816	20033
584.834	20410
584.871	21177
584.906	22026
584.926	22231
584.978	22015
584.980	22042
585.035	24733
585.051	24988
585.090	25834
585.123	27440
585.145	28567
585.195	30334
585.200	30575
585.254	34647
585.267	35605
585.309	39420
585.340	42432
585.364	45398
585.412	53495
585.419	54884
585.473	68422
585.484	72451
585.528	95987
585.556	120526
585.583	164526
585.628	268424
585.637	304974
585.692	611452
585.700	648920
585.747	758401
585.772	675881
585.801	451478
585.845	196627
585.856	164185
585.910	83395
585.917	75293
585.965	56253
585.989	49172
586.019	44706
586.061	38828
586.074	37504
586.128	34519
586.133	34213
586.183	31965
586.205	31267
586.237	30636
586.277	29197
586.292	28865
586.346	29273
586.349	29209
586.401	28220
586.421	28120
586.455	28010
586.493	27841
586.509	28038
586.564	29096
586.565	29103
586.618	31711
586.637	32864
586.672	35830
586.709	39556
586.727	41401
586.781	46159
586.781	46183
586.835	36855
586.853	34567
586.889	31235
586.925	28752
586.944	28228
586.996	27773
586.998	27811
587.052	27335
587.068	27626
587.106	28245
587.140	27828
587.161	27716
587.212	28701
587.215	28747
587.269	28441
587.284	28387
587.323	29168
587.356	29647
587.377	29776
587.427	30770
587.431	30875
587.485	30713
587.499	30956
587.539	31991
587.571	32259
587.593	32786
587.643	34841
587.648	35001
587.702	34877
587.715	35171
587.755	36023
587.786	35986
587.810	36168
587.858	36930
587.864	37010
587.917	36933
587.930	37048
587.971	37747
588.001	37505
588.025	37640
588.073	38662
588.079	38791
588.133	38994
588.145	39178
588.187	40219
588.217	40620
588.241	41549
588.288	43332
588.295	43621
588.348	45918
588.360	46300
588.402	47903
588.431	48856
588.456	49873
588.503	52323
588.510	53001
588.564	58160
588.575	59219
588.617	64441
588.646	68139
588.671	72595
588.718	82858
588.725	85902
588.778	112045
588.789	118650
588.832	177334
588.861	223108
588.886	293201
588.932	438595
588.939	448968
588.993	483086
589.004	479947
589.047	324422
589.075	227018
589.100	178627
589.147	104504
589.154	101777
589.207	83703
589.218	80262
589.261	78321
589.290	77236
589.314	80066
589.361	87877
589.368	91326
589.421	122115
589.433	129970
589.475	209674
589.504	272342
589.528	333538
589.576	440250
589.582	429017
589.635	272613
589.647	241235
589.689	146668
589.718	87306
589.742	77240
589.790	59493
589.795	59033
589.849	53800
589.861	52668
589.902	50723
589.932	49220
589.955	48205
590.004	45823
590.009	45782
590.062	44711
590.075	44358
590.115	43646
590.146	42850
590.168	43105
590.218	43894
590.222	43954
590.275	43492
590.289	43331
590.328	44726
590.360	45590
590.381	45478
590.431	45252
590.435	45354
590.488	45324
590.503	45331
590.541	46150
590.574	46590
590.594	46798
590.645	47380
590.647	47509
590.700	48289
590.716	48576
590.753	50457
590.787	51904
590.806	52015
590.859	51924
590.859	52052
590.912	54011
590.930	54740
590.965	54506
591.001	53758
591.018	53705
591.071	53395
591.072	53287
591.124	53015
591.143	52926
591.177	53282
591.214	53315
591.230	53802
591.283	55266
591.285	55204
591.336	54816
591.356	54593
591.389	54755
591.427	54722
591.442	54601
591.495	53529
591.498	53342
591.547	54174
591.569	54547
591.600	55468
591.640	56210
591.653	56486
591.706	57321
591.711	57284
591.759	58521
591.782	59040
591.811	60443
591.853	61950
591.864	62097
591.917	62353
591.924	62254
591.969	62267
591.995	62048
592.022	62379
592.066	62561
592.075	62957
592.127	64762
592.137	64931
592.180	66465
592.208	67297
592.233	67899
592.279	68622
592.285	68930
592.338	70325
592.350	70482
592.390	70404
592.421	70122
592.443	71498
592.491	74021
592.495	74134
592.548	73470
592.562	73135
592.600	73343
592.633	73233
592.653	73733
592.704	74225
592.705	74663
592.775	75206
592.846	78465
592.916	78128
592.987	78271
593.058	79454
593.128	79849
593.199	80988
593.270	80766
593.341	83571
593.411	85463
593.482	87294
593.553	92090
593.623	92119
593.694	95369
593.764	97499
593.835	95224
593.906	98936
593.976	98529
594.047	102545
594.117	106418
594.188	108582
594.258	107617
594.329	109586
594.399	111725
594.470	114283
594.540	118258
594.611	120782
594.681	121096
594.751	120096
594.822	126867
594.892	131589
594.963	134016
595.033	136317
595.103	140920
595.174	143263
595.244	146580
595.314	151456
595.384	152964
595.455	158150
595.525	162589
595.595	168972
595.665	168303
595.736	164282
595.806	167981
595.876	170411
595.946	172420
596.016	179069
596.087	184539
596.157	185052
596.227	186146
596.297	195507
596.367	208098
596.437	219824
596.507	217867
596.577	217649
596.647	225978
596.717	235532
596.787	239092
596.857	238019
596.927	240700
596.997	240591
597.067	242694
597.137	245941
597.207	248992
597.277	250230
597.347	240804
597.417	235077
597.487	233093
597.557	238939
597.626	245561
597.696	248819
597.766	246976
597.836	233775
597.906	225463
597.975	221751
598.045	224311
598.115	233056
598.185	248221
598.254	276302
598.324	299550
598.394	301650
598.464	292979
598.533	288508
598.603	272126
598.672	263332
598.742	270202
598.812	271809
598.881	277350
598.951	277016
599.020	282042
599.090	289512
599.159	295775
599.229	283579
599.299	277052
599.368	287629
599.437	282929
599.507	261602
599.576	253975
599.646	250516
599.715	247233
599.785	245464
599.854	240769
599.924	239810
599.993	236794
600.062	243257
600.132	250257
600.201	262402
600.270	299339
600.340	316016
600.409	309657
600.478	305121
600.547	312858
600.617	287055
600.686	237286
600.755	216834
600.824	206203
600.894	203577
600.963	206519
601.032	203805
601.101	198749
601.170	190924
601.239	188210
601.308	186420
601.378	187682
601.447	188452
601.516	190699
601.585	193601
601.654	196762
601.723	195821
601.792	204315
601.861	210686
601.930	215052
601.999	222259
602.068	217549
602.137	221345
602.206	223354
602.275	227253
602.343	229047
602.412	231536
602.481	233238
602.550	235147
602.619	241951
602.688	242632
602.756	244454
602.825	246114
602.894	250847
602.963	256313
603.032	260126
603.100	260614
603.169	260785
603.238	264265
603.307	261911
603.375	265989
603.444	271606
603.513	272033
603.581	273542
603.650	281328
603.719	268532
603.787	272499
603.856	278477
603.924	282295
603.993	294566
604.061	304643
604.130	316438
604.198	321069
604.267	325938
604.335	332144
604.404	335816
604.472	338836
604.541	341717
604.609	348636
604.678	350575
604.746	351988
604.815	361178
604.883	364011
604.951	360550
605.020	367837
605.088	369268
605.156	373029
605.225	380300
605.293	380310
605.361	380776
605.429	383524
605.498	389822
605.566	399311
605.634	417490
605.702	427016
605.771	439040
605.839	440455
605.907	427446
605.975	417345
606.043	409904
606.111	409359
606.180	408544
606.248	402982
606.316	396271
606.384	402061
606.452	396559
606.520	399414
606.588	410160
606.656	416442
606.724	404552
606.792	384521
606.860	353082
606.928	324739
606.996	310895
607.064	306718
607.132	316861
607.200	333165
607.267	342734
607.335	348414
607.403	356123
607.471	342224
607.539	335326
607.607	336634
607.674	298014
607.742	300561
607.810	299479
607.878	298610
607.946	303364
608.013	319168
608.081	322794
608.149	328374
608.216	336373
608.284	346488
608.352	344103
608.419	343164
608.487	335383
608.555	331155
608.622	343031
608.690	359017
608.757	392963
608.825	398790
608.893	391523
608.960	369495
609.028	354893
609.095	355290
609.163	352525
609.230	320092
609.298	294362
609.365	312635
609.432	333734
609.500	359920
609.567	406129
609.635	455215
609.702	474904
609.769	450877
609.837	360920
609.904	318782
609.971	330750
610.039	357483
610.106	426298
610.173	661235
610.241	1189323
610.308	828986
610.375	422523
610.442	351741
610.509	333954
610.577	335842
610.644	338707
610.711	347918
610.778	352947
610.845	369453
610.912	385601
610.980	398971
611.047	402607
611.114	394942
611.181	383505
611.248	384115
611.315	401836
611.382	411099
611.449	423948
611.516	429542
611.583	423681
611.650	429050
611.717	434513
611.784	439373
611.851	456263
611.918	477601
611.984	530209
612.051	654418
612.118	971087
612.185	1598275
612.252	1285686
612.319	677177
612.386	561120
612.452	514001
612.519	486913
612.586	472588
612.653	479589
612.719	492831
612.786	474217
612.853	446071
612.919	439140
612.986	441841
613.053	421849
613.120	399043
613.186	385086
613.253	390503
613.319	390528
613.386	389579
613.453	395447
613.519	397758
613.586	390857
613.652	395533
613.719	393443
613.785	396939
613.852	403416
613.918	400156
613.985	403121
614.051	416901
614.118	414203
614.184	399853
614.250	396834
614.317	407107
614.383	402982
614.449	409457
614.516	406643
614.582	408042
614.648	400904
614.715	400005
614.781	391270
614.847	389970
614.914	391523
614.980	382013
615.046	381753
615.112	393611
615.179	392660
615.245	396819
615.311	391190
615.377	397866
615.443	405257
615.509	404516
615.575	419900
615.642	417129
615.708	424568
615.774	441175
615.840	463418
615.906	487158
615.972	553165
616.038	715551
616.104	1134666
616.170	1734275
616.236	1574479
616.302	889345
616.368	714689
616.434	554180
616.500	505044
616.565	543873
616.631	656260
616.697	573177
616.763	568060
616.829	765037
616.895	1186853
616.961	1149381
617.026	638429
617.092	467199
617.158	428787
617.224	414778
617.289	385990
617.355	369607
617.421	362629
617.487	363166
617.552	346757
617.618	343215
617.684	342631
617.749	345558
617.815	331873
617.880	326782
617.946	325052
618.012	332669
618.077	338685
618.143	325282
618.208	328970
618.274	349074
618.339	349085
618.405	296630
618.470	295661
618.536	297465
618.601	291653
618.667	274564
618.732	259766
618.798	258023
618.863	259102
618.928	256195
618.994	259883
619.059	256727
619.124	258636
619.190	256068
619.255	255641
619.320	255392
619.386	256691
619.451	254191
619.516	247204
619.581	251329
619.647	258368
619.712	259442
619.777	248810
619.842	251283
619.907	253716
619.972	257699
620.038	255122
620.103	248640
620.168	248410
620.233	255787
620.298	254409
620.363	258772
620.428	263479
620.493	269364
620.558	273864
620.623	276844
620.688	273279
620.753	274059
620.818	279642
620.883	280165
620.948	280677
621.013	276469
621.078	272610
621.143	276637
621.207	277218
621.272	273148
621.337	265289
621.402	266262
621.467	261506
621.532	261941
621.596	264726
621.661	257050
621.726	255430
621.791	258253
621.855	258091
621.920	256874
621.985	259989
622.049	265264
622.114	263488
622.179	267630
622.243	272615
622.308	281473
622.373	290983
622.437	281888
622.502	268806
622.566	269211
622.631	266384
622.695	272231
622.760	269681
622.824	269767
622.889	270987
622.953	270883
623.018	283437
623.082	286909
623.147	283934
623.211	278676
623.276	277578
623.340	268727
623.404	262985
623.469	262590
623.533	265113
623.597	259954
623.662	258704
623.726	242438
623.790	229824
623.854	226776
623.919	227992
623.983	231083
624.047	235599
624.111	236514
624.176	238589
624.240	238908
624.304	246285
624.368	237857
624.432	241167
624.496	246445
624.560	255420
624.625	256678
624.689	254284
624.753	265404
624.817	252886
624.881	248245
624.945	228545
625.009	219750
625.073	225111
625.137	232064
625.201	239007
625.265	239563
625.329	229463
625.393	231860
625.456	235644
625.520	240253
625.584	240599
625.648	246918
625.712	252378
625.776	251895
625.839	238794
625.903	204961
625.967	193250
626.031	206266
626.095	237752
626.158	222955
626.222	178295
626.286	168732
626.349	161838
626.413	153077
626.477	151795
626.540	154056
626.604	152334
626.668	148787
626.731	147756
626.795	148974
626.858	146062
626.922	145567
626.986	143502
627.049	144219
627.113	149122
627.176	144775
627.240	140359
627.303	141462
627.366	139202
627.430	142609
627.493	139902
627.557	137050
627.620	138888
627.684	144657
627.747	146230
627.810	133027
627.874	122596
627.937	117305
628.000	121946
628.064	117907
628.127	107175
628.190	106271
628.253	102344
628.317	98896
628.380	93665
628.443	92606
628.506	90120
628.569	87878
628.632	83719
628.696	83167
628.759	83432
628.822	78579
628.885	77505
628.948	76513
629.011	75830
629.074	74410
629.137	71423
629.200	71120
629.263	70028
629.326	68616
629.389	67764
629.452	67840
629.515	65379
629.578	65396
629.641	66208
629.704	66484
629.767	65681
629.830	63827
629.892	62123
629.955	61548
630.018	64284
630.081	62212
630.144	63989
630.207	61199
630.269	62747
630.332	59764
630.395	59298
630.458	57542
630.520	55123
630.583	57655
630.646	57439
630.708	57438
630.771	58817
630.834	62921
630.896	60004
630.959	60047
631.021	57101
631.084	58462
631.146	59048
631.209	60190
631.272	58928
631.334	61260
631.397	61312
631.459	60664
631.522	64114
631.584	67248
631.646	69032
631.709	71996
631.771	71226
631.834	68876
631.896	65740
631.958	61628
632.021	61156
632.083	57126
632.145	58367
632.208	56719
632.270	56985
632.332	55435
632.395	54725
632.457	56253
632.519	54636
632.581	55422
632.643	53163
632.706	54693
632.768	51941
632.830	55527
632.892	55241
632.954	55969
633.016	56691
633.078	54871
633.141	55331
633.203	55807
633.265	55341
633.327	53933
633.389	55413
633.451	56287
633.513	56144
633.575	57284
633.637	55550
633.698	57875
633.760	61645
633.822	62831
633.884	62916
633.946	67250
634.008	67779
634.070	69474
634.132	72994
634.193	79067
634.255	86007
634.317	86203
634.379	84429
634.441	75821
634.502	71239
634.564	64013
634.626	59321
634.687	58143
634.749	55637
634.811	56993
634.873	53740
634.934	54862
634.996	55544
635.057	53852
635.119	55052
635.181	57002
635.242	58042
635.304	55592
635.365	58731
635.427	56787
635.488	56613
635.550	55939
635.611	57082
635.673	56410
635.734	61297
635.796	63683
635.857	70951
635.918	75205
635.980	81949
636.041	86767
636.102	92201
636.164	93489
636.225	88756
636.286	77750
636.348	70840
636.409	63627
636.470	59343
636.531	57049
636.593	54963
636.654	54311
636.715	51698
636.776	51712
636.838	49526
636.899	50185
636.960	47622
637.021	48010
637.082	47175
637.143	47140
637.204	45494
637.265	45355
637.326	46879
637.387	49229
637.448	46325
637.509	46881
637.570	45742
637.631	47492
637.692	43254
637.753	43306
637.814	43852
637.875	43972
637.936	44045
637.997	43609
638.058	42118
638.119	42618
638.179	42886
638.240	42822
638.301	42455
638.362	41931
638.423	40881
638.483	42051
638.544	39205
638.605	40857
638.666	39404
638.726	41114
638.787	40405
638.848	41459
638.908	39466
638.969	38482
639.030	37192
639.090	37031
639.151	37947
639.211	40239
639.272	39272
639.332	40384
639.393	40439
639.453	42456
639.514	44092
639.574	39817
639.635	36440
639.695	36656
639.756	35662
639.816	36575
639.877	36147
639.937	38359
639.997	37886
640.058	35734
640.118	34779
640.178	38164
640.239	35921
640.299	35990
640.359	36864
640.420	39994
640.480	43828
640.540	48960
640.600	49088
640.661	45390
640.721	41589
640.781	45371
640.841	41529
640.901	38379
640.961	38195
641.021	38537
641.082	40766
641.142	37606
641.202	36698
641.262	33386
641.322	35544
641.382	33830
641.442	34767
641.502	34517
641.562	34084
641.622	35462
641.682	37887
641.742	42990
641.802	41103
641.861	35849
641.921	33405
641.981	33905
642.041	31944
642.101	32500
642.161	31362
642.221	32221
642.280	31605
642.340	32249
642.400	32304
642.460	35130
642.519	33550
642.579	33447
642.639	33973
642.698	31755
642.758	35680
642.818	35318
642.877	33333
642.937	33150
642.997	32797
643.056	33845
643.116	32382
643.175	36641
643.235	35260
643.294	35911
643.354	38850
643.414	42340
643.473	46106
643.532	55108
643.592	69460
643.651	99936
643.711	155094
643.770	274776
643.830	575912
643.889	955050
643.948	380658
644.008	110208
644.067	66426
644.126	51226
644.186	43565
644.245	40303
644.304	36010
644.363	37869
644.423	34121
644.482	35395
644.541	37152
644.600	37776
644.659	48374
644.719	57035
644.778	79308
644.837	123435
644.896	238295
644.955	489831
645.014	189735
645.073	57319
645.132	43611
645.191	40735
645.250	38581
645.309	41619
645.368	44885
645.427	57817
645.486	95248
645.545	165070
645.604	55423
645.663	36537
645.722	35735
645.781	38824
645.840	42148
645.898	49890
645.957	64868
646.016	91168
646.075	147259
646.134	259652
646.192	586555
646.251	772480
646.310	217609
646.369	78917
646.427	62969
646.486	47879
646.545	38017
646.603	34463
646.662	32399
646.721	32697
646.779	31826
646.838	34164
646.896	40813
646.955	52720
647.014	76602
647.072	142140
647.131	353564
647.189	187586
647.248	40313
647.306	30179
647.365	28096
647.423	24987
647.481	25976
647.540	23214
647.598	24698
647.657	25071
647.715	24510
647.773	23497
647.832	23477
647.890	20031
647.948	20507
648.007	20679
648.065	19402
648.123	19978
648.181	20777
648.240	19779
648.298	19049
648.356	18866
648.414	19401
648.472	18039
648.531	18748
648.589	18062
648.647	18385
648.705	18859
648.763	18888
648.821	19885
648.879	20642
648.937	23448
648.995	26771
649.053	33400
649.111	48233
649.169	71824
649.227	120547
649.285	238843
649.343	573006
649.401	320104
649.459	62407
649.516	36816
649.574	27804
649.632	30388
649.690	34073
649.748	40413
649.806	55765
649.863	101246
649.921	265395
649.979	186822
650.037	33925
650.094	20517
650.152	18046
650.210	16939
650.268	16925
650.325	17209
650.383	17500
650.440	13980
650.498	14454
650.556	14885
650.613	13387
650.671	14212
650.728	14545
650.786	16771
650.843	22407
650.901	16790
650.958	12900
651.016	11556
651.073	12606
651.131	12416
651.188	11309
651.246	11980
651.303	10834
651.360	11297
651.418	10919
651.475	11541
651.532	9987
651.590	11672
651.647	10254
651.704	10708
651.762	11310
651.819	11154
651.876	10356
651.933	10161
651.990	11749
652.048	9099
652.105	9048
652.162	10338
652.219	9276
652.276	9582
652.333	10949
652.390	8639
652.448	9758
652.505	9335
652.562	9939
652.619	10047
652.676	9772
652.733	10716
652.790	8877
652.847	8706
652.904	9432
652.961	7904
653.017	8145
653.074	8855
653.131	9067
653.188	7866
653.245	8420
653.302	8898
653.359	8194
653.415	8836
653.472	8258
653.529	9355
653.586	8602
653.642	9142
653.699	9131
653.756	8211
653.813	8537
653.869	10006
653.926	8174
653.983	9368
654.039	9881
654.096	8193
654.152	8603
654.209	7858
654.266	8186
654.322	7562
654.379	7696
654.435	8652
654.492	7226
654.548	8418
654.605	7493
654.661	8899
654.717	8673
654.774	8422
654.830	7911
654.887	7443
654.943	7757
655.000	9444
655.056	8782
655.112	8334
655.168	7384
655.225	7970
655.281	8802
655.337	8164
655.394	8328
655.450	7806
655.506	7036
655.562	6972
655.618	8509
655.675	7435
655.731	7999
655.787	7533
655.843	7834
655.899	7410
655.955	7708
656.011	8078
656.067	6789
656.123	7455
656.179	7600
656.235	8630
656.291	6772
656.347	9636
656.403	7425
656.459	7981
656.515	7527
656.571	7755
656.627	8005
656.683	7689
656.739	7749
656.795	8369
656.850	8076
656.906	8130
656.962	8920
657.018	8859
657.074	10620
657.129	14808
657.185	22794
657.241	51829
657.297	30132
657.352	9918
657.408	7139
657.464	7968
657.519	6024
657.575	6731
657.630	6712
657.686	6992
657.742	5300
657.797	7125
657.853	6497
657.908	7171
657.964	6089
658.019	7347
658.075	6472
658.130	6922
658.186	6148
658.241	8170
658.297	5431
658.352	6767
658.407	6982
658.463	6084
658.518	6127
658.573	6649
658.629	6011
658.684	6695
658.739	6613
658.795	5819
658.850	6523
658.905	6181
658.960	6176
659.016	6006
659.071	6112
659.126	6590
659.181	5387
659.236	7023
659.291	7072
659.346	5586
659.401	6400
659.457	6883
659.512	5830
659.567	8142
659.622	4313
659.677	5352
659.732	5213
659.787	6078
659.842	5430
659.897	5495
659.952	6241
660.007	5885
660.061	5771
660.116	5949
660.171	5812
660.226	6036
660.281	7018
660.336	5131
660.391	5636
660.445	5524
660.500	5793
660.555	5934
660.610	5356
660.664	6018
660.719	5241
660.774	5527
660.828	5585
660.883	6331
660.938	5200
660.992	4506
661.047	5451
661.101	5087
661.156	5420
661.211	4152
661.265	4673
661.320	5487
661.374	5378
661.429	6098
661.483	5362
661.538	4572
661.592	5353
661.647	5663
661.701	7139
661.755	6189
661.810	5543
661.864	4988
661.919	3878
661.973	5584
662.027	5490
662.081	4475
662.136	4914
662.190	5474
662.244	5111
662.299	5152
662.353	4727
662.407	4738
662.461	4823
662.515	5118
662.569	4221
662.624	5190
662.678	3650
662.732	4189
662.786	4874
662.840	5582
662.894	4796
662.948	4389
663.002	5121
663.056	4860
663.110	4208
663.164	5194
663.218	5161
663.272	5966
663.326	5017
663.380	4817
663.434	5189
663.488	4831
663.542	5106
663.595	5076
663.649	4168
663.703	5706
663.757	5110
663.811	4570
663.864	5837
663.918	5441
663.972	4899
664.026	5581
664.079	4496
664.133	5866
664.187	5512
664.240	5467
664.294	5064
664.348	5460
664.401	5044
664.455	4491
664.508	4166
664.562	4381
664.615	5050
664.669	5167
664.722	4898
664.776	4728
664.829	4528
664.883	4703
664.936	4895
664.990	4667
665.043	5604
665.097	5216
665.150	5894
665.203	4819
665.257	4250
665.310	4888
665.363	5678
665.417	5844
665.470	5405
665.523	6485
665.576	5430
665.630	5540
665.683	5055
665.736	5890
665.789	5414
665.842	4662
665.895	4964
665.949	5593
666.002	5120
666.055	5616
666.108	5928
666.161	5460
666.214	5168
666.267	6760
666.320	5394
666.373	5664
666.426	6029
666.479	5619
666.532	6326
666.585	5765
666.638	6658
666.691	5856
666.744	6017
666.796	6248
666.849	5941
666.902	6077
666.955	5599
667.008	5458
667.060	5545
667.113	5864
667.166	6303
667.219	6729
667.271	6612
667.324	6577
667.377	5547
667.430	6799
667.482	4677
667.535	5691
667.587	5106
667.640	5530
667.693	4863
667.745	6013
667.798	6428
667.850	5481
667.903	5731
667.955	6149
668.008	5534
668.060	5667
668.113	5334
668.165	5594
668.218	6053
668.270	5608
668.322	5852
668.375	6289
668.427	6105
668.479	5339
668.532	6415
668.584	6426
668.636	5083
668.689	6181
668.741	5304
668.793	5780
668.845	4613
668.898	4934
668.950	5887
669.002	5695
669.054	5061
669.106	5092
669.158	5580
669.211	4773
669.263	5382
669.315	5749
669.367	5811
669.419	4767
669.471	5709
669.523	5519
669.575	5322
669.627	5256
669.679	4531
669.731	4902
669.783	5381
669.835	5289
669.886	4967
669.938	5072
669.990	5009
670.042	4815
670.094	5776
670.146	5565
670.197	5716
670.249	6472
670.301	5632
670.353	8231
670.404	9545
670.456	11842
670.508	16599
670.560	25194
670.611	39041
670.663	62741
670.715	140050
670.766	219912
670.818	72851
670.869	16131
670.921	10856
670.972	9749
671.024	7142
671.075	6650
671.127	6837
671.178	7437
671.230	7479
671.281	8597
671.333	8572
671.384	10987
671.436	14586
671.487	20250
671.538	28568
671.590	44057
671.641	69807
671.692	120944
671.744	219672
671.795	170221
671.846	66109
671.897	32234
671.949	20183
672.000	14798
672.051	11463
672.102	8775
672.153	8306
672.204	6677
672.256	6097
672.307	6138
672.358	5542
672.409	5079
672.460	5090
672.511	4707
672.562	4478
672.613	3929
672.664	4388
672.715	5494
672.766	4352
672.817	4293
672.868	3566
672.919	3551
672.970	3402
673.021	3983
673.071	4027
673.122	4034
673.173	3114
673.224	4271
673.275	3863
673.326	4089
673.376	3359
673.427	3519
673.478	3486
673.528	4635
673.579	3565
673.630	3782
673.680	5446
673.731	3146
673.782	3084
673.832	3963
673.883	2890
673.934	2880
673.984	3253
674.035	3114
674.085	3860
674.136	3838
674.186	3863
674.237	3881
674.287	3942
674.338	4181
674.388	3944
674.438	4644
674.489	4487
674.539	4367
674.589	4496
674.640	4647
674.690	4799
674.740	4101
674.791	4190
674.841	3530
674.891	3269
674.942	4094
674.992	2763
675.042	2387
675.092	2579
675.142	2717
675.193	2621
675.243	3324
675.293	3560
675.343	3988
675.393	2607
675.443	3179
675.493	3360
675.543	2629
675.593	3401
675.643	3468
675.693	2573
675.743	3341
675.793	2941
675.843	2030
675.893	2294
675.943	3312
675.993	1843
676.043	3257
676.093	2474
676.142	2547
676.192	2174
676.242	2771
676.292	2097
676.341	2782
676.391	1714
676.441	2254
676.491	2638
676.540	1988
676.590	1965
676.640	2273
676.689	1495
676.739	1435
676.789	2521
676.838	1297
676.888	1544
676.937	2042
676.987	2048
677.037	2170
677.086	1682
677.136	2278
677.185	1765
677.235	2651
677.284	2996
677.333	1896
677.383	1465
677.432	1763
677.482	2588
677.531	1914
677.580	1283
677.630	1831
677.679	1622
677.728	2968
677.778	1928
677.827	1933
677.876	1703
677.925	1365
677.975	2490
678.024	3348
678.073	2108
678.122	2491
678.171	2383
678.220	3615
678.269	4346
678.319	4018
678.368	4707
678.417	3606
678.466	2887
678.515	2748
678.564	2087
678.613	1772
678.662	1513
678.711	1734
678.760	2035
678.809	2094
678.857	2096
678.906	2824
678.955	1754
679.004	2472
679.053	2102
679.102	1816
679.151	1294
679.199	2070
679.248	1966
679.297	1864
679.346	1114
679.394	2234
679.443	1651
679.492	2441
679.540	1766
679.589	2096
679.638	2022
679.686	2420
679.735	2278
679.784	3176
679.832	3570
679.881	2596
679.929	2093
679.978	2024
680.026	1251
680.075	2737
680.123	1661
680.172	1691
680.220	1899
680.268	2699
680.317	1005
680.365	1545
680.414	1309
680.462	1293
680.510	1716
680.559	2064
680.607	2233
680.655	602
680.703	2016
680.752	2171
680.800	1745
680.848	1271
680.896	1069
680.945	1849
680.993	1392
681.041	1847
681.089	1008
681.137	2015
681.185	1584
681.233	1179
681.258	964
681.281	729
681.329	1324
681.377	1385
681.380	1473
681.425	2565
681.473	1477
681.502	2124
681.521	2513
681.569	2690
681.617	2295
681.624	2288
681.665	2012
681.713	3065
681.745	2548
681.761	2253
681.809	2480
681.857	2794
681.867	2726
681.904	2349
681.952	2053
681.989	2224
682.000	2240
682.048	1914
682.096	2370
682.111	2392
682.143	2346
682.191	3177
682.233	3368
682.239	3369
682.286	2454
682.334	2984
682.354	2753
682.382	2383
682.430	2740
682.476	2848
682.477	2822
682.525	3619
682.572	3250
682.598	3127
682.620	3003
682.667	3985
682.715	2996
682.720	3086
682.763	3555
682.810	3545
682.841	3604
682.857	3618
682.905	4094
682.952	3795
682.963	3888
683.000	4072
683.047	3703
683.085	4692
683.095	4936
683.142	3986
683.190	4055
683.206	4146
683.237	4265
683.284	4559
683.328	3502
683.332	3384
683.379	4262
683.426	4156
683.449	3708
683.473	3268
683.521	4826
683.568	4629
683.571	4688
683.615	5072
683.662	4896
683.693	4810
683.709	4734
683.757	4277
683.804	5018
683.814	4893
683.851	4352
683.898	4737
683.936	4364
683.945	4264
683.992	4709
684.039	4893
684.057	5038
684.086	5178
684.133	4348
684.179	4370
684.180	4354
684.227	4984
684.274	5406
684.300	5097
684.321	4841
684.368	5037
684.415	5182
684.422	5143
684.462	4845
684.509	5055
684.543	5541
684.556	5685
684.603	6067
684.649	5914
684.665	5780
684.696	5457
684.743	6966
684.786	6255
684.790	6165
684.837	6077
684.883	6136
684.908	5961
684.930	5926
684.977	6251
685.023	7088
685.029	6988
685.070	5861
685.117	5611
685.150	5916
685.164	6061
685.210	6533
685.257	6411
685.272	6553
685.303	6814
685.350	6540
685.393	6634
685.396	6616
685.443	6450
685.490	6793
685.514	6192
685.536	5736
685.583	6250
685.629	6587
685.636	6640
685.675	6945
685.722	6945
685.757	6876
685.768	6809
685.815	7004
685.861	7014
685.878	7108
685.908	7276
685.954	6525
686.000	7491
686.000	7500
686.047	7544
686.093	7478
686.121	7458
686.139	7432
686.185	7353
686.232	7499
686.242	7607
686.278	7917
686.324	7719
686.363	7547
686.370	7516
686.416	8078
686.463	7866
686.484	7749
686.509	7561
686.555	8137
686.601	8188
686.606	8136
686.647	7653
686.693	7436
686.727	7416
686.739	7411
686.785	8060
686.831	7642
686.848	7845
686.877	8281
686.923	8398
686.969	8124
686.969	8120
687.015	8181
687.061	8584
687.090	8447
687.107	8476
687.153	9204
687.199	8874
687.211	8907
687.245	8590
687.291	8195
687.332	8397
687.336	8481
687.382	8774
687.428	8746
687.453	9226
687.474	9412
687.520	9643
687.565	9172
687.574	9166
687.611	9467
687.657	9413
687.695	10460
687.702	10650
687.748	10961
687.794	11917
687.816	11726
687.839	11183
687.885	10419
687.931	10638
687.937	10534
687.976	10102
688.022	10008
688.058	9615
688.067	9571
688.113	9470
688.158	9247
688.179	9424
688.204	9624
688.249	9145
688.295	9378
688.300	9401
688.340	9770
688.386	10057
688.421	9901
688.431	9844
688.477	10218
688.522	10443
688.542	10449
688.567	10655
688.613	11617
688.658	11691
688.663	11692
688.703	11107
688.749	10572
688.784	10310
688.794	10360
688.839	10748
688.884	11131
688.905	11029
688.930	10760
688.975	10890
689.020	10753
689.026	10667
689.065	10429
689.110	10898
689.146	10961
689.155	10971
689.201	11255
689.246	11285
689.267	11044
689.291	10704
689.336	11325
689.381	10719
689.388	10664
689.426	10634
689.471	11113
689.509	11356
689.516	11380
689.561	10864
689.606	10961
689.630	10775
689.651	10787
689.696	11191
689.741	11734
689.750	11638
689.785	11411
689.830	11874
689.871	12006
689.875	11989
689.920	11968
689.965	11908
689.992	11496
690.010	11388
690.054	11736
690.099	12026
690.112	11960
690.144	11724
690.189	11470
690.233	11404
690.233	11420
690.278	11737
690.323	11883
690.354	11812
690.367	11819
690.412	11977
690.457	11487
690.474	11788
690.501	12192
690.546	11860
690.590	11909
690.595	11863
690.635	11687
690.680	11371
690.716	11253
690.724	11308
690.769	11695
690.813	12282
690.836	12290
690.857	12544
690.902	13889
690.946	14690
690.957	14825
690.991	16311
691.035	18581
691.077	20707
691.080	20704
691.124	19565
691.168	18264
691.198	17438
691.213	16894
691.257	15576
691.301	14188
691.318	13529
691.346	13369
691.390	13102
691.434	13074
691.439	13067
691.478	13125
691.522	12767
691.559	12646
691.567	12721
691.611	13078
691.655	12973
691.680	13132
691.699	13201
691.743	13508
691.787	13344
691.800	13340
691.831	13357
691.875	13117
691.919	13100
691.921	13072
691.964	13301
692.008	13640
692.041	13775
692.052	13734
692.096	13483
692.139	13128
692.162	13136
692.183	13313
692.227	13304
692.271	13571
692.282	13433
692.315	12953
692.359	13153
692.402	12891
692.403	12915
692.447	12464
692.490	13036
692.523	12706
692.534	12676
692.578	13045
692.622	12888
692.643	12988
692.666	13086
692.709	13176
692.753	13025
692.763	13056
692.797	13293
692.840	13238
692.884	13321
692.884	13347
692.928	13204
692.971	12942
693.004	12598
693.015	12672
693.059	13268
693.102	13698
693.124	13825
693.146	13727
693.189	13319
693.233	13482
693.245	13389
693.276	13594
693.320	13850
693.363	13973
693.365	13958
693.407	14443
693.450	14819
693.485	15061
693.493	15156
693.537	15753
693.580	15679
693.605	15860
693.624	16634
693.667	18737
693.710	20417
693.725	21060
693.753	24188
693.797	28959
693.840	33784
693.845	34234
693.883	31551
693.926	28538
693.966	25945
693.970	25682
694.013	22234
694.056	19040
694.086	16772
694.099	16607
694.142	15791
694.185	14972
694.206	14616
694.229	14722
694.272	14873
694.315	15046
694.326	15059
694.358	14980
694.401	14480
694.444	14315
694.446	14265
694.487	14149
694.530	14179
694.566	14167
694.573	14247
694.616	14578
694.659	14485
694.686	14735
694.702	14911
694.745	14920
694.787	15323
694.806	15301
694.830	15085
694.873	14790
694.916	14474
694.926	14346
694.959	14619
695.002	15091
695.044	15497
695.046	15482
695.087	16067
695.130	16451
695.166	16639
695.172	16679
695.215	16989
695.258	17005
695.286	17058
695.301	17144
695.343	17180
695.386	17625
695.406	17624
695.428	18162
695.471	19025
695.514	20146
695.526	20422
695.556	21787
695.599	23663
695.641	25467
695.646	25586
695.684	24513
695.726	23305
695.766	22193
695.769	22210
695.811	21566
695.854	21170
695.886	20714
695.896	20755
695.938	20627
695.981	20846
696.005	20682
696.023	21274
696.065	22927
696.108	24303
696.125	24908
696.150	25309
696.192	25688
696.235	26180
696.245	26221
696.277	26287
696.319	26412
696.361	26482
696.365	26420
696.404	26192
696.446	25802
696.485	25532
696.488	25587
696.530	25432
696.572	25260
696.604	25076
696.614	25086
696.656	24712
696.698	24588
696.724	24460
696.740	24782
696.783	25102
696.825	25934
696.844	26071
696.867	25990
696.909	25844
696.951	25660
696.964	25594
696.992	25969
697.034	26234
697.076	26527
697.083	26534
697.118	27252
697.160	27844
697.202	28410
697.203	28358
697.244	28243
697.286	27966
697.323	27662
697.327	27771
697.369	28048
697.411	28427
697.442	28649
697.453	28745
697.494	28776
697.536	28805
697.562	28791
697.578	28676
697.620	28030
697.661	27517
697.682	27202
697.703	28099
697.744	29685
697.786	31306
697.801	31822
697.828	31756
697.869	31480
697.911	31187
697.921	31033
697.952	30526
697.994	29826
698.035	29039
698.040	28872
698.077	29472
698.118	30128
698.160	30724
698.160	30649
698.201	31668
698.243	32637
698.279	33400
698.284	33539
698.325	34070
698.367	34542
698.399	34852
698.408	34999
698.449	35227
698.491	35513
698.518	35580
698.532	35692
698.573	35773
698.614	35827
698.638	35776
698.656	36025
698.697	36390
698.738	36750
698.757	36828
698.779	36645
698.820	36106
698.862	35576
698.877	35288
698.903	35670
698.944	36126
698.985	36588
698.996	36623
699.026	36639
699.067	36530
699.116	36306
699.235	36273
699.354	34681
699.474	33052
699.593	32696
699.713	33757
699.832	33560
699.951	35451
700.070	34850
700.190	32840
700.309	31850
700.428	30604
700.547	30332
700.667	30241
700.786	29425
700.905	29214
701.024	29052
701.143	29118
701.262	30813
701.381	30435
701.500	31236
701.619	29596
701.738	31133
701.857	30347
701.976	27849
702.095	29611
702.214	30547
702.333	28895
702.452	31024
702.571	29532
702.690	30513
702.809	30159
702.928	28735
703.047	28193
703.165	27490
703.284	27870
703.403	27291
703.522	26663
703.640	25873
703.759	25650
703.878	25269
703.997	25598
704.115	26900
704.234	27342
704.353	26560
704.471	24214
704.590	23989
704.708	24431
704.827	23370
704.946	23919
705.064	24275
705.183	21710
705.301	24362
705.420	23974
705.538	23417
705.656	21719
705.775	21333
705.893	23564
706.012	23640
706.130	21714
706.249	23329
706.367	21952
706.485	22432
706.604	20532
706.722	21436
706.840	23170
706.958	26814
707.077	22797
707.195	19571
707.313	21082
707.431	19120
707.549	19217
707.668	18556
707.786	21171
707.904	19731
708.022	20660
708.140	18891
708.258	19256
708.376	21463
708.494	17870
708.612	19849
708.730	20324
708.848	19187
708.966	19839
709.084	19552
709.202	19098
709.320	17634
709.438	18107
709.556	18670
709.674	16708
709.791	17007
709.909	18083
710.027	16673
710.145	16933
710.263	16054
710.380	17620
710.498	16576
710.616	16751
710.733	16424
710.851	16048
710.969	16363
711.086	15304
711.204	16285
711.322	16048
711.439	16011
711.557	14935
711.674	15538
711.792	15786
711.909	15225
712.027	15522
712.144	14020
712.262	15669
712.379	15658
712.497	15604
712.614	15287
712.732	15799
712.849	14523
712.966	14918
713.084	16289
713.201	13960
713.318	15358
713.436	16943
713.553	15098
713.670	16625
713.787	15781
713.905	15922
714.022	16617
714.139	17557
714.256	20330
714.373	28402
714.490	53270
714.608	136321
714.725	505026
714.842	469739
714.959	62522
715.076	25993
715.193	21220
715.310	18566
715.427	14041
715.544	15810
715.661	15454
715.778	13964
715.895	13948
716.011	13805
716.128	12742
716.245	14500
716.362	12538
716.479	11709
716.596	12566
716.713	13709
716.829	11696
716.946	11752
717.063	11451
717.180	11208
717.296	11926
717.413	12554
717.530	11365
717.646	10806
717.763	11361
717.880	9937
717.996	10496
718.113	11685
718.229	10442
718.346	9816
718.462	9946
718.579	11104
718.695	10786
718.812	10143
718.928	10611
719.045	10300
719.161	10170
719.277	11008
719.394	11639
719.510	10827
719.626	12792
719.743	14997
719.859	24146
719.975	50254
720.092	189843
720.208	388249
720.324	55837
720.440	16723
720.557	12838
720.673	12177
720.789	11863
720.905	12479
721.021	11073
721.137	9943
721.253	9518
721.369	9290
721.486	9737
721.602	9621
721.718	10149
721.834	10068
721.950	9875
722.066	8944
722.181	8546
722.297	9101
722.413	9373
722.529	8563
722.645	9388
722.761	9052
722.877	8899
722.993	9729
723.108	12783
723.224	11771
723.340	9310
723.456	9192
723.571	7540
723.687	7653
723.803	8863
723.918	8572
724.034	8216
724.150	8536
724.265	8353
724.381	8520
724.497	8190
724.612	8606
724.728	7556
724.843	7787
724.959	7587
725.074	8840
725.190	8627
725.305	7046
725.421	7482
725.536	8404
725.651	8293
725.767	7743
725.882	8531
725.997	7174
726.113	8563
726.228	7158
726.343	7737
726.459	8123
726.574	7347
726.689	8294
726.804	7215
726.920	7303
727.035	7794
727.150	8066
727.265	6582
727.380	8086
727.495	7249
727.610	7967
727.725	7486
727.841	8292
727.956	8490
728.071	7508
728.186	7727
728.301	6472
728.416	7989
728.531	7324
728.645	6550
728.760	7766
728.875	8277
728.990	6755
729.105	6789
729.220	7294
729.335	7644
729.449	7765
729.564	6864
729.679	6606
729.794	8027
729.908	7751
730.023	6883
730.138	7104
730.253	8530
730.367	6776
730.482	7285
730.596	7807
730.711	9177
730.826	12931
730.940	12255
731.055	10474
731.169	9574
731.284	10610
731.398	10553
731.513	10994
731.627	12117
731.742	15582
731.856	19257
731.970	19075
732.085	24086
732.199	32683
732.313	58530
732.428	146128
732.542	398725
732.656	233558
732.771	52839
732.885	29250
732.999	26479
733.113	26876
733.227	26657
733.342	26023
733.456	25248
733.570	23672
733.684	21999
733.798	20322
733.912	21751
734.026	21929
734.140	21419
734.254	19930
734.368	20369
734.482	20275
734.596	21022
734.710	19101
734.824	19697
734.938	19129
735.052	19332
735.166	19139
735.280	19831
735.393	18532
735.507	19115
735.621	18676
735.735	17925
735.849	19449
735.962	16998
736.076	18012
736.190	17518
736.303	18295
736.417	17565
736.531	16763
736.644	17355
736.758	16938
736.872	16894
736.985	16721
737.099	16886
737.212	15861
737.326	16000
737.439	17012
737.553	14993
737.666	17145
737.780	15198
737.893	16609
738.007	15014
738.120	16380
738.233	13563
738.347	16225
738.460	13428
738.573	16868
738.687	14643
738.800	14846
738.913	14805
739.026	15402
739.140	14062
739.253	15504
739.366	14321
739.479	14421
739.592	13882
739.705	13044
739.818	16517
739.932	13559
740.045	14472
740.158	14162
740.271	14032
740.384	13527
740.497	11795
740.610	13671
740.723	12660
740.836	12648
740.949	13086
741.062	13968
741.174	13040
741.287	13021
741.400	13071
741.513	11324
741.626	13078
741.739	12612
741.851	11305
741.964	13182
742.077	11544
742.189	11190
742.302	12540
742.415	12308
742.527	11408
742.640	12122
742.753	9957
742.865	12324
742.978	11529
743.090	10736
743.203	12007
743.316	11172
743.428	10847
743.541	11553
743.653	9866
743.766	10964
743.878	11299
743.990	9349
744.103	11803
744.215	10732
744.327	9455
744.440	13755
744.552	10300
744.664	10102
744.777	11520
744.889	10253
745.001	10002
745.113	10963
745.226	9979
745.338	9801
745.450	11849
745.562	10562
745.674	8423
745.786	11496
745.898	10497
746.010	9787
746.122	10646
746.234	9690
746.347	10504
746.459	9794
746.570	7847
746.682	10888
746.794	11170
746.906	8583
747.018	9330
747.130	10418
747.242	8203
747.354	9042
747.466	9052
747.577	9194
747.689	8876
747.801	8774
747.913	8074
748.024	9082
748.136	8176
748.248	8632
748.359	8493
748.471	9067
748.583	7532
748.694	7836
748.806	9403
748.918	7541
749.029	7927
749.141	8817
749.252	9300
749.364	7669
749.475	7366
749.587	8075
749.698	8066
749.809	7799
749.921	8048
750.032	8086
750.144	7088
750.255	7785
750.366	8366
750.478	7297
750.589	7386
750.700	6671
750.811	8421
750.923	6384
751.034	7456
751.145	9482
751.256	7380
751.367	6908
751.479	7135
751.590	6661
751.701	6865
751.812	5027
751.923	6915
752.034	9294
752.145	7351
752.256	7644
752.367	7147
752.478	7133
752.589	7657
752.700	7812
752.811	7022
752.922	7144
753.032	7797
753.143	7222
753.254	6882
753.365	8091
753.476	8305
753.586	7960
753.697	6882
753.808	7755
753.919	6121
754.029	6186
754.140	5963
754.251	7459
754.361	6868
754.472	7302
754.582	5856
754.693	6522
754.804	7077
754.914	6823
755.025	5935
755.135	6160
755.246	7337
755.356	6836
755.466	5711
755.577	6961
755.687	6388
755.798	6069
755.908	6011
756.018	6835
756.129	6695
756.239	7183
756.349	6139
756.460	6957
756.570	7104
756.680	6677
756.790	6460
756.900	7050
757.011	6231
757.121	5847
757.231	6431
757.341	7026
757.451	5161
757.561	6030
757.671	6134
757.781	6498
757.891	5965
758.001	5633
758.111	6476
758.221	6905
758.331	7096
758.441	7054
758.551	6186
758.661	6713
758.771	7684
758.880	7157
758.990	6179
759.100	7207
759.210	7051
759.320	7477
759.429	7478
759.539	7820
759.649	7323
759.758	8766
759.868	8978
759.978	8594
760.087	9880
760.197	9458
760.307	8593
760.416	8688
760.526	7622
760.635	9075
760.745	8727
760.854	9845
760.964	11577
761.073	10482
761.182	10104
761.292	9456
761.401	7794
761.511	8068
761.620	7500
761.729	7283
761.839	6105
761.948	6504
762.057	6452
762.166	6861
762.276	5858
762.385	7286
762.494	6546
762.603	6861
762.712	6853
762.822	6807
762.931	5702
763.040	5337
763.149	5753
763.258	5986
763.367	7202
763.476	5958
763.585	6447
763.694	7516
763.803	6428
763.912	6859
764.021	7570
764.130	7484
764.238	7735
764.347	8571
764.456	7637
764.565	8131
764.674	7940
764.783	8619
764.891	8721
765.000	10774
765.109	10435
765.217	11520
765.326	12327
765.435	14829
765.543	17956
765.652	20625
765.761	26519
765.869	37226
765.978	52475
766.086	85613
766.195	149534
766.303	284577
766.412	385174
766.520	314125
766.629	225662
766.737	124484
766.846	74543
766.954	51165
767.062	37027
767.171	28365
767.279	22776
767.387	19059
767.496	16608
767.604	14466
767.712	13277
767.820	12155
767.928	11524
768.037	10247
768.145	9936
768.253	10055
768.361	9384
768.469	10499
768.577	9112
768.685	10871
768.793	10897
768.901	11550
769.009	12335
769.117	15039
769.225	17502
769.333	25134
769.441	37137
769.549	63077
769.657	126363
769.765	275407
769.873	315745
769.981	210003
770.088	100702
770.196	53734
770.304	35648
770.412	25617
770.519	20505
770.627	17246
770.735	14787
770.842	13966
770.950	12351
771.058	11954
771.165	13320
771.273	13901
771.380	12808
771.488	16355
771.595	18744
771.703	16178
771.810	15352
771.918	15062
772.025	17215
772.133	20337
772.240	17610
772.348	21457
772.455	19469
772.562	17684
772.670	17447
772.777	18616
772.884	17067
772.991	16333
773.099	17796
773.206	15986
773.313	16979
773.420	15790
773.528	16714
773.635	16131
773.742	15808
773.849	14488
773.956	16395
774.063	15121
774.170	15593
774.277	15975
774.384	14391
774.491	13916
774.598	15416
774.705	14897
774.812	14732
774.919	14161
775.026	14390
775.133	14190
775.239	14135
775.346	13419
775.453	14188
775.560	12762
775.667	14236
775.773	13393
775.880	14790
775.987	13589
776.093	12920
776.200	15351
776.307	11044
776.413	11806
776.520	14243
776.627	13303
776.733	11456
776.840	10546
776.946	15477
777.053	12045
777.159	12010
777.266	10618
777.372	11541
777.478	13695
777.585	13216
777.691	10182
777.798	12558
777.904	11350
778.010	10561
778.117	12172
778.223	10830
778.329	11252
778.435	10307
778.542	12066
778.648	10373
778.754	10357
778.860	11144
778.966	10856
779.072	10072
779.178	10674
779.284	9138
779.391	10880
779.497	11144
779.603	11726
779.708	10006
779.815	12792
779.920	25430
780.026	40066
780.132	13095
780.238	9923
780.344	9017
780.450	11711
780.556	8686
780.661	8150
780.767	11047
780.873	6813
780.979	8765
781.085	10235
781.190	8574
781.296	8864
781.402	9455
781.507	9659
781.613	7324
781.719	8361
781.824	10612
781.930	8173
782.035	8458
782.141	9285
782.246	6340
782.352	8043
782.457	8311
782.563	9426
782.668	8273
782.773	7623
782.879	7377
782.984	8300
783.090	7838
783.195	8578
783.300	10129
783.405	7487
783.511	6701
783.616	7634
783.721	7610
783.826	7902
783.932	6892
784.037	7721
784.142	8287
784.247	6644
784.352	7807
784.457	6270
784.562	7933
784.667	8652
784.772	5982
784.877	5091
784.982	7480
785.087	8371
785.192	6133
785.297	6976
785.402	7263
785.507	7492
785.611	7159
785.716	5796
785.821	6779
785.926	7798
786.031	6495
786.135	6346
786.240	7356
786.345	4968
786.450	6135
786.554	6277
786.659	6016
786.763	5712
786.868	7031
786.973	8116
787.077	5286
787.182	4803
787.286	5974
787.391	8094
787.495	4754
787.600	4865
787.704	6154
787.809	6204
787.913	6243
788.017	4996
788.122	6151
788.226	4872
788.330	3179
788.435	5890
788.539	6796
788.643	5096
788.747	4279
788.852	6342
788.956	4854
789.060	6348
789.164	5294
789.268	5005
789.372	6398
789.476	4995
789.580	3308
789.684	3891
789.788	6433
789.892	4702
789.996	4156
790.100	4087
790.204	5900
790.308	7187
790.412	3261
790.516	3126
790.620	4629
790.724	5802
790.828	5104
790.931	2662
791.035	5571
791.139	4911
791.242	4302
791.346	5202
791.450	4738
791.554	4786
791.657	2834
791.761	4686
791.864	5173
791.968	5184
792.072	5280
792.175	3523
792.279	3781
792.382	4585
792.486	3568
792.589	3842
792.693	4330
792.796	3921
792.899	4856
793.003	5388
793.106	2946
793.209	3340
793.313	4293
793.416	1782
793.519	4136
793.623	5232
793.726	4525
793.829	2353
793.932	2594
794.035	3155
794.138	6301
794.242	6467
794.345	3438
794.448	3875
794.551	3977
794.654	12074
794.757	20935
794.860	6440
794.963	4291
795.066	3390
795.169	4738
795.272	3831
795.375	3823
795.477	2335
795.580	3147
795.683	2675
795.786	4910
795.889	3026
795.991	4533
796.094	4236
796.197	3416
796.300	5083
796.402	3440
796.505	3436
796.608	2309
796.710	3887
796.813	5152
796.915	4373
797.018	4426
797.120	4152
797.223	2101
797.326	5344
797.428	2296
797.530	3159
797.633	2973
797.735	4974
797.838	3572
797.940	5067
798.042	3913
798.145	2884
798.247	3726
798.349	1281
798.452	4586
798.554	4053
798.656	3568
798.758	5365
798.860	2980
798.962	2778
799.065	2454
799.167	2265
799.269	3251
799.371	3667
799.473	4670
799.575	4685
799.677	3216
799.779	4117
799.881	2113
799.983	5261
800.085	3459
800.187	2617
800.289	1197
800.390	2819
800.492	3607
800.594	4529
800.696	2272
800.798	2316
800.899	3397
801.001	3292
801.103	3039
801.205	3459
801.306	3605
801.408	2756
801.509	3311
801.611	3046
801.713	3097
801.814	2539
801.916	2679
802.017	1924
802.119	2816
802.220	2852
802.322	2624
802.423	3943
802.525	1182
802.626	2217
802.727	3252
802.829	2985
802.930	127
803.031	3408
803.133	1964
803.234	2859
803.335	3239
803.436	1873
803.538	2293
803.639	1840
803.740	4052
803.841	2578
803.942	3513
804.043	2439
804.144	1035
804.245	2286
804.346	2065
804.447	1794
804.548	2034
804.649	3510
804.750	2154
804.851	1200
804.952	1713
805.053	2192
805.154	1404
805.255	3093
805.355	2417
805.456	2409
805.557	1831
805.658	1764
805.758	2626
805.859	2772
805.960	2247
806.061	2388
806.161	2809
806.262	2206
806.362	931
806.463	2136
806.564	2302
806.664	2396
806.765	2028
806.865	1670
806.966	2456
807.066	2435
807.166	3139
807.267	2707
807.367	2336
807.468	3365
807.568	1041
807.668	2320
807.769	3836
807.869	1398
807.969	1809
808.069	2026
808.170	2145
808.270	1769
808.370	2157
808.470	2242
808.570	1681
808.670	1414
808.770	1536
808.870	1948
808.970	2776
809.070	1931
809.170	1470
809.271	2882
809.370	2013
809.470	2344
809.570	1267
809.670	1297
809.770	1940
809.870	2433
809.970	2259
810.070	1868
810.169	3365
810.269	661
810.369	2235
810.469	2647
810.568	1781
810.668	754
810.768	1980
810.867	2604
810.967	1242
811.066	1854
811.166	1450
811.265	3608
811.365	1544
811.464	1469
811.564	2244
811.663	2871
811.763	945
811.862	2077
811.962	3188
812.061	1899
812.160	2220
812.260	1611
812.359	1390
812.458	2299
812.557	3435
812.657	3125
812.756	2682
812.855	1828
812.954	1403
813.053	1814
813.153	1870
813.252	1673
813.351	1844
813.450	2237
813.549	1590
813.648	2560
813.747	1314
813.846	2848
813.945	2234
814.044	2620
814.143	1853
814.242	2641
814.341	2379
814.439	3130
814.538	2711
814.637	3282
814.736	3378
814.835	3804
814.933	3107
815.032	3600
815.131	6426
815.229	10009
815.328	14876
815.427	11089
815.525	8948
815.624	10044
815.722	8661
815.821	9919
815.919	9897
816.018	8599
816.116	10040
816.215	10249
816.313	10105
816.412	12638
816.510	12177
816.609	14746
816.707	14894
816.805	12778
816.904	11918
817.002	12608
817.100	13299
817.198	14219
817.296	11502
817.395	12599
817.493	12428
817.591	11702
817.689	12735
817.787	12297
817.885	11622
817.983	11736
818.081	13317
818.179	18185
818.277	34195
818.375	29149
818.473	14884
818.571	10959
818.669	11440
818.767	12174
818.865	11540
818.963	9950
819.061	12070
819.158	12181
819.256	19601
819.354	27952
819.452	55482
819.549	36643
819.647	17299
819.745	11257
819.842	10922
819.940	11078
820.038	9518
820.135	8996
820.233	10730
820.330	8982
820.428	9087
820.525	10417
820.623	9135
820.720	7929
820.818	10073
820.915	9397
821.012	8435
821.110	8473
821.207	9350
821.304	8086
821.402	9715
821.499	8343
821.596	7363
821.693	8305
821.791	8993
821.888	7870
821.985	9447
822.082	7270
822.179	8585
822.276	8219
822.373	7402
822.470	7361
822.567	8593
822.664	7030
822.761	7693
822.858	8977
822.955	8144
823.052	6747
823.149	7676
823.246	8225
823.343	6287
823.440	7038
823.536	7954
823.633	7360
823.730	6997
823.827	8749
823.923	6770
824.020	7304
824.117	7826
824.213	8556
824.310	6603
824.407	5135
824.503	7792
824.600	7349
824.696	5520
824.793	7949
824.889	8254
824.986	5869
825.082	4270
825.179	5129
825.275	6489
825.371	8486
825.468	5162
825.564	3979
825.660	6875
825.757	8754
825.853	6491
825.949	4840
826.045	4568
826.142	6234
826.238	7153
826.334	7223
826.430	5713
826.526	4472
826.622	4014
826.718	7397
826.814	6919
826.910	7210
827.006	4083
827.102	3840
827.198	6831
827.294	7472
827.390	6678
827.486	5151
827.582	3949
827.678	4575
827.774	7703
827.869	3727
827.965	5384
828.061	3904
828.157	6578
828.252	6440
828.348	4463
828.444	5262
828.539	3995
828.635	5994
828.731	6153
828.826	4131
828.922	5541
829.017	5531
829.113	6730
829.208	3932
829.304	4713
829.399	7344
829.495	5276
829.590	5189
829.685	4941
829.781	5772
829.876	6630
829.971	3087
830.066	2281
830.162	4738
830.257	6901
830.352	4885
830.447	4239
830.543	3875
830.638	5021
830.733	6392
830.828	3503
830.923	5121
831.018	5229
831.113	6073
831.208	3683
831.303	3036
831.398	3014
831.493	5107
831.588	7450
831.683	4159
831.778	2895
831.873	4569
831.967	5471
832.062	4963
832.157	3973
832.252	3929
832.346	4006
832.441	5031
832.536	3999
832.631	5089
832.725	3146
832.820	4540
832.914	4464
833.009	2481
833.104	2403
833.198	3833
833.293	4000
833.387	5216
833.482	4829
833.576	4169
833.670	4564
833.765	3944
833.859	5104
833.954	4480
834.048	4048
834.142	3283
834.237	2746
834.331	4017
834.425	4361
834.519	3237
834.613	2868
834.708	2106
834.802	3539
834.896	3458
834.990	4187
835.084	3018
835.178	1497
835.272	2664
835.366	4641
835.460	4938
835.554	3054
835.648	1864
835.742	1896
835.836	2484
835.930	2649
836.024	4125
836.117	3816
836.211	3058
836.305	2068
836.399	3942
836.493	2756
836.586	3982
836.680	3625
836.774	2426
836.867	3386
836.961	1943
837.055	2449
837.148	1742
837.242	2833
837.335	3896
837.429	2277
837.522	2302
837.616	1990
837.709	2838
837.803	2370
837.896	3815
837.989	3531
838.083	1614
838.176	2352
838.269	1222
838.363	2953
838.456	2361
838.549	3262
838.642	2377
838.735	2695
838.829	2875
838.922	2500
839.015	2867
839.108	2395
839.201	1771
839.294	3626
839.387	3172
839.480	1295
839.573	2898
839.666	2250
839.759	2554
839.852	2126
839.945	2684
840.038	2415
840.131	1443
840.223	2761
840.316	3278
840.409	2413
840.502	3236
840.594	3690
840.687	1329
840.780	1074
840.873	1840
840.965	1651
841.058	2537
841.150	3612
841.243	1318
841.336	2267
841.428	2188
841.521	1942
841.613	1737
841.706	2732
841.798	1368
841.890	2388
841.983	1099
842.075	1463
842.167	1650
842.260	2911
842.352	2998
842.444	1400
842.537	1584
842.629	1274
842.721	1431
842.813	1562
842.905	875
842.997	2236
843.090	1858
843.182	1692
843.274	622
843.366	1014
843.458	2401
843.550	3526
843.642	2077
843.734	2710
843.826	1507
843.918	859
844.009	2050
844.101	901
844.193	1683
844.285	2002
844.377	2514
844.469	1222
844.560	642
844.652	1838
844.744	1564
844.835	1078
844.927	2056
845.019	2063
845.110	1583
845.202	2871
845.293	1697
845.385	510
845.476	2394
845.568	3084
845.659	1522
845.751	1229
845.842	1148
845.934	2042
846.025	1571
846.116	2274
846.208	1813
846.299	1494
846.390	850
846.482	1389
846.573	1983
846.664	1772
846.755	2303
846.846	2192
846.937	507
847.029	2103
847.120	1766
847.211	1389
847.302	3163
847.393	573
847.484	2146
847.575	527
847.666	-131
847.757	983
847.847	2435
847.938	2348
848.029	2037
848.120	1758
848.211	1280
848.302	473
848.392	1649
848.483	1466
848.574	836
848.664	1598
848.755	2147
848.846	1099
848.936	1220
849.027	1398
849.118	1939
849.208	1452
849.299	2569
849.389	5121
849.480	8682
849.570	16430
849.661	31853
849.751	50623
849.841	19715
849.932	4343
850.022	1023
850.112	2371
850.203	1175
850.293	878
850.383	710
850.474	558
850.564	1282
850.654	919
850.744	2088
850.834	795
850.924	1663
851.014	2619
851.104	1803
851.194	1308
851.284	960
851.374	1738
851.464	1425
851.554	687
851.644	2041
851.734	1673
851.824	2380
851.914	1740
852.004	1911
852.094	752
852.183	609
852.273	1195
852.363	282
852.452	1821
852.542	1151
852.632	977
852.721	1555
852.811	1573
852.901	2249
852.990	2275
853.080	2203
853.169	1117
853.259	1978
853.348	2251
853.438	2728
853.527	3865
853.617	5752
853.706	11056
853.795	17624
853.885	36547
853.974	63783
854.063	109964
854.152	142882
854.242	63288
854.331	18743
854.420	8036
854.509	5541
854.598	4001
854.687	3599
854.777	2870
854.866	2377
854.955	2832
855.044	2577
855.133	2296
855.222	1752
855.311	1094
855.400	1906
855.488	581
855.577	1316
855.666	1384
855.755	1288
855.844	1741
855.933	842
856.021	746
856.110	1306
856.199	377
856.288	170
856.376	1370
856.465	1094
856.554	1752
856.642	1118
856.731	1399
856.819	1597
856.908	671
856.996	1328
857.085	1441
857.173	811
857.262	815
857.350	1107
857.438	763
857.527	1589
857.615	1282
857.703	1270
857.792	979
857.880	687
857.968	1276
858.056	352
858.145	1323
858.233	1281
858.321	648
858.409	1890
858.497	1876
858.585	-45
858.673	1249
858.761	958
858.849	817
858.937	690
859.025	1630
859.113	1811
859.201	783
859.289	1783
859.377	1170
859.465	923
859.552	941
859.640	246
859.728	764
859.816	1002
859.903	1284
859.991	1582
860.079	1736
860.166	1362
860.254	400
860.342	1776
860.429	623
860.517	986
860.604	1387
860.692	273
860.779	636
860.867	1142
860.954	912
861.042	1457
861.129	2045
861.216	1362
861.304	1423
861.391	1471
861.478	306
861.565	763
861.653	1729
861.740	296
861.827	314
861.914	1967
862.001	344
862.089	505
862.176	632
862.263	839
862.350	1777
862.437	1249
862.524	1035
862.611	991
862.698	1086
862.785	2032
862.871	2093
862.958	2006
863.045	1541
863.132	1771
863.219	828
863.306	689
863.392	1742
863.479	709
863.566	1402
863.652	2225
863.739	857
863.826	2191
863.912	1272
863.999	1582
864.086	1927
864.172	2222
864.259	2322
864.345	2696
864.432	2966
864.518	2247
864.604	2431
864.691	1610
864.777	2596
864.863	4521
864.950	6181
865.036	9085
865.122	13844
865.209	14789
865.295	12089
865.381	11492
865.467	11643
865.553	12836
865.639	13156
865.726	18404
865.812	26329
865.898	43174
865.984	59234
866.070	98041
866.156	95178
866.242	38000
866.328	18478
866.414	12694
866.499	11131
866.585	12165
866.671	10553
866.757	11317
866.843	9829
866.928	10380
867.014	9385
867.100	9665
867.186	8726
867.271	9073
867.357	8872
867.442	8802
867.528	9978
867.614	8960
867.699	9363
867.785	8871
867.870	8204
867.956	8875
868.041	9078
868.127	8491
868.212	9079
868.297	8463
868.383	8869
868.468	8224
868.553	9047
868.639	8475
868.724	8604
868.809	8220
868.894	8156
868.979	8257
869.065	8350
869.150	6293
869.235	7633
869.320	8601
869.405	7003
869.490	7855
869.575	7555
869.660	6702
869.745	7918
869.830	8429
869.915	7103
870.000	7494
870.085	7074
870.169	8550
870.254	8690
870.339	6406
870.424	5606
870.509	8001
870.593	8650
870.678	8478
870.763	6697
870.847	6682
870.932	8236
871.016	7876
871.101	4790
871.186	7192
871.270	9082
871.355	5629
871.439	6168
871.523	7844
871.608	5597
871.692	5895
871.777	7715
871.861	6907
871.945	5941
872.030	6664
872.114	6956
872.198	6273
872.282	5646
872.367	5554
872.451	5682
872.535	6607
872.619	6748
872.703	5783
872.787	6824
872.871	6876
872.955	4986
873.039	3553
873.123	6746
873.207	7582
873.291	4182
873.375	5815
873.459	7278
873.543	5896
873.627	5099
873.711	5203
873.794	6056
873.878	5448
873.962	4081
874.045	4643
874.129	4914
874.137	5040
874.213	6299
874.245	5935
874.296	5347
874.352	4988
874.380	4815
874.460	5168
874.464	5184
874.547	4505
874.568	5041
874.631	6611
874.676	5685
874.714	4913
874.784	5964
874.798	6163
874.881	6015
874.892	5666
874.965	3401
874.999	4282
875.048	5453
875.107	5533
875.131	5522
875.215	4115
875.215	4114
875.298	3798
875.323	4003
875.381	4446
875.430	5481
875.465	6168
875.538	5818
875.548	5772
875.631	3488
875.646	3560
875.714	3982
875.753	3675
875.798	3268
875.861	4834
875.881	5333
875.964	4250
875.968	4228
876.047	3960
876.076	4170
876.130	4485
876.183	4869
876.213	5090
876.291	5293
876.296	5301
876.379	3673
876.398	3617
876.462	3464
876.506	3387
876.545	3345
876.613	4000
876.628	4155
876.711	4706
876.721	4734
876.794	4871
876.828	5007
876.877	5045
876.935	3906
876.960	3551
877.043	3996
877.043	3997
877.125	4249
877.150	4734
877.208	5703
877.258	4815
877.291	4300
877.365	3470
877.374	3353
877.456	3527
877.472	3394
877.539	3107
877.579	3957
877.622	4793
877.687	4918
877.704	4874
877.787	3709
877.794	3762
877.869	4765
877.901	4752
877.952	4344
878.008	3018
878.034	2546
878.115	2632
878.117	2636
878.199	3319
878.222	3617
878.282	4511
878.329	5023
878.364	5242
878.437	4730
878.447	4620
878.529	3099
878.544	2955
878.611	2668
878.651	3181
878.694	3908
878.758	4735
878.776	4839
878.858	4410
878.865	4341
878.941	3442
878.972	3011
879.023	2529
879.078	2854
879.105	3198
879.185	4853
879.187	4873
879.269	4441
879.292	4351
879.351	4070
879.399	3493
879.433	3143
879.506	3258
879.516	3307
879.598	3801
879.613	3832
879.680	3729
879.720	3974
879.762	4499
879.827	4354
879.844	4172
879.926	3842
879.933	3836
880.007	4252
880.040	4065
880.089	3543
880.147	3874
880.171	4159
880.253	4788
880.254	4786
880.335	4135
880.360	4087
880.417	4899
880.467	5655
880.499	5600
880.574	5264
880.580	5248
880.662	4946
880.680	4740
880.744	3826
880.787	3498
880.825	3469
880.893	3788
880.907	3827
880.989	3548
881.000	3535
881.070	3918
881.106	4093
881.152	3856
881.213	2916
881.233	2742
881.315	3562
881.319	3563
881.396	3696
881.426	3670
881.478	3658
881.532	4501
881.559	4934
881.639	4504
881.641	4470
881.722	3430
881.745	3271
881.803	3841
881.852	4033
881.885	4040
881.958	3481
881.966	3438
882.047	4180
882.064	4115
882.129	3229
882.171	2531
882.210	1983
882.277	2437
882.291	2783
882.372	4172
882.383	4332
882.454	4977
882.489	4968
882.535	4607
882.596	4834
882.616	4972
882.697	4618
882.702	4588
882.778	3622
882.808	3331
882.859	2827
882.914	2939
882.940	3299
883.020	3449
883.021	3454
883.102	4127
883.127	4283
883.183	4622
883.233	4688
883.264	4075
883.339	2448
883.345	2393
883.426	2151
883.445	2164
883.507	2929
883.551	3400
883.587	3988
883.657	5227
883.668	5337
883.749	5524
883.763	5454
883.830	3692
883.869	3033
883.910	2831
883.975	2675
883.991	2900
884.072	3647
884.081	3770
884.152	4876
884.187	5343
884.233	5716
884.292	5623
884.314	4863
884.394	2270
884.398	2136
884.475	2106
884.504	2245
884.555	2361
884.610	2213
884.636	2388
884.716	3730
884.716	3747
884.797	5184
884.821	5523
884.877	4815
884.927	3978
884.958	3554
885.033	3083
885.038	3069
885.118	2605
885.139	2516
885.199	2863
885.244	3091
885.279	3409
885.350	4053
885.359	4217
885.439	5650
885.456	5802
885.520	3971
885.561	3000
885.600	2934
885.667	3092
885.680	3231
885.760	3790
885.773	3839
885.840	2961
885.878	2621
885.920	2990
885.984	3467
886.000	3567
886.080	4071
886.089	4107
886.160	4370
886.195	4416
886.240	3805
886.300	3139
886.320	3248
886.400	3582
886.406	3595
886.480	3167
886.511	3057
886.560	3038
886.616	2939
886.640	3052
886.720	3470
886.722	3472
886.800	3704
886.827	3835
886.879	3838
886.932	3734
886.959	4106
887.038	5047
887.039	5044
887.119	3998
887.143	3660
887.198	4045
887.248	4345
887.278	4302
887.354	4090
887.358	4064
887.437	3455
887.459	3301
887.517	4001
887.564	4350
887.596	3821
887.669	2796
887.676	2735
887.755	1986
887.774	1784
887.835	1935
887.880	2093
887.914	2706
887.985	3978
887.994	4160
888.073	5715
888.090	5996
888.153	6225
888.195	6330
888.232	5310
888.300	3466
888.311	3489
888.391	3581
888.405	3609
888.470	3351
888.510	3137
888.549	3080
888.615	3072
888.628	3381
888.708	5133
888.720	5386
888.787	5078
888.825	4925
888.866	3922
888.930	2264
888.945	2603
889.024	4501
889.035	4736
889.103	4482
889.140	4349
889.182	3919
889.245	3266
889.261	3403
889.340	4036
889.349	4100
889.419	3218
889.454	2781
889.498	2779
889.559	2787
889.577	3139
889.656	4670
889.664	4816
889.735	4668
889.768	4587
889.814	4316
889.873	3930
889.978	2878
890.083	2675
890.187	4541
890.292	4423
890.397	4032
890.501	3113
890.606	2418
890.710	4537
890.815	6234
890.919	4995
891.024	4053
891.128	3598
891.233	2421
891.337	4550
891.442	4241
891.546	4073
891.650	3384
891.755	1914
891.859	4500
891.963	4494
892.068	3043
892.172	2896
892.276	1793
892.380	3359
892.484	4705
892.589	4989
892.693	3751
892.797	1730
892.901	2931
893.005	3853
893.109	5195
893.213	4645
893.317	3544
893.421	1886
893.525	1514
893.629	2517
893.733	4171
893.837	3606
893.941	2652
894.045	1395
894.148	1525
894.252	2562
894.356	4721
894.460	5100
894.564	3655
894.667	3054
894.771	1191
894.875	1908
894.978	2796
895.082	3959
895.186	4926
895.289	3852
895.393	2967
895.496	4376
895.600	3137
895.703	1053
895.807	2803
895.910	3227
896.014	3483
896.117	3366
896.221	2957
896.324	3658
896.427	2849
896.531	3028
896.634	2902
896.737	2547
896.840	3017
896.944	4501
897.047	3537
897.150	3067
897.253	1504
897.356	2008
897.460	1646
897.563	2390
897.666	3730
897.769	3364
897.872	2181
897.975	2572
898.078	3005
898.181	1980
898.284	2768
898.387	4245
898.490	4218
898.593	1665
898.695	1627
898.798	2721
898.901	2034
899.004	2598
899.107	3377
899.209	2605
899.312	3726
899.415	2644
899.518	2279
899.620	1665
899.723	1377
899.826	2532
899.928	1798
900.031	3082
900.133	3817
900.236	2134
900.338	1333
900.441	1499
900.543	2286
900.646	2730
900.748	2316
900.851	3873
900.953	2200
901.055	2155
901.158	3137
901.260	2561
901.362	2166
901.465	887
901.567	3694
901.669	2993
901.771	2456
901.873	2453
901.976	1825
902.078	2147
902.180	1747
902.282	1897
902.384	2605
902.486	4028
902.588	3215
902.690	1788
902.792	1460
902.894	2649
902.996	2821
903.098	2927
903.200	1306
903.302	2147
903.404	1800
903.505	2139
903.607	2403
903.709	4188
903.811	3863
903.913	2171
904.014	971
904.116	803
904.218	1992
904.319	2111
904.421	4090
904.523	2788
904.624	2244
904.726	1667
904.827	996
904.929	1583
905.030	1556
905.132	4192
905.233	2603
905.335	1271
905.436	585
905.537	1732
905.639	1947
905.740	2267
905.841	2956
905.943	2182
906.044	1700
906.145	1712
906.247	1603
906.348	1774
906.449	3183
906.550	4174
906.651	1765
906.752	2248
906.854	1133
906.955	1413
907.056	2908
907.157	3131
907.258	3269
907.359	1548
907.460	1958
907.561	1599
907.662	2439
907.762	2353
907.863	1906
907.964	2454
908.065	2474
908.166	1351
908.267	2869
908.367	1020
908.468	1277
908.569	2678
908.670	2795
908.770	2761
908.871	3471
908.971	2961
909.072	2539
909.173	1166
909.273	2488
909.374	3170
909.474	2284
909.575	1102
909.675	2387
909.776	2018
909.876	2395
909.977	2419
910.077	2245
910.177	3155
910.278	2055
910.378	1379
910.478	2775
910.579	2202
910.679	2804
910.779	2815
910.879	3183
910.980	3190
911.080	2355
911.180	1490
911.280	1254
911.380	853
911.480	1421
911.580	1907
911.680	2516
911.780	2958
911.880	3297
911.980	2040
912.080	2159
912.180	1876
912.280	2649
912.380	2290
912.480	2216
912.580	1600
912.679	2264
912.779	3439
912.879	2031
912.979	2582
913.078	1483
913.178	1072
913.278	1432
913.377	1959
913.477	1260
913.577	1770
913.676	2543
913.776	2825
913.875	1849
913.975	1907
914.074	2122
914.174	2630
914.273	1223
914.373	1979
914.472	2365
914.572	1571
914.671	1656
914.770	2089
914.870	2602
914.969	1605
915.068	2477
915.167	2598
915.267	1574
915.366	2401
915.465	1798
915.564	1972
915.663	2536
915.763	3186
915.862	2524
915.961	2863
916.060	1833
916.159	1546
916.258	1237
916.357	1899
916.456	2900
916.555	3067
916.654	2369
916.752	3250
916.851	2971
916.950	2568
917.049	2383
917.148	1233
917.247	1834
917.345	2030
917.444	1955
917.543	2244
917.642	2380
917.740	2626
917.839	3289
917.937	3928
918.036	3182
918.135	2157
918.233	2427
918.332	2280
918.430	1342
918.529	2468
918.627	1864
918.726	3128
918.824	3180
918.923	2290
919.021	2668
919.119	1645
919.218	2325
919.316	2072
919.414	2390
919.512	2781
919.611	2794
919.709	2700
919.807	3646
919.905	4049
920.003	4169
920.102	2914
920.200	3434
920.298	4126
920.396	3803
920.494	3304
920.592	3103
920.690	3327
920.788	2994
920.886	3650
920.984	4306
921.082	3790
921.180	4890
921.277	3615
921.375	5425
921.473	7264
921.571	6411
921.669	6180
921.766	6124
921.864	6258
921.962	6365
922.060	5335
922.157	6011
922.255	6832
922.352	6839
922.450	7699
922.548	7649
922.645	9070
922.743	11657
922.840	18474
922.938	19964
923.035	17075
923.133	16373
923.230	19864
923.327	23120
923.425	21045
923.522	20547
923.619	18560
923.717	16958
923.814	17381
923.911	16308
924.008	17253
924.106	15427
924.203	15795
924.300	17619
924.397	17263
924.494	16890
924.591	16200
924.688	15651
924.786	15633
924.883	17642
924.979	16471
925.077	15976
925.173	14986
925.270	16001
925.367	15688
925.464	16969
925.561	17458
925.658	16761
925.755	13738
925.852	17015
925.948	15740
926.045	15572
926.142	15641
926.239	15170
926.335	13559
926.432	15672
926.529	15682
926.625	17533
926.722	12761
926.818	13004
926.915	16059
927.011	15182
927.108	15212
927.204	15145
927.301	13550
927.397	15688
927.494	17242
927.590	10659
927.687	12965
927.783	16785
927.879	15867
927.976	13535
928.072	12371
928.168	15710
928.264	14344
928.361	13932
928.457	15101
928.553	13507
928.649	14084
928.745	13748
928.841	12619
928.937	13700
929.033	12892
929.129	13823
929.225	14672
929.321	12172
929.417	11712
929.513	14286
929.609	11627
929.705	12201
929.801	13849
929.897	11047
929.993	12198
930.089	13390
930.184	12176
930.280	13177
930.376	15123
930.471	11271
930.567	10023
930.663	12101
930.758	10668
930.854	11095
930.950	11136
931.045	10822
931.141	11876
931.236	14996
931.332	10992
931.427	9124
931.523	13547
931.618	12308
931.714	7953
931.809	10591
931.905	12585
932.000	8240
932.095	8901
932.191	13063
932.286	13935
932.381	10887
932.476	8695
932.572	10995
932.667	9058
932.762	9916
932.857	10901
932.952	13544
933.047	10229
933.142	8450
933.237	10173
933.332	11842
933.427	11516
933.522	9686
933.617	8299
933.712	10184
933.807	12775
933.902	12662
933.997	11517
934.092	8527
934.187	10444
934.282	10752
934.376	10649
934.471	11478
934.566	8564
934.661	9220
934.755	10925
934.850	10907
934.945	9702
935.039	8298
935.134	5999
935.228	9969
935.323	13683
935.417	8439
935.512	6116
935.606	7733
935.701	10235
935.795	11192
935.890	9087
935.984	8077
936.079	7489
936.173	9366
936.267	8958
936.362	6689
936.456	9126
936.550	11612
936.644	8604
936.738	7025
936.833	7083
936.927	5773
937.021	8380
937.115	9895
937.209	8942
937.303	8331
937.397	6729
937.491	8648
937.585	9197
937.679	8196
937.773	6904
937.867	5986
937.961	6848
938.055	11178
938.149	8641
938.243	5731
938.337	6093
938.430	7538
938.524	9422
938.618	7660
938.712	6433
938.805	7541
938.899	9319
938.993	10767
939.086	5679
939.180	5146
939.274	6861
939.367	8791
939.461	9220
939.554	7004
939.648	6816
939.741	6871
939.835	8956
939.928	10433
940.022	9946
940.115	6692
940.208	8663
940.302	9553
940.395	10647
940.488	7039
940.582	7043
940.675	6085
940.768	5877
940.861	8999
940.954	8743
941.048	4978
941.141	4340
941.234	5729
941.327	7016
941.420	7804
941.513	7428
941.606	6631
941.699	6889
941.792	8943
941.885	6832
941.978	7829
942.071	7713
942.164	4676
942.257	5252
942.349	7037
942.442	6697
942.535	5142
942.628	5988
942.721	6446
942.813	6110
942.906	7208
942.999	5552
943.091	6117
943.184	6375
943.277	5392
943.369	4472
943.462	3620
943.554	5709
943.647	6713
943.739	8595
943.832	7869
943.924	2877
944.017	4498
944.109	4078
944.201	6084
944.294	6047
944.386	6346
944.478	5061
944.571	4852
944.663	5333
944.755	6281
944.847	6692
944.940	5746
945.032	3060
945.124	3797
945.216	5565
945.308	6026
945.400	5785
945.492	5209
945.584	6845
945.676	7023
945.768	6007
945.860	7620
945.952	6532
946.044	6171
946.136	4575
946.228	5481
946.320	5385
946.412	5142
946.503	6651
946.595	6527
946.687	4903
946.779	3468
946.870	4368
946.962	3955
947.054	4943
947.145	6967
947.237	4521
947.329	5616
947.420	5388
947.512	4810
947.603	3751
947.695	4824
947.786	3730
947.878	4031
947.969	5723
948.061	6224
948.152	4953
948.243	3577
948.335	3584
948.426	4179
948.517	5320
948.609	5810
948.700	4235
948.791	4327
948.882	4137
948.973	3608
949.065	4691
949.156	3397
949.247	3060
949.338	4135
949.429	2863
949.520	4025
949.611	4609
949.702	5696
949.793	3816
949.884	3972
949.975	3499
950.066	3152
950.157	2946
950.247	4140
950.338	2736
950.429	3816
950.520	4741
950.611	3642
950.701	4294
950.792	5687
950.883	5083
950.973	3751
951.064	5612
951.155	4962
951.245	5594
951.336	4700
951.427	4254
951.517	6385
951.608	5100
951.698	3621
951.788	3107
951.879	2943
951.969	4049
952.060	2706
952.150	4044
952.240	5553
952.331	3356
952.421	5024
952.511	2579
952.602	2546
952.692	1920
952.782	3236
952.872	3497
952.962	4467
953.052	4423
953.143	3499
953.233	3653
953.323	3790
953.413	5244
953.503	4813
953.593	3672
953.683	3947
953.773	3222
953.863	2687
953.953	3014
954.042	3593
954.132	4111
954.222	4188
954.312	3648
954.402	2886
954.492	3034
954.581	4558
954.671	2826
954.761	3289
954.850	4179
954.940	1807
955.030	2517
955.119	2836
955.209	2746
955.298	3355
955.388	4405
955.477	4390
955.567	2034
955.656	3051
955.746	3929
955.835	3265
955.925	2227
956.014	4039
956.103	4686
956.193	5512
956.282	4689
956.371	3569
956.461	4198
956.550	3466
956.639	3108
956.728	2621
956.817	3013
956.906	3555
956.995	4692
957.085	3233
957.174	3693
957.263	2598
957.352	2165
957.441	2732
957.530	3549
957.619	4258
957.708	2315
957.796	2961
957.885	3454
957.974	3084
958.063	2983
958.152	1717
958.241	2404
958.329	2007
958.418	2400
958.507	3201
958.596	4747
958.684	2513
958.773	3543
958.861	2369
958.950	2555
959.039	2802
959.127	3264
959.216	3390
959.304	2598
959.393	2657
959.481	3963
959.570	2071
959.658	1587
959.746	2646
959.835	2746
959.923	2683
960.011	2302
960.100	3017
960.188	3824
960.276	2770
960.365	1583
960.453	1811
960.541	2180
960.629	2181
960.717	1794
960.805	1214
960.893	1996
960.981	2919
961.069	4437
961.158	4049
961.245	4570
961.333	3791
961.421	3323
961.509	3421
961.597	3002
961.685	3077
961.773	2819
961.861	2730
961.949	3908
962.036	2317
962.124	2213
962.212	2222
962.299	1850
962.387	1835
962.475	1530
962.562	1798
962.650	2909
962.738	2500
962.825	1061
962.913	1951
963.000	1859
963.088	2367
963.175	2299
963.263	3432
963.350	1964
963.438	2165
963.525	1997
963.612	3362
963.700	2604
963.787	2812
963.874	2213
963.962	2426
964.049	1969
964.136	1630
964.223	1653
964.310	2086
964.398	2476
964.485	2114
964.572	3134
964.659	2568
964.746	2847
964.833	1440
964.920	1773
965.007	2286
965.094	2244
965.181	3069
965.268	2395
965.355	1972
965.441	2737
965.528	1426
965.615	2715
965.702	2921
965.789	1633
965.875	2314
965.962	2479
966.049	2693
966.136	3881
966.222	3423
966.309	3662
966.395	2871
966.482	2748
966.569	3362
966.655	3747
966.742	2802
966.828	1515
966.915	2559
967.001	1660
967.087	968
967.174	2131
967.260	2376
967.347	1944
967.433	2829
967.519	2409
967.605	1846
967.692	1787
967.778	2465
967.864	1536
967.950	1474
968.036	1625
968.123	2900
968.209	2329
968.295	730
968.381	2221
968.467	2154
968.553	1076
968.639	3550
968.725	1903
968.811	3182
968.897	3404
968.983	1545
969.069	954
969.154	1726
969.240	1670
969.326	1544
969.412	1521
969.497	2234
969.583	1248
969.669	2476
969.755	2968
969.840	2817
969.926	4786
970.012	5766
970.097	6647
970.183	4941
970.268	3137
970.354	3119
970.439	1160
970.525	2447
970.610	1527
970.696	3422
970.781	1466
970.866	756
970.952	2384
971.037	1510
971.122	2429
971.208	2570
971.293	1667
971.378	1906
971.463	1970
971.549	1237
971.634	1580
971.719	2021
971.804	1672
971.889	3160
971.974	2038
972.059	1619
972.144	2833
972.229	1730
972.314	2179
972.399	2254
972.484	1016
972.569	1202
972.654	183
972.739	2567
972.824	2388
972.908	1280
972.993	897
973.078	1314
973.163	1709
973.247	3027
973.332	890
973.417	3274
973.501	1880
973.586	2397
973.671	2163
973.755	2006
973.840	2213
973.924	2597
974.009	4181
974.093	3606
974.178	3534
974.262	3133
974.346	1852
974.431	2411
974.515	2165
974.600	1339
974.684	3074
974.768	2545
974.852	3152
974.937	1614
975.021	3095
975.105	1962
975.189	2104
975.273	2513
975.358	1543
975.442	983
975.526	2043
975.610	1038
975.694	1244
975.778	2350
975.862	1767
975.946	223
976.030	3029
976.114	1452
976.198	2318
976.281	1649
976.365	2556
976.449	1895
976.533	2223
976.617	1188
976.700	1749
976.784	924
976.868	1522
976.951	1376
977.035	790
977.119	1492
977.202	1855
977.286	2667
977.369	3596
977.453	5071
977.536	4111
977.620	3235
977.703	3873
977.787	2045
977.870	3223
977.953	3013
978.037	1209
978.120	2452
978.203	2236
978.287	2323
978.370	2498
978.453	1810
978.536	2508
978.620	2799
978.703	2564
978.786	1059
978.869	734
978.952	514
979.035	3751
979.118	2711
979.201	1812
979.284	2822
979.367	2020
979.450	2101
979.533	1510
979.616	1510
979.699	798
979.782	2426
979.865	2224
979.948	1899
980.030	1397
980.113	1820
980.196	1022
980.279	2532
980.361	2441
980.444	2301
980.526	3494
980.609	4637
980.692	4659
980.774	4568
980.857	2772
980.939	3445
981.022	2536
981.104	2715
981.187	1949
981.269	2443
981.352	1776
981.434	2050
981.516	1991
981.599	3140
981.681	2536
981.763	3191
981.846	1979
981.928	2760
982.010	1969
982.092	1657
982.174	2251
982.256	2637
982.339	2146
982.421	2910
982.503	2422
982.585	680
982.667	2619
982.749	2184
982.831	2494
982.913	2249
982.995	2748
983.077	1491
983.158	4225
983.240	1933
983.322	3328
983.404	5906
983.486	4850
983.568	3662
983.649	3223
983.731	4176
983.813	4278
983.894	3626
983.976	2923
984.058	3244
984.139	4487
984.221	2465
984.302	3353
984.384	2562
984.465	2427
984.547	3450
984.628	2126
984.710	3778
984.791	2760
984.872	3293
984.954	2518
985.035	2767
985.116	2971
985.198	1681
985.279	3097
985.360	3582
985.441	2015
985.522	3974
985.604	3252
985.685	1589
985.766	3371
985.847	4344
985.928	3097
986.009	2560
986.090	2285
986.171	2907
986.252	2706
986.333	3267
986.414	2714
986.495	3833
986.576	3174
986.656	3793
986.737	4350
986.818	4767
986.899	2742
986.980	3037
987.060	4524
987.141	3775
987.222	4916
987.302	5273
987.383	5084
987.464	5502
987.544	4051
987.625	4630
987.705	5122
987.786	5151
987.866	4277
987.947	3828
988.027	4870
988.108	3928
988.188	4733
988.268	3797
988.349	4401
988.429	4345
988.509	4503
988.589	3761
988.670	2727
988.750	4351
988.830	3823
988.910	4197
988.990	4587
989.070	4161
989.151	4327
989.231	3236
989.311	4438
989.391	4038
989.471	4344
989.551	4146
989.631	3875
989.711	5050
989.791	2943
989.870	2997
989.950	4157
990.030	3697
990.110	3629
990.190	2304
990.269	3054
990.349	3504
990.429	3884
990.509	2380
990.588	2916
990.668	3024
990.747	3040
990.827	2436
990.907	3118
990.986	3709
991.066	3101
991.145	2387
991.225	3726
991.304	2830
991.383	3037
991.463	2318
991.542	3641
991.622	2512
991.701	2199
991.780	2522
991.859	2054
991.939	2245
992.018	2333
992.097	3693
992.176	2522
992.256	2220
992.335	2438
992.414	3176
992.493	1104
992.572	1758
992.651	3178
992.730	2617
992.809	2339
992.888	2307
992.967	2807
993.046	3549
993.125	264
993.203	1968
993.282	2943
993.361	1949
993.440	1701
993.519	1311
993.597	2132
993.676	1796
993.755	3477
993.834	2337
993.912	299
993.991	2355
994.069	1125
994.148	1398
994.226	754
994.305	2206
994.384	2396
994.462	3073
994.540	237
994.619	1319
994.697	1452
994.776	2204
994.854	2089
994.932	575
995.011	1062
995.089	1707
995.167	1911
995.245	2526
995.324	341
995.402	2325
995.480	1420
995.558	1895
995.636	1107
995.714	1444
995.792	1668
995.870	929
995.948	769
996.026	1137
996.104	784
996.182	1579
996.260	81
996.338	581
996.416	-177
996.494	889
996.572	1906
996.649	321
996.727	84
996.805	2438
996.883	608
996.960	618
997.038	1016
997.116	1702
997.193	794
997.271	314
997.348	-262
997.426	1698
997.504	563
997.581	1756
997.658	317
997.736	-735
997.813	-355
997.891	1518
997.968	48
998.046	689
998.123	1678
998.200	646
998.277	1023
998.355	1672
998.432	-393
998.509	646
998.586	845
998.663	1296
998.741	108
998.818	-292
998.895	-384
998.972	1110
999.049	1532
999.126	-60
999.203	875
999.280	508
999.357	351
999.434	648
999.511	343
999.587	491
999.664	-581
999.741	622
999.818	524
999.895	926
999.971	70
1000.048	508
1000.125	635
1000.202	685
1000.278	727
1000.355	539
1000.431	568
1000.508	-745
1000.584	900
1000.661	162
1000.738	-466
1000.814	-554
1000.890	815
1000.967	-414
1001.043	501
1001.120	-1651
1001.196	-245
1001.272	-176
1001.349	757
1001.425	731
1001.501	-409
1001.577	191
1001.654	874
1001.730	606
1001.806	301
1001.882	-757
1001.958	915
1002.034	434
1002.110	-617
1002.186	-296
1002.262	-163
1002.338	-730
1002.414	759
1002.490	270
1002.566	-139
1002.642	-832
1002.718	887
1002.794	156
1002.870	-389
1002.945	-505
1003.021	-1040
1003.097	-372
1003.173	121
1003.248	-40
1003.324	-323
1003.400	-157
1003.475	-594
1003.551	-151
1003.626	131
1003.702	-601
1003.777	-976
1003.853	-249
1003.928	-965
1004.004	-861
1004.079	-463
1004.155	397
1004.230	-973
1004.305	563
1004.381	-737
1004.456	-435
1004.531	13
1004.607	-674
1004.682	-474
1004.757	-321
1004.832	-396
1004.907	-720
1004.982	-53
1005.057	898
1005.133	-50
1005.208	-152
1005.283	-802
1005.358	483
1005.433	-1063
1005.508	-714
1005.583	-1312
1005.657	-449
1005.732	28
1005.807	-728
1005.882	-652
1005.957	-402
1006.032	354
1006.106	-774
1006.181	-976
1006.256	-375
1006.331	-1099
1006.405	-932
1006.480	-626
1006.554	-1018
1006.629	-974
1006.704	-1066
1006.778	-648
1006.853	-121
1006.927	-644
1007.002	-897
1007.076	-693
1007.150	-950
1007.225	-493
1007.299	-112
1007.373	-730
1007.448	-660
1007.522	-495
1007.596	-978
1007.671	-874
1007.745	-94
1007.819	-966
1007.893	-89
1007.967	-355
1008.041	-762
1008.115	221
1008.190	-603
1008.264	-716
1008.338	-1074
1008.412	-1254
1008.486	-363
1008.560	-210
1008.633	-611
1008.707	-910
1008.781	-242
1008.855	-326
1008.929	-323
1009.003	-1012
1009.076	-1203
1009.150	-515
1009.224	-1174
1009.298	-772
1009.371	-1107
1009.445	-870
1009.519	-487
1009.592	-1903
1009.666	-1212
1009.739	-746
1009.813	-1292
1009.886	-270
1009.960	-1403
1010.033	-665
1010.107	-1013
1010.180	-1450
1010.253	-1335
1010.327	-1335
1010.400	-1286
1010.473	-811
1010.547	135
1010.620	-1012
1010.693	-105
1010.766	-1130
1010.840	-876
1010.913	-891
1010.986	-1444
1011.059	-336
1011.132	-1433
1011.205	-540
1011.278	-620
1011.351	-1153
1011.424	-559
1011.497	-1324
1011.570	-713
1011.643	-653
1011.716	-1441
1011.789	-197
1011.862	-790
1011.934	-632
1012.007	-1968
1012.080	-278
1012.153	-980
1012.225	-672
1012.298	-1136
1012.371	-1193
1012.443	-548
1012.516	-652
1012.588	-680
1012.661	-532
1012.733	-1172
1012.806	-204
1012.879	-1326
1012.951	-970
1013.023	-1133
1013.096	-1380
1013.168	-1156
1013.241	-292
1013.313	-1145
1013.385	-1286
1013.458	-337
1013.530	-457
1013.602	-1133
1013.674	-946
1013.746	-1406
1013.819	-1740
1013.891	-980
1013.963	-1711
1014.035	-926
1014.107	-780
1014.179	-793
1014.251	-2132
1014.323	-966
1014.395	-422
1014.467	-1570
1014.539	-772
1014.611	-1113
1014.683	-1026
1014.754	-400
1014.826	-1591
1014.898	-573
1014.970	-1672
1015.042	-369
1015.113	-540
1015.185	-965
1015.257	-1381
1015.328	-179
1015.400	-1021
1015.471	-1222
1015.543	-2053
1015.615	-946
1015.686	-1538
1015.757	-1378
1015.829	-750
1015.901	-1202
1015.972	-1007
1016.043	-1590
1016.115	-1484
1016.186	-327
1016.257	-866
1016.328	-646
1016.400	-680
1016.471	-933
1016.542	-1650
1016.613	-928
1016.685	-1407
1016.756	-1013
1016.827	-1242
1016.898	-859
1016.969	-792
1017.040	-1183
1017.111	-1806
1017.182	-721
1017.253	-358
1017.324	-1485
1017.395	-1108
1017.466	-360
1017.537	-689
1017.608	-1120
1017.678	-980
1017.749	-1218
1017.820	-1422
1017.891	-712
1017.961	-1497
1018.032	-339
1018.103	34
1018.173	-806
1018.244	-1526
1018.315	-831
1018.385	-894
1018.456	-492
1018.526	-981
1018.597	-1393
1018.667	-1049
1018.738	-1451
1018.808	-1601
1018.878	-1177
1018.949	-1901
1019.019	-868
1019.089	-1064
1019.160	-1390
1019.230	-1828
1019.300	-99
1019.371	-2196
1019.441	-1418
1019.511	-2037
1019.581	-1063
1019.651	-1670
1019.721	-1387
1019.791	-1393
1019.861	-1687
1019.931	-1766
1020.001	-862
1020.071	-788
1020.141	-1605
1020.211	-1779
1020.281	-1306
1020.351	-906
1020.421	-614
1020.491	-348
1020.560	-2091
1020.630	-1893
1020.700	-677
1020.770	-1756
1020.839	-991
1020.909	-1294
1020.979	-1958
1021.048	-1336
1021.118	-1793
1021.187	-1374
1021.257	-1000
1021.326	-762
1021.396	-1489
1021.465	-1009
1021.535	-1199
1021.604	-1509
1021.674	-855
1021.743	-619
1021.812	-1598
1021.882	-949
1021.951	-1155
1022.020	-1044
1022.089	-887
1022.159	-1885
1022.228	-443
1022.297	-1053
1022.366	-1666
1022.435	-1687
1022.504	-1310
1022.573	-1507
1022.642	-1457
1022.711	-1518
1022.781	-1022
1022.849	-1317
1022.918	-1599
1022.987	-2073
1023.056	-1899
1023.125	-1138
1023.194	-1622
1023.263	-1596
1023.331	-1219
1023.400	-2120
1023.469	-2118
1023.538	-1614
1023.606	-1816
1023.675	-1330
1023.744	-1797
1023.812	-2438
1023.881	-1689
1023.949	-1150
1024.018	-1745
1024.086	-1641
1024.155	-1282
1024.223	-1818
1024.292	-1157
1024.360	-1494
1024.429	-1097
1024.497	-913
1024.565	-1086
1024.634	-2045
1024.702	-965
1024.770	-1641
1024.838	-2053
1024.907	-2156
1024.975	-884
1025.043	-1583
1025.111	-1668
1025.179	-1208
1025.247	-2109
1025.315	-766
1025.383	-1827
1025.451	-2413
1025.519	-1589
1025.587	-1318
1025.655	-1714
1025.723	-2131
1025.791	-1956
1025.859	-1360
1025.927	-1169
1025.995	-2338
1026.062	-890
1026.130	-820
1026.198	-1390
1026.266	-1789
1026.333	-1008
1026.401	-981
1026.469	-1563
1026.536	-1676
1026.604	-2290
1026.671	-1218
1026.739	-1846
1026.806	-1756
1026.874	-1905
1026.941	-1004
1027.009	-995
1027.076	-1445
1027.144	-1301
1027.211	-2134
1027.278	-2212
1027.345	-1912
1027.413	-1578
1027.480	-1886
1027.547	-980
1027.614	-2261
1027.682	-1606
1027.749	-1849
1027.816	-1674
1027.883	-1181
1027.950	-1026
1028.017	-1866
1028.084	-1729
1028.151	-1991
1028.218	-1028
1028.285	-1778
1028.352	-1629
1028.419	-2858
1028.486	-2009
1028.553	-1986
1028.619	-2333
1028.686	-1709
1028.753	-1321
1028.820	-787
1028.886	-1760
1028.953	-1646
1029.020	-1668
1029.086	-1529
1029.153	-1736
1029.220	-2193
1029.286	-549
1029.353	-1267
1029.419	-2113
1029.486	-1648
1029.552	-2386
1029.619	-2679
1029.685	-2386
1029.751	-1497
1029.818	-1504
1029.884	-2158
1029.951	-415
1030.017	-2437
1030.083	-1945
1030.149	-1912
1030.216	-2425
1030.282	-1752
1030.348	-1427
1030.414	-2525
1030.480	-2951
1030.546	-3081
1030.612	-1682
1030.678	-2451
1030.744	-1700
1030.810	-2317
1030.876	-1684
1030.942	-2801
1031.008	-1829
1031.074	-1830
1031.140	-1558
1031.206	-1777
1031.272	-2441
1031.337	-2086
1031.403	-586
1031.469	-2975
1031.534	-2479
1031.600	-1903
1031.666	-2252
1031.731	-2039
1031.797	-1229
1031.863	-2246
1031.928	-1881
1031.994	-2006
1032.059	-2347
1032.125	-1268
1032.190	-1411
1032.256	-1985
1032.321	-2507
1032.386	-2119
1032.452	-2248
1032.517	-2354
1032.582	-2427
1032.647	-1780
1032.713	-1889
1032.778	-1446
1032.843	-3075
1032.908	-1758
1032.974	-1649
1033.039	-1479
1033.104	-1613
1033.169	-2390
1033.234	-2286
1033.299	-1612
1033.364	-2142
1033.429	-2681
1033.494	-1291
1033.559	-2355
1033.624	-2099
1033.688	-1420
1033.753	-2511
1033.818	-1466
1033.883	-1385
1033.948	-1549
1034.013	-1416
1034.077	-614
1034.142	-879
1034.207	495
1034.271	2559
1034.336	2309
1034.400	1151
1034.465	-1148
1034.530	-857
1034.594	-1837
1034.658	-1733
1034.723	-1999
1034.787	-1894
1034.852	-939
1034.916	-2229
1034.981	-2369
1035.045	-2098
1035.109	-2509
1035.173	-2040
1035.238	-2869
1035.302	-1911
1035.366	-2156
1035.430	-1472
1035.495	-2187
1035.559	-2236
1035.623	-2445
1035.687	-1857
1035.751	-1708
1035.815	-1646
1035.879	-1591
1035.943	-2024
1036.007	-2292
1036.071	-1943
1036.135	-1736
1036.198	-1509
1036.262	-2680
1036.326	-2110
1036.390	-1589
1036.454	-1387
1036.517	-1858
1036.581	-1919
1036.645	-2357
1036.709	-2230
1036.772	-2538
1036.836	-2555
1036.900	-1498
1036.963	-2240
1037.026	-1937
1037.090	-1728
1037.154	-2042
1037.217	-1877
1037.280	-1920
1037.344	-2052
1037.407	-1600
1037.471	-2170
1037.534	-2232
1037.597	-2233
1037.661	-1975
1037.724	-1822
1037.787	-2502
1037.850	-1963
1037.913	-1874
1037.977	-938
1038.040	-2472
1038.103	-2434
1038.166	-1541
1038.229	-3162
1038.292	-1880
1038.355	-1958
1038.418	-1072
1038.481	-1998
1038.544	-2494
1038.607	-1998
1038.670	-2312
1038.732	-2098
1038.795	-2575
1038.858	-2442
1038.921	-2178
1038.984	-1243
1039.046	-2227
1039.109	-2808
1039.172	-2303
1039.234	-2662
1039.297	-1968
1039.360	-2088
1039.422	-2525
1039.485	-1858
1039.547	-2519
1039.610	-2528
1039.672	-1978
1039.734	-2093
1039.797	-2408
1039.859	-1906
1039.922	-2272
1039.984	-1308
1040.046	-1664
1040.109	-1828
1040.171	-1887
1040.233	-1624
1040.295	-2598
1040.358	-2174
1040.420	-2269
1040.482	-2300
1040.544	-2152
1040.606	-2043
1040.668	-1522
1040.730	-2309
1040.792	-2067
1040.854	-1670
1040.916	-1397
1040.978	-2557
1041.040	-1300
1041.102	-1372
1041.164	-1926
1041.225	-2196
1041.287	-2277
1041.349	-2204
1041.411	-2226
1041.472	-2376
1041.534	-2179
1041.596	-2240
1041.657	-2516
1041.719	-2307
1041.781	-2149
1041.842	-2864
1041.904	-1344
1041.965	-1732
1042.027	-1688
1042.088	-1441
1042.150	-1812
1042.211	-2254
1042.272	-1680
1042.334	-1674
1042.395	-1240
1042.456	-2179
1042.518	-1555
1042.579	-1106
1042.640	-2185
1042.701	-1688
1042.763	-2308
1042.824	-2227
1042.885	-2023
1042.946	-2072
1043.007	-1902
1043.068	-1992
1043.129	-2267
1043.190	-1858
1043.251	-2151
1043.312	-1283
1043.373	-2586
1043.434	-1799
1043.495	-1496
1043.556	-1836
1043.616	-1901
1043.677	-2146
1043.738	-1676
1043.799	-1641
1043.859	-1547
1043.920	-2490
1043.981	-1994
1044.041	-1657
1044.102	-2204
1044.162	-2490
1044.223	-2325
1044.284	-2224
1044.344	-1705
1044.405	-1639
1044.465	-1995
1044.525	-1782
1044.586	-1845
1044.646	-2118
1044.707	-1698
1044.767	-1930
1044.827	-1709
1044.887	-2198
1044.948	-1896
1045.008	-1480
1045.068	-2092
1045.128	-1614
1045.188	-2137
1045.249	-1792
1045.309	-1791
1045.369	-1648
1045.429	-1558
1045.489	-2226
1045.549	-1972
1045.609	-1978
1045.669	-1741
1045.729	-2672
1045.789	-1727
1045.848	-1433
1045.908	-1854
1045.968	-1277
1046.028	-1160
1046.088	-1543
1046.147	-1779
1046.207	-1324
1046.267	-1088
1046.326	-433
1046.386	-2128
1046.446	-618
1046.505	-863
1046.565	-618
1046.624	-1167
1046.684	-689
1046.743	-876
1046.803	-757
1046.862	-212
1046.922	0
