'Start Wavelength	183.907
'End Wavelength	1046.922
'Gate Delay	5.000
'Gate Width (ms)	1.050
'Laser Output Level	0.000
'X Position	0.000
'Y Position	0.000
'Z Position	0.000
'Grid Point Number	1.000
'Shot Number	100.000
183.907	634.000
183.977	-112.000
184.047	101
184.116	419
184.186	249
184.256	328
184.325	-346
184.395	-441
184.465	721
184.534	231
184.604	-517
184.674	226
184.743	252
184.813	598
184.883	18
184.952	385
185.022	753
185.092	432
185.161	-455
185.231	-153
185.301	432
185.370	548
185.440	-301
185.509	-171
185.579	-305
185.649	74
185.718	220
185.788	602
185.857	-178
185.927	-95
185.996	102
186.066	-216
186.136	151
186.205	72
186.275	-6
186.344	314
186.414	-105
186.483	-632
186.553	546
186.622	1787
186.692	-169
186.761	113
186.831	565
186.900	122
186.970	-197
187.039	668
187.109	366
187.178	90
187.248	156
187.317	320
187.387	161
187.456	-452
187.526	11
187.595	-143
187.664	29
187.734	605
187.803	-131
187.873	-118
187.942	20
188.012	659
188.081	71
188.150	141
188.220	434
188.289	42
188.358	123
188.428	666
188.497	3
188.567	506
188.636	-325
188.705	58
188.775	147
188.844	-435
188.913	532
188.983	457
189.052	-150
189.121	283
189.191	-250
189.260	371
189.329	153
189.399	14
189.468	378
189.537	71
189.606	304
189.676	-250
189.745	-288
189.814	178
189.883	-413
189.953	169
190.022	66
190.091	668
190.161	508
190.230	1088
190.299	-10
190.368	163
190.437	-807
190.507	-123
190.576	-10
190.645	764
190.714	18
190.783	18
190.853	613
190.922	875
190.991	378
191.060	221
191.129	153
191.198	319
191.268	-238
191.337	651
191.406	488
191.475	634
191.544	-65
191.613	820
191.682	426
191.752	-41
191.821	-77
191.890	88
191.959	46
192.028	-120
192.097	700
192.166	332
192.235	-842
192.304	777
192.373	560
192.442	646
192.511	5
192.580	347
192.650	1051
192.719	214
192.788	364
192.857	771
192.926	-224
192.995	-315
193.064	3
193.133	-447
193.202	361
193.271	375
193.340	174
193.409	53
193.478	1366
193.547	268
193.615	-177
193.684	697
193.753	-137
193.822	838
193.891	481
193.960	487
194.029	-751
194.098	-210
194.167	-320
194.236	346
194.305	140
194.374	553
194.443	43
194.512	698
194.580	125
194.649	264
194.718	-101
194.787	133
194.856	314
194.925	1065
194.994	560
195.062	-369
195.131	-25
195.200	648
195.269	574
195.338	552
195.407	197
195.475	57
195.544	376
195.613	412
195.682	344
195.751	378
195.819	167
195.888	154
195.957	788
196.026	133
196.094	1115
196.163	-490
196.232	-196
196.301	15
196.369	-139
196.438	451
196.507	-310
196.576	-558
196.644	-33
196.713	21
196.782	-440
196.850	-316
196.919	154
196.988	246
197.056	137
197.125	190
197.194	116
197.262	465
197.331	812
197.400	-239
197.468	-483
197.537	-29
197.606	334
197.674	171
197.743	338
197.812	59
197.880	-2
197.949	280
198.017	-10
198.086	-160
198.155	-187
198.223	810
198.292	397
198.360	78
198.429	86
198.497	-685
198.566	-92
198.635	167
198.703	473
198.772	405
198.840	429
198.909	-190
198.977	607
199.046	468
199.114	668
199.183	325
199.251	176
199.320	18
199.388	186
199.457	-223
199.525	502
199.594	253
199.662	-86
199.731	-45
199.799	-540
199.867	254
199.936	161
200.004	489
200.073	841
200.141	204
200.210	73
200.278	-222
200.346	295
200.415	566
200.483	167
200.552	202
200.620	-59
200.688	329
200.757	-221
200.825	741
200.893	-10
200.962	318
201.030	507
201.098	354
201.167	242
201.235	64
201.303	-236
201.372	239
201.440	-117
201.508	136
201.577	-432
201.645	258
201.713	-89
201.781	258
201.850	266
201.918	110
201.986	770
202.055	476
202.123	-262
202.191	1437
202.259	230
202.327	-263
202.396	-446
202.464	124
202.532	219
202.600	867
202.669	-31
202.737	258
202.805	-259
202.873	262
202.941	-10
203.009	-151
203.078	-580
203.146	-544
203.214	178
203.282	-131
203.350	191
203.418	294
203.487	559
203.555	-81
203.623	403
203.691	204
203.759	-491
203.827	512
203.895	2
203.963	235
204.031	31
204.099	-50
204.168	-532
204.236	566
204.304	1105
204.372	450
204.440	367
204.508	-547
204.576	25
204.644	-11
204.712	2
204.780	322
204.848	500
204.916	-601
204.984	-605
205.052	485
205.120	298
205.188	46
205.256	-281
205.324	520
205.392	-151
205.460	-561
205.528	-524
205.596	213
205.664	150
205.732	-46
205.799	688
205.867	513
205.935	-1082
206.003	717
206.071	276
206.139	-495
206.207	268
206.275	42
206.343	-64
206.411	208
206.478	32
206.546	304
206.614	166
206.682	-78
206.750	57
206.818	-241
206.885	838
206.953	-1161
207.021	1005
207.089	749
207.157	-196
207.225	-471
207.292	-692
207.360	694
207.428	-347
207.496	270
207.563	360
207.631	38
207.699	-58
207.767	165
207.834	-112
207.902	-307
207.970	345
208.038	-231
208.105	457
208.173	235
208.241	-188
208.309	372
208.376	-85
208.444	355
208.512	-501
208.579	234
208.647	-68
208.715	119
208.782	396
208.850	885
208.918	-199
208.985	349
209.053	-347
209.120	462
209.188	-167
209.256	-254
209.323	-429
209.391	-168
209.459	943
209.526	514
209.594	-579
209.661	153
209.729	416
209.796	298
209.864	165
209.932	-1750
209.999	950
210.067	188
210.134	-294
210.202	-149
210.269	263
210.337	988
210.404	523
210.472	284
210.539	229
210.607	328
210.674	-451
210.742	740
210.809	-50
210.877	614
210.944	634
211.012	-1166
211.079	928
211.146	45
211.214	-75
211.281	874
211.349	465
211.416	181
211.484	813
211.551	192
211.618	-635
211.686	78
211.753	-348
211.821	361
211.888	-403
211.955	282
212.023	-130
212.090	220
212.157	-50
212.225	926
212.292	1083
212.359	720
212.427	1913
212.494	617
212.561	505
212.629	-350
212.696	448
212.763	423
212.831	-85
212.898	387
212.965	28
213.032	362
213.100	-47
213.167	76
213.234	519
213.301	643
213.369	-274
213.436	-425
213.503	-250
213.570	432
213.638	229
213.705	-359
213.772	-136
213.839	431
213.906	192
213.973	791
214.041	-48
214.108	344
214.175	184
214.242	-263
214.309	-60
214.376	-186
214.444	538
214.511	448
214.578	709
214.645	379
214.712	436
214.779	1007
214.846	-685
214.913	-323
214.980	574
215.048	255
215.115	815
215.182	70
215.249	-115
215.316	-639
215.383	832
215.450	294
215.517	-4
215.584	221
215.651	-514
215.718	-586
215.785	189
215.852	-285
215.919	70
215.986	37
216.053	630
216.120	-586
216.187	269
216.254	93
216.321	-415
216.388	520
216.455	8
216.522	283
216.589	783
216.656	757
216.722	-307
216.789	237
216.856	-105
216.923	762
216.990	102
217.057	104
217.124	21
217.191	-287
217.258	89
217.324	308
217.391	-55
217.458	27
217.525	146
217.592	207
217.659	29
217.725	434
217.792	-30
217.859	1368
217.926	-254
217.993	401
218.059	554
218.126	214
218.193	51
218.260	-163
218.327	59
218.393	-286
218.460	-704
218.527	346
218.594	-210
218.660	-120
218.727	806
218.794	-886
218.860	-41
218.927	-399
218.994	41
219.061	105
219.127	553
219.194	493
219.261	490
219.327	246
219.394	239
219.461	-312
219.527	373
219.594	975
219.661	199
219.727	-436
219.794	36
219.860	-574
219.927	-352
219.994	1094
220.060	737
220.127	2863
220.193	977
220.260	325
220.326	376
220.393	12
220.460	770
220.526	45
220.593	-45
220.659	1235
220.726	-8
220.792	1292
220.859	1345
220.925	1145
220.992	1410
221.058	1433
221.125	1938
221.191	400
221.258	338
221.324	458
221.391	189
221.457	-443
221.524	292
221.590	252
221.657	934
221.723	399
221.789	620
221.856	1204
221.922	266
221.989	376
222.055	-40
222.121	-118
222.188	1614
222.254	1088
222.321	485
222.387	68
222.453	379
222.520	137
222.586	-460
222.652	-235
222.719	-1064
222.785	269
222.851	-820
222.918	218
222.984	-87
223.050	-228
223.116	-1288
223.183	814
223.249	-541
223.315	-433
223.382	134
223.448	-163
223.514	-773
223.580	117
223.647	-651
223.713	-187
223.779	-106
223.845	-275
223.911	154
223.978	107
224.044	79
224.110	-31
224.176	-188
224.242	-692
224.309	-760
224.375	571
224.441	-217
224.507	-675
224.573	-541
224.639	-302
224.705	-802
224.772	20
224.838	-293
224.904	423
224.970	-315
225.036	-354
225.102	-749
225.168	-149
225.234	-14
225.300	-407
225.366	-168
225.432	516
225.499	-349
225.565	-324
225.631	16
225.697	-222
225.763	368
225.829	420
225.895	-296
225.961	420
226.027	261
226.093	460
226.159	654
226.225	1398
226.291	2270
226.357	2742
226.423	1326
226.489	1056
226.554	-243
226.620	325
226.686	649
226.752	1119
226.818	1660
226.884	4521
226.950	3803
227.016	1879
227.082	985
227.148	828
227.214	75
227.279	167
227.345	-187
227.411	1063
227.477	1606
227.543	3625
227.609	3429
227.674	2462
227.740	861
227.806	1051
227.872	-279
227.938	-341
228.003	456
228.069	334
228.135	-246
228.201	425
228.267	-714
228.332	-551
228.398	-1271
228.464	-10
228.530	-249
228.595	796
228.661	-1331
228.727	-965
228.792	642
228.858	-907
228.924	-2034
228.990	1279
229.055	-1009
229.121	-101
229.187	-361
229.252	-27
229.318	-766
229.384	419
229.449	-1320
229.515	-2022
229.581	-652
229.646	1586
229.712	185
229.777	262
229.843	231
229.909	-19
229.974	-479
230.040	-50
230.105	-154
230.171	-631
230.236	1017
230.302	-31
230.368	196
230.433	-528
230.499	-229
230.564	28
230.630	-775
230.695	-51
230.761	250
230.826	-1463
230.892	320
230.957	-1099
231.023	-560
231.088	-447
231.154	-288
231.219	199
231.284	-938
231.350	741
231.415	-616
231.481	726
231.546	-10
231.612	41
231.677	-474
231.742	-998
231.808	856
231.873	-470
231.939	-2039
232.004	605
232.069	1078
232.135	-569
232.200	-739
232.265	117
232.331	-948
232.396	-688
232.461	-186
232.527	-422
232.592	-966
232.657	448
232.723	-176
232.788	-198
232.853	514
232.918	-107
232.984	-10
233.049	0
233.114	-597
233.179	-209
233.245	888
233.310	321
233.375	-1710
233.440	-228
233.506	-677
233.571	-901
233.636	-309
233.701	-230
233.766	-636
233.832	-422
233.897	-384
233.962	-1819
234.027	483
234.092	-53
234.157	-569
234.222	-1123
234.288	-809
234.353	6
234.418	-337
234.483	259
234.548	-529
234.613	-132
234.678	-193
234.743	-449
234.808	896
234.873	-1607
234.938	551
235.004	86
235.069	98
235.134	-1038
235.199	-322
235.264	92
235.329	-1381
235.394	242
235.459	276
235.524	-1024
235.589	287
235.654	-345
235.719	-1075
235.784	56
235.849	-647
235.913	-165
235.978	-476
236.043	-500
236.108	-557
236.173	-557
236.238	1
236.303	-727
236.368	-957
236.433	983
236.498	-168
236.563	58
236.627	1295
236.692	6907
236.757	4922
236.822	1729
236.887	-17
236.952	842
237.017	-1420
237.081	1714
237.146	96
237.211	2718
237.276	5595
237.341	10005
237.405	3517
237.470	642
237.535	489
237.600	-162
237.664	610
237.729	-1129
237.794	-875
237.859	1237
237.923	924
237.988	668
238.053	535
238.118	60
238.182	677
238.247	1593
238.312	-919
238.376	-21
238.441	-1708
238.506	798
238.570	-1737
238.635	1003
238.700	286
238.764	-630
238.829	362
238.893	-690
238.958	219
239.023	136
239.087	-299
239.152	695
239.216	-1110
239.281	356
239.346	-90
239.410	398
239.475	-587
239.539	851
239.604	-512
239.668	1667
239.733	768
239.797	3549
239.862	6586
239.926	5226
239.991	3267
240.055	1516
240.120	-143
240.184	44
240.249	-408
240.313	-737
240.378	-520
240.442	153
240.507	1036
240.571	-169
240.635	-907
240.700	336
240.764	252
240.829	-473
240.893	-836
240.957	-312
241.022	173
241.086	1383
241.151	-544
241.215	-402
241.279	704
241.344	-239
241.408	-127
241.472	-967
241.537	58
241.601	406
241.665	-1085
241.730	-583
241.794	1509
241.858	-1278
241.922	-502
241.987	-366
242.051	-561
242.115	-813
242.179	-542
242.244	97
242.308	473
242.372	-239
242.436	-147
242.501	270
242.565	-1059
242.629	-1076
242.693	896
242.757	-530
242.822	-456
242.886	268
242.950	14
243.014	-1114
243.078	-295
243.142	-1136
243.206	-638
243.271	230
243.335	-1026
243.399	958
243.463	952
243.527	5692
243.591	1317
243.655	291
243.719	-665
243.783	292
243.847	-173
243.911	772
243.975	-573
244.040	-1666
244.104	555
244.168	388
244.232	-1007
244.296	495
244.360	-607
244.424	-949
244.488	-12
244.552	717
244.615	-1755
244.679	-314
244.743	-389
244.807	-1723
244.871	67
244.935	401
244.999	-1738
245.063	-770
245.127	830
245.191	794
245.255	-855
245.319	106
245.383	-1754
245.446	448
245.510	-1520
245.574	-48
245.638	186
245.702	-1451
245.766	-64
245.829	871
245.893	-968
245.957	-651
246.021	533
246.085	-405
246.149	-943
246.212	1523
246.276	456
246.340	13
246.404	-160
246.467	574
246.531	-2286
246.595	407
246.659	174
246.722	-1471
246.786	-39
246.850	-126
246.913	-619
246.977	-1137
247.041	3
247.104	-456
247.168	-285
247.232	140
247.295	900
247.359	626
247.423	-909
247.486	468
247.550	381
247.614	-455
247.677	232
247.741	-271
247.804	-850
247.868	91
247.932	-370
247.995	2580
248.059	-665
248.122	-780
248.186	1331
248.249	923
248.313	2439
248.376	3377
248.440	1086
248.503	-1432
248.567	445
248.630	-768
248.694	193
248.757	1818
248.821	2600
248.884	2333
248.948	992
249.011	2399
249.075	2919
249.138	3347
249.202	220
249.265	-766
249.328	80
249.392	-985
249.455	413
249.519	145
249.582	712
249.645	891
249.709	266
249.772	-353
249.835	-464
249.899	-340
249.962	419
250.025	-317
250.089	-270
250.152	1798
250.215	-173
250.279	-203
250.342	405
250.405	350
250.468	-873
250.532	390
250.595	1518
250.658	4992
250.721	10946
250.785	2638
250.848	2178
250.911	8
250.974	792
251.038	421
251.101	1954
251.164	464
251.227	-76
251.290	949
251.354	1123
251.417	9082
251.480	8551
251.543	5366
251.606	17171
251.669	11648
251.732	4266
251.795	3156
251.859	3111
251.922	10036
251.985	5769
252.048	1576
252.111	651
252.174	-395
252.237	1569
252.300	3735
252.363	4495
252.426	13960
252.489	3771
252.552	1679
252.615	-36
252.678	1486
252.741	2922
252.804	3477
252.867	13249
252.930	5856
252.993	1318
253.056	1804
253.119	659
253.182	-90
253.245	344
253.308	1563
253.371	-654
253.434	200
253.497	438
253.559	1791
253.622	720
253.685	829
253.748	665
253.811	-506
253.874	1067
253.937	-223
254.000	95
254.062	82
254.125	662
254.188	956
254.251	294
254.314	363
254.376	-110
254.439	300
254.502	176
254.565	107
254.628	1789
254.690	-171
254.753	-423
254.816	-263
254.878	-28
254.941	338
255.004	647
255.067	106
255.129	601
255.192	181
255.255	-1199
255.317	-671
255.380	-752
255.443	-136
255.505	536
255.568	-1186
255.631	-349
255.693	458
255.756	-529
255.819	849
255.881	42
255.944	-302
256.006	-1146
256.069	-728
256.132	-381
256.194	-297
256.257	-254
256.319	324
256.382	389
256.444	1433
256.507	246
256.569	-185
256.632	-370
256.694	65
256.757	3418
256.819	11134
256.882	2122
256.944	443
257.007	1280
257.069	-471
257.132	-16
257.194	1177
257.257	209
257.319	-216
257.381	170
257.444	2299
257.506	11078
257.569	12078
257.631	2943
257.693	1296
257.756	721
257.818	700
257.880	-343
257.943	515
258.005	-796
258.067	572
258.130	-420
258.192	-525
258.254	-402
258.317	-1130
258.379	97
258.441	-582
258.503	1156
258.566	184
258.628	1011
258.690	-267
258.753	228
258.815	745
258.877	-445
258.939	115
259.001	585
259.064	-213
259.126	-1156
259.188	-260
259.250	132
259.312	-447
259.375	-249
259.437	-1012
259.499	-210
259.561	24
259.623	193
259.685	-613
259.747	-851
259.809	161
259.872	877
259.934	2814
259.996	1052
260.058	1028
260.120	-1031
260.182	237
260.244	-101
260.306	-1044
260.368	685
260.430	-445
260.492	-214
260.554	1186
260.616	-390
260.678	906
260.740	808
260.802	-1285
260.864	-266
260.926	-956
260.988	880
261.050	12
261.112	-80
261.174	1291
261.236	843
261.298	-20
261.359	-256
261.421	918
261.483	-502
261.545	1042
261.607	-1368
261.669	658
261.731	281
261.793	999
261.854	-901
261.916	736
261.978	-762
262.040	-93
262.102	153
262.164	-90
262.225	237
262.287	-175
262.349	-214
262.411	41
262.472	103
262.534	12
262.596	234
262.658	273
262.719	-334
262.781	428
262.843	-127
262.904	437
262.966	-187
263.028	-331
263.090	1270
263.151	5716
263.213	1892
263.275	-974
263.336	-432
263.398	721
263.459	-846
263.521	-505
263.583	1125
263.644	637
263.706	345
263.767	-1061
263.829	721
263.891	-369
263.952	-1114
264.014	-809
264.075	-865
264.137	97
264.198	73
264.260	-994
264.321	-86
264.383	-211
264.444	660
264.506	-828
264.567	-910
264.629	655
264.690	-683
264.752	584
264.813	-61
264.875	-1300
264.936	767
264.998	-272
265.059	59
265.120	-75
265.182	-87
265.243	3151
265.305	5290
265.366	627
265.427	771
265.489	694
265.550	-597
265.611	-798
265.673	-752
265.734	-99
265.795	373
265.857	-1423
265.918	-320
265.979	1338
266.040	8102
266.102	7621
266.163	1773
266.224	954
266.286	402
266.347	-370
266.408	-194
266.469	-19
266.530	-80
266.592	23
266.653	10
266.714	-855
266.775	-957
266.836	-363
266.898	-805
266.959	-916
267.020	-289
267.081	325
267.142	-1096
267.203	-386
267.264	-758
267.326	196
267.387	-882
267.448	-352
267.509	-494
267.570	239
267.631	-740
267.692	-16
267.753	-321
267.814	-1054
267.875	-171
267.936	92
267.997	-836
268.058	144
268.119	-533
268.180	-2
268.241	-1357
268.302	554
268.363	-733
268.424	-351
268.485	-967
268.546	-868
268.607	-186
268.668	-199
268.729	-675
268.790	-533
268.851	-145
268.912	-88
268.972	313
269.033	-905
269.094	-793
269.155	-447
269.216	-604
269.277	-584
269.338	-337
269.398	-532
269.459	-612
269.520	-331
269.581	48
269.642	-806
269.702	-910
269.763	279
269.824	-470
269.885	-708
269.945	512
270.006	-115
270.067	-730
270.128	314
270.188	-121
270.249	-1260
270.310	-1025
270.370	-307
270.431	-198
270.492	-1155
270.553	-10
270.613	-424
270.674	131
270.734	-799
270.795	-515
270.856	69
270.916	41
270.977	-101
271.038	-34
271.098	46
271.159	-445
271.219	-285
271.280	-196
271.340	434
271.401	-333
271.462	401
271.522	91
271.583	-199
271.643	56
271.704	21
271.764	-351
271.825	565
271.885	2808
271.946	3483
272.006	1717
272.066	2000
272.127	3998
272.187	3747
272.248	1517
272.308	629
272.369	2248
272.429	1374
272.489	-619
272.550	698
272.610	173
272.671	-46
272.731	-279
272.791	-632
272.852	28
272.912	213
272.972	518
273.033	-33
273.093	-167
273.153	284
273.214	-310
273.274	119
273.334	961
273.394	2669
273.455	622
273.515	1099
273.575	1654
273.635	472
273.696	1346
273.756	1926
273.816	1027
273.876	-65
273.936	324
273.997	1368
274.057	-66
274.117	76
274.177	349
274.237	3083
274.297	2635
274.358	568
274.418	1911
274.478	835
274.538	350
274.598	-521
274.658	968
274.718	1160
274.778	158
274.838	305
274.898	146
274.958	2199
275.018	2510
275.078	1029
275.138	624
275.198	554
275.258	-341
275.318	-324
275.378	8
275.438	1137
275.498	-382
275.558	248
275.618	1588
275.678	1432
275.738	1385
275.798	627
275.858	-39
275.918	419
275.978	-136
276.038	359
276.098	98
276.157	-312
276.217	1539
276.277	712
276.337	300
276.397	-86
276.457	142
276.517	525
276.576	131
276.636	489
276.696	233
276.756	1051
276.815	805
276.875	255
276.935	-1150
276.995	343
277.055	630
277.114	924
277.174	708
277.234	1057
277.293	-524
277.353	463
277.413	306
277.472	-117
277.532	7
277.592	169
277.651	1483
277.711	4434
277.771	501
277.830	4556
277.890	3794
277.950	2618
278.009	10125
278.069	3667
278.128	3921
278.188	5005
278.248	2224
278.307	4381
278.367	3096
278.426	371
278.486	-288
278.545	1136
278.605	339
278.664	322
278.724	14
278.783	1410
278.843	3171
278.902	1168
278.962	169
279.021	-64
279.081	-137
279.140	976
279.199	-237
279.259	592
279.318	522
279.378	1784
279.437	1314
279.496	6143
279.556	26044
279.615	20691
279.675	5602
279.734	2068
279.793	1770
279.853	5313
279.912	1471
279.971	747
280.031	581
280.090	1652
280.149	3192
280.208	2613
280.268	15816
280.327	18918
280.386	3408
280.445	1480
280.505	1446
280.564	1046
280.623	-263
280.682	-110
280.742	1213
280.801	234
280.860	929
280.919	348
280.978	68
281.037	-209
281.097	246
281.156	600
281.215	138
281.274	368
281.333	1933
281.392	1014
281.451	-336
281.510	29
281.569	493
281.628	-15
281.688	-524
281.747	421
281.806	-829
281.865	999
281.924	-18
281.983	-485
282.042	-796
282.101	-34
282.160	-24
282.219	106
282.278	-45
282.337	1197
282.396	87
282.454	-251
282.513	-52
282.572	1311
282.631	884
282.690	-19
282.749	-463
282.808	539
282.867	-466
282.926	92
282.985	-148
283.043	253
283.102	121
283.161	-166
283.220	534
283.279	2061
283.338	418
283.396	233
283.455	-102
283.514	11
283.573	338
283.631	626
283.690	-248
283.749	-167
283.808	-64
283.866	1277
283.925	134
283.984	1086
284.043	-343
284.101	182
284.160	-302
284.219	1398
284.277	962
284.336	212
284.395	2244
284.453	1167
284.512	578
284.570	669
284.629	1029
284.688	1350
284.746	996
284.805	1226
284.863	2258
284.922	2019
284.981	3598
285.039	4760
285.098	9579
285.156	20422
285.215	36740
285.273	34883
285.332	21711
285.390	11315
285.449	6263
285.507	4386
285.566	2867
285.624	2197
285.683	2085
285.741	1350
285.799	1183
285.858	342
285.916	899
285.975	1029
286.033	178
286.091	600
286.150	507
286.208	984
286.267	-15
286.325	471
286.383	823
286.442	1265
286.500	523
286.558	135
286.616	74
286.675	218
286.733	439
286.791	654
286.850	305
286.908	-27
286.966	1052
287.024	184
287.083	589
287.141	104
287.199	582
287.257	1017
287.315	1175
287.374	-212
287.432	1235
287.490	867
287.548	920
287.606	243
287.664	214
287.723	657
287.781	531
287.839	363
287.897	594
287.955	1420
288.013	1647
288.071	2801
288.129	11574
288.187	38029
288.245	16527
288.303	4268
288.361	2257
288.419	1811
288.477	1059
288.535	911
288.593	828
288.651	665
288.709	447
288.767	559
288.825	361
288.883	819
288.941	-334
288.999	-312
289.057	133
289.115	-202
289.173	382
289.231	670
289.289	245
289.346	500
289.404	373
289.462	155
289.520	-403
289.578	465
289.636	-625
289.694	-277
289.751	6
289.809	605
289.867	148
289.925	885
289.983	869
290.040	434
290.098	51
290.156	-145
290.214	556
290.271	-1026
290.329	893
290.387	277
290.444	337
290.502	404
290.560	-82
290.617	105
290.675	-704
290.733	457
290.790	152
290.848	-343
290.906	-243
290.963	379
291.021	-364
291.078	229
291.136	-216
291.194	448
291.251	1475
291.309	539
291.366	-215
291.424	-283
291.481	77
291.539	-102
291.596	689
291.654	448
291.711	806
291.769	30
291.826	602
291.884	235
291.941	-7
291.999	556
292.056	-350
292.114	48
292.171	359
292.228	286
292.286	-48
292.343	175
292.401	386
292.458	567
292.515	569
292.573	1410
292.630	968
292.687	385
292.745	51
292.802	74
292.859	879
292.917	2034
292.974	745
293.031	-88
293.089	-123
293.146	420
293.203	264
293.260	521
293.318	-636
293.375	-246
293.432	10
293.489	401
293.546	285
293.604	-355
293.661	747
293.718	4184
293.775	2073
293.832	1147
293.889	276
293.947	1019
294.004	804
294.061	-83
294.118	-71
294.175	1476
294.232	2092
294.289	596
294.346	688
294.403	46
294.460	167
294.517	709
294.574	803
294.631	897
294.688	322
294.745	840
294.802	3092
294.859	4354
294.916	611
294.973	752
295.030	-185
295.087	629
295.144	629
295.201	499
295.258	48
295.315	604
295.372	1261
295.429	3003
295.486	966
295.542	66
295.599	1291
295.656	1795
295.713	1574
295.770	2546
295.827	648
295.883	625
295.940	560
295.997	-60
296.054	10
296.111	245
296.167	1236
296.224	851
296.281	-422
296.338	87
296.394	124
296.451	373
296.508	386
296.564	1784
296.621	515
296.678	3562
296.734	5617
296.791	1862
296.848	975
296.904	664
296.961	1155
297.018	3168
297.074	1772
297.131	948
297.187	1353
297.244	1079
297.301	3148
297.357	7128
297.414	2423
297.470	1682
297.527	-6
297.583	888
297.640	860
297.696	288
297.753	974
297.809	-105
297.866	-365
297.922	603
297.979	-398
298.035	94
298.092	226
298.148	1466
298.204	1652
298.261	1306
298.317	1763
298.374	4174
298.430	2348
298.486	1050
298.543	577
298.599	-332
298.656	211
298.712	407
298.768	2427
298.824	2994
298.881	1073
298.937	1173
298.993	149
299.050	8
299.106	214
299.162	192
299.218	636
299.275	360
299.331	526
299.387	1903
299.443	5001
299.500	12555
299.556	9094
299.612	2911
299.668	3441
299.724	9350
299.780	11886
299.837	3903
299.893	2856
299.949	8031
300.005	12632
300.061	8586
300.117	14769
300.173	7543
300.229	1410
300.285	1626
300.341	1458
300.397	1066
300.453	1241
300.510	1839
300.566	2593
300.622	3910
300.678	13422
300.734	18398
300.790	9136
300.845	7717
300.901	8041
300.957	13855
301.013	6410
301.069	2369
301.125	1635
301.181	1008
301.237	1166
301.293	887
301.349	609
301.405	254
301.461	423
301.516	1740
301.572	402
301.628	423
301.684	-12
301.740	1100
301.796	1988
301.851	1078
301.907	982
301.963	1836
302.019	3309
302.074	11202
302.130	10646
302.186	5212
302.242	1828
302.297	929
302.353	79
302.409	1813
302.464	2044
302.520	681
302.576	2738
302.631	4505
302.687	2439
302.743	650
302.798	395
302.854	273
302.910	277
302.965	621
303.021	1146
303.076	1007
303.132	185
303.187	1417
303.243	832
303.299	515
303.354	163
303.410	736
303.465	533
303.521	-116
303.576	1158
303.632	798
303.687	924
303.743	3863
303.798	3676
303.853	1114
303.909	709
303.964	313
304.020	125
304.075	605
304.130	730
304.186	935
304.241	1948
304.297	753
304.352	291
304.358	260
304.407	11
304.449	713
304.463	952
304.518	-35
304.539	98
304.573	293
304.629	628
304.630	618
304.684	241
304.720	1977
304.739	2833
304.794	3895
304.811	3377
304.850	2159
304.902	261
304.905	134
304.960	1164
304.992	1014
305.015	910
305.071	1274
305.083	1031
305.126	178
305.173	346
305.181	369
305.236	556
305.264	606
305.292	657
305.347	760
305.354	692
305.402	359
305.445	749
305.457	831
305.512	292
305.535	424
305.567	603
305.622	800
305.626	827
305.678	1708
305.716	3359
305.733	3850
305.788	3983
305.807	3432
305.843	2767
305.897	3409
305.898	3410
305.953	4155
305.988	2976
306.008	2311
306.063	867
306.078	832
306.118	964
306.168	1124
306.173	1141
306.228	944
306.259	1013
306.283	1027
306.338	542
306.349	603
306.393	898
306.440	516
306.448	425
306.503	1441
306.530	1013
306.558	819
306.613	1851
306.620	1844
306.668	1842
306.711	3151
306.723	3287
306.778	3052
306.801	2279
306.833	1601
306.888	769
306.892	747
306.943	701
306.982	688
306.997	575
307.052	801
307.072	759
307.107	1008
307.162	826
307.163	829
307.217	1367
307.253	1312
307.272	1154
307.327	1038
307.343	853
307.381	620
307.434	1026
307.436	1069
307.491	1690
307.524	2197
307.546	2285
307.600	2768
307.614	2658
307.655	2258
307.704	1513
307.710	1482
307.765	1406
307.795	1616
307.819	1768
307.874	1928
307.885	1972
307.929	2434
307.975	3327
307.984	3590
308.038	5196
308.065	6543
308.093	12153
308.148	24741
308.156	27817
308.202	41226
308.246	48733
308.257	47177
308.312	25059
308.336	16201
308.366	11248
308.421	6016
308.426	5647
308.475	4193
308.517	3436
308.530	3269
308.585	2789
308.607	2563
308.639	2276
308.694	2336
308.697	2312
308.748	2460
308.787	3096
308.803	3176
308.857	2662
308.877	2582
308.912	3035
308.967	4174
308.967	4184
309.021	5502
309.058	6409
309.076	8362
309.130	15517
309.148	18114
309.185	33786
309.238	62039
309.239	62193
309.293	65010
309.328	57213
309.348	49116
309.402	23796
309.418	17643
309.457	12966
309.508	8685
309.511	8524
309.566	6965
309.598	6149
309.620	6597
309.674	8283
309.688	8777
309.729	8622
309.778	7695
309.783	7583
309.837	5959
309.868	5145
309.892	5144
309.946	5490
309.959	5641
310.001	6347
310.049	6622
310.055	6396
310.109	4443
310.139	3190
310.163	2721
310.218	2217
310.229	2041
310.272	2245
310.319	2740
310.326	2690
310.381	1940
310.409	1854
310.435	2225
310.489	2379
310.499	2449
310.543	2251
310.589	2032
310.598	2048
310.652	2269
310.679	2231
310.706	2179
310.760	2122
310.769	2122
310.814	2041
310.859	1832
310.868	1893
310.923	2334
310.948	2500
310.977	2473
311.031	2437
311.038	2412
311.085	1901
311.128	1465
311.139	1558
311.193	1989
311.218	2166
311.247	2084
311.301	1994
311.308	1970
311.356	2138
311.398	2326
311.410	2298
311.464	1987
311.488	1907
311.518	2021
311.572	2130
311.578	2140
311.626	2409
311.668	2614
311.680	2677
311.734	2881
311.758	2986
311.788	2798
311.842	2368
311.847	2321
311.896	2811
311.937	3186
311.950	3104
312.004	2714
312.027	2527
312.058	2494
312.112	2429
312.117	2415
312.165	2553
312.207	2659
312.297	2325
312.386	1819
312.476	2543
312.566	3283
312.656	2479
312.745	3113
312.835	2534
312.925	2849
313.015	2314
313.104	2975
313.194	3032
313.284	2214
313.374	3465
313.463	3820
313.553	3369
313.643	2267
313.732	3957
313.822	4026
313.912	4782
314.001	4490
314.091	4077
314.180	4467
314.270	4909
314.360	4528
314.449	4860
314.539	3665
314.628	4596
314.718	4931
314.808	5199
314.897	5277
314.987	5583
315.076	5304
315.166	5039
315.255	5221
315.345	5184
315.434	3997
315.524	5393
315.613	6327
315.703	7247
315.792	17806
315.881	54883
315.971	16912
316.060	6619
316.150	5548
316.239	5429
316.328	4752
316.418	5665
316.507	5071
316.597	6012
316.686	6320
316.775	6504
316.865	6038
316.954	5170
317.043	4338
317.133	4292
317.222	3725
317.311	3680
317.400	2521
317.490	5170
317.579	5084
317.668	5320
317.757	8868
317.847	29004
317.936	76444
318.025	24003
318.114	23398
318.203	10717
318.293	6258
318.382	9223
318.471	9527
318.560	8124
318.649	8964
318.738	5151
318.828	4395
318.917	3080
319.006	2977
319.095	4344
319.184	7778
319.273	4948
319.362	3304
319.451	3467
319.540	3261
319.629	4521
319.718	4649
319.807	3794
319.896	4971
319.985	9035
320.074	4677
320.163	3783
320.252	4142
320.341	3851
320.430	4403
320.519	5320
320.608	4986
320.697	5656
320.786	6198
320.875	8076
320.964	8211
321.053	8997
321.142	8877
321.230	10251
321.319	10241
321.408	12319
321.497	10858
321.586	10559
321.675	8719
321.764	8685
321.852	8783
321.941	9408
322.030	9388
322.119	10980
322.207	13640
322.296	12706
322.385	12883
322.474	14894
322.562	15978
322.651	12073
322.740	9961
322.829	8946
322.917	7412
323.006	8031
323.095	6712
323.183	5572
323.272	5805
323.361	6892
323.449	7874
323.538	4972
323.626	5639
323.715	5065
323.804	3913
323.892	5787
323.981	4698
324.069	4219
324.158	5511
324.246	4366
324.335	4204
324.424	4632
324.512	3793
324.601	3492
324.689	4640
324.778	5034
324.866	4146
324.954	3458
325.043	3885
325.131	3222
325.220	4627
325.308	3858
325.397	3811
325.485	3403
325.574	2316
325.662	2713
325.750	3170
325.839	3042
325.927	3262
326.015	3682
326.104	3221
326.192	3286
326.280	3634
326.369	3027
326.457	3406
326.545	3996
326.634	3201
326.722	3367
326.810	3109
326.898	3902
326.987	4560
327.075	3444
327.163	3958
327.251	3329
327.340	4658
327.428	5612
327.516	6011
327.604	4460
327.692	4156
327.781	2752
327.869	3014
327.957	3494
328.045	2878
328.133	3484
328.221	2931
328.309	2552
328.397	3243
328.485	3796
328.574	5447
328.662	8721
328.750	6216
328.838	4235
328.926	3410
329.014	3355
329.102	2805
329.190	3875
329.278	2709
329.366	3108
329.454	2531
329.542	2106
329.630	2825
329.718	3025
329.806	3043
329.893	3236
329.981	2077
330.069	3480
330.157	3214
330.245	4002
330.333	3556
330.421	3643
330.509	2972
330.597	4726
330.684	3989
330.772	2892
330.860	3114
330.948	2525
331.036	2515
331.123	2797
331.211	2553
331.299	2691
331.387	3581
331.475	3777
331.562	3468
331.650	2410
331.738	2302
331.825	3681
331.913	3017
332.001	3317
332.089	3333
332.176	3589
332.264	3061
332.352	2819
332.439	3013
332.527	2388
332.614	3305
332.702	3098
332.790	2645
332.877	3446
332.965	4492
333.052	3229
333.140	4295
333.228	5108
333.315	3743
333.403	3912
333.490	4116
333.578	4117
333.665	7564
333.753	5287
333.840	5134
333.928	6287
334.015	6993
334.103	9016
334.190	14783
334.278	13910
334.365	18385
334.452	17557
334.540	13143
334.627	13887
334.715	17590
334.802	23295
334.889	35103
334.977	39864
335.064	25454
335.151	15722
335.239	11007
335.326	10209
335.413	12315
335.501	13030
335.588	11451
335.675	12803
335.762	15588
335.850	20953
335.937	28783
336.024	41632
336.111	58293
336.199	46977
336.286	25150
336.373	15352
336.460	10836
336.547	9880
336.635	8864
336.722	7066
336.809	5705
336.896	5416
336.983	6842
337.070	9119
337.157	10526
337.245	6793
337.332	6740
337.419	5487
337.506	4265
337.593	4748
337.680	5105
337.767	7568
337.854	5295
337.941	4740
338.028	4739
338.115	3202
338.202	4613
338.289	3935
338.376	4890
338.463	4496
338.550	4435
338.637	4738
338.724	3084
338.811	3882
338.898	4005
338.984	3490
339.071	3361
339.158	4249
339.245	3690
339.332	3707
339.419	2815
339.506	3424
339.593	2209
339.679	3601
339.766	3356
339.853	3273
339.940	3682
340.027	3701
340.113	2822
340.200	4104
340.287	3281
340.374	3187
340.460	3113
340.547	2246
340.634	3397
340.720	5829
340.807	3708
340.894	4128
340.980	2932
341.067	2866
341.154	4005
341.240	3384
341.327	3555
341.414	3934
341.500	2757
341.587	3368
341.674	2947
341.760	4098
341.847	3366
341.933	3159
342.020	2440
342.106	3152
342.193	3671
342.279	3075
342.366	3556
342.452	3561
342.539	3549
342.625	3546
342.712	5343
342.798	3291
342.885	3016
342.971	3258
343.058	2390
343.144	3160
343.230	3384
343.317	3255
343.403	2708
343.490	3619
343.576	2612
343.662	3701
343.749	3253
343.835	2822
343.921	4037
344.008	12800
344.094	21029
344.180	5987
344.267	3565
344.353	6308
344.439	5413
344.525	4564
344.612	5521
344.698	4314
344.784	3407
344.870	3435
344.957	2134
345.043	3630
345.129	2735
345.215	3661
345.301	3471
345.387	2931
345.474	2414
345.560	2605
345.646	2275
345.732	3508
345.818	3113
345.904	2267
345.990	3176
346.076	2896
346.162	3216
346.249	3425
346.335	2731
346.421	3209
346.507	4660
346.593	9737
346.679	3476
346.765	4928
346.851	6699
346.937	4967
347.023	4607
347.108	3753
347.194	2744
347.280	3780
347.366	4224
347.452	13624
347.538	20199
347.624	12702
347.710	7321
347.796	4076
347.882	3139
347.967	3207
348.053	2778
348.139	3661
348.225	2844
348.311	3175
348.397	3472
348.482	4102
348.568	4664
348.654	5812
348.740	17425
348.825	17161
348.911	9342
348.997	8534
349.083	10524
349.168	3697
349.254	3494
349.340	3520
349.425	3518
349.511	3490
349.597	3592
349.682	4049
349.768	7214
349.854	3952
349.939	3487
350.025	2768
350.110	3264
350.196	3557
350.282	1978
350.367	3892
350.453	3506
350.538	3160
350.624	3174
350.709	3495
350.795	2375
350.880	2115
350.966	3006
351.051	2943
351.137	3081
351.222	3452
351.308	4006
351.393	5444
351.479	3435
351.564	2753
351.649	3083
351.735	2864
351.820	3181
351.906	2508
351.991	2607
352.076	4352
352.162	5067
352.247	3750
352.332	2874
352.418	2528
352.503	3745
352.588	6955
352.673	5234
352.759	3481
352.844	2384
352.929	3532
353.014	2791
353.100	3252
353.185	2980
353.270	2803
353.355	3356
353.441	3199
353.526	3060
353.611	3921
353.696	2393
353.781	3983
353.866	2138
353.952	4121
354.037	2420
354.122	4149
354.207	3277
354.292	3183
354.377	3324
354.462	3383
354.547	2407
354.632	3844
354.717	3334
354.802	2452
354.887	2505
354.972	3022
355.057	3693
355.142	2112
355.227	2869
355.312	3643
355.397	3832
355.482	4343
355.567	3139
355.652	4513
355.737	3816
355.822	7158
355.907	5592
355.991	4617
356.076	2537
356.161	3893
356.246	3148
356.331	3014
356.416	3791
356.501	13934
356.585	11340
356.670	3969
356.755	5744
356.840	4824
356.924	10262
357.009	24685
357.094	10106
357.179	4384
357.263	4199
357.348	4628
357.433	4243
357.517	3671
357.602	3344
357.687	3531
357.771	3998
357.856	6813
357.941	5602
358.025	9289
358.110	27966
358.195	11903
358.279	4833
358.364	4560
358.448	6693
358.533	11314
358.617	8249
358.702	7392
358.787	5070
358.871	4433
358.956	3427
359.040	3628
359.125	3481
359.209	4602
359.294	5470
359.378	9054
359.462	6499
359.547	4462
359.631	2774
359.716	2837
359.800	3580
359.885	4567
359.969	2660
360.053	3849
360.138	4315
360.222	3620
360.306	3307
360.391	4649
360.475	5660
360.559	6561
360.644	6363
360.728	4380
360.812	9936
360.896	18298
360.981	7939
361.065	4363
361.149	5551
361.233	4471
361.318	3882
361.402	4502
361.486	5963
361.570	4434
361.654	5377
361.739	6725
361.823	14842
361.907	20123
361.991	8855
362.075	10100
362.159	13575
362.243	25070
362.327	51433
362.411	61818
362.495	27869
362.580	16328
362.664	16008
362.748	18235
362.832	28076
362.916	54445
363.000	119092
363.084	136032
363.168	66268
363.252	25365
363.336	15587
363.420	12678
363.503	14272
363.587	12932
363.671	9727
363.755	9838
363.839	12093
363.923	12110
364.007	17003
364.091	22655
364.175	34652
364.258	72927
364.342	136896
364.426	185021
364.510	104077
364.594	42776
364.677	24765
364.761	23965
364.845	17850
364.929	9710
365.013	7340
365.096	7603
365.180	5672
365.264	7646
365.347	13176
365.431	6939
365.515	4412
365.598	4516
365.682	6086
365.766	4823
365.849	5150
365.933	4794
366.017	5985
366.100	4974
366.184	3520
366.267	5449
366.351	4931
366.435	3942
366.518	4425
366.602	5348
366.685	4901
366.769	5127
366.852	4608
366.936	4915
367.019	4845
367.103	3844
367.186	5952
367.270	5087
367.353	4319
367.436	6746
367.520	5024
367.603	5909
367.687	4241
367.770	5706
367.853	6701
367.937	8888
368.020	9315
368.104	4406
368.187	5296
368.270	4878
368.353	4581
368.437	4943
368.520	4472
368.603	4936
368.687	5535
368.770	8934
368.853	5201
368.936	4978
369.020	4880
369.103	4398
369.186	3092
369.269	3092
369.352	4476
369.436	3616
369.519	3152
369.602	2254
369.685	4803
369.768	2489
369.851	3928
369.934	3065
370.018	2831
370.101	2909
370.184	5662
370.267	3789
370.350	4467
370.433	5159
370.516	15429
370.599	33034
370.682	13700
370.765	8705
370.848	8159
370.931	10271
371.014	6473
371.097	2814
371.180	4303
371.263	4388
371.346	3291
371.429	3880
371.511	3152
371.594	4289
371.677	4797
371.760	4920
371.843	4547
371.926	12609
372.009	21896
372.091	10258
372.174	5923
372.257	12097
372.340	6623
372.423	5369
372.505	6176
372.588	3678
372.671	6854
372.754	10177
372.836	6299
372.919	5295
373.002	7067
373.085	4369
373.167	4550
373.250	5807
373.332	11385
373.415	19198
373.498	30906
373.580	19442
373.663	47721
373.746	45844
373.828	10491
373.911	7461
373.993	4733
374.076	7473
374.159	5706
374.241	7310
374.324	10904
374.406	8579
374.489	12640
374.571	25593
374.654	11670
374.736	9193
374.819	16821
374.901	24436
374.983	22794
375.066	8356
375.148	6205
375.231	8684
375.313	11406
375.395	6617
375.478	5246
375.560	6716
375.643	5918
375.725	9380
375.807	20248
375.890	16086
375.972	5460
376.054	5505
376.136	5948
376.219	5585
376.301	9635
376.383	15859
376.465	8246
376.548	5193
376.630	6995
376.712	14232
376.794	7450
376.877	3817
376.959	3696
377.041	3970
377.123	4021
377.205	3542
377.287	2777
377.369	4498
377.452	3670
377.534	4608
377.616	3689
377.698	4048
377.780	3699
377.862	3631
377.944	4691
378.026	3093
378.108	3383
378.190	3639
378.272	4372
378.354	3632
378.436	2907
378.518	3486
378.600	3638
378.682	5004
378.764	7019
378.846	6200
378.928	3639
379.010	2812
379.091	4908
379.173	4045
379.255	2827
379.337	3393
379.419	4974
379.501	9860
379.583	4992
379.664	3386
379.746	3128
379.828	7548
379.910	7767
379.991	8548
380.073	3378
380.155	3189
380.237	3227
380.318	2916
380.400	3807
380.482	4449
380.564	4018
380.645	3736
380.727	3276
380.809	4629
380.890	3475
380.972	2780
381.053	3214
381.135	4197
381.217	3808
381.298	8079
381.380	4744
381.461	4970
381.543	14517
381.624	15160
381.706	5046
381.787	5204
381.869	4039
381.951	9578
382.032	23434
382.113	16740
382.195	3853
382.276	5866
382.358	6251
382.439	12941
382.521	16108
382.602	22149
382.684	11628
382.765	17568
382.846	22960
382.928	33794
383.009	20207
383.090	19595
383.172	55450
383.253	69764
383.334	26053
383.416	21024
383.497	13755
383.578	10521
383.659	18132
383.741	55606
383.822	109207
383.903	52749
383.984	19696
384.066	23086
384.147	14164
384.228	8970
384.309	8071
384.390	7902
384.471	8372
384.553	7082
384.634	7218
384.715	6556
384.796	5284
384.877	5697
384.958	9415
385.039	8631
385.120	6627
385.201	7338
385.282	5784
385.363	7200
385.444	6617
385.525	9123
385.606	13739
385.687	13015
385.768	8389
385.849	7815
385.930	17222
386.011	22252
386.092	10152
386.173	7756
386.254	7065
386.335	8175
386.416	7149
386.496	9126
386.577	9655
386.658	8467
386.739	7774
386.820	8267
386.901	6635
386.981	8689
387.062	9100
387.143	10555
387.224	13226
387.304	14423
387.385	13538
387.466	10952
387.547	12055
387.627	12150
387.708	14146
387.789	19845
387.869	18732
387.950	13604
388.031	9866
388.111	7785
388.192	10422
388.273	11261
388.353	9389
388.434	7484
388.514	8567
388.595	15886
388.676	16215
388.756	9645
388.837	9160
388.917	7480
388.998	5086
389.078	6923
389.159	6316
389.239	4662
389.320	7395
389.400	4122
389.480	7027
389.561	8856
389.641	8327
389.722	6032
389.802	5400
389.883	7263
389.963	12129
390.043	8421
390.124	4643
390.204	6908
390.284	9783
390.365	7389
390.445	8928
390.525	15438
390.605	14471
390.686	7621
390.766	7578
390.846	7829
390.927	5299
391.007	5310
391.087	7201
391.167	6724
391.247	5408
391.328	7865
391.408	7632
391.488	7849
391.568	6589
391.648	7316
391.728	9098
391.808	9091
391.888	8857
391.969	11539
392.049	12425
392.129	12004
392.209	13161
392.289	17689
392.369	15525
392.449	15211
392.529	16965
392.609	19170
392.689	22527
392.769	28992
392.849	33099
392.929	42319
393.009	57191
393.089	80618
393.169	135189
393.248	247679
393.328	367219
393.408	349314
393.488	230476
393.568	125148
393.648	71932
393.728	47071
393.807	32821
393.887	26927
393.967	22595
394.047	19142
394.127	16254
394.206	18264
394.286	34661
394.366	102787
394.446	103129
394.525	31037
394.605	14542
394.685	11114
394.764	14332
394.844	22599
394.924	26153
395.003	14422
395.083	9592
395.163	9703
395.242	9006
395.322	9469
395.402	6663
395.481	9947
395.561	12470
395.640	32305
395.720	58135
395.799	35283
395.879	17722
395.958	18701
396.038	45776
396.117	129989
396.197	134652
396.276	50318
396.356	26220
396.435	29289
396.515	36914
396.594	53809
396.673	104130
396.753	220726
396.832	332334
396.912	266788
396.991	129597
397.070	63215
397.150	38643
397.229	33417
397.308	51960
397.388	83950
397.467	46399
397.546	18607
397.625	10520
397.705	12656
397.784	10168
397.863	8651
397.942	8188
398.022	8208
398.101	7872
398.180	10507
398.259	7519
398.338	7411
398.417	6564
398.497	6136
398.576	7720
398.655	5330
398.734	5222
398.813	5737
398.892	5176
398.971	7994
399.050	6128
399.129	3897
399.208	4941
399.287	5935
399.366	4281
399.445	4093
399.524	5460
399.603	2185
399.682	4985
399.761	5488
399.840	8530
399.919	7803
399.998	4140
400.077	3357
400.156	2276
400.235	5457
400.313	3824
400.392	3016
400.471	5695
400.550	6405
400.629	2551
400.708	4246
400.786	2598
400.865	3867
400.944	3160
401.023	5227
401.102	2455
401.180	2840
401.259	2830
401.338	3632
401.416	3441
401.495	1814
401.574	3912
401.652	3232
401.731	3967
401.810	2019
401.888	2386
401.967	2323
402.046	3116
402.124	3026
402.203	2391
402.281	3549
402.360	2310
402.438	3567
402.517	1376
402.596	3214
402.674	2215
402.753	2923
402.831	3279
402.910	3576
402.988	2698
403.066	5037
403.145	4604
403.223	4922
403.302	4973
403.380	4787
403.459	4956
403.537	4017
403.615	3997
403.694	2590
403.772	4456
403.850	2856
403.929	2925
404.007	2453
404.085	4593
404.164	2844
404.242	3290
404.320	8154
404.398	16607
404.477	13423
404.555	18688
404.633	16319
404.711	12766
404.789	8720
404.868	3313
404.946	2364
405.024	3219
405.102	2637
405.180	1393
405.258	1456
405.336	3195
405.415	1726
405.493	2800
405.571	3123
405.649	2374
405.727	1527
405.805	3850
405.883	4069
405.961	4480
406.039	3145
406.117	1458
406.195	3541
406.273	4207
406.351	12514
406.429	8812
406.507	2792
406.585	2323
406.663	2526
406.740	3252
406.818	1764
406.896	1472
406.974	3923
407.052	1935
407.130	8441
407.208	9649
407.285	3818
407.363	2123
407.441	2911
407.519	3066
407.596	3465
407.674	8514
407.752	25381
407.830	19378
407.907	5267
407.985	1837
408.063	3294
408.141	2510
408.218	3487
408.296	2006
408.373	3524
408.451	3233
408.529	3643
408.606	3113
408.684	3567
408.762	4222
408.839	4715
408.917	4211
408.994	5315
409.072	5145
409.149	6740
409.227	10957
409.304	14452
409.382	17340
409.459	19393
409.537	24220
409.614	23317
409.692	19495
409.769	19480
409.846	24096
409.924	29004
410.001	22619
410.079	18034
410.156	14363
410.233	10803
410.311	8880
410.388	8208
410.465	7368
410.543	6680
410.620	5883
410.697	5593
410.775	5999
410.852	4425
410.929	6383
411.006	6085
411.083	5547
411.161	5202
411.238	5483
411.315	4725
411.392	4209
411.469	5510
411.547	4878
411.624	2759
411.701	3794
411.778	3370
411.855	3910
411.932	3286
412.009	3087
412.086	2995
412.163	3398
412.240	3352
412.317	3172
412.394	2885
412.471	3546
412.548	2142
412.625	2617
412.702	3054
412.779	2739
412.856	2605
412.933	1885
413.010	3114
413.087	2456
413.164	3669
413.241	4890
413.318	1992
413.395	2815
413.471	2508
413.548	2888
413.625	3402
413.702	1160
413.779	2381
413.855	3215
413.932	2011
414.009	1696
414.086	1887
414.162	2625
414.239	2154
414.316	3705
414.393	6408
414.469	2168
414.546	1448
414.623	2532
414.699	1979
414.776	1486
414.853	1744
414.929	2065
415.006	2004
415.082	2127
415.159	1518
415.236	2335
415.312	2011
415.389	2639
415.465	1827
415.542	1784
415.618	1099
415.695	1980
415.771	1640
415.848	1581
415.924	1994
416.000	1085
416.077	2957
416.153	1147
416.230	893
416.306	1801
416.383	1331
416.459	2453
416.535	1352
416.612	1769
416.688	2174
416.764	1480
416.841	1413
416.917	2146
416.993	1788
417.069	1814
417.146	1948
417.222	1800
417.298	1700
417.374	1394
417.451	1774
417.527	1435
417.603	902
417.679	1062
417.755	2296
417.831	968
417.908	1054
417.984	1603
418.060	560
418.136	2969
418.212	1945
418.288	2761
418.364	2557
418.440	1229
418.516	2692
418.592	1725
418.668	2570
418.744	2546
418.820	2702
418.896	1235
418.972	2058
419.048	1557
419.124	2984
419.200	1702
419.276	2332
419.352	2043
419.428	2431
419.504	1995
419.579	2854
419.655	2838
419.731	2830
419.807	3770
419.883	4302
419.959	4370
420.034	4102
420.110	3289
420.186	4165
420.262	5481
420.337	4011
420.413	3693
420.489	4485
420.565	6366
420.640	5820
420.716	6306
420.792	4521
420.867	6913
420.943	6263
421.019	7358
421.094	7033
421.170	9002
421.245	7915
421.321	9900
421.397	10711
421.472	16015
421.548	24782
421.623	20521
421.699	16928
421.774	19020
421.850	20611
421.925	24546
422.001	28746
422.076	35207
422.152	43056
422.227	54810
422.302	73309
422.378	97314
422.453	132033
422.529	162394
422.604	153473
422.679	119828
422.755	141916
422.830	160190
422.905	134115
422.981	103718
423.056	78625
423.131	60865
423.207	48164
423.282	38611
423.357	32463
423.432	26295
423.508	23540
423.583	19951
423.658	18684
423.733	16763
423.808	14554
423.883	14513
423.959	15158
424.034	15641
424.109	16003
424.184	11280
424.259	9335
424.334	8938
424.409	7440
424.484	6336
424.559	6221
424.634	6197
424.709	6331
424.784	5119
424.859	5654
424.934	4829
425.009	5666
425.084	6654
425.159	4263
425.234	5719
425.309	3463
425.384	4896
425.459	4327
425.534	4098
425.609	2951
425.683	3000
425.758	2924
425.833	3639
425.908	3720
425.983	2788
426.058	6064
426.132	2898
426.207	2999
426.282	4612
426.357	1785
426.431	2261
426.506	2555
426.581	2717
426.655	2387
426.730	1993
426.805	1640
426.879	2842
426.954	2109
427.029	1804
427.103	5684
427.178	9858
427.253	5233
427.327	2162
427.402	2144
427.476	3571
427.551	2208
427.625	2597
427.700	2305
427.774	1587
427.849	2823
427.923	2239
427.998	2631
428.072	3543
428.147	9153
428.221	36693
428.296	86218
428.370	48465
428.444	10327
428.519	4030
428.593	3482
428.667	4115
428.742	5910
428.816	15640
428.890	58107
428.965	77677
429.039	24500
429.113	5133
429.188	3104
429.262	2850
429.336	3026
429.410	3632
429.485	3274
429.559	2863
429.633	3670
429.707	5337
429.781	14172
429.855	55581
429.930	70941
430.004	24283
430.078	18002
430.152	46043
430.226	117211
430.300	106019
430.374	32192
430.448	11329
430.522	7474
430.596	10070
430.670	23584
430.744	71537
430.818	70135
430.892	16291
430.966	4647
431.040	2437
431.114	1524
431.188	952
431.262	1798
431.336	1594
431.410	3417
431.484	1866
431.557	2524
431.631	2964
431.705	7209
431.779	30095
431.853	84332
431.927	54296
432.000	11195
432.074	3197
432.148	2447
432.222	1239
432.295	497
432.369	1020
432.443	1141
432.516	4580
432.590	8740
432.664	3353
432.737	179
432.811	76
432.885	335
432.958	897
433.032	623
433.106	77
433.179	736
433.253	958
433.326	411
433.400	594
433.473	212
433.547	136
433.620	466
433.694	46
433.767	945
433.841	243
433.914	236
433.988	1212
434.061	1612
434.134	1090
434.208	504
434.281	273
434.355	553
434.428	901
434.501	86
434.575	491
434.648	241
434.721	623
434.795	165
434.868	284
434.941	1022
435.014	1223
435.088	1104
435.161	1322
435.234	2970
435.307	2341
435.381	3801
435.454	5796
435.527	9544
435.600	10044
435.673	10939
435.746	9333
435.819	5946
435.892	5194
435.966	3977
436.039	3014
436.112	2861
436.185	1749
436.258	2002
436.331	1058
436.404	1778
436.477	1220
436.550	1147
436.623	1515
436.696	1108
436.769	1553
436.842	1255
436.915	608
436.987	443
437.060	853
437.133	1253
437.206	82
437.279	1279
437.352	948
437.425	638
437.498	714
437.570	134
437.643	601
437.716	427
437.789	73
437.861	552
437.934	794
438.007	407
438.080	807
438.152	-73
438.225	1012
438.298	5892
438.370	13943
438.443	5392
438.516	927
438.588	540
438.661	471
438.734	175
438.806	956
438.879	910
438.951	756
439.024	810
439.096	68
439.169	710
439.241	184
439.314	131
439.386	150
439.459	535
439.531	736
439.604	-546
439.676	610
439.749	327
439.821	154
439.893	551
439.966	-141
440.038	510
440.110	-248
440.183	-47
440.255	-332
440.327	1078
440.400	2669
440.472	8003
440.544	4146
440.617	522
440.689	1677
440.761	980
440.833	799
440.905	689
440.978	325
441.050	787
441.122	1134
441.194	756
441.266	716
441.338	205
441.411	1351
441.483	2385
441.555	2783
441.627	1234
441.699	750
441.771	1212
441.843	1693
441.915	1082
441.987	1523
442.059	2539
442.131	2087
442.203	3739
442.275	5191
442.347	8838
442.419	22440
442.491	77932
442.563	129216
442.635	59026
442.706	17168
442.778	7493
442.850	4974
442.922	5219
442.994	5044
443.066	4757
443.137	7155
443.209	9603
443.281	15670
443.353	34961
443.425	93788
443.496	185616
443.568	183138
443.640	91266
443.711	28492
443.783	13084
443.855	8485
443.926	5691
443.998	4394
444.070	3977
444.141	3253
444.213	3040
444.285	3139
444.356	2415
444.428	2987
444.499	2349
444.571	2634
444.642	2831
444.714	3085
444.785	3193
444.857	4328
444.928	5096
445.000	6020
445.071	7414
445.143	10510
445.214	15902
445.285	27173
445.357	64822
445.428	150684
445.500	204457
445.571	183585
445.642	131352
445.714	54419
445.785	20896
445.856	10487
445.928	7638
445.999	5770
446.070	3574
446.141	3936
446.213	2538
446.284	2911
446.355	2263
446.426	1770
446.497	1785
446.569	1450
446.640	1222
446.711	697
446.782	954
446.853	240
446.924	1552
446.995	845
447.066	146
447.138	974
447.209	1026
447.280	-59
447.351	329
447.422	78
447.493	631
447.564	509
447.635	-75
447.706	155
447.777	396
447.847	-450
447.918	-541
447.989	-567
448.060	-72
448.131	-96
448.202	1092
448.273	317
448.344	432
448.414	441
448.485	479
448.556	6
448.627	264
448.698	359
448.768	553
448.839	-542
448.910	-71
448.981	523
449.051	604
449.122	-221
449.193	-133
449.263	-481
449.334	107
449.405	20
449.475	536
449.546	1052
449.616	1070
449.687	826
449.758	853
449.828	-334
449.899	-342
449.969	260
450.040	-888
450.110	-139
450.181	-785
450.251	-1
450.322	207
450.392	-217
450.463	262
450.533	545
450.604	378
450.674	733
450.744	1196
450.815	1218
450.885	1318
450.955	1346
451.026	1509
451.096	764
451.166	258
451.237	1511
451.307	1561
451.377	1519
451.447	1060
451.518	72
451.588	648
451.658	1506
451.728	387
451.799	66
451.869	1432
451.939	895
452.009	597
452.079	45
452.149	71
452.219	218
452.289	1289
452.360	1465
452.430	979
452.500	1643
452.570	4885
452.640	10961
452.710	23088
452.780	27077
452.850	16185
452.920	7690
452.990	4777
453.060	3334
453.129	2101
453.199	1749
453.269	1759
453.339	2308
453.409	2870
453.479	3025
453.549	4111
453.619	3508
453.688	734
453.758	416
453.828	34
453.898	609
453.968	-75
454.037	25
454.087	338
454.107	461
454.168	-173
454.177	-278
454.247	-227
454.249	-209
454.316	28
454.330	26
454.386	-19
454.411	-23
454.456	-102
454.492	-117
454.525	-115
454.574	387
454.595	588
454.655	309
454.665	259
454.734	272
454.736	278
454.804	-11
454.817	105
454.873	578
454.898	663
454.943	787
454.979	525
455.013	291
455.060	642
455.082	789
455.141	282
455.152	191
455.221	1202
455.222	1218
455.291	1191
455.303	1648
455.360	3465
455.384	4531
455.430	6101
455.465	4363
455.499	2811
455.546	1738
455.569	1245
455.627	891
455.638	837
455.707	346
455.708	354
455.777	-142
455.789	-45
455.846	343
455.869	292
455.916	234
455.950	538
455.985	822
456.031	548
456.054	376
456.112	425
456.124	433
456.193	498
456.193	488
456.262	792
456.274	961
456.332	1649
456.355	1329
456.401	713
456.436	865
456.470	975
456.516	676
456.540	536
456.597	44
456.609	-66
456.678	985
456.678	978
456.747	719
456.759	717
456.817	848
456.840	850
456.886	674
456.920	842
456.955	1061
457.001	1456
457.024	1659
457.082	1267
457.093	1163
457.162	1564
457.163	1574
457.232	1231
457.243	1296
457.301	1620
457.324	1552
457.370	1479
457.405	2099
457.439	2705
457.485	2784
457.508	2936
457.566	3806
457.577	4160
457.646	6515
457.647	6568
457.715	14638
457.727	16691
457.784	27881
457.808	36775
457.853	46865
457.889	53645
457.922	55772
457.969	40041
457.991	39134
458.050	44501
458.060	45539
458.129	76292
458.130	77182
458.198	76558
458.211	68544
458.267	41996
458.292	30538
458.336	20123
458.372	19862
458.405	25967
458.453	37959
458.474	45060
458.533	75897
458.543	77667
458.611	113933
458.614	114191
458.680	74494
458.694	59956
458.749	29281
458.775	21356
458.818	12138
458.855	9429
458.887	7490
458.936	5659
458.955	4995
459.016	3883
459.024	3837
459.093	4005
459.097	3995
459.162	2779
459.177	2656
459.230	2773
459.257	2937
459.299	3150
459.338	3250
459.368	3086
459.418	2479
459.437	2412
459.499	2683
459.505	2674
459.574	2508
459.579	2465
459.643	1835
459.659	1780
459.711	1911
459.740	2080
459.780	2151
459.820	2233
459.849	2384
459.900	2569
459.917	2488
459.981	1808
459.986	1805
460.054	1967
460.061	2025
460.123	2088
460.141	2141
460.191	2442
460.222	2461
460.260	2614
460.302	3019
460.328	3041
460.382	2629
460.397	2668
460.462	3001
460.465	3173
460.534	7824
460.543	8411
460.602	18547
460.623	22589
460.671	34230
460.703	45432
460.739	38626
460.783	24621
460.808	21240
460.864	6226
460.876	4585
460.944	2845
460.945	2824
461.013	2741
461.024	2691
461.081	2270
461.104	2390
461.150	2781
461.184	2676
461.218	2678
461.264	2606
461.286	2492
461.345	2513
461.355	2466
461.423	2293
461.425	2278
461.491	1856
461.505	1869
461.559	2273
461.585	2414
461.628	2270
461.665	2297
461.696	2570
461.745	2756
461.764	2637
461.825	2158
461.832	2215
461.901	2580
461.905	2626
461.969	1955
461.985	1830
462.037	2872
462.065	3365
462.105	2636
462.145	1744
462.173	1829
462.225	2140
462.241	2221
462.305	2762
462.310	2779
462.378	2696
462.385	2685
462.446	2257
462.465	2155
462.514	2116
462.545	2203
462.582	2261
462.625	2303
462.650	2343
462.705	2029
462.718	1916
462.785	1560
462.786	1566
462.854	1875
462.865	1960
462.922	2245
462.945	2419
462.990	2684
463.025	2545
463.058	2456
463.104	2535
463.126	2400
463.184	2299
463.194	2392
463.262	2754
463.264	2762
463.330	2298
463.344	2240
463.398	2963
463.424	3142
463.466	2323
463.504	1758
463.533	2054
463.583	2443
463.601	2276
463.663	1972
463.669	2009
463.737	2176
463.743	2165
463.805	2381
463.823	2560
463.873	2986
463.903	3248
463.940	3185
463.982	2910
464.008	2674
464.062	2307
464.076	2394
464.142	2815
464.144	2824
464.211	2858
464.221	2878
464.279	2775
464.301	2711
464.347	2677
464.381	2696
464.414	2693
464.461	2661
464.482	2682
464.540	2516
464.550	2496
464.617	2578
464.620	2580
464.685	2842
464.699	2852
464.753	3022
464.779	3056
464.820	2884
464.859	2922
464.888	2880
464.938	2616
464.956	2841
465.018	3789
465.023	3802
465.091	3700
465.098	3686
465.158	2873
465.177	2620
465.226	2812
465.257	2987
465.293	3053
465.336	2982
465.361	2992
465.416	3245
465.428	3378
465.495	3823
465.496	3824
465.563	2920
465.575	2754
465.631	3100
465.654	3317
465.698	3508
465.734	3589
465.765	3376
465.813	2952
465.833	3138
465.893	3835
465.900	3798
465.968	3249
465.972	3215
466.035	2675
466.052	2516
466.102	2919
466.131	3154
466.170	2972
466.210	2751
466.237	3129
466.290	3876
466.304	3753
466.369	3130
466.372	3146
466.439	3489
466.449	3529
466.506	3104
466.528	2956
466.573	3222
466.607	3383
466.641	3542
466.687	3775
466.708	3937
466.766	4360
466.775	4325
466.842	3999
466.845	3978
466.909	4026
466.925	4020
466.977	3304
467.004	2938
467.044	3865
467.083	4783
467.111	4742
467.163	4635
467.178	4579
467.242	4309
467.245	4328
467.312	4616
467.321	4647
467.379	4172
467.400	3991
467.446	4515
467.480	4884
467.559	4758
467.638	3824
467.717	4288
467.796	5758
467.875	4772
467.955	5233
468.034	6596
468.113	8120
468.192	9505
468.271	10316
468.350	14299
468.429	19249
468.508	19701
468.588	11766
468.667	7549
468.746	5936
468.825	5410
468.904	4654
468.983	4647
469.062	4944
469.141	5057
469.220	3750
469.299	4375
469.378	4004
469.456	4687
469.535	5126
469.614	4377
469.693	3861
469.772	4591
469.851	5006
469.930	4393
470.009	4550
470.088	4410
470.166	4416
470.245	5786
470.324	4963
470.403	4965
470.482	4497
470.560	4109
470.639	3861
470.718	4578
470.797	3814
470.875	3476
470.954	3879
471.033	4322
471.111	3813
471.190	3374
471.269	3407
471.347	3762
471.426	2898
471.505	3372
471.583	3679
471.662	4053
471.740	4113
471.819	4015
471.898	2995
471.976	4831
472.055	3499
472.133	4054
472.212	4641
472.290	4077
472.369	3786
472.447	4232
472.526	3391
472.604	4338
472.683	3743
472.761	4065
472.839	3789
472.918	3908
472.996	3723
473.075	3790
473.153	4460
473.231	4450
473.310	3863
473.388	4798
473.466	3621
473.545	4741
473.623	4332
473.701	4275
473.780	4790
473.858	2886
473.936	4400
474.014	4077
474.093	4928
474.171	5440
474.249	5148
474.327	4199
474.405	2897
474.484	4649
474.562	3205
474.640	3776
474.718	3518
474.796	3372
474.874	4306
474.952	3666
475.030	4125
475.108	3827
475.187	4129
475.265	3985
475.343	3486
475.421	4295
475.499	3659
475.577	3779
475.655	4607
475.733	4750
475.811	4516
475.889	3761
475.966	3441
476.044	4152
476.122	2917
476.200	3640
476.278	2506
476.356	3242
476.434	3917
476.512	3666
476.590	3358
476.667	3325
476.745	2917
476.823	3718
476.901	4159
476.979	3481
477.056	4161
477.134	4243
477.212	3398
477.290	3756
477.367	2974
477.445	2724
477.523	2901
477.601	2865
477.678	3795
477.756	3177
477.834	3574
477.911	3460
477.989	3606
478.066	2690
478.144	3023
478.222	4169
478.299	3394
478.377	4281
478.454	4045
478.532	3221
478.609	2528
478.687	3709
478.764	2701
478.842	2527
478.919	2887
478.997	3112
479.074	3175
479.152	3257
479.229	3871
479.307	2750
479.384	2991
479.461	3513
479.539	2167
479.616	3296
479.694	2823
479.771	2927
479.848	3319
479.926	2252
480.003	4698
480.080	3975
480.157	4030
480.235	2456
480.312	3441
480.389	4049
480.467	3216
480.544	3718
480.621	4238
480.698	4138
480.775	4332
480.853	3269
480.930	3579
481.007	4156
481.084	4984
481.161	6643
481.238	5129
481.315	4172
481.392	3208
481.470	4293
481.547	3341
481.624	3718
481.701	3385
481.778	4013
481.855	3952
481.932	4245
482.009	5826
482.086	5210
482.163	6390
482.240	6426
482.317	6401
482.393	5667
482.470	5684
482.547	4942
482.624	4061
482.701	4921
482.778	4183
482.855	4329
482.932	3949
483.009	5183
483.085	6551
483.162	7647
483.239	8371
483.316	6491
483.393	7692
483.469	6007
483.546	5950
483.623	4889
483.699	3927
483.776	3977
483.853	3363
483.930	4341
484.006	4627
484.083	7412
484.160	8264
484.236	10566
484.313	8568
484.389	7704
484.466	9271
484.543	10233
484.619	11722
484.696	13349
484.772	8206
484.849	7197
484.925	6864
485.002	6289
485.078	5705
485.155	5467
485.231	4767
485.308	5038
485.384	5902
485.461	5990
485.537	5462
485.614	6663
485.690	5234
485.766	4810
485.843	5517
485.919	4882
485.995	4974
486.072	6509
486.148	4619
486.224	4958
486.301	5436
486.377	5235
486.453	4291
486.530	6668
486.606	8677
486.682	7380
486.758	7024
486.835	7492
486.911	6172
486.987	7848
487.063	8809
487.139	9758
487.215	11266
487.292	12654
487.368	12850
487.444	15481
487.520	21148
487.596	34925
487.672	99524
487.748	262965
487.824	346337
487.900	102867
487.976	30809
488.052	17501
488.128	11473
488.204	8321
488.280	9106
488.356	8310
488.432	7704
488.508	7722
488.584	6344
488.660	5263
488.736	6003
488.812	4721
488.888	5490
488.964	4666
489.039	7556
489.115	8672
489.191	5876
489.267	4812
489.343	5699
489.418	4828
489.494	5172
489.570	2960
489.646	5932
489.722	4897
489.797	5072
489.873	4261
489.949	4859
490.024	5136
490.100	3945
490.176	4453
490.251	4318
490.327	5000
490.403	4101
490.478	5158
490.554	4143
490.629	3846
490.705	4179
490.781	4867
490.856	3576
490.932	3997
491.007	3793
491.083	3855
491.158	3704
491.234	4972
491.309	4308
491.385	3666
491.460	2560
491.536	4572
491.611	2942
491.686	3443
491.762	4406
491.837	4831
491.913	5812
491.988	7284
492.063	6454
492.139	4013
492.214	3567
492.289	3726
492.365	2443
492.440	3615
492.515	3242
492.590	2377
492.666	2692
492.741	3558
492.816	2803
492.891	3026
492.967	3721
493.042	3277
493.117	3248
493.192	4017
493.267	6224
493.342	12914
493.418	15154
493.493	4048
493.568	3201
493.643	2727
493.718	3779
493.793	3198
493.868	3553
493.943	3589
494.018	3006
494.093	1875
494.168	2798
494.243	2823
494.318	2701
494.393	3853
494.468	2764
494.543	3143
494.618	2291
494.693	2629
494.768	2332
494.842	2535
494.917	2487
494.992	2179
495.067	3071
495.142	2605
495.217	3237
495.292	2140
495.366	2177
495.441	2590
495.516	2996
495.591	3557
495.665	7132
495.740	10773
495.815	4171
495.890	2650
495.964	1312
496.039	4320
496.114	3631
496.188	5461
496.263	3210
496.338	2236
496.412	2185
496.487	2957
496.561	2514
496.636	2742
496.710	1602
496.785	3147
496.860	2322
496.934	1926
497.009	3456
497.083	2496
497.158	2828
497.232	2691
497.307	2530
497.381	1950
497.455	2652
497.530	3187
497.604	2965
497.679	2486
497.753	3413
497.827	2950
497.902	1758
497.976	2802
498.050	6794
498.125	17886
498.199	13322
498.273	3848
498.348	2721
498.422	2600
498.496	2650
498.570	3135
498.645	3133
498.719	2333
498.793	3512
498.867	3064
498.941	3534
499.016	8653
499.090	15235
499.164	4954
499.238	2327
499.312	2677
499.386	2448
499.460	2970
499.534	3026
499.609	3304
499.683	2390
499.757	3219
499.831	4474
499.905	11619
499.979	8559
500.053	2733
500.127	2716
500.201	2831
500.275	2735
500.349	2978
500.422	3007
500.496	3622
500.570	4491
500.644	8306
500.718	10083
500.792	3197
500.866	3266
500.940	2355
501.013	2108
501.087	3150
501.161	4065
501.235	2361
501.309	6788
501.382	9408
501.456	7432
501.530	3500
501.603	3178
501.677	2486
501.751	989
501.825	5213
501.898	2836
501.972	4309
502.046	3662
502.119	1792
502.193	3413
502.266	4418
502.340	3329
502.413	3595
502.487	3976
502.561	2119
502.634	2703
502.708	2947
502.781	1738
502.855	3926
502.928	2500
503.002	2972
503.075	2099
503.149	2969
503.222	2068
503.295	3465
503.369	3801
503.442	3970
503.516	6660
503.589	9847
503.662	7969
503.736	8365
503.809	12006
503.882	14275
503.956	24769
504.029	57539
504.102	149276
504.175	183405
504.249	65890
504.322	25336
504.395	13567
504.468	8526
504.542	6297
504.615	4027
504.688	4791
504.761	2554
504.834	4746
504.907	3739
504.980	3160
505.053	3137
505.127	815
505.200	4413
505.273	1503
505.346	1604
505.419	1345
505.492	2833
505.565	1426
505.638	2546
505.711	2071
505.784	853
505.857	1529
505.930	3403
506.003	652
506.076	3127
506.149	863
506.221	181
506.294	2931
506.367	1222
506.440	4771
506.513	2705
506.586	1854
506.659	174
506.731	1398
506.804	716
506.877	966
506.950	1314
507.022	2330
507.095	1219
507.168	2602
507.241	1586
507.313	1078
507.386	388
507.459	1991
507.531	1197
507.604	697
507.677	2509
507.749	776
507.822	2866
507.894	2234
507.967	4692
508.040	1326
508.112	2143
508.185	2272
508.257	1148
508.330	3217
508.402	767
508.475	2300
508.547	3129
508.620	2406
508.692	1926
508.765	2198
508.837	1365
508.909	2601
508.982	1897
509.054	3077
509.127	1590
509.199	1433
509.271	919
509.344	1833
509.416	2372
509.488	1737
509.560	2119
509.633	1126
509.705	1632
509.777	1120
509.849	2819
509.922	1206
509.994	2162
510.066	2570
510.138	479
510.210	5497
510.283	2763
510.355	3195
510.427	3450
510.499	2107
510.571	1678
510.643	1246
510.715	3506
510.787	588
510.859	3365
510.931	1485
511.003	2154
511.076	2700
511.148	1645
511.219	1390
511.291	4458
511.363	2811
511.435	1836
511.507	894
511.579	3223
511.651	2597
511.723	2446
511.795	2445
511.867	1762
511.939	2656
512.010	1306
512.082	3842
512.154	1230
512.226	1896
512.298	3766
512.369	3150
512.441	3428
512.513	2787
512.585	1621
512.656	3309
512.728	1973
512.800	2182
512.871	2631
512.943	2646
513.015	1137
513.086	3296
513.158	3075
513.230	1081
513.301	2119
513.373	3360
513.444	1970
513.516	1900
513.588	1726
513.659	2490
513.731	1527
513.802	1126
513.874	4467
513.945	3204
514.016	1825
514.088	3287
514.159	954
514.231	2015
514.302	3629
514.374	3483
514.445	1047
514.516	4539
514.588	1416
514.659	2569
514.730	1248
514.802	2950
514.873	1170
514.944	4265
515.016	2356
515.087	2325
515.158	3031
515.229	3760
515.301	1396
515.372	2376
515.443	1236
515.514	2289
515.585	1668
515.656	3244
515.728	2979
515.799	1086
515.870	3093
515.941	3087
516.012	2169
516.083	3644
516.154	1886
516.225	3498
516.296	4418
516.367	2900
516.438	2636
516.509	3387
516.580	6079
516.651	18113
516.722	40493
516.793	14528
516.864	4376
516.935	4781
517.006	5287
517.077	6719
517.148	17649
517.219	68728
517.289	73549
517.360	10864
517.431	5646
517.502	2982
517.573	4346
517.643	3319
517.714	3858
517.785	4187
517.856	3791
517.926	6062
517.997	5839
518.068	6789
518.138	11388
518.209	16415
518.280	61337
518.350	153481
518.421	46616
518.492	16972
518.562	19040
518.633	26223
518.703	45459
518.774	120749
518.845	270135
518.915	198035
518.986	57049
519.056	24719
519.127	17187
519.197	12793
519.268	12245
519.338	8589
519.408	6917
519.479	5260
519.549	3411
519.620	5444
519.690	4051
519.760	3710
519.831	3721
519.901	3531
519.971	3122
520.042	2659
520.112	1608
520.182	2883
520.253	2450
520.323	2861
520.393	2345
520.463	4450
520.534	311
520.604	5848
520.674	3459
520.744	2664
520.814	3239
520.885	4316
520.955	3697
521.025	6617
521.095	3017
521.165	4323
521.235	1688
521.305	1857
521.375	2140
521.445	3144
521.515	2197
521.585	3414
521.655	1786
521.725	3535
521.795	3220
521.865	-15
521.935	4611
522.005	2538
522.075	1811
522.145	3295
522.215	2196
522.285	2805
522.355	2594
522.424	3603
522.494	2428
522.564	3014
522.634	3264
522.704	6654
522.774	2870
522.843	3136
522.913	1828
522.983	2852
523.053	2107
523.122	2880
523.192	2465
523.262	4548
523.331	3149
523.401	3397
523.471	2649
523.540	4012
523.610	2991
523.680	2932
523.749	3023
523.819	4562
523.888	3018
523.958	2311
524.027	2746
524.097	2654
524.166	3010
524.236	1048
524.305	4495
524.375	1848
524.444	1411
524.514	4328
524.583	2404
524.653	2224
524.722	3496
524.791	2191
524.861	4680
524.930	2490
524.999	1994
525.069	4881
525.138	3903
525.207	2979
525.277	5302
525.346	4519
525.415	7093
525.484	6858
525.554	7633
525.623	11704
525.692	13306
525.761	15188
525.830	19260
525.900	24282
525.969	43298
526.038	86341
526.107	218087
526.176	497237
526.245	307407
526.314	108635
526.383	279025
526.452	312968
526.522	502924
526.591	320765
526.660	57990
526.729	35845
526.797	41426
526.867	72230
526.935	252999
527.004	703116
527.073	309121
527.142	47597
527.211	22267
527.280	14407
527.349	12045
527.418	6596
527.487	8943
527.555	4599
527.624	4762
527.693	3709
527.762	6069
527.831	3270
527.899	4291
527.968	4115
528.037	2004
528.106	5372
528.174	3999
528.243	3803
528.312	3732
528.380	3166
528.449	2277
528.518	4874
528.586	1904
528.655	4836
528.723	3134
528.792	3546
528.861	2305
528.929	1539
528.998	3825
529.066	3540
529.135	4729
529.203	3152
529.272	4409
529.340	6258
529.409	7561
529.477	4970
529.545	3945
529.614	7025
529.682	4109
529.751	6337
529.819	9085
529.887	7509
529.956	6577
530.024	8038
530.092	5769
530.161	7759
530.229	7233
530.297	7288
530.365	8204
530.434	7573
530.502	6450
530.570	7077
530.638	4515
530.707	6165
530.775	6416
530.843	5443
530.911	6816
530.979	6795
531.047	7382
531.115	8030
531.183	7068
531.252	6238
531.320	6209
531.388	5644
531.456	7389
531.524	4953
531.592	8327
531.660	10194
531.728	7038
531.796	6829
531.864	7580
531.932	7048
532.000	7181
532.067	7889
532.135	8869
532.203	9313
532.271	8482
532.339	10256
532.407	10258
532.475	10127
532.542	8976
532.610	8974
532.678	8172
532.746	14666
532.814	18182
532.881	10406
532.949	9826
533.017	8178
533.084	8214
533.152	6871
533.220	8438
533.287	6638
533.355	9251
533.423	8364
533.490	8685
533.558	9053
533.625	9076
533.693	8536
533.761	9436
533.828	8837
533.896	7194
533.963	10947
534.031	10999
534.098	12458
534.166	11860
534.233	11356
534.300	13187
534.368	12734
534.435	11999
534.503	13212
534.570	13901
534.637	14809
534.705	18189
534.772	24586
534.840	59685
534.907	254992
534.974	202688
535.041	26528
535.109	14379
535.176	11557
535.243	12086
535.310	10259
535.378	9351
535.445	10159
535.512	9785
535.579	9928
535.646	9032
535.714	10269
535.781	10686
535.848	10672
535.915	11120
535.982	9809
536.049	9664
536.116	10604
536.183	8812
536.250	8779
536.317	8699
536.384	10309
536.451	10703
536.518	10605
536.585	8452
536.652	11735
536.719	9971
536.786	8672
536.853	8591
536.920	9681
536.987	9425
537.053	9277
537.120	14972
537.187	12764
537.254	11467
537.321	9604
537.388	10730
537.454	9423
537.521	9181
537.588	8196
537.654	10114
537.721	9543
537.788	11146
537.855	8517
537.921	10277
537.988	8216
538.055	10162
538.121	8220
538.188	8455
538.254	8442
538.321	9335
538.388	9914
538.454	10370
538.521	11164
538.587	9516
538.654	9313
538.720	9689
538.787	10566
538.853	9997
538.920	9536
538.986	8304
539.053	8172
539.119	9324
539.185	8848
539.252	10531
539.318	9625
539.385	12537
539.451	8346
539.517	10952
539.583	9331
539.650	9796
539.716	12138
539.782	8180
539.849	8841
539.915	9585
539.981	9127
540.047	9151
540.114	8967
540.180	10076
540.246	8904
540.312	9839
540.378	11315
540.444	10917
540.510	12423
540.576	12437
540.643	8804
540.709	8454
540.775	9257
540.841	8948
540.907	10183
540.973	10226
541.039	8656
541.105	9629
541.171	9918
541.237	9478
541.303	10947
541.369	12224
541.435	10619
541.500	9759
541.566	8222
541.632	8880
541.698	8909
541.764	10765
541.830	9379
541.896	9008
541.961	9652
542.027	8565
542.093	9507
542.159	10686
542.224	7534
542.290	10627
542.356	9499
542.421	10168
542.487	10168
542.553	8613
542.618	8678
542.684	8901
542.750	8342
542.815	10199
542.881	8893
542.947	13827
543.012	11438
543.078	9502
543.143	8096
543.209	9958
543.274	8331
543.340	9478
543.405	10243
543.471	10345
543.536	9517
543.602	10041
543.667	7793
543.732	11073
543.798	8045
543.863	10635
543.928	9601
543.994	8771
544.059	10084
544.124	10864
544.190	9613
544.255	11320
544.320	11258
544.386	9828
544.451	11267
544.516	11002
544.581	10787
544.646	12733
544.712	13315
544.777	11819
544.842	10647
544.907	11833
544.972	11457
545.037	11647
545.102	12050
545.168	11321
545.233	12916
545.298	12551
545.363	12122
545.428	13335
545.493	14817
545.558	13590
545.623	12624
545.688	12741
545.753	13600
545.818	14302
545.883	15671
545.947	15845
546.012	15403
546.077	16263
546.142	17055
546.207	17271
546.272	18812
546.337	18249
546.401	20516
546.466	21113
546.531	21681
546.596	22635
546.661	23573
546.725	26676
546.790	26831
546.855	28998
546.919	29788
546.984	34827
547.049	38213
547.113	44127
547.178	47462
547.243	55107
547.307	65574
547.372	70578
547.436	69087
547.501	74793
547.565	78248
547.630	72145
547.695	69381
547.759	69643
547.823	70303
547.888	73122
547.952	73936
548.017	76970
548.081	79406
548.146	76712
548.210	80222
548.274	88632
548.339	83496
548.403	76731
548.468	71819
548.532	72614
548.596	74705
548.660	75003
548.725	82609
548.789	87047
548.853	83284
548.917	81868
548.982	77374
549.046	70241
549.110	63996
549.174	69992
549.238	81688
549.303	87750
549.367	89099
549.431	83022
549.495	78232
549.559	79527
549.623	95668
549.687	99657
549.751	101382
549.815	120222
549.879	116843
549.943	115859
550.007	120864
550.071	116409
550.135	105217
550.199	102355
550.263	99681
550.327	96920
550.391	99009
550.455	110056
550.519	115746
550.582	123333
550.646	139895
550.710	138273
550.774	137873
550.838	141137
550.901	146038
550.965	156409
551.029	162366
551.093	172794
551.156	195727
551.220	219659
551.284	222372
551.347	174030
551.411	154492
551.475	149261
551.538	151946
551.602	140678
551.666	133796
551.729	125454
551.793	126668
551.856	121706
551.920	120306
551.983	121417
552.047	118949
552.110	123312
552.174	122858
552.237	123991
552.301	115899
552.364	112589
552.428	108789
552.491	114407
552.554	114816
552.618	113740
552.681	115458
552.745	111028
552.808	118201
552.871	120302
552.934	118534
552.998	115629
553.061	112319
553.124	108691
553.187	110442
553.251	113691
553.314	112858
553.377	113858
553.440	124541
553.503	138473
553.567	137251
553.630	125121
553.693	126029
553.756	125134
553.819	122672
553.882	120059
553.945	121757
554.008	120198
554.071	123087
554.134	122335
554.197	115563
554.260	115563
554.323	117894
554.386	117677
554.449	122181
554.512	122258
554.575	116127
554.638	115501
554.701	116827
554.764	115791
554.827	111818
554.889	107244
554.952	100357
555.015	99821
555.078	101384
555.141	103536
555.203	100337
555.266	99933
555.329	98381
555.391	95829
555.454	94776
555.517	89235
555.580	89281
555.642	85323
555.705	84423
555.768	84183
555.830	80050
555.893	75795
555.955	75184
556.018	73301
556.080	73527
556.143	74665
556.206	74221
556.268	71860
556.330	70556
556.393	68506
556.455	66468
556.518	65504
556.580	62898
556.643	61222
556.705	60303
556.767	59561
556.830	59721
556.892	56855
556.955	56520
557.017	56012
557.079	55226
557.142	52211
557.204	51447
557.266	53433
557.328	49685
557.391	46482
557.453	46346
557.515	46364
557.577	45424
557.639	46572
557.701	46135
557.764	45748
557.826	46518
557.888	47935
557.950	49930
558.012	54813
558.074	78611
558.136	194220
558.198	311639
558.260	94197
558.322	53141
558.384	52590
558.446	53369
558.508	56200
558.570	63765
558.632	71248
558.694	97526
558.756	186028
558.818	531289
558.880	758492
558.942	322124
559.003	346695
559.065	130231
559.127	65137
559.189	61450
559.251	72129
559.312	117178
559.374	309658
559.436	630784
559.498	232399
559.559	73166
559.621	63517
559.683	77097
559.744	140416
559.806	428690
559.868	401036
559.929	91331
559.991	73630
560.052	148888
560.114	328740
560.176	165449
560.237	230349
560.299	246792
560.360	50389
560.422	28227
560.483	24806
560.545	23233
560.606	22667
560.667	20271
560.729	19313
560.790	19153
560.852	18296
560.913	17572
560.974	17368
561.036	16926
561.097	16769
561.158	15833
561.220	16974
561.281	15199
561.342	15107
561.403	15522
561.465	15002
561.526	15599
561.587	16718
561.648	13596
561.709	14591
561.771	14726
561.832	13533
561.893	13698
561.954	13543
562.015	13003
562.076	12301
562.137	12262
562.198	12096
562.259	12395
562.320	12342
562.381	13354
562.442	13696
562.503	12643
562.564	12639
562.625	11496
562.686	11859
562.747	11598
562.808	11658
562.869	11840
562.930	11795
562.991	10900
563.051	11013
563.112	11034
563.173	10786
563.234	10505
563.294	10432
563.355	9738
563.416	10064
563.477	10175
563.537	10574
563.598	10436
563.659	10599
563.720	9788
563.780	10562
563.841	9895
563.901	10384
563.962	10378
564.023	9933
564.083	10061
564.144	9779
564.204	9663
564.265	9244
564.325	9564
564.386	10772
564.446	10515
564.507	9935
564.567	10190
564.628	8927
564.688	8584
564.749	8938
564.809	10257
564.869	8661
564.930	9102
564.990	9969
565.050	8288
565.111	9399
565.171	8924
565.231	8453
565.292	9714
565.352	8069
565.412	9309
565.472	9134
565.532	9126
565.593	8680
565.653	7829
565.713	8528
565.773	9789
565.833	9248
565.893	10824
565.953	7639
566.013	8199
566.074	8207
566.134	9094
566.194	7028
566.254	8232
566.314	9417
566.374	8489
566.434	8546
566.494	8179
566.554	8492
566.614	7467
566.673	9762
566.733	9924
566.793	8793
566.853	8759
566.913	8438
566.973	9207
567.033	8621
567.092	8803
567.152	8576
567.212	9106
567.272	9027
567.331	9737
567.391	8698
567.451	9957
567.511	9068
567.570	9645
567.630	8818
567.690	8777
567.749	8653
567.809	9368
567.868	9228
567.928	8589
567.988	8162
568.047	9298
568.107	8101
568.166	9031
568.226	8843
568.285	9072
568.345	8983
568.404	9749
568.464	9218
568.523	9035
568.582	9477
568.642	9269
568.701	8529
568.761	8692
568.820	8238
568.879	9055
568.939	8930
568.998	8769
569.057	7877
569.116	9232
569.176	8854
569.235	8786
569.294	9503
569.353	8296
569.413	8739
569.472	8209
569.531	8202
569.590	8365
569.649	7949
569.708	8554
569.767	8829
569.827	7968
569.886	8269
569.945	8159
570.004	8185
570.063	7653
570.122	9108
570.181	8756
570.240	9131
570.299	9469
570.358	9351
570.417	8950
570.475	8870
570.534	9381
570.593	9416
570.652	9070
570.711	9100
570.770	7810
570.829	9335
570.887	9268
570.946	9265
571.005	9710
571.064	9435
571.122	9045
571.181	9056
571.240	8216
571.299	8798
571.357	9456
571.416	8820
571.475	8625
571.533	10159
571.592	9671
571.650	10566
571.709	10783
571.768	11178
571.826	11982
571.885	11029
571.943	10230
572.002	9594
572.060	9542
572.119	9480
572.177	9146
572.236	9258
572.294	9291
572.352	10530
572.411	9876
572.469	9753
572.528	9301
572.586	9216
572.644	8722
572.703	8579
572.761	8269
572.819	8602
572.877	8251
572.936	8928
572.994	8100
573.052	8800
573.110	8106
573.169	8829
573.227	9594
573.285	9235
573.343	8533
573.401	8127
573.459	9028
573.517	8891
573.576	9307
573.634	9671
573.692	8916
573.750	9211
573.808	7415
573.866	8195
573.924	8203
573.982	8581
574.040	8107
574.098	8725
574.155	8362
574.213	8624
574.271	8844
574.329	9654
574.387	7152
574.445	7620
574.503	7228
574.560	6848
574.618	7344
574.676	7704
574.734	7501
574.792	7083
574.849	7260
574.907	7134
574.965	5383
575.022	6487
575.080	5470
575.138	5984
575.195	6008
575.253	5499
575.311	5784
575.368	7171
575.426	5823
575.483	6198
575.541	6209
575.598	6187
575.656	6214
575.713	7863
575.771	7766
575.828	7089
575.886	6048
575.943	7311
576.001	5889
576.058	5798
576.115	5668
576.173	6094
576.230	6436
576.287	7028
576.345	6492
576.402	6404
576.459	6737
576.517	5358
576.574	6276
576.631	4994
576.688	5894
576.746	5173
576.803	5212
576.860	5407
576.917	5768
576.974	5749
577.031	6463
577.089	5454
577.146	5207
577.203	4380
577.260	6388
577.317	6735
577.374	6205
577.431	4986
577.488	5742
577.545	5535
577.602	5920
577.659	5907
577.716	6375
577.773	5745
577.830	5194
577.886	6050
577.943	4642
578.000	5060
578.057	6100
578.114	5970
578.171	6343
578.227	6530
578.284	5800
578.341	5909
578.398	6274
578.454	6696
578.511	5036
578.568	6407
578.625	4667
578.681	4761
578.738	5329
578.794	5201
578.851	5156
578.908	4722
578.964	5462
579.021	6066
579.077	5243
579.134	6442
579.190	5143
579.247	5781
579.303	5248
579.360	5383
579.416	5813
579.473	5577
579.529	5960
579.586	6507
579.642	5646
579.698	5675
579.755	5961
579.811	5850
579.867	5545
579.924	6186
579.980	6258
580.036	6683
580.093	8225
580.149	9600
580.205	9329
580.261	8091
580.317	7405
580.374	7427
580.430	6827
580.486	6517
580.542	6380
580.598	6757
580.619	6720
580.654	6658
580.692	6607
580.710	6589
580.765	7100
580.767	7116
580.823	6904
580.838	6888
580.879	6852
580.911	6751
580.935	6682
580.984	6243
580.991	6188
581.047	7576
581.057	7521
581.103	7227
581.130	7507
581.159	7821
581.203	6837
581.215	6570
581.270	7106
581.276	7097
581.326	7027
581.349	6770
581.382	6402
581.422	6647
581.438	6723
581.494	6887
581.494	6883
581.550	6532
581.567	6800
581.606	7354
581.640	6982
581.661	6773
581.713	7752
581.717	7821
581.773	7133
581.786	7268
581.829	7811
581.859	7795
581.885	7756
581.932	7525
581.940	7486
581.996	7402
582.004	7483
582.052	7844
582.077	7238
582.107	6604
582.150	8139
582.163	8577
582.219	8588
582.223	8487
582.274	7169
582.296	7466
582.330	7931
582.368	8233
582.386	8450
582.441	8294
582.441	8292
582.497	8401
582.514	8378
582.552	8411
582.587	8533
582.608	8588
582.659	8461
582.663	8456
582.719	9429
582.732	9478
582.774	9476
582.805	9063
582.830	8777
582.877	9654
582.885	9830
582.941	10053
582.950	10229
582.996	10996
583.023	11425
583.052	12006
583.095	12789
583.107	12924
583.162	12162
583.168	12148
583.218	11884
583.240	11572
583.273	10993
583.313	10724
583.328	10725
583.384	9759
583.385	9776
583.439	10134
583.458	10155
583.494	10233
583.531	9859
583.549	9715
583.603	9624
583.605	9620
583.660	10133
583.676	10171
583.715	10249
583.748	10267
583.770	10266
583.820	10637
583.825	10681
583.881	10378
583.893	10247
583.936	9797
583.965	9731
583.991	9714
584.038	10702
584.046	10868
584.101	9945
584.110	10077
584.156	10721
584.183	10566
584.211	10552
584.255	10965
584.266	11031
584.321	11389
584.328	11385
584.376	11524
584.400	11831
584.431	12217
584.472	12203
584.486	12104
584.541	12307
584.545	12322
584.596	13403
584.617	13491
584.651	13566
584.689	14206
584.706	14390
584.761	14362
584.762	14361
584.816	15398
584.834	15738
584.871	16235
584.906	16259
584.926	16450
584.978	16691
584.980	16720
585.035	18880
585.051	19065
585.090	19577
585.123	20868
585.145	21933
585.195	23813
585.200	24044
585.254	27057
585.267	27886
585.309	31052
585.340	34162
585.364	36956
585.412	41379
585.419	42263
585.473	53690
585.484	57017
585.528	76310
585.556	95623
585.583	128528
585.628	208085
585.637	233888
585.692	455778
585.700	479387
585.747	547367
585.772	479249
585.801	315372
585.845	149665
585.856	126964
585.910	65821
585.917	59517
585.965	44963
585.989	38851
586.019	35187
586.061	30640
586.074	29651
586.128	26171
586.133	25886
586.183	24689
586.205	24424
586.237	24123
586.277	23359
586.292	23194
586.346	22430
586.349	22363
586.401	22188
586.421	22169
586.455	21904
586.493	21562
586.509	21761
586.564	22366
586.565	22363
586.618	24144
586.637	24874
586.672	27060
586.709	29120
586.727	30337
586.781	33882
586.781	33923
586.835	28133
586.853	26958
586.889	24770
586.925	22644
586.944	22121
586.996	21130
586.998	21168
587.052	21316
587.068	21229
587.106	21173
587.140	21272
587.161	21519
587.212	22328
587.215	22373
587.269	22044
587.284	21888
587.323	22150
587.356	22337
587.377	22621
587.427	23874
587.431	23974
587.485	23940
587.499	23964
587.539	24428
587.571	24704
587.593	25441
587.643	27485
587.648	27595
587.702	26982
587.715	26910
587.755	26996
587.786	27168
587.810	27495
587.858	27476
587.864	27523
587.917	28086
587.930	28035
587.971	27934
588.001	27977
588.025	28358
588.073	28552
588.079	28597
588.133	28511
588.145	28541
588.187	29124
588.217	29173
588.241	29255
588.288	29466
588.295	29635
588.348	31042
588.360	31077
588.402	31503
588.431	32079
588.456	32666
588.503	33434
588.510	33714
588.564	35591
588.575	35957
588.617	37814
588.646	39064
588.671	40640
588.718	43449
588.725	44218
588.778	51903
588.789	53887
588.832	77094
588.861	95705
588.886	133449
588.932	217709
588.939	226169
588.993	266687
589.004	265767
589.047	148908
589.075	85641
589.100	69804
589.147	45396
589.154	44943
589.207	40789
589.218	40048
589.261	40789
589.290	41210
589.314	42287
589.361	44930
589.368	46307
589.421	58662
589.433	61723
589.475	98698
589.504	128814
589.528	168031
589.576	241247
589.582	233788
589.635	127328
589.647	107857
589.689	67764
589.718	42275
589.742	40369
589.790	36139
589.795	36108
589.849	35072
589.861	34830
589.902	34870
589.932	34450
589.955	34542
590.004	34916
590.009	34996
590.062	34488
590.075	34327
590.115	34289
590.146	34021
590.168	34042
590.218	33695
590.222	33827
590.275	34728
590.289	34779
590.328	35724
590.360	36376
590.381	36335
590.431	35796
590.435	35934
590.488	36590
590.503	36676
590.541	37483
590.574	38112
590.594	38668
590.645	39542
590.647	39703
590.700	40978
590.716	41258
590.753	41805
590.787	42188
590.806	42859
590.859	44013
590.859	44151
590.912	44765
590.930	44949
590.965	45422
591.001	45428
591.018	45490
591.071	45403
591.072	45268
591.124	45019
591.143	44839
591.177	45274
591.214	45427
591.230	46016
591.283	47467
591.285	47375
591.336	46647
591.356	46277
591.389	46615
591.427	46476
591.442	46405
591.495	45750
591.498	45562
591.547	46373
591.569	46563
591.600	47315
591.640	47932
591.653	48248
591.706	48884
591.711	48811
591.759	50467
591.782	51132
591.811	52468
591.853	53841
591.864	53893
591.917	53494
591.924	53249
591.969	53617
591.995	53600
592.022	54113
592.066	54531
592.075	54949
592.127	56483
592.137	56588
592.180	57625
592.208	58018
592.233	58613
592.279	59226
592.285	59627
592.338	61433
592.350	61642
592.390	61274
592.421	60679
592.443	61522
592.491	62772
592.495	63035
592.548	63911
592.562	63949
592.600	64367
592.633	64359
592.653	64254
592.704	63090
592.705	63508
592.775	66323
592.846	67718
592.916	67992
592.987	67972
593.058	69610
593.128	70015
593.199	70409
593.270	70321
593.341	71951
593.411	74250
593.482	75848
593.553	77985
593.623	78853
593.694	82849
593.764	84158
593.835	82767
593.906	82966
593.976	85607
594.047	87484
594.117	91240
594.188	93478
594.258	92751
594.329	93952
594.399	96935
594.470	98976
594.540	102471
594.611	103302
594.681	103999
594.751	103285
594.822	106687
594.892	111324
594.963	113539
595.033	117435
595.103	121716
595.174	122003
595.244	123485
595.314	128195
595.384	130014
595.455	132999
595.525	138107
595.595	143417
595.665	142784
595.736	139671
595.806	142263
595.876	144506
595.946	144867
596.016	150965
596.087	156819
596.157	155645
596.227	156787
596.297	164618
596.367	176487
596.437	183953
596.507	183888
596.577	181588
596.647	187708
596.717	196502
596.787	198522
596.857	198469
596.927	202411
596.997	202024
597.067	203874
597.137	208715
597.207	208781
597.277	209610
597.347	201808
597.417	198058
597.487	197390
597.557	203672
597.626	207627
597.696	211886
597.766	208826
597.836	198429
597.906	190538
597.975	186608
598.045	190662
598.115	198135
598.185	211061
598.254	234828
598.324	249944
598.394	252345
598.464	248541
598.533	244574
598.603	231589
598.672	226960
598.742	229695
598.812	229818
598.881	235857
598.951	233295
599.020	240252
599.090	246514
599.159	250189
599.229	242488
599.299	237908
599.368	244720
599.437	242642
599.507	225268
599.576	220101
599.646	218713
599.715	217105
599.785	213646
599.854	209237
599.924	206748
599.993	209555
600.062	214042
600.132	217920
600.201	228585
600.270	258107
600.340	271339
600.409	267125
600.478	266438
600.547	272084
600.617	250711
600.686	210952
600.755	196416
600.824	191096
600.894	185845
600.963	189832
601.032	189182
601.101	183093
601.170	178621
601.239	175549
601.308	175821
601.378	178140
601.447	180479
601.516	182937
601.585	185405
601.654	187638
601.723	189300
601.792	195865
601.861	199983
601.930	208450
601.999	211635
602.068	210113
602.137	210646
602.206	214314
602.275	218620
602.343	219185
602.412	219237
602.481	222424
602.550	223210
602.619	228988
602.688	230731
602.756	232305
602.825	234536
602.894	238383
602.963	239884
603.032	245700
603.100	245493
603.169	242999
603.238	250075
603.307	246918
603.375	247773
603.444	254870
603.513	250562
603.581	255012
603.650	262314
603.719	245305
603.787	247191
603.856	251389
603.924	255643
603.993	262664
604.061	272169
604.130	282209
604.198	285795
604.267	288909
604.335	294226
604.404	296596
604.472	305165
604.541	302198
604.609	310556
604.678	311269
604.746	311943
604.815	325037
604.883	323558
604.951	319829
605.020	326176
605.088	324419
605.156	325950
605.225	329195
605.293	327015
605.361	326859
605.429	329984
605.498	338773
605.566	341014
605.634	356738
605.702	363063
605.771	370566
605.839	375377
605.907	364985
605.975	358302
606.043	350280
606.111	346674
606.180	353136
606.248	343271
606.316	340821
606.384	345789
606.452	332664
606.520	332735
606.588	342999
606.656	342345
606.724	337875
606.792	320146
606.860	296933
606.928	271287
606.996	261658
607.064	259399
607.132	267252
607.200	280670
607.267	288198
607.335	293753
607.403	300146
607.471	289542
607.539	283321
607.607	282607
607.674	253262
607.742	253831
607.810	250443
607.878	252329
607.946	256305
608.013	267328
608.081	274450
608.149	274329
608.216	284368
608.284	291771
608.352	289714
608.419	287914
608.487	281618
608.555	277072
608.622	285607
608.690	302306
608.757	325951
608.825	331449
608.893	324362
608.960	307072
609.028	297172
609.095	298055
609.163	296634
609.230	269812
609.298	251362
609.365	261821
609.432	279038
609.500	300323
609.567	336523
609.635	376348
609.702	387722
609.769	373479
609.837	302553
609.904	269244
609.971	275891
610.039	297240
610.106	350043
610.173	525586
610.241	901595
610.308	659484
610.375	360580
610.442	302253
610.509	282755
610.577	280967
610.644	284996
610.711	291666
610.778	298293
610.845	311169
610.912	323730
610.980	337391
611.047	334962
611.114	331532
611.181	321749
611.248	319818
611.315	335307
611.382	344088
611.449	354760
611.516	356271
611.583	354065
611.650	356833
611.717	361365
611.784	366069
611.851	378286
611.918	392922
611.984	436003
612.051	530139
612.118	762433
612.185	1207497
612.252	986750
612.319	567443
612.386	470484
612.452	427670
612.519	404249
612.586	396086
612.653	401228
612.719	410036
612.786	395575
612.853	373433
612.919	367004
612.986	373606
613.053	352605
613.120	336911
613.186	326048
613.253	327636
613.319	327437
613.386	329535
613.453	334212
613.519	337077
613.586	329513
613.652	336640
613.719	330443
613.785	336392
613.852	340697
613.918	337928
613.985	342828
614.051	352974
614.118	352620
614.184	340455
614.250	337645
614.317	345693
614.383	340358
614.449	345977
614.516	344518
614.582	345637
614.648	342002
614.715	339719
614.781	333900
614.847	331691
614.914	330420
614.980	324274
615.046	326870
615.112	333914
615.179	334598
615.245	337977
615.311	335261
615.377	339947
615.443	343172
615.509	344555
615.575	354000
615.642	355143
615.708	360793
615.774	373297
615.840	392287
615.906	406780
615.972	458533
616.038	581295
616.104	881013
616.170	1296487
616.236	1191639
616.302	731221
616.368	596373
616.434	476100
616.500	430353
616.565	454880
616.631	533494
616.697	482177
616.763	473405
616.829	605661
616.895	906599
616.961	895906
617.026	548055
617.092	408299
617.158	373158
617.224	358553
617.289	335926
617.355	319877
617.421	316418
617.487	317238
617.552	303193
617.618	301954
617.684	300870
617.749	300354
617.815	291148
617.880	284355
617.946	286026
618.012	291291
618.077	295620
618.143	284260
618.208	286617
618.274	305217
618.339	304340
618.405	262347
618.470	264880
618.536	261006
618.601	259156
618.667	245950
618.732	234583
618.798	231881
618.863	233199
618.928	227994
618.994	233126
619.059	233210
619.124	232512
619.190	230181
619.255	231572
619.320	230559
619.386	231942
619.451	228317
619.516	223033
619.581	228122
619.647	232992
619.712	235361
619.777	228166
619.842	229814
619.907	231485
619.972	236514
620.038	234735
620.103	228970
620.168	227467
620.233	231093
620.298	233095
620.363	235315
620.428	239591
620.493	245223
620.558	246144
620.623	250759
620.688	248452
620.753	246349
620.818	251915
620.883	253517
620.948	251796
621.013	250748
621.078	247019
621.143	249044
621.207	253988
621.272	247148
621.337	242088
621.402	241126
621.467	240343
621.532	239717
621.596	240731
621.661	235968
621.726	235083
621.791	236020
621.855	234974
621.920	234840
621.985	237405
622.049	242814
622.114	241591
622.179	243833
622.243	248038
622.308	253903
622.373	261033
622.437	255545
622.502	246102
622.566	246426
622.631	244192
622.695	246815
622.760	246190
622.824	246066
622.889	246437
622.953	245231
623.018	259761
623.082	261417
623.147	258298
623.211	252979
623.276	254574
623.340	245453
623.404	239473
623.469	239702
623.533	243903
623.597	237552
623.662	234888
623.726	223576
623.790	213958
623.854	207589
623.919	211065
623.983	213183
624.047	216391
624.111	216229
624.176	219872
624.240	222554
624.304	225312
624.368	218817
624.432	218355
624.496	223594
624.560	233121
624.625	232430
624.689	232563
624.753	238723
624.817	230442
624.881	225780
624.945	208562
625.009	203917
625.073	206976
625.137	212871
625.201	216450
625.265	216349
625.329	209981
625.393	211111
625.456	212248
625.520	218000
625.584	219287
625.648	223957
625.712	227425
625.776	225589
625.839	214641
625.903	188120
625.967	178052
626.031	188545
626.095	213611
626.158	200568
626.222	164782
626.286	156977
626.349	151997
626.413	142799
626.477	141802
626.540	143705
626.604	141119
626.668	141445
626.731	136978
626.795	138913
626.858	136483
626.922	134573
626.986	133666
627.049	133153
627.113	139177
627.176	133794
627.240	130882
627.303	130739
627.366	129085
627.430	129962
627.493	128225
627.557	125928
627.620	130193
627.684	132184
627.747	132581
627.810	122557
627.874	113459
627.937	108680
628.000	113388
628.064	107641
628.127	98681
628.190	97594
628.253	94824
628.317	92079
628.380	88473
628.443	88114
628.506	86914
628.569	83412
628.632	79269
628.696	80186
628.759	78743
628.822	76632
628.885	74306
628.948	72821
629.011	70993
629.074	69555
629.137	67803
629.200	65140
629.263	65575
629.326	64309
629.389	65829
629.452	63948
629.515	62153
629.578	61500
629.641	61839
629.704	62918
629.767	62121
629.830	59494
629.892	58559
629.955	58629
630.018	60521
630.081	57292
630.144	59921
630.207	56313
630.269	57760
630.332	55970
630.395	55671
630.458	54731
630.520	52002
630.583	53127
630.646	53546
630.708	53796
630.771	54671
630.834	57705
630.896	55796
630.959	56339
631.021	53991
631.084	54841
631.146	55475
631.209	55781
631.272	55623
631.334	55510
631.397	55229
631.459	55533
631.522	58116
631.584	60364
631.646	62672
631.709	64167
631.771	65058
631.834	63281
631.896	60854
631.958	55844
632.021	56059
632.083	53504
632.145	53746
632.208	51853
632.270	52754
632.332	51434
632.395	50716
632.457	53441
632.519	50782
632.581	50796
632.643	50552
632.706	50797
632.768	48666
632.830	51676
632.892	51486
632.954	50711
633.016	51793
633.078	52611
633.141	51622
633.203	51585
633.265	51403
633.327	50188
633.389	49940
633.451	51688
633.513	50608
633.575	52680
633.637	52134
633.698	52622
633.760	57251
633.822	57115
633.884	58722
633.946	59326
634.008	61903
634.070	63475
634.132	65588
634.193	69828
634.255	74647
634.317	74537
634.379	74217
634.441	67075
634.502	61297
634.564	58320
634.626	54764
634.687	52208
634.749	50661
634.811	49889
634.873	50842
634.934	50300
634.996	50364
635.057	49868
635.119	50461
635.181	52075
635.242	52862
635.304	51565
635.365	53754
635.427	51759
635.488	52570
635.550	51123
635.611	53364
635.673	51301
635.734	56707
635.796	58434
635.857	63734
635.918	65491
635.980	71219
636.041	74391
636.102	78343
636.164	79351
636.225	76360
636.286	67321
636.348	62205
636.409	57680
636.470	54129
636.531	53107
636.593	50422
636.654	49184
636.715	47363
636.776	47753
636.838	46597
636.899	45869
636.960	45177
637.021	44033
637.082	43074
637.143	43246
637.204	42027
637.265	42686
637.326	43111
637.387	44377
637.448	42802
637.509	42294
637.570	43215
637.631	42390
637.692	41042
637.753	40124
637.814	40326
637.875	40550
637.936	41130
637.997	40689
638.058	40432
638.119	41047
638.179	41091
638.240	39664
638.301	40904
638.362	39088
638.423	38601
638.483	39911
638.544	37238
638.605	39356
638.666	37771
638.726	38368
638.787	39244
638.848	38387
638.908	37354
638.969	36996
639.030	36870
639.090	35991
639.151	36324
639.211	37930
639.272	37998
639.332	37907
639.393	38836
639.453	40175
639.514	42682
639.574	38750
639.635	35221
639.695	35747
639.756	34135
639.816	35839
639.877	33764
639.937	35907
639.997	35926
640.058	33124
640.118	34472
640.178	35222
640.239	35102
640.299	35032
640.359	36915
640.420	36667
640.480	40532
640.540	44050
640.600	45421
640.661	42239
640.721	39714
640.781	42001
640.841	38699
640.901	36210
640.961	36480
641.021	36371
641.082	39223
641.142	35604
641.202	35987
641.262	31456
641.322	34129
641.382	33596
641.442	33273
641.502	31574
641.562	33970
641.622	33844
641.682	35643
641.742	38945
641.802	37650
641.861	34375
641.921	32214
641.981	31861
642.041	31832
642.101	30398
642.161	30082
642.221	30314
642.280	31657
642.340	30632
642.400	30367
642.460	33164
642.519	32514
642.579	31609
642.639	33119
642.698	30625
642.758	34647
642.818	34131
642.877	31832
642.937	33193
642.997	32983
643.056	32465
643.116	31154
643.175	34590
643.235	34299
643.294	34185
643.354	36027
643.414	38318
643.473	41855
643.532	47928
643.592	59391
643.651	81346
643.711	124909
643.770	219029
643.830	443310
643.889	702464
643.948	297473
644.008	98109
644.067	61140
644.126	46918
644.186	40909
644.245	37982
644.304	34434
644.363	35305
644.423	32319
644.482	32845
644.541	34464
644.600	33541
644.659	40449
644.719	47155
644.778	63722
644.837	99015
644.896	186169
644.955	364787
645.014	149319
645.073	52304
645.132	41014
645.191	36769
645.250	36248
645.309	38029
645.368	39770
645.427	51161
645.486	79572
645.545	131760
645.604	47196
645.663	33688
645.722	32845
645.781	34461
645.840	37123
645.898	42382
645.957	54918
646.016	73565
646.075	117325
646.134	206166
646.192	446230
646.251	566521
646.310	169946
646.369	70217
646.427	56091
646.486	42276
646.545	35074
646.603	31501
646.662	30539
646.721	29701
646.779	28371
646.838	29740
646.896	35123
646.955	42720
647.014	64873
647.072	112309
647.131	266559
647.189	141105
647.248	35795
647.306	29168
647.365	26661
647.423	23064
647.481	25617
647.540	22730
647.598	23162
647.657	23489
647.715	23876
647.773	20950
647.832	22457
647.890	20142
647.948	20643
648.007	21519
648.065	19802
648.123	19461
648.181	20294
648.240	19811
648.298	19457
648.356	19082
648.414	19491
648.472	18208
648.531	18622
648.589	18809
648.647	18370
648.705	17949
648.763	18131
648.821	19473
648.879	19060
648.937	21222
648.995	23424
649.053	27442
649.111	37860
649.169	56422
649.227	94245
649.285	185058
649.343	425258
649.401	236112
649.459	54621
649.516	32569
649.574	24670
649.632	27502
649.690	29600
649.748	33615
649.806	46284
649.863	81690
649.921	202190
649.979	138197
650.037	28928
650.094	17713
650.152	17667
650.210	15393
650.268	16039
650.325	15340
650.383	16190
650.440	12956
650.498	13383
650.556	14352
650.613	11486
650.671	13339
650.728	13959
650.786	15211
650.843	20490
650.901	14439
650.958	12435
651.016	12461
651.073	12140
651.131	11248
651.188	10767
651.246	10913
651.303	10666
651.360	11201
651.418	10610
651.475	11137
651.532	9878
651.590	11351
651.647	10149
651.704	10957
651.762	10997
651.819	11160
651.876	9798
651.933	9738
651.990	10593
652.048	9487
652.105	9241
652.162	9932
652.219	9242
652.276	9807
652.333	9525
652.390	8517
652.448	9356
652.505	8667
652.562	9062
652.619	9416
652.676	11049
652.733	10761
652.790	8821
652.847	7543
652.904	9982
652.961	7927
653.017	8050
653.074	9503
653.131	9201
653.188	7531
653.245	8955
653.302	8311
653.359	8881
653.415	9117
653.472	8185
653.529	8756
653.586	7821
653.642	8661
653.699	9199
653.756	7760
653.813	7911
653.869	8536
653.926	8248
653.983	8221
654.039	9023
654.096	7802
654.152	10157
654.209	6696
654.266	8379
654.322	7139
654.379	7786
654.435	8389
654.492	8226
654.548	8698
654.605	7662
654.661	8534
654.717	8294
654.774	7789
654.830	7893
654.887	8034
654.943	8559
655.000	9315
655.056	8736
655.112	8361
655.168	7658
655.225	8380
655.281	7625
655.337	7732
655.394	7358
655.450	8483
655.506	8145
655.562	7436
655.618	8620
655.675	6630
655.731	7345
655.787	6208
655.843	7821
655.899	6436
655.955	7988
656.011	7947
656.067	6562
656.123	7730
656.179	6814
656.235	8069
656.291	6680
656.347	8158
656.403	7077
656.459	7414
656.515	7998
656.571	6694
656.627	7774
656.683	6964
656.739	7941
656.795	7610
656.850	7251
656.906	8335
656.962	8187
657.018	7790
657.074	9717
657.129	12631
657.185	18948
657.241	41700
657.297	23758
657.352	8814
657.408	7305
657.464	7575
657.519	6428
657.575	6172
657.630	5874
657.686	6804
657.742	6402
657.797	6945
657.853	6270
657.908	7842
657.964	6561
658.019	7142
658.075	6823
658.130	6616
658.186	5813
658.241	6879
658.297	5300
658.352	6448
658.407	7438
658.463	6499
658.518	5693
658.573	6314
658.629	5945
658.684	6087
658.739	7288
658.795	5477
658.850	6293
658.905	5778
658.960	6078
659.016	5059
659.071	5558
659.126	5844
659.181	6538
659.236	7650
659.291	6585
659.346	5503
659.401	5953
659.457	6812
659.512	6170
659.567	6823
659.622	6027
659.677	5409
659.732	4645
659.787	5780
659.842	6064
659.897	5636
659.952	5722
660.007	5636
660.061	5754
660.116	5022
660.171	5211
660.226	6030
660.281	5920
660.336	5708
660.391	6393
660.445	5336
660.500	6513
660.555	5901
660.610	5217
660.664	5865
660.719	4917
660.774	5518
660.828	5967
660.883	4771
660.938	6656
660.992	4615
661.047	5287
661.101	5071
661.156	6036
661.211	4674
661.265	5482
661.320	4994
661.374	5567
661.429	4930
661.483	5772
661.538	3823
661.592	5759
661.647	5924
661.701	6785
661.755	5176
661.810	5331
661.864	5086
661.919	4686
661.973	5353
662.027	5962
662.081	4704
662.136	5190
662.190	5022
662.244	5056
662.299	5117
662.353	6155
662.407	4923
662.461	5203
662.515	5406
662.569	4947
662.624	4940
662.678	5056
662.732	5024
662.786	4103
662.840	4742
662.894	4534
662.948	5349
663.002	4763
663.056	5143
663.110	4056
663.164	5112
663.218	4990
663.272	4996
663.326	4929
663.380	4754
663.434	4934
663.488	5003
663.542	5697
663.595	5153
663.649	4706
663.703	5151
663.757	4890
663.811	4793
663.864	4654
663.918	5191
663.972	4505
664.026	4712
664.079	4974
664.133	5360
664.187	4969
664.240	4301
664.294	4837
664.348	4713
664.401	5941
664.455	4634
664.508	4387
664.562	4730
664.615	5236
664.669	4460
664.722	4491
664.776	5243
664.829	4569
664.883	4746
664.936	4247
664.990	4435
665.043	5371
665.097	4269
665.150	5446
665.203	4600
665.257	4715
665.310	5317
665.363	5613
665.417	5313
665.470	5395
665.523	5680
665.576	4808
665.630	5371
665.683	5490
665.736	4453
665.789	5646
665.842	4081
665.895	5043
665.949	5603
666.002	5801
666.055	5013
666.108	5336
666.161	5022
666.214	5817
666.267	5766
666.320	5617
666.373	6059
666.426	5682
666.479	4907
666.532	5777
666.585	5838
666.638	5530
666.691	5177
666.744	6209
666.796	5242
666.849	5814
666.902	5615
666.955	5391
667.008	5259
667.060	4396
667.113	4795
667.166	5016
667.219	5916
667.271	5391
667.324	5237
667.377	5394
667.430	5066
667.482	5911
667.535	5696
667.587	5180
667.640	5630
667.693	4860
667.745	4894
667.798	6027
667.850	4600
667.903	5629
667.955	5446
668.008	5283
668.060	5520
668.113	5075
668.165	4945
668.218	4573
668.270	5344
668.322	4483
668.375	4650
668.427	5998
668.479	4747
668.532	5742
668.584	5357
668.636	4402
668.689	4604
668.741	5230
668.793	4923
668.845	4670
668.898	5272
668.950	4015
669.002	4866
669.054	4621
669.106	5353
669.158	5061
669.211	4775
669.263	4723
669.315	5234
669.367	4649
669.419	4609
669.471	5578
669.523	4449
669.575	5950
669.627	5184
669.679	4600
669.731	5019
669.783	5801
669.835	5198
669.886	4143
669.938	4423
669.990	5208
670.042	4532
670.094	4852
670.146	5230
670.197	4973
670.249	5792
670.301	5165
670.353	6306
670.404	7578
670.456	8803
670.508	14504
670.560	20110
670.611	33358
670.663	56396
670.715	129347
670.766	194736
670.818	58599
670.869	14017
670.921	9703
670.972	7696
671.024	7186
671.075	7000
671.127	6812
671.178	6779
671.230	6781
671.281	6982
671.333	7401
671.384	8070
671.436	11369
671.487	15793
671.538	20856
671.590	34124
671.641	53684
671.692	91986
671.744	159613
671.795	127240
671.846	57183
671.897	27890
671.949	18929
672.000	12390
672.051	10279
672.102	8941
672.153	7533
672.204	6595
672.256	6656
672.307	5601
672.358	5583
672.409	4310
672.460	4456
672.511	4079
672.562	3455
672.613	3356
672.664	3716
672.715	3669
672.766	4019
672.817	3510
672.868	3511
672.919	3902
672.970	3227
673.021	3023
673.071	2865
673.122	3393
673.173	3741
673.224	2808
673.275	3157
673.326	3582
673.376	3275
673.427	3184
673.478	3328
673.528	3890
673.579	2995
673.630	3166
673.680	4233
673.731	2430
673.782	3225
673.832	3502
673.883	2253
673.934	3612
673.984	2780
674.035	2749
674.085	2821
674.136	3094
674.186	3859
674.237	3824
674.287	2856
674.338	2809
674.388	3210
674.438	2743
674.489	3855
674.539	3145
674.589	3616
674.640	3835
674.690	3823
674.740	3180
674.791	3307
674.841	3581
674.891	2573
674.942	2827
674.992	2135
675.042	2253
675.092	3170
675.142	1776
675.193	1623
675.243	2282
675.293	2786
675.343	2751
675.393	2652
675.443	3650
675.493	3288
675.543	3007
675.593	2936
675.643	2321
675.693	3179
675.743	2454
675.793	2244
675.843	2156
675.893	2396
675.943	2604
675.993	2063
676.043	2158
676.093	2216
676.142	2032
676.192	2869
676.242	1695
676.292	2084
676.341	2640
676.391	1806
676.441	1744
676.491	2156
676.540	1952
676.590	1559
676.640	2439
676.689	2602
676.739	1151
676.789	2136
676.838	1384
676.888	1779
676.937	2607
676.987	1306
677.037	2130
677.086	1937
677.136	2136
677.185	1820
677.235	2159
677.284	1473
677.333	1413
677.383	1720
677.432	1403
677.482	2891
677.531	1494
677.580	1940
677.630	1252
677.679	2013
677.728	1327
677.778	2426
677.827	1752
677.876	1657
677.925	2230
677.975	2530
678.024	2351
678.073	2078
678.122	1601
678.171	2648
678.220	2340
678.269	3610
678.319	2750
678.368	3099
678.417	2905
678.466	2637
678.515	2848
678.564	2160
678.613	1414
678.662	1487
678.711	1199
678.760	1383
678.809	2283
678.857	2194
678.906	2187
678.955	1728
679.004	1874
679.053	1116
679.102	1838
679.151	1294
679.199	845
679.248	2145
679.297	1374
679.346	1561
679.394	1670
679.443	1645
679.492	1267
679.540	1647
679.589	1263
679.638	1967
679.686	2107
679.735	2729
679.784	2411
679.832	4063
679.881	2338
679.929	2169
679.978	1402
680.026	2005
680.075	1682
680.123	837
680.172	1362
680.220	872
680.268	1337
680.317	1369
680.365	1726
680.414	1310
680.462	2061
680.510	2149
680.559	1896
680.607	1621
680.655	1136
680.703	1632
680.752	1324
680.800	1044
680.848	1892
680.896	1700
680.945	1587
680.993	1150
681.041	865
681.089	1727
681.137	1225
681.185	1151
681.233	1397
681.258	1170
681.281	916
681.329	652
681.377	1180
681.380	1215
681.425	1133
681.473	2497
681.502	2297
681.521	2088
681.569	2429
681.617	1856
681.624	1955
681.665	2295
681.713	1959
681.745	2763
681.761	3083
681.809	1696
681.857	2708
681.867	2662
681.904	2360
681.952	2791
681.989	2804
682.000	2753
682.048	2602
682.096	2361
682.111	2753
682.143	3484
682.191	3020
682.233	3578
682.239	3622
682.286	2667
682.334	3613
682.354	3301
682.382	2787
682.430	3942
682.476	3535
682.477	3492
682.525	3394
682.572	2551
682.598	3261
682.620	3824
682.667	2777
682.715	4084
682.720	4090
682.763	3757
682.810	3925
682.841	4069
682.857	4094
682.905	4543
682.952	4060
682.963	4132
683.000	4259
683.047	4185
683.085	5188
683.095	5426
683.142	4438
683.190	4352
683.206	4329
683.237	4127
683.284	5109
683.328	4139
683.332	4038
683.379	4479
683.426	4668
683.449	4687
683.473	4667
683.521	4962
683.568	5253
683.571	5321
683.615	5685
683.662	5205
683.693	5599
683.709	5779
683.757	4634
683.804	5801
683.814	5690
683.851	5180
683.898	5659
683.936	5823
683.945	5842
683.992	5852
684.039	6186
684.057	6228
684.086	6234
684.133	5793
684.179	6231
684.180	6217
684.227	6247
684.274	6132
684.300	6216
684.321	6329
684.368	5882
684.415	6597
684.422	6644
684.462	6713
684.509	6598
684.543	7075
684.556	7241
684.603	6908
684.649	7560
684.665	7507
684.696	7211
684.743	7693
684.786	6915
684.790	6837
684.837	6714
684.883	7555
684.908	7578
684.930	7613
684.977	7692
685.023	7990
685.029	7934
685.070	7350
685.117	8080
685.150	8169
685.164	8131
685.210	8048
685.257	8847
685.272	8677
685.303	8379
685.350	8877
685.393	8168
685.396	8085
685.443	8292
685.490	8182
685.514	8146
685.536	8142
685.583	8230
685.629	7668
685.636	7748
685.675	8177
685.722	8043
685.757	8537
685.768	8658
685.815	8318
685.861	9085
685.878	9029
685.908	9068
685.954	9231
686.000	9138
686.000	9124
686.047	9220
686.093	9368
686.121	9797
686.139	10023
686.185	9347
686.232	9260
686.242	9344
686.278	9626
686.324	9007
686.363	9305
686.370	9362
686.416	10078
686.463	9913
686.484	10094
686.509	10221
686.555	9990
686.601	10121
686.606	10120
686.647	10135
686.693	9638
686.727	9856
686.739	9951
686.785	10101
686.831	10224
686.848	10181
686.877	10050
686.923	10139
686.969	10328
686.969	10328
687.015	11003
687.061	10719
687.090	11280
687.107	11472
687.153	11701
687.199	11210
687.211	11288
687.245	11547
687.291	10881
687.332	10969
687.336	10978
687.382	11192
687.428	11174
687.453	11141
687.474	11184
687.520	11270
687.565	11400
687.574	11477
687.611	11987
687.657	12508
687.695	13329
687.702	13511
687.748	13694
687.794	14782
687.816	14888
687.839	14472
687.885	13236
687.931	13009
687.937	12957
687.976	13084
688.022	12869
688.058	12692
688.067	12662
688.113	13229
688.158	12451
688.179	12536
688.204	12689
688.249	13003
688.295	13508
688.300	13451
688.340	13082
688.386	13319
688.421	13124
688.431	13104
688.477	13036
688.522	13759
688.542	13788
688.567	13970
688.613	14526
688.658	14716
688.663	14712
688.703	14197
688.749	13756
688.784	14101
688.794	14285
688.839	13625
688.884	13921
688.905	13785
688.930	13771
688.975	14369
689.020	14308
689.026	14319
689.065	14193
689.110	14442
689.146	14208
689.155	14212
689.201	14604
689.246	14506
689.267	14402
689.291	14192
689.336	14808
689.381	14308
689.388	14298
689.426	14457
689.471	14622
689.509	14619
689.516	14686
689.561	14707
689.606	14945
689.630	15020
689.651	14809
689.696	14242
689.741	14509
689.750	14365
689.785	14483
689.830	14762
689.871	15363
689.875	15406
689.920	15282
689.965	14756
689.992	14934
690.010	15126
690.054	15168
690.099	15496
690.112	15445
690.144	15456
690.189	15324
690.233	15805
690.233	15828
690.278	15672
690.323	15701
690.354	15551
690.367	15572
690.412	15707
690.457	15330
690.474	15478
690.501	15624
690.546	15479
690.590	15218
690.595	15123
690.635	15058
690.680	15892
690.716	16206
690.724	16383
690.769	17419
690.813	18552
690.836	18679
690.857	19656
690.902	22998
690.946	25422
690.957	26055
690.991	31919
691.035	39894
691.077	47935
691.080	47893
691.124	43190
691.168	39297
691.198	36777
691.213	34767
691.257	28986
691.301	22762
691.318	20464
691.346	19950
691.390	18622
691.434	17600
691.439	17443
691.478	17247
691.522	17153
691.559	17082
691.567	17146
691.611	17602
691.655	17522
691.680	17534
691.699	17518
691.743	17663
691.787	17719
691.800	17577
691.831	17521
691.875	17718
691.919	18317
691.921	18287
691.964	18144
692.008	17887
692.041	17810
692.052	17790
692.096	17456
692.139	17284
692.162	17089
692.183	17027
692.227	17002
692.271	16985
692.282	16896
692.315	16946
692.359	17099
692.402	17233
692.403	17265
692.447	17106
692.490	17498
692.523	17066
692.534	17075
692.578	17017
692.622	17480
692.643	17369
692.666	17235
692.709	17478
692.753	17637
692.763	17603
692.797	17670
692.840	17624
692.884	17829
692.884	17866
692.928	18011
692.971	17958
693.004	17926
693.015	17950
693.059	17676
693.102	17709
693.124	17764
693.146	18132
693.189	18230
693.233	19106
693.245	19102
693.276	19206
693.320	19901
693.363	20027
693.365	19997
693.407	20637
693.450	21591
693.485	21931
693.493	22251
693.537	24117
693.580	25810
693.605	26642
693.624	28917
693.667	34563
693.710	40525
693.725	42484
693.753	53980
693.797	71744
693.840	90050
693.845	91887
693.883	83819
693.926	74784
693.966	66664
693.970	65432
694.013	51666
694.056	37594
694.086	27895
694.099	27319
694.142	25174
694.185	23378
694.206	22432
694.229	22142
694.272	21234
694.315	20594
694.326	20350
694.358	20287
694.401	20155
694.444	19944
694.446	19887
694.487	19764
694.530	19846
694.566	19690
694.573	19711
694.616	19568
694.659	19354
694.686	19280
694.702	19417
694.745	19766
694.787	19821
694.806	19861
694.830	19912
694.873	19929
694.916	19973
694.926	19869
694.959	19906
695.002	20301
695.044	20424
695.046	20387
695.087	20578
695.130	20603
695.166	20596
695.172	20705
695.215	21166
695.258	21674
695.286	21881
695.301	21962
695.343	22311
695.386	22337
695.406	22310
695.428	22788
695.471	23710
695.514	24599
695.526	24820
695.556	26212
695.599	28161
695.641	29781
695.646	29917
695.684	28891
695.726	27534
695.766	26264
695.769	26288
695.811	25678
695.854	25139
695.886	24750
695.896	24949
695.938	25325
695.981	25725
696.005	25951
696.023	26523
696.065	27595
696.108	28832
696.125	29233
696.150	29422
696.192	29725
696.235	30085
696.245	30069
696.277	30305
696.319	30411
696.361	30696
696.365	30639
696.404	30430
696.446	30248
696.485	29904
696.488	29998
696.530	30201
696.572	30422
696.604	30543
696.614	30506
696.656	30114
696.698	29648
696.724	29292
696.740	29588
696.783	30119
696.825	30790
696.844	30987
696.867	30850
696.909	30339
696.951	29820
696.964	29643
696.992	30005
697.034	30320
697.076	30609
697.083	30602
697.118	31596
697.160	32541
697.202	33497
697.203	33439
697.244	32977
697.286	32452
697.323	31788
697.327	31916
697.369	32439
697.411	32810
697.442	33129
697.453	33179
697.494	32933
697.536	32721
697.562	32542
697.578	32730
697.620	32932
697.661	33183
697.682	33186
697.703	33737
697.744	34712
697.786	35783
697.801	36012
697.828	35857
697.869	35601
697.911	35266
697.921	35085
697.952	34838
697.994	34509
698.035	34129
698.040	33991
698.077	34271
698.118	34549
698.160	34764
698.160	34676
698.201	35281
698.243	35780
698.279	36131
698.284	36328
698.325	37313
698.367	38325
698.399	38965
698.408	39125
698.449	39434
698.491	39735
698.518	39810
698.532	39844
698.573	39670
698.614	39493
698.638	39275
698.656	39463
698.697	39662
698.738	39884
698.757	39886
698.779	40034
698.820	40109
698.862	40181
698.877	40108
698.903	40272
698.944	40351
698.985	40437
698.996	40357
699.026	40215
699.067	39870
699.116	39356
699.235	39470
699.354	39888
699.474	36618
699.593	36054
699.713	37579
699.832	37243
699.951	38497
700.070	37973
700.190	36297
700.309	34427
700.428	34187
700.547	33807
700.667	32986
700.786	32952
700.905	33018
701.024	34509
701.143	32048
701.262	34140
701.381	35682
701.500	34610
701.619	33483
701.738	35143
701.857	34599
701.976	33492
702.095	32639
702.214	33977
702.333	32692
702.452	35236
702.571	34734
702.690	34345
702.809	33523
702.928	32253
703.047	29707
703.165	30811
703.284	31388
703.403	30548
703.522	30910
703.640	29656
703.759	29805
703.878	29409
703.997	28138
704.115	30193
704.234	29012
704.353	29372
704.471	27812
704.590	27230
704.708	27185
704.827	26721
704.946	27717
705.064	26808
705.183	28078
705.301	27740
705.420	26648
705.538	26744
705.656	25327
705.775	25265
705.893	27634
706.012	29436
706.130	25236
706.249	26955
706.367	26360
706.485	25736
706.604	24489
706.722	24863
706.840	26334
706.958	29963
707.077	26604
707.195	24195
707.313	24172
707.431	22346
707.549	23306
707.668	20954
707.786	24380
707.904	21992
708.022	23487
708.140	22329
708.258	22426
708.376	24402
708.494	21259
708.612	23950
708.730	23824
708.848	22132
708.966	22489
709.084	23119
709.202	22603
709.320	20696
709.438	21339
709.556	22383
709.674	20206
709.791	20424
709.909	19872
710.027	21063
710.145	20140
710.263	20081
710.380	19489
710.498	20503
710.616	19272
710.733	19384
710.851	19203
710.969	19590
711.086	18975
711.204	19521
711.322	19657
711.439	18482
711.557	18468
711.674	18602
711.792	19000
711.909	18364
712.027	18067
712.144	18065
712.262	18267
712.379	18756
712.497	18476
712.614	18192
712.732	18689
712.849	18206
712.966	18347
713.084	18992
713.201	16744
713.318	18324
713.436	19345
713.553	17945
713.670	18258
713.787	18411
713.905	17496
714.022	18528
714.139	20194
714.256	22314
714.373	28431
714.490	48647
714.608	110996
714.725	388110
714.842	363042
714.959	55364
715.076	26390
715.193	23112
715.310	20192
715.427	17219
715.544	18510
715.661	16978
715.778	17081
715.895	16174
716.011	16676
716.128	16144
716.245	16125
716.362	15743
716.479	14746
716.596	15179
716.713	15550
716.829	15657
716.946	15696
717.063	14124
717.180	13491
717.296	14768
717.413	14460
717.530	14921
717.646	13033
717.763	14487
717.880	14553
717.996	13124
718.113	13347
718.229	13997
718.346	13301
718.462	13299
718.579	14049
718.695	14682
718.812	12874
718.928	14756
719.045	13407
719.161	13475
719.277	13006
719.394	14340
719.510	13962
719.626	14449
719.743	16555
719.859	23937
719.975	43205
720.092	151139
720.208	298450
720.324	49052
720.440	17729
720.557	15006
720.673	14701
720.789	14067
720.905	14324
721.021	12781
721.137	12495
721.253	11672
721.369	11864
721.486	12442
721.602	12356
721.718	11888
721.834	11119
721.950	11972
722.066	10878
722.181	11428
722.297	11758
722.413	11954
722.529	11279
722.645	11327
722.761	10352
722.877	11432
722.993	12539
723.108	13449
723.224	13084
723.340	11881
723.456	11205
723.571	10477
723.687	9639
723.803	10971
723.918	10878
724.034	10324
724.150	11221
724.265	10657
724.381	10606
724.497	11285
724.612	10427
724.728	10770
724.843	9893
724.959	10657
725.074	10076
725.190	10816
725.305	10231
725.421	9772
725.536	10437
725.651	11108
725.767	10499
725.882	10879
725.997	9981
726.113	11786
726.228	10357
726.343	9843
726.459	9722
726.574	10350
726.689	10389
726.804	10584
726.920	10613
727.035	9505
727.150	9383
727.265	10071
727.380	9753
727.495	10387
727.610	9655
727.725	9858
727.841	9747
727.956	12175
728.071	11098
728.186	10220
728.301	9524
728.416	10789
728.531	9998
728.645	9344
728.760	9269
728.875	9077
728.990	9455
729.105	9094
729.220	8959
729.335	10013
729.449	8958
729.564	9411
729.679	9878
729.794	10509
729.908	10253
730.023	9169
730.138	9803
730.253	9804
730.367	9755
730.482	10001
730.596	9249
730.711	10446
730.826	14396
730.940	14178
731.055	11767
731.169	12045
731.284	12659
731.398	12132
731.513	11764
731.627	12648
731.742	16623
731.856	19479
731.970	18997
732.085	23111
732.199	30718
732.313	51006
732.428	118719
732.542	301476
732.656	178473
732.771	44846
732.885	28339
732.999	24799
733.113	26784
733.227	25312
733.342	24452
733.456	23766
733.570	22338
733.684	21972
733.798	21656
733.912	21224
734.026	21240
734.140	21160
734.254	20118
734.368	20026
734.482	20398
734.596	20513
734.710	19884
734.824	19760
734.938	19093
735.052	20497
735.166	19254
735.280	19448
735.393	19006
735.507	19647
735.621	18907
735.735	18510
735.849	18640
735.962	18153
736.076	18731
736.190	17883
736.303	18343
736.417	17959
736.531	17783
736.644	18257
736.758	17529
736.872	17223
736.985	16633
737.099	16966
737.212	17063
737.326	16805
737.439	16703
737.553	15878
737.666	16505
737.780	16032
737.893	16746
738.007	15658
738.120	16144
738.233	14833
738.347	16898
738.460	13807
738.573	17400
738.687	15748
738.800	14965
738.913	16125
739.026	15151
739.140	15281
739.253	14217
739.366	14583
739.479	15377
739.592	15010
739.705	14167
739.818	16049
739.932	13410
740.045	15004
740.158	14299
740.271	15922
740.384	15227
740.497	13112
740.610	15339
740.723	13018
740.836	13969
740.949	14176
741.062	15108
741.174	14455
741.287	13647
741.400	14860
741.513	12970
741.626	13943
741.739	12939
741.851	13017
741.964	14455
742.077	12880
742.189	12041
742.302	13825
742.415	13277
742.527	13030
742.640	13855
742.753	11717
742.865	13850
742.978	12714
743.090	12678
743.203	12548
743.316	10768
743.428	11724
743.541	13577
743.653	10975
743.766	12414
743.878	13453
743.990	10914
744.103	13043
744.215	12078
744.327	10104
744.440	13545
744.552	11586
744.664	10645
744.777	12267
744.889	10510
745.001	12320
745.113	11911
745.226	11875
745.338	10423
745.450	11750
745.562	11344
745.674	11109
745.786	12249
745.898	11811
746.010	10514
746.122	11110
746.234	11151
746.347	11575
746.459	11148
746.570	9856
746.682	11576
746.794	12201
746.906	9791
747.018	10705
747.130	11822
747.242	9511
747.354	10473
747.466	11476
747.577	10383
747.689	11332
747.801	11704
747.913	9768
748.024	9472
748.136	10521
748.248	10446
748.359	10546
748.471	10904
748.583	9048
748.694	9521
748.806	10942
748.918	9333
749.029	9216
749.141	10272
749.252	10616
749.364	8910
749.475	9540
749.587	9360
749.698	8891
749.809	10485
749.921	9667
750.032	9583
750.144	9434
750.255	9759
750.366	8422
750.478	8427
750.589	9956
750.700	8745
750.811	9171
750.923	9210
751.034	8657
751.145	9572
751.256	9533
751.367	8534
751.479	9622
751.590	9325
751.701	9298
751.812	8069
751.923	8547
752.034	9335
752.145	9600
752.256	8516
752.367	8684
752.478	8371
752.589	8956
752.700	9615
752.811	8678
752.922	9288
753.032	8944
753.143	9652
753.254	8723
753.365	9675
753.476	10059
753.586	8878
753.697	9036
753.808	8746
753.919	8119
754.029	8201
754.140	8195
754.251	8672
754.361	9007
754.472	9088
754.582	8466
754.693	8402
754.804	10460
754.914	8214
755.025	8023
755.135	9000
755.246	9768
755.356	8227
755.466	8660
755.577	8695
755.687	9444
755.798	8770
755.908	8252
756.018	8578
756.129	8872
756.239	8902
756.349	9002
756.460	8440
756.570	8836
756.680	7876
756.790	8971
756.900	8884
757.011	8129
757.121	8116
757.231	9321
757.341	9409
757.451	7390
757.561	7523
757.671	8711
757.781	8651
757.891	8925
758.001	7486
758.111	9344
758.221	9197
758.331	9356
758.441	8607
758.551	9427
758.661	10085
758.771	10381
758.880	9695
758.990	9473
759.100	8813
759.210	9544
759.320	8915
759.429	9290
759.539	10980
759.649	10802
759.758	11213
759.868	10955
759.978	11395
760.087	11535
760.197	11936
760.307	12207
760.416	10418
760.526	11686
760.635	11761
760.745	12061
760.854	12198
760.964	13709
761.073	12528
761.182	13853
761.292	12017
761.401	12213
761.511	10697
761.620	11334
761.729	10195
761.839	10504
761.948	11321
762.057	11300
762.166	12102
762.276	10964
762.385	12812
762.494	12293
762.603	12256
762.712	12619
762.822	12258
762.931	12715
763.040	12517
763.149	13712
763.258	13445
763.367	14131
763.476	14732
763.585	14736
763.694	15839
763.803	15336
763.912	17071
764.021	17638
764.130	18307
764.238	19348
764.347	20450
764.456	23120
764.565	22995
764.674	24836
764.783	26695
764.891	28962
765.000	32537
765.109	36580
765.217	39628
765.326	47118
765.435	55099
765.543	66469
765.652	80023
765.761	100387
765.869	129991
765.978	174024
766.086	236695
766.195	324241
766.303	400970
766.412	348006
766.520	307452
766.629	343770
766.737	300515
766.846	226436
766.954	169706
767.062	128639
767.171	100742
767.279	80894
767.387	65882
767.496	56944
767.604	48067
767.712	43608
767.820	39284
767.928	36424
768.037	33012
768.145	31745
768.253	31425
768.361	29388
768.469	29461
768.577	29867
768.685	31189
768.793	33056
768.901	35802
769.009	40307
769.117	48012
769.225	60553
769.333	79165
769.441	114271
769.549	173691
769.657	273169
769.765	374144
769.873	301849
769.981	300156
770.088	251501
770.196	172125
770.304	120414
770.412	89189
770.519	68326
770.627	56604
770.735	47255
770.842	41221
770.950	35273
771.058	31802
771.165	29348
771.273	28400
771.380	26545
771.488	28015
771.595	28302
771.703	25215
771.810	22750
771.918	22791
772.025	23727
772.133	25476
772.240	24453
772.348	26190
772.455	24488
772.562	21553
772.670	22033
772.777	21355
772.884	20836
772.991	20577
773.099	20931
773.206	19640
773.313	19894
773.420	19084
773.528	18336
773.635	19192
773.742	18512
773.849	18062
773.956	18195
774.063	16991
774.170	18148
774.277	17750
774.384	16279
774.491	16945
774.598	17573
774.705	16304
774.812	16353
774.919	15995
775.026	15486
775.133	15662
775.239	15356
775.346	14999
775.453	15303
775.560	15045
775.667	15784
775.773	13878
775.880	15283
775.987	14207
776.093	14579
776.200	15105
776.307	11598
776.413	13462
776.520	14569
776.627	13694
776.733	12957
776.840	11592
776.946	16698
777.053	13934
777.159	12803
777.266	11231
777.372	11539
777.478	13214
777.585	13686
777.691	11664
777.798	13304
777.904	12956
778.010	11160
778.117	12052
778.223	11909
778.329	12768
778.435	10944
778.542	13127
778.648	11392
778.754	10970
778.860	12443
778.966	11557
779.072	11214
779.178	11230
779.284	10523
779.391	10496
779.497	12130
779.603	13520
779.708	11964
779.815	16964
779.920	43210
780.026	74614
780.132	18499
780.238	11539
780.344	9685
780.450	12385
780.556	10178
780.661	9111
780.767	11483
780.873	7741
780.979	9615
781.085	10287
781.190	9551
781.296	8656
781.402	9167
781.507	9564
781.613	7847
781.719	8541
781.824	10735
781.930	9114
782.035	9257
782.141	10423
782.246	8069
782.352	8467
782.457	8460
782.563	9176
782.668	9236
782.773	8449
782.879	7552
782.984	8465
783.090	9223
783.195	8548
783.300	9055
783.405	8249
783.511	7047
783.616	8532
783.721	9331
783.826	7670
783.932	7440
784.037	8787
784.142	8338
784.247	7920
784.352	8207
784.457	7329
784.562	8792
784.667	8855
784.772	6784
784.877	6414
784.982	8094
785.087	8398
785.192	6765
785.297	7200
785.402	8149
785.507	7235
785.611	7589
785.716	6717
785.821	7770
785.926	7654
786.031	6791
786.135	7328
786.240	6915
786.345	5283
786.450	6745
786.554	7099
786.659	6513
786.763	6800
786.868	7775
786.973	8261
787.077	5938
787.182	5739
787.286	6926
787.391	7457
787.495	5484
787.600	5209
787.704	6604
787.809	6645
787.913	5942
788.017	6265
788.122	8138
788.226	6382
788.330	4911
788.435	6473
788.539	6880
788.643	5817
788.747	4988
788.852	6435
788.956	5603
789.060	7468
789.164	6493
789.268	5421
789.372	6571
789.476	5243
789.580	4814
789.684	5276
789.788	6800
789.892	6364
789.996	5696
790.100	4534
790.204	5666
790.308	6280
790.412	4342
790.516	4313
790.620	5755
790.724	6400
790.828	5823
790.931	3893
791.035	5450
791.139	4528
791.242	5297
791.346	5787
791.450	5561
791.554	4467
791.657	4278
791.761	5651
791.864	5554
791.968	5892
792.072	5794
792.175	4875
792.279	4403
792.382	4201
792.486	4445
792.589	4025
792.693	6167
792.796	4080
792.899	5742
793.003	6319
793.106	3753
793.209	5575
793.313	5065
793.416	2600
793.519	4607
793.623	5884
793.726	5280
793.829	4637
793.932	3470
794.035	3037
794.138	6644
794.242	6197
794.345	4994
794.448	5012
794.551	7174
794.654	21404
794.757	43679
794.860	10165
794.963	5721
795.066	3456
795.169	4804
795.272	4863
795.375	4840
795.477	4072
795.580	3761
795.683	2820
795.786	5787
795.889	3616
795.991	5103
796.094	5215
796.197	3717
796.300	5034
796.402	4992
796.505	3008
796.608	3460
796.710	4079
796.813	4504
796.915	5103
797.018	4902
797.120	5476
797.223	3022
797.326	5242
797.428	3874
797.530	3591
797.633	3631
797.735	5439
797.838	3941
797.940	4969
798.042	3484
798.145	3690
798.247	4394
798.349	2677
798.452	5144
798.554	4296
798.656	4238
798.758	5496
798.860	4105
798.962	3724
799.065	3515
799.167	2922
799.269	4234
799.371	4821
799.473	5458
799.575	4519
799.677	4061
799.779	4366
799.881	2674
799.983	4178
800.085	3919
800.187	4777
800.289	2062
800.390	3212
800.492	5098
800.594	5316
800.696	3227
800.798	3331
800.899	3456
801.001	3911
801.103	3274
801.205	3655
801.306	4028
801.408	2544
801.509	4263
801.611	3713
801.713	4077
801.814	2726
801.916	3747
802.017	3635
802.119	2096
802.220	3218
802.322	2674
802.423	5108
802.525	1941
802.626	3702
802.727	2916
802.829	3611
802.930	1176
803.031	3958
803.133	3623
803.234	3235
803.335	4534
803.436	2646
803.538	3238
803.639	2391
803.740	3495
803.841	2462
803.942	5126
804.043	3118
804.144	2471
804.245	3385
804.346	2855
804.447	3012
804.548	2404
804.649	4003
804.750	2992
804.851	3137
804.952	2695
805.053	3733
805.154	2259
805.255	3943
805.355	2483
805.456	2620
805.557	3097
805.658	2062
805.758	3444
805.859	2730
805.960	3354
806.061	2249
806.161	3166
806.262	2834
806.362	1816
806.463	2338
806.564	4758
806.664	3556
806.765	3138
806.865	2633
806.966	2561
807.066	2118
807.166	3781
807.267	3420
807.367	2521
807.468	3147
807.568	2079
807.668	3424
807.769	3979
807.869	2318
807.969	3123
808.069	3524
808.170	2677
808.270	1464
808.370	3107
808.470	2705
808.570	1718
808.670	2673
808.770	3115
808.870	1327
808.970	2699
809.070	2028
809.170	1742
809.271	3563
809.370	2069
809.470	2804
809.570	2216
809.670	2223
809.770	2234
809.870	3322
809.970	2959
810.070	2778
810.169	2460
810.269	1030
810.369	3514
810.469	2760
810.568	2968
810.668	1897
810.768	2613
810.867	2217
810.967	2267
811.066	2598
811.166	2381
811.265	2906
811.365	1764
811.464	2917
811.564	2678
811.663	2219
811.763	2154
811.862	3939
811.962	3007
812.061	3079
812.160	3061
812.260	2687
812.359	2965
812.458	2318
812.557	4151
812.657	3291
812.756	3433
812.855	2158
812.954	1948
813.053	2354
813.153	2175
813.252	1934
813.351	3171
813.450	3588
813.549	2223
813.648	2589
813.747	2367
813.846	3140
813.945	3080
814.044	3470
814.143	2939
814.242	3340
814.341	2855
814.439	4031
814.538	2497
814.637	3730
814.736	3537
814.835	4257
814.933	3106
815.032	4234
815.131	5320
815.229	9544
815.328	14164
815.427	9867
815.525	9284
815.624	8536
815.722	6938
815.821	9459
815.919	9942
816.018	8194
816.116	8464
816.215	8294
816.313	9602
816.412	10609
816.510	11684
816.609	12761
816.707	11458
816.805	10752
816.904	10241
817.002	11317
817.100	11567
817.198	12308
817.296	9942
817.395	11207
817.493	11209
817.591	9598
817.689	10667
817.787	10121
817.885	10120
817.983	10628
818.081	10675
818.179	10999
818.277	15382
818.375	12507
818.473	10475
818.571	10126
818.669	10587
818.767	10782
818.865	9256
818.963	7261
819.061	10279
819.158	10186
819.256	12774
819.354	10970
819.452	17116
819.549	13601
819.647	11770
819.745	8427
819.842	8933
819.940	9799
820.038	7985
820.135	7804
820.233	10449
820.330	8628
820.428	7637
820.525	9155
820.623	7513
820.720	7659
820.818	8705
820.915	9094
821.012	7969
821.110	6795
821.207	8054
821.304	8099
821.402	8084
821.499	8554
821.596	7515
821.693	7828
821.791	8343
821.888	7816
821.985	8657
822.082	6404
822.179	8217
822.276	8350
822.373	6705
822.470	7594
822.567	7878
822.664	6937
822.761	7730
822.858	8527
822.955	7391
823.052	6094
823.149	7493
823.246	7197
823.343	6249
823.440	6491
823.536	7502
823.633	7733
823.730	6525
823.827	7257
823.923	6308
824.020	6120
824.117	8092
824.213	7378
824.310	5688
824.407	5764
824.503	7386
824.600	6696
824.696	4869
824.793	7787
824.889	7469
824.986	5954
825.082	4781
825.179	5191
825.275	6629
825.371	7807
825.468	6072
825.564	3375
825.660	7310
825.757	8037
825.853	6651
825.949	4902
826.045	5760
826.142	6050
826.238	6998
826.334	6261
826.430	5369
826.526	4657
826.622	4433
826.718	7009
826.814	7078
826.910	6624
827.006	3698
827.102	4096
827.198	6851
827.294	6053
827.390	6654
827.486	5159
827.582	3336
827.678	3869
827.774	7298
827.869	3260
827.965	4707
828.061	3779
828.157	6918
828.252	6282
828.348	4859
828.444	4464
828.539	4710
828.635	5226
828.731	5609
828.826	4431
828.922	5442
829.017	5846
829.113	5682
829.208	4047
829.304	4654
829.399	7144
829.495	5995
829.590	5373
829.685	5078
829.781	5984
829.876	5608
829.971	2627
830.066	3243
830.162	4314
830.257	6587
830.352	4740
830.447	4181
830.543	3811
830.638	3591
830.733	5948
830.828	3196
830.923	4852
831.018	4611
831.113	6574
831.208	3288
831.303	2526
831.398	2855
831.493	2963
831.588	6313
831.683	4212
831.778	2631
831.873	3220
831.967	5512
832.062	4798
832.157	3886
832.252	4375
832.346	4189
832.441	6130
832.536	4476
832.631	5179
832.725	3486
832.820	3740
832.914	4434
833.009	3288
833.104	3440
833.198	3313
833.293	4263
833.387	6002
833.482	4436
833.576	3434
833.670	4624
833.765	3780
833.859	4633
833.954	4368
834.048	3739
834.142	3868
834.237	1783
834.331	4110
834.425	3468
834.519	3027
834.613	4222
834.708	3029
834.802	3291
834.896	3535
834.990	3642
835.084	3325
835.178	2743
835.272	2512
835.366	3482
835.460	5147
835.554	3578
835.648	1900
835.742	2429
835.836	3235
835.930	2772
836.024	4747
836.117	4532
836.211	3606
836.305	3136
836.399	3316
836.493	1793
836.586	4461
836.680	3499
836.774	2186
836.867	3191
836.961	2222
837.055	2716
837.148	2041
837.242	3071
837.335	3005
837.429	2420
837.522	1947
837.616	2789
837.709	2733
837.803	2365
837.896	3662
837.989	4151
838.083	1957
838.176	1752
838.269	1627
838.363	3242
838.456	2045
838.549	3440
838.642	2102
838.735	3178
838.829	2530
838.922	2489
839.015	2360
839.108	1283
839.201	2339
839.294	4018
839.387	2772
839.480	1540
839.573	1987
839.666	1945
839.759	2258
839.852	2115
839.945	3654
840.038	2165
840.131	2065
840.223	3111
840.316	2879
840.409	3428
840.502	3424
840.594	4120
840.687	1739
840.780	1524
840.873	2251
840.965	1630
841.058	2989
841.150	3526
841.243	1819
841.336	2157
841.428	1750
841.521	1570
841.613	2256
841.706	3044
841.798	1657
841.890	2135
841.983	1268
842.075	2886
842.167	1815
842.260	2682
842.352	3773
842.444	2534
842.537	2818
842.629	1054
842.721	2376
842.813	3155
842.905	2224
842.997	2814
843.090	2486
843.182	2446
843.274	682
843.366	2413
843.458	2629
843.550	2874
843.642	2376
843.734	2027
843.826	1562
843.918	2078
844.009	2339
844.101	1948
844.193	2429
844.285	2739
844.377	3838
844.469	2354
844.560	853
844.652	1574
844.744	1857
844.835	2112
844.927	2731
845.019	2033
845.110	1330
845.202	2005
845.293	2317
845.385	760
845.476	1720
845.568	2857
845.659	1438
845.751	2291
845.842	1897
845.934	1961
846.025	1997
846.116	2973
846.208	1254
846.299	1539
846.390	1853
846.482	1490
846.573	2755
846.664	2515
846.755	1946
846.846	2604
846.937	732
847.029	1615
847.120	721
847.211	1505
847.302	2517
847.393	1413
847.484	2018
847.575	1525
847.666	789
847.757	1414
847.847	2325
847.938	2606
848.029	1775
848.120	2595
848.211	1364
848.302	1311
848.392	765
848.483	2449
848.574	1695
848.664	1253
848.755	2667
848.846	1530
848.936	1192
849.027	2952
849.118	2160
849.208	2006
849.299	3055
849.389	3573
849.480	6712
849.570	11423
849.661	20271
849.751	31327
849.841	11625
849.932	2982
850.022	2174
850.112	3083
850.203	1615
850.293	2767
850.383	1407
850.474	932
850.564	2037
850.654	857
850.744	747
850.834	1772
850.924	1010
851.014	2884
851.104	1641
851.194	1317
851.284	550
851.374	1182
851.464	1633
851.554	1301
851.644	1291
851.734	2346
851.824	2881
851.914	2268
852.004	3178
852.094	1561
852.183	1370
852.273	1244
852.363	509
852.452	1252
852.542	861
852.632	1457
852.721	1920
852.811	1102
852.901	2938
852.990	2488
853.080	1904
853.169	1238
853.259	2059
853.348	2368
853.438	2121
853.527	3636
853.617	3966
853.706	8694
853.795	12451
853.885	23230
853.974	40509
854.063	71227
854.152	90733
854.242	41421
854.331	13103
854.420	6317
854.509	4594
854.598	3979
854.687	3645
854.777	3478
854.866	1612
854.955	2033
855.044	1235
855.133	1853
855.222	1742
855.311	1939
855.400	2134
855.488	2322
855.577	1101
855.666	1424
855.755	1716
855.844	1021
855.933	1674
856.021	1069
856.110	1070
856.199	373
856.288	1147
856.376	967
856.465	1020
856.554	1913
856.642	1251
856.731	2351
856.819	2234
856.908	1237
856.996	886
857.085	1632
857.173	514
857.262	415
857.350	1146
857.438	633
857.527	1835
857.615	1529
857.703	1889
857.792	1053
857.880	1023
857.968	1140
858.056	1042
858.145	1104
858.233	1751
858.321	70
858.409	1778
858.497	1113
858.585	683
858.673	682
858.761	836
858.849	541
858.937	270
859.025	1777
859.113	2142
859.201	1012
859.289	1339
859.377	1432
859.465	1659
859.552	2134
859.640	891
859.728	1255
859.816	1893
859.903	1430
859.991	556
860.079	1202
860.166	984
860.254	1043
860.342	1701
860.429	551
860.517	1110
860.604	1211
860.692	1512
860.779	2097
860.867	989
860.954	1430
861.042	1202
861.129	1079
861.216	1251
861.304	1311
861.391	1612
861.478	1046
861.565	1124
861.653	2193
861.740	1308
861.827	1208
861.914	926
862.001	1648
862.089	1295
862.176	944
862.263	1500
862.350	1334
862.437	1614
862.524	1091
862.611	1438
862.698	1330
862.785	2253
862.871	2127
862.958	1606
863.045	2019
863.132	930
863.219	1688
863.306	118
863.392	2386
863.479	1448
863.566	1388
863.652	837
863.739	1691
863.826	2422
863.912	2439
863.999	1336
864.086	2041
864.172	2479
864.259	2496
864.345	1879
864.432	2458
864.518	2019
864.604	2769
864.691	1813
864.777	2740
864.863	3495
864.950	4879
865.036	6654
865.122	11655
865.209	12220
865.295	10617
865.381	10567
865.467	10241
865.553	10530
865.639	10808
865.726	13827
865.812	20463
865.898	29240
865.984	39394
866.070	63275
866.156	62657
866.242	25919
866.328	13064
866.414	9474
866.499	9731
866.585	9194
866.671	9868
866.757	8835
866.843	8971
866.928	8291
867.014	8513
867.100	9294
867.186	8166
867.271	7567
867.357	8720
867.442	7712
867.528	8470
867.614	7983
867.699	8176
867.785	7931
867.870	8182
867.956	7639
868.041	8510
868.127	6578
868.212	6918
868.297	6798
868.383	7835
868.468	7289
868.553	8401
868.639	7479
868.724	8406
868.809	7374
868.894	7707
868.979	7052
869.065	7356
869.150	5665
869.235	6911
869.320	7055
869.405	6370
869.490	6880
869.575	7379
869.660	5772
869.745	7504
869.830	7262
869.915	7126
870.000	6169
870.085	6882
870.169	7875
870.254	8170
870.339	5662
870.424	5272
870.509	6863
870.593	7536
870.678	7270
870.763	5611
870.847	5393
870.932	6593
871.016	7567
871.101	4704
871.186	5864
871.270	7954
871.355	4960
871.439	6009
871.523	6307
871.608	5319
871.692	5200
871.777	6847
871.861	7808
871.945	5557
872.030	6064
872.114	5656
872.198	5735
872.282	5426
872.367	4936
872.451	5891
872.535	5431
872.619	5109
872.703	5134
872.787	6166
872.871	5723
872.955	5120
873.039	4342
873.123	6058
873.207	6079
873.291	4302
873.375	4320
873.459	5790
873.543	5196
873.627	4225
873.711	4620
873.794	6174
873.878	5308
873.962	4261
874.045	4601
874.129	5105
874.137	5106
874.213	5117
874.245	4727
874.296	4100
874.352	4057
874.380	4037
874.460	4731
874.464	4761
874.547	3680
874.568	3979
874.631	4876
874.676	5037
874.714	5178
874.784	5428
874.798	5472
874.881	5276
874.892	4981
874.965	2978
874.999	3562
875.048	4374
875.107	4324
875.131	4286
875.215	2869
875.215	2868
875.298	2895
875.323	3047
875.381	3366
875.430	4697
875.465	5643
875.538	5521
875.548	5500
875.631	3167
875.646	3124
875.714	2956
875.753	2935
875.798	2883
875.861	4339
875.881	4801
875.964	4228
875.968	4162
876.047	2989
876.076	3570
876.130	4677
876.183	3816
876.213	3342
876.291	4711
876.296	4802
876.379	3807
876.398	3806
876.462	3689
876.506	3271
876.545	2946
876.613	3028
876.628	3041
876.711	3116
876.721	3250
876.794	4515
876.828	4339
876.877	3865
876.935	2833
876.960	2446
877.043	2218
877.043	2225
877.125	3517
877.150	3842
877.208	4677
877.258	3140
877.291	1997
877.365	2198
877.374	2259
877.456	3288
877.472	3270
877.539	2987
877.579	3076
877.622	3165
877.687	3410
877.704	3486
877.787	3070
877.794	3117
877.869	3693
877.901	3388
877.952	2661
878.008	2023
878.034	1869
878.115	2668
878.117	2683
878.199	2759
878.222	2828
878.282	2970
878.329	3507
878.364	3789
878.437	3557
878.447	3522
878.529	1875
878.544	1908
878.611	2196
878.651	2249
878.694	2402
878.758	3168
878.776	3315
878.858	2432
878.865	2466
878.941	2729
878.972	2324
879.023	1829
879.078	2016
879.105	2107
879.185	3013
879.187	3030
879.269	3024
879.292	2991
879.351	2853
879.399	2453
879.433	2047
879.506	2430
879.516	2512
879.598	2327
879.613	2353
879.680	2477
879.720	2766
879.762	2970
879.827	2210
879.844	2005
879.926	1950
879.933	1952
880.007	2171
880.040	2188
880.089	2125
880.147	2171
880.171	2214
880.253	2524
880.254	2526
880.335	2293
880.360	2517
880.417	3351
880.467	3562
880.499	3603
880.574	2999
880.580	2932
880.662	2613
880.680	2577
880.744	2202
880.787	2042
880.825	1914
880.893	1336
880.907	1270
880.989	1624
881.000	1725
881.070	2640
881.106	2764
881.152	2537
881.213	1590
881.233	1412
881.315	2104
881.319	2131
881.396	2380
881.426	2188
881.478	1794
881.532	2206
881.559	2360
881.639	1966
881.641	1955
881.722	1208
881.745	1246
881.803	1600
881.852	1846
881.885	1885
881.958	1374
881.966	1312
882.047	1494
882.064	1487
882.129	1658
882.171	1449
882.210	950
882.277	473
882.291	534
882.372	1826
882.383	1901
882.454	2045
882.489	1812
882.535	1439
882.596	1657
882.616	1732
882.697	2072
882.702	2048
882.778	2019
882.808	2324
882.859	2011
882.914	859
882.940	712
883.020	1360
883.021	1366
883.102	2125
883.127	2341
883.183	2299
883.233	2071
883.264	1772
883.339	910
883.345	885
883.426	1139
883.445	1190
883.507	1285
883.551	1423
883.587	1786
883.657	2349
883.668	2328
883.749	1992
883.763	1905
883.830	1647
883.869	1444
883.910	960
883.975	942
883.991	1136
884.072	1655
884.081	1716
884.152	1875
884.187	2013
884.233	2132
884.292	2116
884.314	1966
884.394	578
884.398	566
884.475	1251
884.504	1459
884.555	1376
884.610	1136
884.636	1119
884.716	1389
884.716	1387
884.797	1584
884.821	1478
884.877	1481
884.927	1426
884.958	1143
885.033	864
885.038	881
885.118	928
885.139	994
885.199	1068
885.244	1131
885.279	1240
885.350	1701
885.359	1713
885.439	1612
885.456	1513
885.520	996
885.561	762
885.600	761
885.667	861
885.680	940
885.760	1541
885.773	1611
885.840	1145
885.878	886
885.920	922
885.984	1113
886.000	1087
886.080	844
886.089	851
886.160	1199
886.195	1148
886.240	1002
886.300	1033
886.320	1029
886.400	1028
886.406	1034
886.480	844
886.511	709
886.560	971
886.616	1214
886.640	1104
886.720	952
886.722	946
886.800	890
886.827	925
886.879	979
886.932	1121
886.959	1314
887.038	1618
887.039	1609
887.119	1072
887.143	927
887.198	836
887.248	752
887.278	794
887.354	870
887.358	883
887.437	1193
887.459	1326
887.517	1481
887.564	1550
887.596	1369
887.669	790
887.676	774
887.755	708
887.774	693
887.835	693
887.880	810
887.914	874
887.985	803
887.994	891
888.073	1829
888.090	2004
888.153	2098
888.195	2132
888.232	1564
888.300	593
888.311	598
888.391	632
888.405	641
888.470	859
888.510	968
888.549	857
888.615	829
888.628	914
888.708	1335
888.720	1397
888.787	364
888.825	-243
888.866	487
888.930	1726
888.945	1514
889.024	384
889.035	239
889.103	1010
889.140	1374
889.182	1038
889.245	667
889.261	771
889.340	1200
889.349	1257
889.419	239
889.454	-255
889.498	36
889.559	447
889.577	410
889.656	300
889.664	299
889.735	712
889.768	917
889.814	653
889.873	312
889.978	634
890.083	267
890.187	1129
890.292	-12
890.397	1043
890.501	1170
890.606	528
890.710	923
890.815	1999
890.919	324
891.024	285
891.128	1356
891.233	79
891.337	847
891.442	1487
891.546	711
891.650	1283
891.755	837
891.859	2210
891.963	983
892.068	1205
892.172	727
892.276	67
892.380	-391
892.484	809
892.589	920
892.693	750
892.797	-261
892.901	390
893.005	600
893.109	1335
893.213	962
893.317	862
893.421	-31
893.525	871
893.629	270
893.733	1215
893.837	568
893.941	298
894.045	760
894.148	603
894.252	320
894.356	922
894.460	1433
894.564	406
894.667	160
894.771	440
894.875	-263
894.978	97
895.082	924
895.186	936
895.289	952
895.393	916
895.496	938
895.600	482
895.703	902
895.807	709
895.910	896
896.014	936
896.117	9
896.221	1328
896.324	241
896.427	337
896.531	498
896.634	636
896.737	382
896.840	186
896.944	1278
897.047	795
897.150	535
897.253	229
897.356	1022
897.460	281
897.563	83
897.666	656
897.769	618
897.872	88
897.975	164
898.078	403
898.181	-218
898.284	772
898.387	1242
898.490	1958
898.593	-51
898.695	86
898.798	-660
898.901	561
899.004	355
899.107	582
899.209	406
899.312	1457
899.415	655
899.518	-255
899.620	-525
899.723	512
899.826	564
899.928	796
900.031	127
900.133	211
900.236	-314
900.338	-63
900.441	554
900.543	84
900.646	787
900.748	350
900.851	845
900.953	1514
901.055	692
901.158	248
901.260	239
901.362	1092
901.465	-537
901.567	408
901.669	655
901.771	321
901.873	466
901.976	971
902.078	745
902.180	55
902.282	-505
902.384	695
902.486	910
902.588	-170
902.690	-147
902.792	358
902.894	920
902.996	678
903.098	-31
903.200	217
903.302	-338
903.404	87
903.505	303
903.607	778
903.709	759
903.811	527
903.913	1059
904.014	80
904.116	-122
904.218	340
904.319	240
904.421	1377
904.523	1346
904.624	498
904.726	713
904.827	139
904.929	132
905.030	510
905.132	282
905.233	771
905.335	-285
905.436	351
905.537	-92
905.639	1308
905.740	252
905.841	494
905.943	322
906.044	-212
906.145	295
906.247	-319
906.348	213
906.449	613
906.550	622
906.651	1021
906.752	-140
906.854	-422
906.955	-242
907.056	127
907.157	66
907.258	363
907.359	-593
907.460	579
907.561	-391
907.662	331
907.762	369
907.863	693
907.964	661
908.065	1034
908.166	-484
908.267	-122
908.367	-499
908.468	643
908.569	-57
908.670	176
908.770	287
908.871	64
908.971	547
909.072	-28
909.173	-381
909.273	875
909.374	-86
909.474	-477
909.575	-84
909.675	433
909.776	-410
909.876	114
909.977	144
910.077	532
910.177	-304
910.278	347
910.378	257
910.478	531
910.579	-269
910.679	625
910.779	-51
910.879	959
910.980	188
911.080	-231
911.180	-137
911.280	137
911.380	-257
911.480	112
911.580	-412
911.680	30
911.780	61
911.880	169
911.980	-695
912.080	374
912.180	259
912.280	-410
912.380	116
912.480	-305
912.580	795
912.679	-189
912.779	92
912.879	246
912.979	-232
913.078	-90
913.178	171
913.278	44
913.377	580
913.477	-153
913.577	-746
913.676	1037
913.776	883
913.875	339
913.975	-75
914.074	589
914.174	329
914.273	37
914.373	922
914.472	707
914.572	-168
914.671	-260
914.770	-23
914.870	11
914.969	-607
915.068	309
915.167	-113
915.267	136
915.366	-1031
915.465	638
915.564	-286
915.663	676
915.763	206
915.862	1179
915.961	-232
916.060	-227
916.159	-500
916.258	270
916.357	432
916.456	958
916.555	385
916.654	226
916.752	-37
916.851	666
916.950	-910
917.049	59
917.148	-625
917.247	298
917.345	-742
917.444	275
917.543	-4
917.642	699
917.740	-614
917.839	1465
917.937	1142
918.036	1071
918.135	-518
918.233	45
918.332	-191
918.430	-168
918.529	561
918.627	938
918.726	-39
918.824	998
918.923	155
919.021	787
919.119	-74
919.218	-436
919.316	-449
919.414	416
919.512	103
919.611	678
919.709	762
919.807	981
919.905	685
920.003	281
920.102	69
920.200	505
920.298	503
920.396	825
920.494	966
920.592	770
920.690	228
920.788	127
920.886	249
920.984	1181
921.082	101
921.180	1620
921.277	1040
921.375	1169
921.473	1550
921.571	980
921.669	819
921.766	1535
921.864	916
921.962	1464
922.060	1025
922.157	1423
922.255	934
922.352	1490
922.450	1678
922.548	1962
922.645	1995
922.743	2427
922.840	5231
922.938	4937
923.035	3461
923.133	4381
923.230	4706
923.327	5851
923.425	5861
923.522	4846
923.619	5142
923.717	4542
923.814	4388
923.911	4375
924.008	5528
924.106	4775
924.203	3534
924.300	4065
924.397	3328
924.494	4443
924.591	3779
924.688	3300
924.786	3725
924.883	3601
924.979	4293
925.077	3700
925.173	3446
925.270	4684
925.367	4105
925.464	4104
925.561	4020
925.658	4930
925.755	3337
925.852	5219
925.948	3440
926.045	4023
926.142	3656
926.239	4483
926.335	2737
926.432	3785
926.529	3867
926.625	5471
926.722	2194
926.818	3770
926.915	3588
927.011	3296
927.108	3247
927.204	4395
927.301	3287
927.397	4407
927.494	3783
927.590	2420
927.687	3668
927.783	4959
927.879	3139
927.976	3369
928.072	3126
928.168	3286
928.264	3013
928.361	3239
928.457	3498
928.553	2835
928.649	3622
928.745	3908
928.841	3263
928.937	3789
929.033	2189
929.129	3664
929.225	3981
929.321	3175
929.417	2691
929.513	3856
929.609	3326
929.705	2845
929.801	3353
929.897	2914
929.993	2165
930.089	2435
930.184	3115
930.280	2393
930.376	3946
930.471	2655
930.567	1776
930.663	2920
930.758	1855
930.854	2494
930.950	3484
931.045	2561
931.141	2865
931.236	3205
931.332	2166
931.427	1904
931.523	2865
931.618	2859
931.714	2157
931.809	2800
931.905	2631
932.000	2268
932.095	1588
932.191	3162
932.286	2463
932.381	2370
932.476	2285
932.572	2716
932.667	2011
932.762	2274
932.857	2846
932.952	2826
933.047	2498
933.142	1754
933.237	2177
933.332	2987
933.427	1789
933.522	1887
933.617	1434
933.712	2581
933.807	2495
933.902	3741
933.997	2776
934.092	1823
934.187	2126
934.282	2715
934.376	2311
934.471	1852
934.566	2135
934.661	1813
934.755	2127
934.850	2297
934.945	1718
935.039	853
935.134	1288
935.228	2676
935.323	3997
935.417	1967
935.512	1385
935.606	1044
935.701	2197
935.795	1942
935.890	2318
935.984	1645
936.079	1701
936.173	2014
936.267	1943
936.362	1385
936.456	2580
936.550	2670
936.644	2238
936.738	2590
936.833	1333
936.927	1600
937.021	1607
937.115	1916
937.209	1457
937.303	2156
937.397	580
937.491	1167
937.585	1763
937.679	1035
937.773	1512
937.867	1189
937.961	1188
938.055	2678
938.149	2125
938.243	1446
938.337	154
938.430	1812
938.524	2220
938.618	1375
938.712	1701
938.805	1658
938.899	1871
938.993	2320
939.086	1423
939.180	1271
939.274	885
939.367	2063
939.461	1322
939.554	1892
939.648	473
939.741	1157
939.835	1193
939.928	1908
940.022	2025
940.115	888
940.208	1504
940.302	2494
940.395	2162
940.488	1005
940.582	1702
940.675	223
940.768	1465
940.861	2398
940.954	1326
941.048	995
941.141	837
941.234	732
941.327	581
941.420	2292
941.513	1553
941.606	1219
941.699	1530
941.792	1957
941.885	499
941.978	1323
942.071	1114
942.164	1077
942.257	1402
942.349	1415
942.442	956
942.535	349
942.628	836
942.721	1447
942.813	674
942.906	2130
942.999	1167
943.091	808
943.184	825
943.277	306
943.369	1090
943.462	933
943.554	1065
943.647	840
943.739	1748
943.832	1234
943.924	34
944.017	1229
944.109	-539
944.201	750
944.294	601
944.386	955
944.478	49
944.571	-137
944.663	929
944.755	257
944.847	1021
944.940	1232
945.032	-546
945.124	1158
945.216	897
945.308	1279
945.400	232
945.492	688
945.584	785
945.676	2596
945.768	1221
945.860	2297
945.952	962
946.044	691
946.136	705
946.228	1074
946.320	410
946.412	1100
946.503	809
946.595	2542
946.687	394
946.779	224
946.870	404
946.962	649
947.054	1049
947.145	1485
947.237	931
947.329	1085
947.420	682
947.512	203
947.603	-298
947.695	534
947.786	55
947.878	536
947.969	1158
948.061	696
948.152	712
948.243	1212
948.335	-315
948.426	675
948.517	21
948.609	674
948.700	434
948.791	1149
948.882	1048
948.973	115
949.065	377
949.156	519
949.247	188
949.338	742
949.429	5
949.520	1190
949.611	-57
949.702	1602
949.793	318
949.884	1438
949.975	-322
950.066	53
950.157	402
950.247	720
950.338	217
950.429	-129
950.520	513
950.611	145
950.701	1267
950.792	1400
950.883	662
950.973	837
951.064	846
951.155	649
951.245	271
951.336	1793
951.427	-190
951.517	1276
951.608	647
951.698	-389
951.788	208
951.879	-47
951.969	-108
952.060	247
952.150	266
952.240	760
952.331	-212
952.421	2153
952.511	-197
952.602	550
952.692	-520
952.782	453
952.872	165
952.962	34
953.052	706
953.143	-353
953.233	154
953.323	685
953.413	-465
953.503	655
953.593	800
953.683	541
953.773	-382
953.863	-490
953.953	-673
954.042	1081
954.132	1119
954.222	1076
954.312	-437
954.402	669
954.492	307
954.581	1572
954.671	159
954.761	24
954.850	677
954.940	228
955.030	-77
955.119	-594
955.209	750
955.298	599
955.388	-186
955.477	1761
955.567	-271
955.656	126
955.746	-845
955.835	478
955.925	-314
956.014	639
956.103	1251
956.193	1579
956.282	286
956.371	206
956.461	-443
956.550	-173
956.639	284
956.728	793
956.817	-39
956.906	1039
956.995	937
957.085	967
957.174	-124
957.263	688
957.352	210
957.441	61
957.530	-256
957.619	244
957.708	-258
957.796	539
957.885	-230
957.974	-248
958.063	863
958.152	-579
958.241	-285
958.329	683
958.418	226
958.507	-1085
958.596	1414
958.684	942
958.773	-4
958.861	723
958.950	692
959.039	572
959.127	553
959.216	907
959.304	229
959.393	-203
959.481	54
959.570	212
959.658	-435
959.746	-213
959.835	20
959.923	160
960.011	224
960.100	1055
960.188	687
960.276	178
960.365	357
960.453	778
960.541	-635
960.629	384
960.717	-879
960.805	181
960.893	8
960.981	-508
961.069	978
961.158	609
961.245	1103
961.333	1534
961.421	143
961.509	671
961.597	992
961.685	9
961.773	-236
961.861	325
961.949	775
962.036	37
962.124	645
962.212	424
962.299	134
962.387	-381
962.475	251
962.562	-27
962.650	951
962.738	882
962.825	-212
962.913	-151
963.000	129
963.088	1051
963.175	-307
963.263	622
963.350	214
963.438	-452
963.525	-584
963.612	790
963.700	-75
963.787	815
963.874	-20
963.962	639
964.049	404
964.136	297
964.223	-593
964.310	378
964.398	359
964.485	-97
964.572	580
964.659	1061
964.746	-591
964.833	-156
964.920	283
965.007	701
965.094	566
965.181	503
965.268	307
965.355	133
965.441	-18
965.528	-652
965.615	423
965.702	103
965.789	-546
965.875	-188
965.962	469
966.049	-651
966.136	-240
966.222	204
966.309	730
966.395	274
966.482	284
966.569	10
966.655	334
966.742	-110
966.828	128
966.915	204
967.001	298
967.087	66
967.174	-324
967.260	1393
967.347	-787
967.433	709
967.519	1394
967.605	87
967.692	164
967.778	-297
967.864	-356
967.950	49
968.036	212
968.123	-33
968.209	127
968.295	-1092
968.381	1330
968.467	624
968.553	-2198
968.639	1162
968.725	-130
968.811	1492
968.897	962
968.983	1020
969.069	-304
969.154	727
969.240	705
969.326	-459
969.412	-607
969.497	1036
969.583	-1
969.669	1089
969.755	-47
969.840	-375
969.926	853
970.012	259
970.097	2206
970.183	388
970.268	615
970.354	183
970.439	-1214
970.525	1362
970.610	-1068
970.696	952
970.781	-260
970.866	-524
970.952	184
971.037	201
971.122	-423
971.208	249
971.293	-418
971.378	-651
971.463	30
971.549	698
971.634	183
971.719	322
971.804	-878
971.889	214
971.974	-379
972.059	157
972.144	618
972.229	37
972.314	-882
972.399	123
972.484	-243
972.569	72
972.654	-1628
972.739	934
972.824	-630
972.908	-397
972.993	-305
973.078	323
973.163	145
973.247	990
973.332	-1323
973.417	912
973.501	-814
973.586	486
973.671	-642
973.755	147
973.840	329
973.924	683
974.009	66
974.093	0
974.178	669
974.262	735
974.346	-634
974.431	350
974.515	285
974.600	87
974.684	-508
974.768	509
974.852	71
974.937	-357
975.021	1358
975.105	713
975.189	-214
975.273	95
975.358	-436
975.442	241
975.526	460
975.610	-593
975.694	-663
975.778	1141
975.862	351
975.946	-1355
976.030	514
976.114	-841
976.198	-1060
976.281	-145
976.365	676
976.449	-761
976.533	454
976.617	420
976.700	-512
976.784	-151
976.868	61
976.951	622
977.035	-417
977.119	-87
977.202	-77
977.286	85
977.369	765
977.453	851
977.536	146
977.620	-223
977.703	212
977.787	-584
977.870	651
977.953	1094
978.037	-759
978.120	1013
978.203	-1023
978.287	635
978.370	-263
978.453	-642
978.536	-181
978.620	427
978.703	329
978.786	-816
978.869	-64
978.952	-100
979.035	451
979.118	548
979.201	-418
979.284	858
979.367	-295
979.450	452
979.533	-795
979.616	44
979.699	-314
979.782	682
979.865	-111
979.948	280
980.030	-721
980.113	190
980.196	-864
980.279	793
980.361	-1102
980.444	-412
980.526	-787
980.609	753
980.692	-3
980.774	1561
980.857	-823
980.939	1108
981.022	-634
981.104	579
981.187	-289
981.269	442
981.352	49
981.434	-383
981.516	-834
981.599	829
981.681	-303
981.763	588
981.846	87
981.928	207
982.010	78
982.092	48
982.174	730
982.256	312
982.339	126
982.421	735
982.503	309
982.585	-580
982.667	-46
982.749	357
982.831	-205
982.913	-422
982.995	315
983.077	-386
983.158	418
983.240	-240
983.322	920
983.404	1006
983.486	0
983.568	1030
983.649	-322
983.731	634
983.813	58
983.894	1001
983.976	-229
984.058	566
984.139	-28
984.221	-347
984.302	515
984.384	-632
984.465	-361
984.547	354
984.628	-485
984.710	1436
984.791	-196
984.872	323
984.954	-632
985.035	665
985.116	-644
985.198	502
985.279	888
985.360	-98
985.441	88
985.522	1062
985.604	522
985.685	-1673
985.766	1319
985.847	702
985.928	-727
986.009	-456
986.090	-247
986.171	1008
986.252	-268
986.333	725
986.414	-65
986.495	229
986.576	246
986.656	-48
986.737	-68
986.818	475
986.899	-597
986.980	56
987.060	1293
987.141	414
987.222	682
987.302	840
987.383	868
987.464	1065
987.544	215
987.625	114
987.705	1866
987.786	609
987.866	1347
987.947	691
988.027	956
988.108	814
988.188	1047
988.268	1397
988.349	761
988.429	209
988.509	699
988.589	341
988.670	-1125
988.750	1308
988.830	-508
988.910	333
988.990	640
989.070	399
989.151	-36
989.231	295
989.311	397
989.391	142
989.471	597
989.551	466
989.631	-939
989.711	917
989.791	-271
989.870	355
989.950	752
990.030	-77
990.110	777
990.190	190
990.269	438
990.349	1038
990.429	102
990.509	287
990.588	-727
990.668	536
990.747	52
990.827	-63
990.907	349
990.986	-569
991.066	1112
991.145	-86
991.225	504
991.304	-199
991.383	175
991.463	-198
991.542	51
991.622	-512
991.701	-73
991.780	-394
991.859	-24
991.939	-290
992.018	307
992.097	355
992.176	-186
992.256	-77
992.335	-113
992.414	400
992.493	-1263
992.572	-488
992.651	717
992.730	-81
992.809	269
992.888	-461
992.967	-897
993.046	885
993.125	-1255
993.203	72
993.282	-288
993.361	-539
993.440	-223
993.519	-829
993.597	-302
993.676	-1141
993.755	255
993.834	-53
993.912	-788
993.991	-140
994.069	-706
994.148	230
994.226	-510
994.305	187
994.384	-363
994.462	338
994.540	-1669
994.619	-436
994.697	-760
994.776	-452
994.854	848
994.932	-1013
995.011	-669
995.089	-696
995.167	-551
995.245	-473
995.324	-1415
995.402	528
995.480	-876
995.558	-721
995.636	-1195
995.714	-867
995.792	763
995.870	-1246
995.948	-1220
996.026	-315
996.104	-1895
996.182	-84
996.260	-934
996.338	-231
996.416	-2124
996.494	-2103
996.572	-94
996.649	79
996.727	-917
996.805	912
996.883	-1064
996.960	-976
997.038	-563
997.116	-45
997.193	-1909
997.271	-494
997.348	-953
997.426	67
997.504	-1168
997.581	-43
997.658	395
997.736	-1332
997.813	-1725
997.891	-546
997.968	-1193
998.046	-812
998.123	-1360
998.200	163
998.277	-1873
998.355	313
998.432	-2210
998.509	-810
998.586	-453
998.663	-95
998.741	-1385
998.818	-723
998.895	-1211
998.972	-1165
999.049	-900
999.126	-618
999.203	-484
999.280	222
999.357	-1194
999.434	-1394
999.511	-104
999.587	-273
999.664	-1169
999.741	-1191
999.818	-582
999.895	-1794
999.971	-1077
1000.048	-819
1000.125	-111
1000.202	-2205
1000.278	-1442
1000.355	-755
1000.431	-1421
1000.508	-1466
1000.584	-512
1000.661	-1296
1000.738	-1365
1000.814	-1219
1000.890	-1387
1000.967	-1032
1001.043	-812
1001.120	-990
1001.196	-1044
1001.272	-2439
1001.349	-1635
1001.425	-1553
1001.501	-1215
1001.577	-1123
1001.654	-1772
1001.730	-511
1001.806	-1439
1001.882	-1630
1001.958	-915
1002.034	-808
1002.110	-856
1002.186	-2122
1002.262	-1599
1002.338	-1463
1002.414	-665
1002.490	-495
1002.566	-1481
1002.642	-1689
1002.718	-435
1002.794	-1329
1002.870	-828
1002.945	-641
1003.021	-1549
1003.097	-531
1003.173	-796
1003.248	-1224
1003.324	-575
1003.400	-594
1003.475	-1708
1003.551	-634
1003.626	-1512
1003.702	-1101
1003.777	-1396
1003.853	-1301
1003.928	-2065
1004.004	-701
1004.079	-969
1004.155	-850
1004.230	-2526
1004.305	-420
1004.381	-1436
1004.456	-830
1004.531	-1371
1004.607	-996
1004.682	-1514
1004.757	-443
1004.832	-1895
1004.907	-1883
1004.982	-1514
1005.057	-1008
1005.133	-970
1005.208	-1253
1005.283	-1746
1005.358	-749
1005.433	-2430
1005.508	-635
1005.583	-2074
1005.657	-1659
1005.732	-1394
1005.807	-1581
1005.882	-1561
1005.957	-1863
1006.032	-1416
1006.106	-840
1006.181	-1851
1006.256	-792
1006.331	-1760
1006.405	-1128
1006.480	-1029
1006.554	-1317
1006.629	-1471
1006.704	-973
1006.778	-1185
1006.853	-471
1006.927	-1388
1007.002	-1869
1007.076	-1475
1007.150	-979
1007.225	-1083
1007.299	57
1007.373	-1989
1007.448	-1023
1007.522	-1118
1007.596	-1271
1007.671	-2027
1007.745	-981
1007.819	-2842
1007.893	-1652
1007.967	-1328
1008.041	-1745
1008.115	-825
1008.190	-1345
1008.264	-701
1008.338	-2000
1008.412	-1676
1008.486	-784
1008.560	-1681
1008.633	-1426
1008.707	-1252
1008.781	-815
1008.855	-1678
1008.929	-1594
1009.003	-1796
1009.076	-1318
1009.150	-2013
1009.224	-2088
1009.298	-1104
1009.371	-1943
1009.445	-683
1009.519	-1167
1009.592	-3013
1009.666	-733
1009.739	-1119
1009.813	-1763
1009.886	-900
1009.960	-1747
1010.033	-1019
1010.107	-995
1010.180	-2405
1010.253	-1644
1010.327	-2092
1010.400	-1884
1010.473	-2008
1010.547	-1040
1010.620	-1861
1010.693	-1438
1010.766	-2571
1010.840	-1388
1010.913	-1650
1010.986	-1818
1011.059	-969
1011.132	-1293
1011.205	-288
1011.278	-1170
1011.351	-2004
1011.424	-1186
1011.497	-827
1011.570	-1520
1011.643	-1930
1011.716	-1933
1011.789	-2050
1011.862	-1111
1011.934	-1053
1012.007	-2631
1012.080	-1700
1012.153	-1138
1012.225	-1443
1012.298	-2116
1012.371	-1685
1012.443	-389
1012.516	-2512
1012.588	-1989
1012.661	-1567
1012.733	-2305
1012.806	-524
1012.879	-1743
1012.951	-1121
1013.023	-1784
1013.096	-1465
1013.168	-1354
1013.241	-938
1013.313	-1930
1013.385	-2086
1013.458	-1811
1013.530	-1390
1013.602	-1843
1013.674	-827
1013.746	-2351
1013.819	-1626
1013.891	-362
1013.963	-2529
1014.035	-1842
1014.107	-1766
1014.179	-1092
1014.251	-1880
1014.323	-1289
1014.395	-1573
1014.467	-1110
1014.539	-1398
1014.611	-1810
1014.683	-1368
1014.754	-1439
1014.826	-1670
1014.898	-1521
1014.970	-2066
1015.042	-467
1015.113	-1790
1015.185	-1331
1015.257	-1896
1015.328	-1069
1015.400	-2749
1015.471	-1659
1015.543	-2402
1015.615	-1512
1015.686	-2298
1015.757	-1289
1015.829	-814
1015.901	-1537
1015.972	-1061
1016.043	-2694
1016.115	-1269
1016.186	-1191
1016.257	-2128
1016.328	-1113
1016.400	-1136
1016.471	-2419
1016.542	-1531
1016.613	-623
1016.685	-1859
1016.756	-1037
1016.827	-2649
1016.898	-2497
1016.969	-430
1017.040	-1667
1017.111	-1765
1017.182	-1673
1017.253	-1711
1017.324	-1613
1017.395	-2156
1017.466	-1727
1017.537	-1586
1017.608	-1168
1017.678	-1294
1017.749	-2824
1017.820	-1652
1017.891	-1998
1017.961	-2197
1018.032	-773
1018.103	-1250
1018.173	-865
1018.244	-1236
1018.315	-1422
1018.385	-748
1018.456	-1210
1018.526	-3123
1018.597	-1802
1018.667	-2020
1018.738	-651
1018.808	-1728
1018.878	-1976
1018.949	-1265
1019.019	-1476
1019.089	-1453
1019.160	-1248
1019.230	-2013
1019.300	-1564
1019.371	-2722
1019.441	-1578
1019.511	-1825
1019.581	-2231
1019.651	-2250
1019.721	-2100
1019.791	-1909
1019.861	-1742
1019.931	-1015
1020.001	-1382
1020.071	-1303
1020.141	-1670
1020.211	-2174
1020.281	-1634
1020.351	-1326
1020.421	-634
1020.491	-1086
1020.560	-2024
1020.630	-1975
1020.700	-1323
1020.770	-1945
1020.839	-1231
1020.909	-2286
1020.979	-2337
1021.048	-2451
1021.118	-1681
1021.187	-1940
1021.257	-1389
1021.326	-932
1021.396	-1892
1021.465	-889
1021.535	-1487
1021.604	-2357
1021.674	-1913
1021.743	-1786
1021.812	-985
1021.882	-2384
1021.951	-1430
1022.020	-1636
1022.089	-1092
1022.159	-1969
1022.228	-1555
1022.297	-1851
1022.366	-1192
1022.435	-1829
1022.504	-2192
1022.573	-1524
1022.642	-1111
1022.711	-1939
1022.781	-1706
1022.849	-1215
1022.918	-1744
1022.987	-1960
1023.056	-1615
1023.125	-1225
1023.194	-966
1023.263	-2481
1023.331	-1206
1023.400	-1833
1023.469	-1436
1023.538	-1231
1023.606	-1536
1023.675	-1809
1023.744	-1973
1023.812	-1871
1023.881	-1767
1023.949	-1888
1024.018	-1779
1024.086	-1952
1024.155	-1556
1024.223	-2153
1024.292	-1142
1024.360	-1440
1024.429	-1503
1024.497	-2110
1024.565	-1006
1024.634	-1431
1024.702	-522
1024.770	-1612
1024.838	-1089
1024.907	-2081
1024.975	-1741
1025.043	-619
1025.111	-2169
1025.179	-943
1025.247	-1792
1025.315	-1761
1025.383	-1014
1025.451	-1357
1025.519	-1342
1025.587	-2023
1025.655	-1566
1025.723	-1630
1025.791	-686
1025.859	-1970
1025.927	-1226
1025.995	-1290
1026.062	-1834
1026.130	-2034
1026.198	-1578
1026.266	-1762
1026.333	-1004
1026.401	-1935
1026.469	-1489
1026.536	-1954
1026.604	-1974
1026.671	-2626
1026.739	-1031
1026.806	-1812
1026.874	-2019
1026.941	-1183
1027.009	-1639
1027.076	-2793
1027.144	-947
1027.211	-2224
1027.278	-1787
1027.345	-1488
1027.413	-1388
1027.480	-2000
1027.547	-2126
1027.614	-1628
1027.682	-966
1027.749	-1632
1027.816	-1290
1027.883	-1777
1027.950	-1453
1028.017	-1984
1028.084	-1431
1028.151	-1565
1028.218	-2145
1028.285	-1106
1028.352	-2793
1028.419	-2264
1028.486	-1531
1028.553	-936
1028.619	-1672
1028.686	-1931
1028.753	-1972
1028.820	-3189
1028.886	-2170
1028.953	-1891
1029.020	-1228
1029.086	-1870
1029.153	-2008
1029.220	-2106
1029.286	-2392
1029.353	-1551
1029.419	-1351
1029.486	-2780
1029.552	-1620
1029.619	-2222
1029.685	-1935
1029.751	-1615
1029.818	-1376
1029.884	-1923
1029.951	-707
1030.017	-2221
1030.083	-1984
1030.149	-2286
1030.216	-1452
1030.282	-2041
1030.348	-1859
1030.414	-2437
1030.480	-1303
1030.546	-2318
1030.612	-1207
1030.678	-1966
1030.744	-1986
1030.810	-1897
1030.876	-839
1030.942	-1424
1031.008	-2071
1031.074	-2295
1031.140	-1929
1031.206	-2421
1031.272	-1580
1031.337	-2468
1031.403	-2214
1031.469	-1901
1031.534	-1555
1031.600	-2511
1031.666	-1663
1031.731	-2477
1031.797	-1327
1031.863	-2509
1031.928	-2778
1031.994	-2311
1032.059	-1974
1032.125	-2331
1032.190	-2594
1032.256	-2472
1032.321	-1751
1032.386	-1988
1032.452	-1626
1032.517	-2530
1032.582	-1665
1032.647	-1756
1032.713	-1643
1032.778	-1485
1032.843	-1399
1032.908	-1871
1032.974	-2695
1033.039	-2891
1033.104	-1500
1033.169	-2516
1033.234	-1560
1033.299	-2392
1033.364	-1755
1033.429	-3112
1033.494	-2381
1033.559	-2221
1033.624	-1337
1033.688	-2080
1033.753	-2488
1033.818	-1732
1033.883	-2032
1033.948	-1327
1034.013	-1973
1034.077	-542
1034.142	-1089
1034.207	-1630
1034.271	-479
1034.336	272
1034.400	-664
1034.465	-570
1034.530	-1079
1034.594	-1985
1034.658	-2493
1034.723	-2864
1034.787	-1739
1034.852	-1998
1034.916	-2461
1034.981	-2286
1035.045	-1553
1035.109	-2917
1035.173	-1589
1035.238	-2841
1035.302	-1784
1035.366	-1827
1035.430	-1627
1035.495	-1820
1035.559	-1756
1035.623	-2349
1035.687	-1863
1035.751	-2795
1035.815	-2150
1035.879	-1571
1035.943	-2293
1036.007	-3121
1036.071	-1529
1036.135	-1973
1036.198	-950
1036.262	-2723
1036.326	-2081
1036.390	-2521
1036.454	-2449
1036.517	-1888
1036.581	-803
1036.645	-1834
1036.709	-1355
1036.772	-2782
1036.836	-2156
1036.900	-2446
1036.963	-1979
1037.026	-2224
1037.090	-2075
1037.154	-3301
1037.217	-3209
1037.280	-2456
1037.344	-3204
1037.407	-2669
1037.471	-2196
1037.534	-2710
1037.597	-1761
1037.661	-2876
1037.724	-2110
1037.787	-2901
1037.850	-2072
1037.913	-2797
1037.977	-1220
1038.040	-2415
1038.103	-1689
1038.166	-1595
1038.229	-1892
1038.292	-2409
1038.355	-1867
1038.418	-2428
1038.481	-2435
1038.544	-2258
1038.607	-1651
1038.670	-2591
1038.732	-1463
1038.795	-2642
1038.858	-2220
1038.921	-2666
1038.984	-1842
1039.046	-2310
1039.109	-2390
1039.172	-2162
1039.234	-2168
1039.297	-2445
1039.360	-2371
1039.422	-1587
1039.485	-2190
1039.547	-2241
1039.610	-2109
1039.672	-2852
1039.734	-1450
1039.797	-2592
1039.859	-2188
1039.922	-2361
1039.984	-2155
1040.046	-2084
1040.109	-1719
1040.171	-3225
1040.233	-1917
1040.295	-2681
1040.358	-2962
1040.420	-2698
1040.482	-1694
1040.544	-2356
1040.606	-2134
1040.668	-2379
1040.730	-2237
1040.792	-2669
1040.854	-2927
1040.916	-2508
1040.978	-2958
1041.040	-1960
1041.102	-2039
1041.164	-2741
1041.225	-2444
1041.287	-2859
1041.349	-3191
1041.411	-2310
1041.472	-2864
1041.534	-1980
1041.596	-3311
1041.657	-2256
1041.719	-2305
1041.781	-2243
1041.842	-2383
1041.904	-2840
1041.965	-2544
1042.027	-2167
1042.088	-2349
1042.150	-2353
1042.211	-3422
1042.272	-2691
1042.334	-2093
1042.395	-1989
1042.456	-2327
1042.518	-2449
1042.579	-1758
1042.640	-2946
1042.701	-2490
1042.763	-2622
1042.824	-2127
1042.885	-2659
1042.946	-2419
1043.007	-2728
1043.068	-1603
1043.129	-2532
1043.190	-3413
1043.251	-2683
1043.312	-2611
1043.373	-2474
1043.434	-2541
1043.495	-2369
1043.556	-1759
1043.616	-3264
1043.677	-2476
1043.738	-2241
1043.799	-2526
1043.859	-3050
1043.920	-1993
1043.981	-2633
1044.041	-2789
1044.102	-2982
1044.162	-1733
1044.223	-2141
1044.284	-2401
1044.344	-2433
1044.405	-2340
1044.465	-2685
1044.525	-1463
1044.586	-1684
1044.646	-2373
1044.707	-2305
1044.767	-2152
1044.827	-2488
1044.887	-2217
1044.948	-2209
1045.008	-1673
1045.068	-2358
1045.128	-2454
1045.188	-2584
1045.249	-2254
1045.309	-2991
1045.369	-1445
1045.429	-2441
1045.489	-2318
1045.549	-1680
1045.609	-2447
1045.669	-2520
1045.729	-2397
1045.789	-2172
1045.848	-2098
1045.908	-2148
1045.968	-2284
1046.028	-2150
1046.088	-1708
1046.147	-1595
1046.207	-1440
1046.267	-1961
1046.326	-1255
1046.386	-2627
1046.446	-2081
1046.505	-1971
1046.565	-1096
1046.624	-2005
1046.684	-1263
1046.743	-1475
1046.803	-1051
1046.862	-583
1046.922	0
