'Start Wavelength	183.907
'End Wavelength	1046.922
'Gate Delay	5.000
'Gate Width (ms)	1.050
'Laser Output Level	0.000
'X Position	0.000
'Y Position	0.000
'Z Position	0.000
'Grid Point Number	1.000
'Shot Number	100.000
183.907	32.000
183.977	18.000
184.047	-14
184.116	725
184.186	265
184.256	431
184.325	242
184.395	-574
184.465	1149
184.534	66
184.604	-313
184.674	419
184.743	-231
184.813	1281
184.883	-279
184.952	660
185.022	-265
185.092	-597
185.161	-74
185.231	487
185.301	525
185.370	855
185.440	-301
185.509	759
185.579	36
185.649	168
185.718	-28
185.788	216
185.857	818
185.927	-50
185.996	265
186.066	245
186.136	36
186.205	299
186.275	264
186.344	-49
186.414	225
186.483	266
186.553	973
186.622	949
186.692	129
186.761	711
186.831	787
186.900	760
186.970	1383
187.039	845
187.109	310
187.178	-76
187.248	730
187.317	163
187.387	215
187.456	633
187.526	-48
187.595	306
187.664	-169
187.734	279
187.803	784
187.873	142
187.942	881
188.012	353
188.081	439
188.150	897
188.220	912
188.289	1131
188.358	593
188.428	350
188.497	-295
188.567	1241
188.636	327
188.705	578
188.775	304
188.844	314
188.913	386
188.983	478
189.052	-92
189.121	0
189.191	273
189.260	762
189.329	565
189.399	-214
189.468	727
189.537	536
189.606	-44
189.676	449
189.745	818
189.814	417
189.883	167
189.953	127
190.022	57
190.091	1115
190.161	14
190.230	912
190.299	-1118
190.368	550
190.437	363
190.507	521
190.576	289
190.645	631
190.714	-844
190.783	783
190.853	510
190.922	1210
190.991	628
191.060	900
191.129	-325
191.198	605
191.268	203
191.337	-188
191.406	495
191.475	618
191.544	-75
191.613	1019
191.682	-12
191.752	900
191.821	928
191.890	-747
191.959	100
192.028	774
192.097	310
192.166	883
192.235	160
192.304	931
192.373	-38
192.442	517
192.511	488
192.580	331
192.650	210
192.719	688
192.788	574
192.857	754
192.926	291
192.995	170
193.064	-54
193.133	1231
193.202	5
193.271	1068
193.340	990
193.409	774
193.478	999
193.547	547
193.615	290
193.684	602
193.753	763
193.822	766
193.891	506
193.960	1210
194.029	136
194.098	990
194.167	306
194.236	711
194.305	688
194.374	875
194.443	612
194.512	151
194.580	555
194.649	1101
194.718	676
194.787	615
194.856	8
194.925	608
194.994	-180
195.062	1080
195.131	-163
195.200	370
195.269	817
195.338	767
195.407	941
195.475	976
195.544	561
195.613	811
195.682	217
195.751	-242
195.819	259
195.888	896
195.957	994
196.026	734
196.094	487
196.163	702
196.232	346
196.301	487
196.369	154
196.438	333
196.507	406
196.576	-269
196.644	-158
196.713	-121
196.782	-66
196.850	239
196.919	-592
196.988	1002
197.056	-227
197.125	971
197.194	362
197.262	738
197.331	353
197.400	464
197.468	733
197.537	-588
197.606	240
197.674	1049
197.743	-575
197.812	17
197.880	863
197.949	944
198.017	262
198.086	794
198.155	238
198.223	494
198.292	1096
198.360	-412
198.429	-816
198.497	347
198.566	399
198.635	1224
198.703	1023
198.772	604
198.840	259
198.909	1153
198.977	648
199.046	594
199.114	565
199.183	527
199.251	334
199.320	110
199.388	-137
199.457	238
199.525	-266
199.594	772
199.662	545
199.731	331
199.799	93
199.867	707
199.936	251
200.004	376
200.073	814
200.141	765
200.210	547
200.278	682
200.346	840
200.415	1353
200.483	625
200.552	1356
200.620	955
200.688	502
200.757	-41
200.825	574
200.893	377
200.962	1301
201.030	203
201.098	192
201.167	-220
201.235	-150
201.303	-252
201.372	1245
201.440	271
201.508	402
201.577	1076
201.645	1001
201.713	622
201.781	411
201.850	826
201.918	879
201.986	340
202.055	1147
202.123	411
202.191	334
202.259	-14
202.327	148
202.396	0
202.464	1223
202.532	314
202.600	1334
202.669	1050
202.737	836
202.805	141
202.873	860
202.941	-156
203.009	275
203.078	-164
203.146	905
203.214	107
203.282	-436
203.350	846
203.418	184
203.487	412
203.555	344
203.623	185
203.691	1029
203.759	-858
203.827	800
203.895	1035
203.963	-444
204.031	229
204.099	693
204.168	-236
204.236	63
204.304	776
204.372	745
204.440	717
204.508	207
204.576	-793
204.644	1060
204.712	89
204.780	739
204.848	412
204.916	888
204.984	797
205.052	645
205.120	-208
205.188	532
205.256	487
205.324	754
205.392	-197
205.460	969
205.528	242
205.596	695
205.664	765
205.732	407
205.799	186
205.867	1256
205.935	29
206.003	1052
206.071	691
206.139	138
206.207	821
206.275	117
206.343	1
206.411	-230
206.478	795
206.546	884
206.614	-133
206.682	-140
206.750	-75
206.818	1263
206.885	1966
206.953	71
207.021	923
207.089	779
207.157	-61
207.225	430
207.292	-2
207.360	662
207.428	217
207.496	-585
207.563	44
207.631	928
207.699	-116
207.767	577
207.834	66
207.902	-48
207.970	153
208.038	252
208.105	156
208.173	52
208.241	402
208.309	673
208.376	463
208.444	1127
208.512	231
208.579	-266
208.647	1257
208.715	1322
208.782	-8
208.850	650
208.918	222
208.985	48
209.053	647
209.120	1036
209.188	34
209.256	-214
209.323	-247
209.391	523
209.459	839
209.526	559
209.594	-281
209.661	240
209.729	203
209.796	1214
209.864	664
209.932	-488
209.999	1739
210.067	1140
210.134	125
210.202	778
210.269	749
210.337	2720
210.404	9
210.472	845
210.539	278
210.607	-17
210.674	-299
210.742	1070
210.809	324
210.877	592
210.944	1354
211.012	163
211.079	2003
211.146	594
211.214	595
211.281	1430
211.349	723
211.416	1128
211.484	482
211.551	717
211.618	154
211.686	340
211.753	-510
211.821	1330
211.888	266
211.955	943
212.023	385
212.090	551
212.157	1221
212.225	1009
212.292	668
212.359	1424
212.427	4083
212.494	1366
212.561	1000
212.629	45
212.696	-185
212.763	836
212.831	418
212.898	758
212.965	1159
213.032	583
213.100	19
213.167	467
213.234	816
213.301	903
213.369	31
213.436	220
213.503	488
213.570	110
213.638	-177
213.705	799
213.772	-486
213.839	458
213.906	739
213.973	775
214.041	-463
214.108	455
214.175	412
214.242	129
214.309	298
214.376	740
214.444	-570
214.511	286
214.578	-222
214.645	1191
214.712	154
214.779	1001
214.846	681
214.913	1233
214.980	1230
215.048	1530
215.115	1884
215.182	1408
215.249	1297
215.316	728
215.383	937
215.450	1098
215.517	296
215.584	367
215.651	46
215.718	731
215.785	232
215.852	307
215.919	444
215.986	-187
216.053	295
216.120	-108
216.187	137
216.254	820
216.321	771
216.388	566
216.455	224
216.522	808
216.589	506
216.656	745
216.722	802
216.789	825
216.856	760
216.923	1206
216.990	273
217.057	855
217.124	307
217.191	42
217.258	768
217.324	1498
217.391	1034
217.458	908
217.525	489
217.592	539
217.659	-645
217.725	1314
217.792	292
217.859	840
217.926	-223
217.993	450
218.059	919
218.126	910
218.193	-1
218.260	-192
218.327	442
218.393	821
218.460	261
218.527	688
218.594	168
218.660	574
218.727	1066
218.794	36
218.860	1355
218.927	67
218.994	444
219.061	-12
219.127	100
219.194	532
219.261	-148
219.327	284
219.394	864
219.461	237
219.527	354
219.594	352
219.661	484
219.727	-446
219.794	861
219.860	419
219.927	1524
219.994	3085
220.060	3184
220.127	4280
220.193	2753
220.260	1417
220.326	1362
220.393	1844
220.460	1235
220.526	834
220.593	348
220.659	2033
220.726	785
220.792	2471
220.859	1039
220.925	2570
220.992	2705
221.058	3813
221.125	2684
221.191	1993
221.258	332
221.324	1502
221.391	149
221.457	527
221.524	-246
221.590	291
221.657	2799
221.723	1286
221.789	1429
221.856	1864
221.922	47
221.989	1671
222.055	227
222.121	191
222.188	1860
222.254	528
222.321	889
222.387	452
222.453	481
222.520	869
222.586	-249
222.652	757
222.719	164
222.785	977
222.851	611
222.918	614
222.984	387
223.050	-87
223.116	-785
223.183	957
223.249	-369
223.315	-24
223.382	156
223.448	543
223.514	-634
223.580	7
223.647	-598
223.713	808
223.779	-387
223.845	583
223.911	238
223.978	-287
224.044	660
224.110	197
224.176	534
224.242	139
224.309	-699
224.375	165
224.441	-127
224.507	729
224.573	-390
224.639	1221
224.705	-329
224.772	242
224.838	-650
224.904	779
224.970	47
225.036	1232
225.102	104
225.168	847
225.234	-75
225.300	436
225.366	39
225.432	703
225.499	940
225.565	514
225.631	-226
225.697	464
225.763	421
225.829	922
225.895	447
225.961	1385
226.027	926
226.093	529
226.159	947
226.225	2557
226.291	3036
226.357	6281
226.423	1996
226.489	2751
226.554	1538
226.620	1513
226.686	792
226.752	1839
226.818	3583
226.884	8227
226.950	6719
227.016	3288
227.082	2202
227.148	1787
227.214	1704
227.279	1815
227.345	846
227.411	2445
227.477	4151
227.543	6625
227.609	7069
227.674	5416
227.740	2550
227.806	2147
227.872	1114
227.938	1806
228.003	1328
228.069	1202
228.135	672
228.201	808
228.267	265
228.332	616
228.398	-157
228.464	1552
228.530	-264
228.595	1175
228.661	-279
228.727	-438
228.792	1060
228.858	-610
228.924	-885
228.990	2662
229.055	-295
229.121	1080
229.187	-488
229.252	637
229.318	-45
229.384	759
229.449	-564
229.515	-1041
229.581	-1195
229.646	1825
229.712	522
229.777	401
229.843	-66
229.909	1062
229.974	1007
230.040	673
230.105	-12
230.171	-165
230.236	680
230.302	1426
230.368	198
230.433	363
230.499	484
230.564	1268
230.630	-297
230.695	531
230.761	1084
230.826	-662
230.892	716
230.957	-315
231.023	-343
231.088	262
231.154	-138
231.219	251
231.284	-184
231.350	657
231.415	-459
231.481	270
231.546	59
231.612	819
231.677	84
231.742	-1027
231.808	1862
231.873	892
231.939	-2113
232.004	1771
232.069	1333
232.135	550
232.200	-69
232.265	724
232.331	-400
232.396	674
232.461	652
232.527	-609
232.592	-416
232.657	1081
232.723	-315
232.788	218
232.853	117
232.918	687
232.984	-223
233.049	117
233.114	-553
233.179	1097
233.245	2058
233.310	739
233.375	-395
233.440	932
233.506	-402
233.571	-334
233.636	539
233.701	312
233.766	33
233.832	708
233.897	23
233.962	-846
234.027	923
234.092	1148
234.157	-443
234.222	667
234.288	1029
234.353	949
234.418	1210
234.483	1901
234.548	-31
234.613	593
234.678	782
234.743	-135
234.808	1637
234.873	667
234.938	1488
235.004	202
235.069	416
235.134	363
235.199	68
235.264	230
235.329	-974
235.394	756
235.459	1374
235.524	-538
235.589	536
235.654	233
235.719	-888
235.784	1113
235.849	744
235.913	1005
235.978	379
236.043	56
236.108	-66
236.173	589
236.238	1231
236.303	632
236.368	136
236.433	1402
236.498	1220
236.563	1640
236.627	2435
236.692	10361
236.757	9454
236.822	3073
236.887	905
236.952	1689
237.017	305
237.081	1382
237.146	811
237.211	4842
237.276	11076
237.341	18022
237.405	6387
237.470	2589
237.535	1794
237.600	1335
237.664	1758
237.729	155
237.794	556
237.859	2750
237.923	1125
237.988	1061
238.053	1550
238.118	-36
238.182	731
238.247	2789
238.312	-293
238.376	1042
238.441	-1027
238.506	1870
238.570	-607
238.635	1824
238.700	619
238.764	8
238.829	1014
238.893	244
238.958	981
239.023	879
239.087	988
239.152	2252
239.216	810
239.281	687
239.346	737
239.410	612
239.475	609
239.539	2164
239.604	295
239.668	3344
239.733	2948
239.797	8352
239.862	12905
239.926	12144
239.991	5578
240.055	3520
240.120	1350
240.184	1026
240.249	443
240.313	720
240.378	728
240.442	2472
240.507	1037
240.571	984
240.635	-150
240.700	852
240.764	776
240.829	877
240.893	285
240.957	814
241.022	1426
241.086	1218
241.151	-97
241.215	428
241.279	912
241.344	141
241.408	389
241.472	1338
241.537	991
241.601	1827
241.665	-944
241.730	213
241.794	1975
241.858	4
241.922	394
241.987	1119
242.051	495
242.115	-378
242.179	983
242.244	468
242.308	1396
242.372	939
242.436	268
242.501	1308
242.565	-306
242.629	925
242.693	693
242.757	-319
242.822	84
242.886	1055
242.950	777
243.014	-49
243.078	793
243.142	355
243.206	349
243.271	703
243.335	224
243.399	2101
243.463	3212
243.527	12393
243.591	2665
243.655	1110
243.719	-55
243.783	1813
243.847	1621
243.911	1351
243.975	654
244.040	-172
244.104	1230
244.168	1130
244.232	-456
244.296	1587
244.360	1545
244.424	-188
244.488	919
244.552	863
244.615	-991
244.679	1119
244.743	618
244.807	-727
244.871	544
244.935	1252
244.999	-1003
245.063	763
245.127	1073
245.191	1327
245.255	880
245.319	941
245.383	-1252
245.446	1614
245.510	290
245.574	1049
245.638	1017
245.702	-10
245.766	1116
245.829	1929
245.893	63
245.957	695
246.021	1420
246.085	861
246.149	424
246.212	2465
246.276	1902
246.340	937
246.404	59
246.467	1894
246.531	-54
246.595	1543
246.659	1330
246.722	-25
246.786	1374
246.850	809
246.913	214
246.977	372
247.041	862
247.104	1173
247.168	572
247.232	1725
247.295	2578
247.359	1984
247.423	366
247.486	669
247.550	1000
247.614	564
247.677	666
247.741	412
247.804	883
247.868	2203
247.932	1774
247.995	3947
248.059	505
248.122	-100
248.186	1930
248.249	1850
248.313	4266
248.376	5127
248.440	2610
248.503	410
248.567	1761
248.630	-190
248.694	1464
248.757	2671
248.821	5426
248.884	3762
248.948	1593
249.011	3735
249.075	4906
249.138	5337
249.202	1992
249.265	1086
249.328	1903
249.392	959
249.455	1151
249.519	1631
249.582	1290
249.645	1758
249.709	1299
249.772	1744
249.835	1843
249.899	1581
249.962	1653
250.025	1511
250.089	1913
250.152	2955
250.215	821
250.279	841
250.342	895
250.405	1320
250.468	935
250.532	1261
250.595	3006
250.658	10863
250.721	20029
250.785	5354
250.848	3624
250.911	1531
250.974	3038
251.038	2502
251.101	3475
251.164	1871
251.227	2784
251.290	2765
251.354	4206
251.417	17357
251.480	16633
251.543	9869
251.606	31657
251.669	22437
251.732	7533
251.795	6146
251.859	6385
251.922	19623
251.985	10509
252.048	4499
252.111	2705
252.174	1697
252.237	3336
252.300	7283
252.363	8407
252.426	25747
252.489	8279
252.552	3826
252.615	1985
252.678	3393
252.741	6000
252.804	9650
252.867	25257
252.930	10536
252.993	4233
253.056	3989
253.119	1281
253.182	1900
253.245	2831
253.308	3203
253.371	1024
253.434	1137
253.497	2207
253.559	3441
253.622	1310
253.685	2147
253.748	1447
253.811	1350
253.874	1341
253.937	694
254.000	1153
254.062	1435
254.125	2461
254.188	2356
254.251	1609
254.314	1427
254.376	1340
254.439	2045
254.502	1082
254.565	2328
254.628	3161
254.690	831
254.753	405
254.816	1475
254.878	1015
254.941	1428
255.004	2740
255.067	1397
255.129	515
255.192	1535
255.255	-245
255.317	986
255.380	1220
255.443	1257
255.505	1378
255.568	1372
255.631	725
255.693	1687
255.756	1149
255.819	2227
255.881	2124
255.944	1697
256.006	-229
256.069	1120
256.132	-504
256.194	1709
256.257	1631
256.319	1178
256.382	2340
256.444	4175
256.507	1740
256.569	1966
256.632	1321
256.694	1976
256.757	5966
256.819	18791
256.882	5993
256.944	2789
257.007	2547
257.069	1370
257.132	856
257.194	2461
257.257	1944
257.319	1083
257.381	1289
257.444	4209
257.506	21512
257.569	21533
257.631	6292
257.693	3657
257.756	1988
257.818	1337
257.880	1175
257.943	2023
258.005	-167
258.067	2149
258.130	481
258.192	1515
258.254	932
258.317	1620
258.379	1333
258.441	1922
258.503	1880
258.566	1641
258.628	1817
258.690	856
258.753	1831
258.815	1746
258.877	-154
258.939	1239
259.001	1782
259.064	1524
259.126	28
259.188	762
259.250	1591
259.312	1506
259.375	1573
259.437	1125
259.499	2077
259.561	829
259.623	1200
259.685	1250
259.747	1001
259.809	1737
259.872	2033
259.934	4549
259.996	3962
260.058	2115
260.120	753
260.182	1458
260.244	1731
260.306	889
260.368	993
260.430	589
260.492	2474
260.554	2851
260.616	1116
260.678	2605
260.740	1528
260.802	1721
260.864	1412
260.926	859
260.988	1850
261.050	1712
261.112	1359
261.174	3934
261.236	2688
261.298	1813
261.359	2244
261.421	2247
261.483	879
261.545	2071
261.607	581
261.669	2089
261.731	1310
261.793	2151
261.854	282
261.916	2381
261.978	976
262.040	2276
262.102	2208
262.164	1600
262.225	1452
262.287	2008
262.349	962
262.411	1785
262.472	1269
262.534	1429
262.596	1277
262.658	2511
262.719	497
262.781	2032
262.843	899
262.904	2442
262.966	813
263.028	819
263.090	4126
263.151	12211
263.213	3692
263.275	1980
263.336	1800
263.398	1697
263.459	536
263.521	1661
263.583	1469
263.644	1731
263.706	1135
263.767	748
263.829	2558
263.891	1458
263.952	333
264.014	1321
264.075	1069
264.137	3556
264.198	1525
264.260	462
264.321	414
264.383	1923
264.444	4013
264.506	1431
264.567	1108
264.629	2913
264.690	1964
264.752	1950
264.813	1785
264.875	1256
264.936	1219
264.998	870
265.059	1551
265.120	2542
265.182	1730
265.243	8758
265.305	9150
265.366	2618
265.427	1650
265.489	2828
265.550	471
265.611	1898
265.673	1981
265.734	1749
265.795	2248
265.857	120
265.918	1054
265.979	3339
266.040	14526
266.102	13411
266.163	3459
266.224	2099
266.286	1344
266.347	1540
266.408	1518
266.469	1140
266.530	1937
266.592	1646
266.653	2131
266.714	1851
266.775	401
266.836	1921
266.898	370
266.959	1337
267.020	760
267.081	2635
267.142	1997
267.203	592
267.264	1266
267.326	2150
267.387	1287
267.448	692
267.509	1503
267.570	1400
267.631	662
267.692	844
267.753	1520
267.814	603
267.875	2022
267.936	1863
267.997	1504
268.058	1309
268.119	1242
268.180	1437
268.241	1050
268.302	1353
268.363	592
268.424	734
268.485	1399
268.546	1059
268.607	1092
268.668	812
268.729	838
268.790	1405
268.851	2000
268.912	1306
268.972	1763
269.033	1100
269.094	1219
269.155	1466
269.216	1267
269.277	1380
269.338	976
269.398	1142
269.459	1014
269.520	1308
269.581	1046
269.642	1842
269.702	772
269.763	1561
269.824	773
269.885	1188
269.945	1613
270.006	1634
270.067	930
270.128	1818
270.188	1217
270.249	1043
270.310	537
270.370	1785
270.431	1332
270.492	1030
270.553	1678
270.613	1350
270.674	1591
270.734	764
270.795	867
270.856	2135
270.916	753
270.977	2091
271.038	1757
271.098	1278
271.159	1132
271.219	1387
271.280	949
271.340	1770
271.401	803
271.462	1738
271.522	1340
271.583	1850
271.643	1188
271.704	1225
271.764	1310
271.825	2192
271.885	5070
271.946	6883
272.006	3124
272.066	4215
272.127	7438
272.187	10471
272.248	5856
272.308	2075
272.369	4745
272.429	3400
272.489	2222
272.550	1981
272.610	2578
272.671	2465
272.731	1989
272.791	1794
272.852	2345
272.912	1970
272.972	1345
273.033	1364
273.093	1817
273.153	1737
273.214	1396
273.274	2234
273.334	3075
273.394	4802
273.455	3182
273.515	2988
273.575	4062
273.635	3238
273.696	3629
273.756	5631
273.816	2914
273.876	3401
273.936	1901
273.997	3828
274.057	1877
274.117	2073
274.177	1871
274.237	5384
274.297	5272
274.358	3546
274.418	3306
274.478	3597
274.538	1915
274.598	2468
274.658	2271
274.718	2627
274.778	1585
274.838	2066
274.898	1643
274.958	3599
275.018	5184
275.078	4046
275.138	1555
275.198	2131
275.258	1223
275.318	2477
275.378	1175
275.438	2193
275.498	1764
275.558	1276
275.618	3582
275.678	3272
275.738	2891
275.798	2252
275.858	1486
275.918	1509
275.978	2343
276.038	1947
276.098	2498
276.157	2054
276.217	3367
276.277	2585
276.337	1477
276.397	3178
276.457	2623
276.517	2268
276.576	2126
276.636	2255
276.696	3229
276.756	2763
276.815	1488
276.875	2518
276.935	1970
276.995	2097
277.055	2536
277.114	3937
277.174	2185
277.234	3769
277.293	2408
277.353	2324
277.413	1514
277.472	1838
277.532	1771
277.592	3206
277.651	8036
277.711	14886
277.771	5389
277.830	15580
277.890	11921
277.950	9537
278.009	25968
278.069	10952
278.128	10982
278.188	15512
278.248	7286
278.307	17700
278.367	10911
278.426	4458
278.486	2915
278.545	3300
278.605	2814
278.664	2658
278.724	2902
278.783	3773
278.843	6358
278.902	3327
278.962	2723
279.021	3224
279.081	4206
279.140	3547
279.199	2886
279.259	4103
279.318	4377
279.378	6086
279.437	7054
279.496	17645
279.556	61453
279.615	49247
279.675	14022
279.734	8663
279.793	7984
279.853	11878
279.912	6731
279.971	5178
280.031	4559
280.090	6576
280.149	9091
280.208	9894
280.268	42783
280.327	43321
280.386	11012
280.445	7125
280.505	4991
280.564	3796
280.623	3683
280.682	4109
280.742	3572
280.801	3473
280.860	2280
280.919	2786
280.978	2352
281.037	3045
281.097	2078
281.156	3443
281.215	2705
281.274	3149
281.333	4458
281.392	2552
281.451	2532
281.510	2502
281.569	1576
281.628	2405
281.688	1929
281.747	2667
281.806	2327
281.865	2441
281.924	1389
281.983	2251
282.042	1571
282.101	2399
282.160	2712
282.219	1735
282.278	1688
282.337	3716
282.396	2387
282.454	2522
282.513	2669
282.572	3242
282.631	2216
282.690	2036
282.749	1548
282.808	3171
282.867	2219
282.926	3222
282.985	2298
283.043	1778
283.102	2245
283.161	2777
283.220	2525
283.279	4259
283.338	2837
283.396	1911
283.455	2386
283.514	3353
283.573	2466
283.631	2051
283.690	2613
283.749	2771
283.808	2092
283.866	3350
283.925	2583
283.984	3366
284.043	3421
284.101	3402
284.160	2716
284.219	4195
284.277	3014
284.336	4152
284.395	5860
284.453	5076
284.512	4058
284.570	4951
284.629	5227
284.688	5245
284.746	6230
284.805	7839
284.863	9364
284.922	11544
284.981	14059
285.039	20962
285.098	31562
285.156	59002
285.215	68395
285.273	64869
285.332	60268
285.390	38534
285.449	24731
285.507	17393
285.566	13549
285.624	10419
285.683	9074
285.741	7381
285.799	6391
285.858	6050
285.916	4718
285.975	5000
286.033	4146
286.091	3643
286.150	3634
286.208	4087
286.267	3993
286.325	4043
286.383	2695
286.442	3226
286.500	3042
286.558	3596
286.616	2509
286.675	4054
286.733	2981
286.791	3070
286.850	2410
286.908	2687
286.966	2884
287.024	2741
287.083	3011
287.141	3787
287.199	2640
287.257	2480
287.315	2857
287.374	2926
287.432	2259
287.490	3314
287.548	1929
287.606	2722
287.664	2813
287.723	3314
287.781	2788
287.839	3138
287.897	3110
287.955	3721
288.013	4310
288.071	6770
288.129	23173
288.187	69189
288.245	28819
288.303	10770
288.361	6849
288.419	5424
288.477	3554
288.535	3546
288.593	3349
288.651	3095
288.709	2084
288.767	3150
288.825	2110
288.883	2918
288.941	1576
288.999	2630
289.057	2553
289.115	2728
289.173	2721
289.231	2914
289.289	2419
289.346	2425
289.404	2637
289.462	2894
289.520	1914
289.578	2462
289.636	2689
289.694	2266
289.751	2233
289.809	3048
289.867	2574
289.925	2996
289.983	2725
290.040	2384
290.098	2200
290.156	2277
290.214	1943
290.271	2669
290.329	2984
290.387	2801
290.444	2464
290.502	2904
290.560	1760
290.617	3245
290.675	1680
290.733	3076
290.790	2686
290.848	3050
290.906	1934
290.963	2201
291.021	2876
291.078	2534
291.136	2191
291.194	3922
291.251	3972
291.309	2797
291.366	2153
291.424	2419
291.481	1848
291.539	2534
291.596	3128
291.654	2741
291.711	2928
291.769	2775
291.826	1888
291.884	2788
291.941	1859
291.999	2787
292.056	2642
292.114	2219
292.171	2343
292.228	2944
292.286	2977
292.343	2391
292.401	3181
292.458	2829
292.515	2589
292.573	2749
292.630	3088
292.687	1840
292.745	2004
292.802	2452
292.859	3352
292.917	3320
292.974	3181
293.031	2996
293.089	1936
293.146	2581
293.203	2385
293.260	2636
293.318	1923
293.375	2705
293.432	2573
293.489	2517
293.546	2311
293.604	3077
293.661	3446
293.718	7439
293.775	4533
293.832	4595
293.889	3814
293.947	3980
294.004	1982
294.061	2343
294.118	3069
294.175	5887
294.232	7022
294.289	4333
294.346	3043
294.403	3575
294.460	2924
294.517	2789
294.574	2405
294.631	3241
294.688	2588
294.745	3673
294.802	8359
294.859	8609
294.916	4378
294.973	3443
295.030	2005
295.087	2878
295.144	2436
295.201	3320
295.258	2578
295.315	1864
295.372	4252
295.429	6256
295.486	3522
295.542	3481
295.599	4545
295.656	7612
295.713	4420
295.770	5673
295.827	3277
295.883	3574
295.940	2130
295.997	2875
296.054	2245
296.111	2456
296.167	3064
296.224	2785
296.281	2169
296.338	2047
296.394	2522
296.451	1646
296.508	2707
296.564	4793
296.621	4487
296.678	6333
296.734	8615
296.791	4628
296.848	3588
296.904	3461
296.961	3884
297.018	5661
297.074	4108
297.131	2783
297.187	2660
297.244	3101
297.301	6130
297.357	10711
297.414	4118
297.470	2801
297.527	2460
297.583	3178
297.640	2476
297.696	1868
297.753	2469
297.809	2036
297.866	2610
297.922	2971
297.979	1805
298.035	2744
298.092	1624
298.148	3525
298.204	3589
298.261	3148
298.317	4204
298.374	6524
298.430	5206
298.486	3508
298.543	2446
298.599	2708
298.656	3062
298.712	4190
298.768	6570
298.824	6043
298.881	3092
298.937	2841
298.993	2410
299.050	3053
299.106	3465
299.162	2365
299.218	3740
299.275	3285
299.331	2834
299.387	4643
299.443	9344
299.500	22081
299.556	16926
299.612	7828
299.668	6727
299.724	18881
299.780	22343
299.837	9787
299.893	7161
299.949	16171
300.005	21271
300.061	17074
300.117	26263
300.173	11918
300.229	6022
300.285	5296
300.341	5117
300.397	4400
300.453	3904
300.510	4359
300.566	5066
300.622	8994
300.678	28224
300.734	33384
300.790	16466
300.845	12949
300.901	16459
300.957	24518
301.013	11668
301.069	5431
301.125	4459
301.181	4025
301.237	3417
301.293	3252
301.349	3515
301.405	2588
301.461	3125
301.516	3468
301.572	2506
301.628	2903
301.684	2637
301.740	3479
301.796	3857
301.851	3845
301.907	3286
301.963	4517
302.019	6037
302.074	15564
302.130	15008
302.186	7847
302.242	4226
302.297	3043
302.353	3644
302.409	4154
302.464	3511
302.520	3492
302.576	5459
302.631	6598
302.687	3428
302.743	1822
302.798	2079
302.854	3091
302.910	2670
302.965	2982
303.021	3279
303.076	3169
303.132	2834
303.187	3531
303.243	2405
303.299	3299
303.354	2238
303.410	2481
303.465	2765
303.521	1696
303.576	2474
303.632	3017
303.687	3319
303.743	6455
303.798	5430
303.853	3308
303.909	3155
303.964	2506
304.020	3274
304.075	3466
304.130	2367
304.186	3494
304.241	4335
304.297	2950
304.352	2167
304.358	2238
304.407	2811
304.449	2783
304.463	2778
304.518	2648
304.539	2520
304.573	2300
304.629	2241
304.630	2254
304.684	2875
304.720	4340
304.739	5049
304.794	6785
304.811	6020
304.850	4217
304.902	2837
304.905	2750
304.960	2939
304.992	2448
305.015	2074
305.071	2396
305.083	2425
305.126	2567
305.173	1665
305.181	1508
305.236	1749
305.264	2217
305.292	2706
305.347	2374
305.354	2547
305.402	3679
305.445	3146
305.457	2980
305.512	3037
305.535	2820
305.567	2503
305.622	1779
305.626	1834
305.678	3017
305.716	4924
305.733	5591
305.788	5089
305.807	4702
305.843	4305
305.897	6248
305.898	6267
305.953	5767
305.988	4523
306.008	3902
306.063	2872
306.078	2623
306.118	2069
306.168	2689
306.173	2745
306.228	2206
306.259	2432
306.283	2657
306.338	2281
306.349	2371
306.393	2575
306.440	2796
306.448	2861
306.503	2946
306.530	2911
306.558	2916
306.613	2898
306.620	3036
306.668	3996
306.711	4696
306.723	4747
306.778	3720
306.801	3515
306.833	3469
306.888	2122
306.892	2156
306.943	2598
306.982	2296
306.997	2181
307.052	2366
307.072	2401
307.107	2561
307.162	2595
307.163	2597
307.217	2917
307.253	3216
307.272	3314
307.327	2951
307.343	2841
307.381	2703
307.434	2380
307.436	2390
307.491	3522
307.524	4312
307.546	4470
307.600	4606
307.614	4289
307.655	3396
307.704	2764
307.710	2752
307.765	2989
307.795	3328
307.819	3652
307.874	4638
307.885	4802
307.929	5471
307.975	6007
307.984	6240
308.038	8199
308.065	9393
308.093	17080
308.148	36415
308.156	41087
308.202	60601
308.246	70267
308.257	67785
308.312	32903
308.336	20326
308.366	14290
308.421	8315
308.426	7892
308.475	6110
308.517	5160
308.530	4914
308.585	4879
308.607	4895
308.639	4965
308.694	4614
308.697	4647
308.748	6132
308.787	7250
308.803	7164
308.857	5876
308.877	5486
308.912	5657
308.967	6336
308.967	6357
309.021	9656
309.058	11709
309.076	14178
309.130	23127
309.148	26627
309.185	53121
309.238	99206
309.239	99378
309.293	100757
309.328	86820
309.348	74217
309.402	35120
309.418	25742
309.457	19114
309.508	13227
309.511	13103
309.566	12902
309.598	13447
309.620	15613
309.674	21957
309.688	23709
309.729	22429
309.778	18597
309.783	18200
309.837	12712
309.868	9980
309.892	9310
309.946	8074
309.959	7986
310.001	7978
310.049	7905
310.055	7722
310.109	5620
310.139	4589
310.163	4066
310.218	3240
310.229	3028
310.272	3339
310.319	3984
310.326	3895
310.381	3019
310.409	2623
310.435	2763
310.489	3013
310.499	3070
310.543	3174
310.589	3134
310.598	3144
310.652	3438
310.679	3565
310.706	3458
310.760	3086
310.769	3043
310.814	3328
310.859	3649
310.868	3618
310.923	3188
310.948	3149
310.977	3333
311.031	3422
311.038	3452
311.085	3475
311.128	3265
311.139	3228
311.193	3265
311.218	3266
311.247	3231
311.301	3205
311.308	3190
311.356	3063
311.398	2916
311.410	2979
311.464	3324
311.488	3476
311.518	3520
311.572	3531
311.578	3531
311.626	3481
311.668	3425
311.680	3466
311.734	3617
311.758	3690
311.788	3823
311.842	4027
311.847	4043
311.896	4147
311.937	4255
311.950	4266
312.004	4274
312.027	4273
312.058	4112
312.112	3832
312.117	3799
312.165	3394
312.207	3046
312.297	3413
312.386	3498
312.476	3095
312.566	3726
312.656	3327
312.745	3261
312.835	3801
312.925	4277
313.015	3814
313.104	3357
313.194	5294
313.284	4473
313.374	4944
313.463	5262
313.553	5687
313.643	5231
313.732	5674
313.822	5784
313.912	7402
314.001	7329
314.091	7825
314.180	7181
314.270	7698
314.360	7432
314.449	6645
314.539	6141
314.628	6897
314.718	6646
314.808	6891
314.897	8254
314.987	8897
315.076	8898
315.166	9157
315.255	8467
315.345	8035
315.434	7594
315.524	7766
315.613	8365
315.703	11628
315.792	35841
315.881	113245
315.971	30465
316.060	11211
316.150	9007
316.239	7951
316.328	8229
316.418	8472
316.507	7415
316.597	9139
316.686	9729
316.775	9152
316.865	9549
316.954	6561
317.043	7531
317.133	6297
317.222	5776
317.311	4963
317.400	5317
317.490	6937
317.579	7566
317.668	8648
317.757	16003
317.847	59352
317.936	160463
318.025	44762
318.114	46574
318.203	18194
318.293	10270
318.382	13157
318.471	13776
318.560	13030
318.649	14573
318.738	7553
318.828	6314
318.917	4688
319.006	5427
319.095	6042
319.184	14007
319.273	7450
319.362	5326
319.451	4141
319.540	4655
319.629	5303
319.718	6280
319.807	5432
319.896	7653
319.985	16335
320.074	7242
320.163	5173
320.252	5606
320.341	6345
320.430	5774
320.519	6956
320.608	7166
320.697	9057
320.786	9178
320.875	10951
320.964	11106
321.053	13242
321.142	12703
321.230	15025
321.319	16424
321.408	18876
321.497	17737
321.586	14873
321.675	13579
321.764	12689
321.852	11672
321.941	13035
322.030	13010
322.119	14186
322.207	17831
322.296	20059
322.385	21989
322.474	23124
322.562	24029
322.651	18419
322.740	15372
322.829	13125
322.917	12371
323.006	10282
323.095	9666
323.183	8411
323.272	8126
323.361	9187
323.449	13950
323.538	8399
323.626	11055
323.715	8130
323.804	6961
323.892	9590
323.981	6951
324.069	6290
324.158	7916
324.246	6775
324.335	5737
324.424	5981
324.512	5508
324.601	5394
324.689	5456
324.778	5348
324.866	6144
324.954	4984
325.043	5065
325.131	4124
325.220	6782
325.308	5647
325.397	5141
325.485	5295
325.574	4418
325.662	4574
325.750	3728
325.839	5053
325.927	4671
326.015	4365
326.104	4672
326.192	4590
326.280	4393
326.369	4653
326.457	4019
326.545	4503
326.634	4605
326.722	4338
326.810	5206
326.898	6450
326.987	6135
327.075	5094
327.163	5676
327.251	4566
327.340	5579
327.428	8559
327.516	9179
327.604	6813
327.692	5785
327.781	5145
327.869	4681
327.957	4351
328.045	3655
328.133	3761
328.221	4464
328.309	3639
328.397	4179
328.485	5158
328.574	9126
328.662	12821
328.750	7255
328.838	5595
328.926	4571
329.014	3824
329.102	4230
329.190	5485
329.278	4143
329.366	4637
329.454	4123
329.542	3570
329.630	4086
329.718	4340
329.806	3822
329.893	4184
329.981	3310
330.069	4154
330.157	6213
330.245	10400
330.333	7108
330.421	4130
330.509	3739
330.597	4932
330.684	4021
330.772	4213
330.860	3738
330.948	4891
331.036	3283
331.123	4368
331.211	3821
331.299	4033
331.387	5332
331.475	5513
331.562	4605
331.650	4219
331.738	3592
331.825	4218
331.913	4310
332.001	4600
332.089	4499
332.176	5122
332.264	5950
332.352	5549
332.439	4063
332.527	4798
332.614	4121
332.702	4382
332.790	3454
332.877	5308
332.965	7428
333.052	6156
333.140	6594
333.228	11388
333.315	6448
333.403	5334
333.490	6354
333.578	7787
333.665	14983
333.753	9237
333.840	7245
333.928	8290
334.015	10447
334.103	14154
334.190	24414
334.278	21814
334.365	28071
334.452	26536
334.540	18960
334.627	19333
334.715	24836
334.802	35991
334.889	60680
334.977	70442
335.064	41790
335.151	22132
335.239	16872
335.326	14360
335.413	19664
335.501	19503
335.588	15199
335.675	16713
335.762	21544
335.850	28579
335.937	41946
336.024	66169
336.111	99288
336.199	80665
336.286	40189
336.373	23778
336.460	16030
336.547	12376
336.635	10460
336.722	9989
336.809	8369
336.896	7922
336.983	10281
337.070	14696
337.157	18766
337.245	12514
337.332	10202
337.419	7467
337.506	7337
337.593	7475
337.680	8499
337.767	11996
337.854	6627
337.941	6577
338.028	6493
338.115	5857
338.202	6074
338.289	7356
338.376	9905
338.463	5877
338.550	8630
338.637	8443
338.724	6143
338.811	5546
338.898	5108
338.984	5005
339.071	4926
339.158	4759
339.245	5084
339.332	5099
339.419	5719
339.506	5227
339.593	4256
339.679	4679
339.766	4904
339.853	5168
339.940	4851
340.027	4160
340.113	5237
340.200	4705
340.287	3986
340.374	4209
340.460	4728
340.547	2610
340.634	4058
340.720	6014
340.807	4597
340.894	4168
340.980	4032
341.067	4197
341.154	5417
341.240	4087
341.327	4952
341.414	4613
341.500	4087
341.587	4458
341.674	4761
341.760	5464
341.847	4318
341.933	3852
342.020	3113
342.106	4404
342.193	4384
342.279	4412
342.366	4227
342.452	4550
342.539	3313
342.625	4174
342.712	5495
342.798	4356
342.885	3760
342.971	3454
343.058	3797
343.144	4051
343.230	4537
343.317	4228
343.403	4300
343.490	3916
343.576	3450
343.662	4291
343.749	3992
343.835	4433
343.921	5489
344.008	14348
344.094	23252
344.180	6327
344.267	4557
344.353	6994
344.439	6267
344.525	4555
344.612	4715
344.698	4089
344.784	3464
344.870	4037
344.957	3577
345.043	4655
345.129	3625
345.215	4415
345.301	4231
345.387	4125
345.474	3792
345.560	3729
345.646	3494
345.732	4219
345.818	3610
345.904	4042
345.990	4273
346.076	4296
346.162	3431
346.249	4254
346.335	4116
346.421	4978
346.507	5687
346.593	9080
346.679	4081
346.765	6636
346.851	10264
346.937	7107
347.023	5090
347.108	4174
347.194	4688
347.280	4958
347.366	6215
347.452	20196
347.538	25585
347.624	13157
347.710	7739
347.796	5194
347.882	4384
347.967	4282
348.053	3965
348.139	3743
348.225	4536
348.311	4335
348.397	4447
348.482	5708
348.568	5761
348.654	8873
348.740	27682
348.825	27996
348.911	12060
348.997	9654
349.083	12207
349.168	5170
349.254	4677
349.340	4682
349.425	4451
349.511	4202
349.597	5047
349.682	4729
349.768	7269
349.854	5609
349.939	4373
350.025	4449
350.110	4670
350.196	4656
350.282	3672
350.367	4500
350.453	4114
350.538	4032
350.624	4250
350.709	4843
350.795	3885
350.880	4036
350.966	4923
351.051	4552
351.137	3967
351.222	3837
351.308	4935
351.393	5315
351.479	4013
351.564	3324
351.649	4129
351.735	4064
351.820	4156
351.906	4054
351.991	4675
352.076	5191
352.162	5557
352.247	4098
352.332	3838
352.418	3836
352.503	4524
352.588	7059
352.673	5289
352.759	3716
352.844	3322
352.929	3983
353.014	3161
353.100	4472
353.185	4547
353.270	4160
353.355	5340
353.441	4527
353.526	3500
353.611	4149
353.696	2952
353.781	5037
353.866	2607
353.952	4421
354.037	3467
354.122	4469
354.207	4139
354.292	4709
354.377	3706
354.462	4187
354.547	3969
354.632	4916
354.717	4757
354.802	3764
354.887	4179
354.972	3386
355.057	5014
355.142	3785
355.227	4836
355.312	3826
355.397	4702
355.482	5059
355.567	4125
355.652	5063
355.737	4106
355.822	6613
355.907	5522
355.991	5780
356.076	3370
356.161	5228
356.246	4991
356.331	5006
356.416	5234
356.501	13864
356.585	10338
356.670	3685
356.755	6787
356.840	5693
356.924	11170
357.009	25364
357.094	10946
357.179	4476
357.263	5181
357.348	4965
357.433	5323
357.517	4859
357.602	4519
357.687	3956
357.771	6117
357.856	7932
357.941	6819
358.025	11476
358.110	33263
358.195	13498
358.279	5306
358.364	5417
358.448	7210
358.533	10677
358.617	7295
358.702	8473
358.787	5987
358.871	4945
358.956	4989
359.040	4046
359.125	4909
359.209	5521
359.294	6451
359.378	11546
359.462	9214
359.547	5241
359.631	4894
359.716	4565
359.800	4705
359.885	5521
359.969	3799
360.053	5487
360.138	4518
360.222	5104
360.306	4184
360.391	5691
360.475	5746
360.559	7245
360.644	6272
360.728	4636
360.812	9392
360.896	16691
360.981	7802
361.065	5970
361.149	6153
361.233	5303
361.318	5741
361.402	6078
361.486	6636
361.570	6803
361.654	6456
361.739	8025
361.823	15646
361.907	20714
361.991	11221
362.075	12145
362.159	17461
362.243	33817
362.327	77690
362.411	99275
362.495	40519
362.580	20928
362.664	20557
362.748	23681
362.832	38148
362.916	78256
363.000	186152
363.084	226053
363.168	97441
363.252	34553
363.336	21319
363.420	17388
363.503	21380
363.587	20273
363.671	12913
363.755	12898
363.839	15878
363.923	16601
364.007	22561
364.091	30724
364.175	48747
364.258	107394
364.342	218864
364.426	323272
364.510	173342
364.594	60952
364.677	31790
364.761	28049
364.845	19771
364.929	11671
365.013	9859
365.096	8943
365.180	8526
365.264	11819
365.347	23203
365.431	11440
365.515	5971
365.598	5454
365.682	7513
365.766	6434
365.849	6637
365.933	5816
366.017	7758
366.100	5689
366.184	6122
366.267	6843
366.351	6266
366.435	6034
366.518	6420
366.602	6291
366.685	6953
366.769	6107
366.852	7038
366.936	7316
367.019	6343
367.103	5072
367.186	8394
367.270	6602
367.353	6374
367.436	8201
367.520	7313
367.603	7575
367.687	6157
367.770	7257
367.853	8268
367.937	9054
368.020	10306
368.104	5439
368.187	7365
368.270	6024
368.353	6159
368.437	6779
368.520	8175
368.603	6295
368.687	6121
368.770	8643
368.853	5966
368.936	6150
369.020	6432
369.103	5003
369.186	4910
369.269	4557
369.352	5447
369.436	4803
369.519	5476
369.602	3158
369.685	6267
369.768	3609
369.851	5497
369.934	4169
370.018	4605
370.101	4084
370.184	7050
370.267	5772
370.350	5377
370.433	7380
370.516	23366
370.599	60096
370.682	26999
370.765	9073
370.848	8531
370.931	10045
371.014	7218
371.097	3753
371.180	5846
371.263	5041
371.346	3501
371.429	5215
371.511	4708
371.594	4337
371.677	5317
371.760	7168
371.843	6754
371.926	16177
372.009	26031
372.091	12109
372.174	7557
372.257	12602
372.340	8188
372.423	6787
372.505	7727
372.588	5521
372.671	7575
372.754	9718
372.836	7555
372.919	8960
373.002	12091
373.085	6243
373.167	6154
373.250	7947
373.332	11883
373.415	21120
373.498	36274
373.580	28320
373.663	89001
373.746	80798
373.828	16641
373.911	10345
373.993	8350
374.076	13139
374.159	11605
374.241	8182
374.324	10033
374.406	9727
374.489	13122
374.571	25773
374.654	12490
374.736	10927
374.819	18503
374.901	27260
374.983	26734
375.066	11134
375.148	9632
375.231	14342
375.313	20119
375.395	11651
375.478	9279
375.560	9448
375.643	8857
375.725	11340
375.807	21552
375.890	18626
375.972	9110
376.054	8504
376.136	8988
376.219	7818
376.301	10890
376.383	14944
376.465	8623
376.548	5991
376.630	8144
376.712	12204
376.794	7839
376.877	5447
376.959	4044
377.041	5516
377.123	5293
377.205	6329
377.287	4855
377.369	6091
377.452	6052
377.534	5093
377.616	5246
377.698	4433
377.780	4522
377.862	4846
377.944	6606
378.026	4114
378.108	5432
378.190	5426
378.272	5069
378.354	5111
378.436	4820
378.518	4975
378.600	6504
378.682	6125
378.764	6584
378.846	6599
378.928	4582
379.010	4127
379.091	6005
379.173	5300
379.255	4107
379.337	5096
379.419	5573
379.501	8995
379.583	6269
379.664	5610
379.746	4643
379.828	7678
379.910	7072
379.991	7882
380.073	4403
380.155	5523
380.237	4966
380.318	4398
380.400	3997
380.482	5505
380.564	4815
380.645	5397
380.727	5333
380.809	6179
380.890	5002
380.972	4908
381.053	5210
381.135	6005
381.217	6221
381.298	8264
381.380	6613
381.461	7631
381.543	12796
381.624	14527
381.706	6986
381.787	6281
381.869	7575
381.951	12209
382.032	25800
382.113	18929
382.195	5708
382.276	8585
382.358	9133
382.439	13636
382.521	18436
382.602	24558
382.684	17271
382.765	23589
382.846	48911
382.928	92331
383.009	53477
383.090	49048
383.172	152010
383.253	187472
383.334	58812
383.416	29612
383.497	22219
383.578	22467
383.659	42626
383.741	145821
383.822	284707
383.903	137788
383.984	35661
384.066	27051
384.147	18526
384.228	13146
384.309	13861
384.390	13629
384.471	12123
384.553	10881
384.634	10501
384.715	10166
384.796	9132
384.877	9085
384.958	11789
385.039	10639
385.120	9102
385.201	9360
385.282	10029
385.363	10991
385.444	10942
385.525	12914
385.606	15982
385.687	15524
385.768	10830
385.849	11368
385.930	21528
386.011	27893
386.092	14158
386.173	12153
386.254	10579
386.335	11390
386.416	9730
386.496	10827
386.577	12349
386.658	10318
386.739	10219
386.820	12707
386.901	10851
386.981	14293
387.062	15916
387.143	15825
387.224	18174
387.304	20501
387.385	19283
387.466	16834
387.547	19538
387.627	19404
387.708	21206
387.789	24513
387.869	22242
387.950	18761
388.031	15048
388.111	11704
388.192	15573
388.273	16120
388.353	14165
388.434	9858
388.514	10510
388.595	17314
388.676	16051
388.756	11286
388.837	10617
388.917	10044
388.998	7025
389.078	8413
389.159	7824
389.239	6790
389.320	10585
389.400	6491
389.480	9188
389.561	10211
389.641	10618
389.722	7867
389.802	7707
389.883	10398
389.963	12352
390.043	10298
390.124	7277
390.204	8703
390.284	10250
390.365	8931
390.445	13857
390.525	26168
390.605	24013
390.686	9975
390.766	9927
390.846	10506
390.927	8682
391.007	8125
391.087	9918
391.167	9901
391.247	8476
391.328	11024
391.408	10981
391.488	11301
391.568	9426
391.648	10860
391.728	11711
391.808	13999
391.888	13203
391.969	15545
392.049	16000
392.129	17846
392.209	17818
392.289	23048
392.369	22222
392.449	24304
392.529	25569
392.609	29431
392.689	33787
392.769	40848
392.849	49542
392.929	65059
393.009	88853
393.089	130204
393.169	234464
393.248	470931
393.328	738844
393.408	706139
393.488	429428
393.568	210295
393.648	117755
393.728	76516
393.807	53825
393.887	42761
393.967	34955
394.047	29188
394.127	26350
394.206	26750
394.286	48987
394.366	147945
394.446	144027
394.525	38465
394.605	19341
394.685	17228
394.764	20295
394.844	34800
394.924	41095
395.003	20316
395.083	13942
395.163	12983
395.242	13229
395.322	13279
395.402	11314
395.481	15984
395.561	20124
395.640	53058
395.720	91305
395.799	53915
395.879	26743
395.958	23891
396.038	60003
396.117	188303
396.197	188999
396.276	61188
396.356	37910
396.435	42777
396.515	57228
396.594	87331
396.673	180103
396.753	416313
396.832	663454
396.912	518870
396.991	225929
397.070	103029
397.150	60445
397.229	51351
397.308	84305
397.388	131366
397.467	68929
397.546	27199
397.625	17559
397.705	17760
397.784	15142
397.863	13124
397.942	13304
398.022	11731
398.101	11809
398.180	16720
398.259	11670
398.338	10169
398.417	8420
398.497	7855
398.576	8841
398.655	7203
398.734	7980
398.813	7969
398.892	10611
398.971	15656
399.050	9448
399.129	6095
399.208	6334
399.287	6520
399.366	5951
399.445	5765
399.524	6135
399.603	4125
399.682	6312
399.761	8303
399.840	15459
399.919	12078
399.998	5467
400.077	4442
400.156	3902
400.235	6983
400.313	4202
400.392	3959
400.471	5961
400.550	6870
400.629	4824
400.708	5480
400.786	4059
400.865	5054
400.944	4654
401.023	6340
401.102	3846
401.180	3997
401.259	4429
401.338	4332
401.416	3881
401.495	3654
401.574	5500
401.652	3458
401.731	4756
401.810	3009
401.888	3620
401.967	2618
402.046	4066
402.124	4965
402.203	3814
402.281	4500
402.360	3939
402.438	6151
402.517	3425
402.596	3942
402.674	3732
402.753	3421
402.831	4210
402.910	4673
402.988	5207
403.066	7848
403.145	7106
403.223	5991
403.302	8148
403.380	7649
403.459	7222
403.537	5169
403.615	4490
403.694	3734
403.772	6495
403.850	6007
403.929	4474
404.007	3532
404.085	5680
404.164	4517
404.242	4203
404.320	7503
404.398	13607
404.477	12152
404.555	16338
404.633	14177
404.711	10562
404.789	8056
404.868	4081
404.946	3256
405.024	4172
405.102	3095
405.180	3189
405.258	1827
405.336	3533
405.415	3018
405.493	3876
405.571	3897
405.649	3516
405.727	3077
405.805	5579
405.883	5129
405.961	5213
406.039	3317
406.117	2808
406.195	4573
406.273	4151
406.351	10188
406.429	7292
406.507	3000
406.585	3100
406.663	3826
406.740	3104
406.818	3206
406.896	2387
406.974	3657
407.052	2188
407.130	7143
407.208	8653
407.285	4294
407.363	2936
407.441	3215
407.519	2866
407.596	5447
407.674	16398
407.752	52172
407.830	37279
407.907	7788
407.985	3754
408.063	3412
408.141	2541
408.218	3959
408.296	3032
408.373	3806
408.451	4892
408.529	4444
408.606	4431
408.684	4489
408.762	4900
408.839	5308
408.917	5990
408.994	6568
409.072	7813
409.149	10280
409.227	16326
409.304	23997
409.382	27113
409.459	30636
409.537	38784
409.614	35348
409.692	27814
409.769	29915
409.846	40275
409.924	46599
410.001	35790
410.079	25925
410.156	19313
410.233	14488
410.311	11223
410.388	10181
410.465	9386
410.543	8407
410.620	8527
410.697	8656
410.775	7473
410.852	7748
410.929	9048
411.006	9118
411.083	7485
411.161	8306
411.238	8119
411.315	6587
411.392	6242
411.469	6673
411.547	5903
411.624	3913
411.701	4737
411.778	5304
411.855	4542
411.932	3948
412.009	4432
412.086	4420
412.163	3806
412.240	4218
412.317	4140
412.394	3010
412.471	4214
412.548	4255
412.625	3786
412.702	3851
412.779	3633
412.856	3676
412.933	2181
413.010	3660
413.087	3680
413.164	3798
413.241	4122
413.318	2833
413.395	3898
413.471	3303
413.548	3383
413.625	3871
413.702	2722
413.779	2892
413.855	3282
413.932	2874
414.009	2128
414.086	2594
414.162	2858
414.239	3597
414.316	4470
414.393	5681
414.469	1868
414.546	2626
414.623	3294
414.699	2393
414.776	3128
414.853	2125
414.929	3146
415.006	2185
415.082	2876
415.159	2931
415.236	2764
415.312	3833
415.389	3689
415.465	2185
415.542	2739
415.618	1492
415.695	2620
415.771	2504
415.848	2620
415.924	2685
416.000	2382
416.077	3677
416.153	1715
416.230	1572
416.306	1985
416.383	2635
416.459	3140
416.535	1899
416.612	2303
416.688	1337
416.764	2361
416.841	2425
416.917	2809
416.993	3183
417.069	3388
417.146	2409
417.222	2300
417.298	2185
417.374	2369
417.451	2975
417.527	2430
417.603	2591
417.679	2964
417.755	2205
417.831	2338
417.908	2742
417.984	3026
418.060	1554
418.136	3498
418.212	2092
418.288	3034
418.364	3647
418.440	1976
418.516	3528
418.592	3708
418.668	3126
418.744	2927
418.820	3782
418.896	3369
418.972	3031
419.048	2928
419.124	4151
419.200	2489
419.276	3562
419.352	2827
419.428	3835
419.504	3301
419.579	3434
419.655	3783
419.731	3570
419.807	4514
419.883	4078
419.959	4378
420.034	5423
420.110	4840
420.186	5596
420.262	6855
420.337	5124
420.413	6303
420.489	6480
420.565	7369
420.640	6904
420.716	8054
420.792	7390
420.867	9250
420.943	8842
421.019	9802
421.094	9232
421.170	11119
421.245	10987
421.321	12788
421.397	13515
421.472	24746
421.548	42921
421.623	32316
421.699	22261
421.774	24456
421.850	26286
421.925	31258
422.001	37978
422.076	45667
422.152	58195
422.227	75159
422.302	102187
422.378	143686
422.453	208331
422.529	277586
422.604	267222
422.679	201498
422.755	257210
422.830	275985
422.905	207587
422.981	151178
423.056	108964
423.131	81337
423.207	63545
423.282	51263
423.357	42129
423.432	34269
423.508	31072
423.583	25471
423.658	23578
423.733	20859
423.808	18843
423.883	19273
423.959	20250
424.034	22621
424.109	20504
424.184	14863
424.259	13650
424.334	11249
424.409	9422
424.484	8561
424.559	9199
424.634	8086
424.709	7689
424.784	7122
424.859	6687
424.934	5471
425.009	7180
425.084	7134
425.159	4943
425.234	6170
425.309	4691
425.384	6353
425.459	5440
425.534	4707
425.609	3853
425.683	4398
425.758	4831
425.833	4201
425.908	5353
425.983	4115
426.058	6287
426.132	4675
426.207	3800
426.282	4566
426.357	3192
426.431	3811
426.506	4165
426.581	3162
426.655	3888
426.730	2995
426.805	2968
426.879	3402
426.954	2741
427.029	4406
427.103	5446
427.178	6692
427.253	4980
427.327	2924
427.402	2372
427.476	4370
427.551	3009
427.625	3986
427.700	3484
427.774	2932
427.849	3799
427.923	3145
427.998	4727
428.072	6209
428.147	13381
428.221	57894
428.296	141917
428.370	78996
428.444	14516
428.519	6264
428.593	5736
428.667	6674
428.742	8890
428.816	23727
428.890	94220
428.965	127950
429.039	36622
429.113	8564
429.188	4855
429.262	4374
429.336	4570
429.410	4933
429.485	4125
429.559	5387
429.633	5753
429.707	6418
429.781	22016
429.855	88687
429.930	114690
430.004	36677
430.078	27314
430.152	72903
430.226	192894
430.300	177112
430.374	46172
430.448	16311
430.522	11752
430.596	17622
430.670	36405
430.744	113420
430.818	112599
430.892	24978
430.966	6556
431.040	4680
431.114	3235
431.188	2755
431.262	2954
431.336	2911
431.410	4021
431.484	3452
431.557	4096
431.631	4351
431.705	10665
431.779	47283
431.853	136697
431.927	89666
432.000	15989
432.074	4619
432.148	2756
432.222	1572
432.295	2144
432.369	1076
432.443	1157
432.516	3845
432.590	6552
432.664	3505
432.737	1189
432.811	657
432.885	1476
432.958	952
433.032	254
433.106	116
433.179	1115
433.253	1184
433.326	1123
433.400	1469
433.473	974
433.547	1229
433.620	726
433.694	978
433.767	2096
433.841	901
433.914	1045
433.988	1646
434.061	1725
434.134	2419
434.208	2114
434.281	1112
434.355	1362
434.428	1189
434.501	967
434.575	845
434.648	2041
434.721	1488
434.795	2019
434.868	1116
434.941	1551
435.014	1902
435.088	2112
435.161	3726
435.234	3461
435.307	4970
435.381	5911
435.454	10625
435.527	18245
435.600	19128
435.673	17196
435.746	13178
435.819	8732
435.892	7787
435.966	5171
436.039	3761
436.112	4677
436.185	3105
436.258	1922
436.331	2357
436.404	1864
436.477	1777
436.550	1601
436.623	2503
436.696	1868
436.769	1273
436.842	1585
436.915	1728
436.987	1145
437.060	1568
437.133	1169
437.206	587
437.279	1653
437.352	1541
437.425	524
437.498	825
437.570	1231
437.643	1113
437.716	292
437.789	826
437.861	501
437.934	1050
438.007	551
438.080	561
438.152	1118
438.225	1761
438.298	4901
438.370	11546
438.443	5100
438.516	1982
438.588	756
438.661	583
438.734	737
438.806	708
438.879	1663
438.951	628
439.024	863
439.096	864
439.169	852
439.241	51
439.314	315
439.386	1259
439.459	1590
439.531	1694
439.604	765
439.676	1512
439.749	704
439.821	814
439.893	1510
439.966	1350
440.038	423
440.110	439
440.183	448
440.255	739
440.327	2423
440.400	2452
440.472	5598
440.544	3051
440.617	1347
440.689	2035
440.761	1634
440.833	1370
440.905	1863
440.978	863
441.050	1821
441.122	2047
441.194	1228
441.266	1618
441.338	794
441.411	1725
441.483	3210
441.555	2562
441.627	2587
441.699	2677
441.771	2930
441.843	2054
441.915	2230
441.987	2660
442.059	2927
442.131	4054
442.203	5629
442.275	7257
442.347	12441
442.419	32369
442.491	125414
442.563	215279
442.635	92093
442.706	22378
442.778	11279
442.850	7427
442.922	6453
442.994	6333
443.066	7750
443.137	9046
443.209	13628
443.281	21403
443.353	49528
443.425	146785
443.496	322357
443.568	318398
443.640	143375
443.711	40120
443.783	18269
443.855	10718
443.926	7843
443.998	5754
444.070	5031
444.141	4382
444.213	3786
444.285	4510
444.356	3682
444.428	3918
444.499	3911
444.571	3418
444.642	4045
444.714	3519
444.785	4819
444.857	5867
444.928	7452
445.000	8189
445.071	10980
445.143	13656
445.214	21134
445.285	37619
445.357	92391
445.428	242257
445.500	359697
445.571	309525
445.642	206725
445.714	79143
445.785	29050
445.856	14063
445.928	9482
445.999	7538
446.070	5397
446.141	4798
446.213	4015
446.284	3160
446.355	3387
446.426	3062
446.497	1893
446.569	1854
446.640	1507
446.711	2242
446.782	1457
446.853	1749
446.924	1883
446.995	1375
447.066	1268
447.138	1280
447.209	1596
447.280	344
447.351	783
447.422	228
447.493	1353
447.564	518
447.635	392
447.706	550
447.777	397
447.847	1237
447.918	17
447.989	1015
448.060	551
448.131	845
448.202	1085
448.273	785
448.344	959
448.414	998
448.485	1053
448.556	874
448.627	821
448.698	1617
448.768	665
448.839	152
448.910	841
448.981	1214
449.051	-207
449.122	441
449.193	196
449.263	591
449.334	415
449.405	261
449.475	619
449.546	1380
449.616	2388
449.687	1604
449.758	548
449.828	840
449.899	122
449.969	153
450.040	-436
450.110	359
450.181	163
450.251	-668
450.322	625
450.392	529
450.463	752
450.533	-29
450.604	505
450.674	86
450.744	760
450.815	1424
450.885	2186
450.955	2583
451.026	2214
451.096	1371
451.166	967
451.237	2757
451.307	4812
451.377	2922
451.447	1260
451.518	781
451.588	934
451.658	1051
451.728	1268
451.799	2066
451.869	2154
451.939	42
452.009	566
452.079	384
452.149	1440
452.219	1232
452.289	2269
452.360	2227
452.430	2280
452.500	3215
452.570	6448
452.640	16741
452.710	37920
452.780	41361
452.850	21869
452.920	9745
452.990	6247
453.060	3485
453.129	2016
453.199	1513
453.269	4645
453.339	5783
453.409	6947
453.479	6766
453.549	9750
453.619	8974
453.688	3082
453.758	1228
453.828	521
453.898	555
453.968	396
454.037	-20
454.087	494
454.107	692
454.168	268
454.177	187
454.247	194
454.249	221
454.316	570
454.330	523
454.386	234
454.411	402
454.456	604
454.492	679
454.525	749
454.574	219
454.595	-40
454.655	75
454.665	85
454.734	857
454.736	895
454.804	1473
454.817	1579
454.873	1848
454.898	2021
454.943	2365
454.979	1745
455.013	1184
455.060	677
455.082	397
455.141	592
455.152	657
455.221	2548
455.222	2588
455.291	3076
455.303	3703
455.360	6093
455.384	8156
455.430	11228
455.465	7911
455.499	5006
455.546	2842
455.569	1827
455.627	1768
455.638	1759
455.707	456
455.708	475
455.777	1006
455.789	1093
455.846	1499
455.869	1448
455.916	1200
455.950	812
455.985	427
456.031	900
456.054	1120
456.112	1273
456.124	1316
456.193	1169
456.193	1149
456.262	1387
456.274	1439
456.332	1629
456.355	1528
456.401	1256
456.436	1365
456.470	1512
456.516	1744
456.540	1799
456.597	1657
456.609	1621
456.678	1851
456.678	1835
456.747	1616
456.759	1588
456.817	1853
456.840	1983
456.886	1912
456.920	2432
456.955	2965
457.001	2742
457.024	2531
457.082	1959
457.093	1889
457.162	2422
457.163	2440
457.232	2446
457.243	2533
457.301	2668
457.324	2678
457.370	2853
457.405	3277
457.439	3690
457.485	3898
457.508	4106
457.566	5340
457.577	5965
457.646	10043
457.647	10144
457.715	24264
457.727	27494
457.784	44477
457.808	58480
457.853	74499
457.889	84071
457.922	86180
457.969	61543
457.991	60100
458.050	69482
458.060	71118
458.129	120366
458.130	121713
458.198	119857
458.211	106961
458.267	61594
458.292	44515
458.336	29962
458.372	29380
458.405	39429
458.453	59324
458.474	70309
458.533	117254
458.543	120184
458.611	179740
458.614	180082
458.680	115518
458.694	92879
458.749	42802
458.775	30821
458.818	17742
458.855	13584
458.887	10873
458.936	8948
458.955	8306
459.016	6842
459.024	6729
459.093	5744
459.097	5727
459.162	4579
459.177	4446
459.230	4713
459.257	4953
459.299	4734
459.338	4128
459.368	3994
459.418	4169
459.437	4148
459.499	4352
459.505	4352
459.574	4163
459.579	4166
459.643	4048
459.659	4079
459.711	4448
459.740	4364
459.780	4199
459.820	4511
459.849	4603
459.900	4668
459.917	4665
459.981	4287
459.986	4249
460.054	3577
460.061	3625
460.123	4029
460.141	4004
460.191	4452
460.222	4554
460.260	4141
460.302	4102
460.328	4352
460.382	4853
460.397	5081
460.462	5531
460.465	5769
460.534	12058
460.543	12902
460.602	27291
460.623	33147
460.671	48753
460.703	64040
460.739	55670
460.783	37455
460.808	32668
460.864	10630
460.876	8159
460.944	4937
460.945	4896
461.013	4023
461.024	3852
461.081	3892
461.104	4236
461.150	4155
461.184	3788
461.218	4015
461.264	4455
461.286	4333
461.345	3929
461.355	3923
461.423	4149
461.425	4139
461.491	3742
461.505	3854
461.559	4304
461.585	4278
461.628	4628
461.665	5409
461.696	5626
461.745	5479
461.764	5166
461.825	3992
461.832	4014
461.901	4335
461.905	4364
461.969	4115
461.985	4069
462.037	4800
462.065	5249
462.105	4634
462.145	3732
462.173	3974
462.225	4567
462.241	4640
462.305	5443
462.310	5425
462.378	4777
462.385	4671
462.446	4277
462.465	4195
462.514	4253
462.545	4321
462.582	4345
462.625	4519
462.650	4548
462.705	4289
462.718	4166
462.785	3747
462.786	3763
462.854	4296
462.865	4440
462.922	4413
462.945	4403
462.990	4555
463.025	4570
463.058	4686
463.104	4853
463.126	4664
463.184	4258
463.194	4320
463.262	4412
463.264	4424
463.330	4947
463.344	4998
463.398	4800
463.424	4702
463.466	4211
463.504	4066
463.533	4499
463.583	4767
463.601	4665
463.663	4295
463.669	4297
463.737	4671
463.743	4664
463.805	5083
463.823	5255
463.873	5509
463.903	5763
463.940	5974
463.982	6017
464.008	5680
464.062	4940
464.076	5022
464.142	5319
464.144	5312
464.211	4874
464.221	4791
464.279	4625
464.301	4526
464.347	4500
464.381	4620
464.414	4629
464.461	4669
464.482	4841
464.540	5012
464.550	4967
464.617	4669
464.620	4654
464.685	5347
464.699	5513
464.753	5691
464.779	5733
464.820	5604
464.859	5459
464.888	5398
464.938	5269
464.956	5607
465.018	6917
465.023	6846
465.091	5462
465.098	5341
465.158	5580
465.177	5623
465.226	5431
465.257	5277
465.293	5471
465.336	5624
465.361	5746
465.416	6193
465.428	6166
465.495	5735
465.496	5753
465.563	7015
465.575	7250
465.631	7463
465.654	7502
465.698	6739
465.734	6000
465.765	5711
465.813	5288
465.833	5410
465.893	5819
465.900	5749
465.968	4959
465.972	4904
466.035	6268
466.052	6588
466.102	6147
466.131	5898
466.170	5712
466.210	5482
466.237	5753
466.290	6286
466.304	6357
466.369	6617
466.372	6601
466.439	5758
466.449	5626
466.506	6194
466.528	6403
466.573	6719
466.607	6917
466.641	7524
466.687	8376
466.708	8661
466.766	9390
466.775	9075
466.842	6561
466.845	6432
466.909	6377
466.925	6347
466.977	6966
467.004	7291
467.044	6918
467.083	6527
467.111	6781
467.163	7209
467.178	7297
467.242	7612
467.245	7637
467.312	7880
467.321	7899
467.379	7943
467.400	7937
467.446	8353
467.480	8629
467.559	8561
467.638	7704
467.717	7748
467.796	8764
467.875	8145
467.955	8816
468.034	12227
468.113	14325
468.192	18022
468.271	18928
468.350	25755
468.429	34394
468.508	34018
468.588	21283
468.667	14548
468.746	11357
468.825	10512
468.904	9017
468.983	9359
469.062	8624
469.141	9343
469.220	7617
469.299	8122
469.378	7411
469.456	9019
469.535	7806
469.614	7121
469.693	7909
469.772	8115
469.851	8739
469.930	8082
470.009	7950
470.088	8382
470.166	9455
470.245	11656
470.324	12495
470.403	9254
470.482	9274
470.560	7957
470.639	8018
470.718	7638
470.797	6659
470.875	6902
470.954	7497
471.033	7526
471.111	5917
471.190	6932
471.269	7179
471.347	6532
471.426	8003
471.505	7753
471.583	7315
471.662	7821
471.740	6788
471.819	6769
471.898	7194
471.976	7264
472.055	6518
472.133	8313
472.212	9369
472.290	7658
472.369	6719
472.447	7010
472.526	7007
472.604	7306
472.683	7286
472.761	7057
472.839	6612
472.918	7035
472.996	6890
473.075	7185
473.153	8320
473.231	7536
473.310	7734
473.388	7694
473.466	8558
473.545	7752
473.623	7864
473.701	7772
473.780	7992
473.858	6241
473.936	9880
474.014	7522
474.093	8633
474.171	9849
474.249	8872
474.327	8349
474.405	7593
474.484	7542
474.562	7503
474.640	6719
474.718	7840
474.796	5821
474.874	8362
474.952	7370
475.030	7462
475.108	8040
475.187	7397
475.265	7554
475.343	7141
475.421	8106
475.499	7593
475.577	7169
475.655	7867
475.733	8090
475.811	9989
475.889	8583
475.966	7663
476.044	7466
476.122	7507
476.200	7346
476.278	6321
476.356	6316
476.434	6507
476.512	6662
476.590	7618
476.667	7060
476.745	7082
476.823	7884
476.901	7502
476.979	5572
477.056	6976
477.134	6063
477.212	6486
477.290	6220
477.367	7312
477.445	6725
477.523	6093
477.601	5842
477.678	5536
477.756	6815
477.834	7299
477.911	6727
477.989	6860
478.066	7691
478.144	7144
478.222	6919
478.299	7089
478.377	8061
478.454	7231
478.532	6556
478.609	6911
478.687	6692
478.764	6235
478.842	5841
478.919	5841
478.997	6648
479.074	6914
479.152	6727
479.229	7174
479.307	6166
479.384	7258
479.461	6454
479.539	6888
479.616	6687
479.694	6848
479.771	6396
479.848	6316
479.926	5953
480.003	7911
480.080	6161
480.157	7237
480.235	7441
480.312	7073
480.389	7189
480.467	8154
480.544	7906
480.621	8466
480.698	9169
480.775	8762
480.853	9018
480.930	7731
481.007	7876
481.084	10024
481.161	12620
481.238	9883
481.315	7233
481.392	7661
481.470	8580
481.547	7906
481.624	7637
481.701	8454
481.778	8165
481.855	8675
481.932	9210
482.009	11545
482.086	11092
482.163	12444
482.240	14279
482.317	14252
482.393	11309
482.470	11165
482.547	11134
482.624	9901
482.701	9414
482.778	9623
482.855	9641
482.932	9956
483.009	10133
483.085	13850
483.162	16269
483.239	15762
483.316	13712
483.393	14029
483.469	11783
483.546	10491
483.623	10438
483.699	9037
483.776	9105
483.853	8535
483.930	8962
484.006	11261
484.083	14193
484.160	11975
484.236	16024
484.313	14025
484.389	13017
484.466	14990
484.543	16870
484.619	22221
484.696	21990
484.772	14964
484.849	12685
484.925	11456
485.002	11072
485.078	10373
485.155	10307
485.231	9978
485.308	10263
485.384	9861
485.461	10872
485.537	10440
485.614	10783
485.690	9487
485.766	8874
485.843	9794
485.919	9501
485.995	9477
486.072	8346
486.148	8411
486.224	8995
486.301	9629
486.377	8812
486.453	8007
486.530	10178
486.606	11935
486.682	11546
486.758	12635
486.835	12023
486.911	11855
486.987	14930
487.063	15497
487.139	16872
487.215	20056
487.292	21018
487.368	22334
487.444	26234
487.520	37992
487.596	63348
487.672	168568
487.748	434746
487.824	581551
487.900	188314
487.976	58562
488.052	31969
488.128	22677
488.204	17269
488.280	15020
488.356	14587
488.432	15640
488.508	14704
488.584	11506
488.660	10267
488.736	9757
488.812	9449
488.888	10487
488.964	9575
489.039	9639
489.115	12150
489.191	10453
489.267	9952
489.343	9307
489.418	8148
489.494	8626
489.570	7970
489.646	8551
489.722	8672
489.797	8508
489.873	11005
489.949	12198
490.024	10084
490.100	8892
490.176	9374
490.251	9186
490.327	9261
490.403	7368
490.478	8413
490.554	8525
490.629	8616
490.705	8189
490.781	8149
490.856	7779
490.932	7557
491.007	7546
491.083	7097
491.158	6671
491.234	8563
491.309	10468
491.385	9032
491.460	6799
491.536	7578
491.611	6961
491.686	7532
491.762	7566
491.837	8424
491.913	8887
491.988	9269
492.063	8459
492.139	7921
492.214	7829
492.289	7642
492.365	5993
492.440	6940
492.515	6874
492.590	6522
492.666	6738
492.741	7686
492.816	7191
492.891	6865
492.967	7334
493.042	6449
493.117	6629
493.192	8260
493.267	11932
493.342	26979
493.418	30571
493.493	7341
493.568	7194
493.643	5853
493.718	6484
493.793	7018
493.868	5575
493.943	7427
494.018	6201
494.093	6035
494.168	6251
494.243	5469
494.318	6485
494.393	6012
494.468	5702
494.543	7129
494.618	6155
494.693	5584
494.768	6985
494.842	4718
494.917	7442
494.992	5426
495.067	5600
495.142	6515
495.217	6816
495.292	7536
495.366	6598
495.441	5624
495.516	6015
495.591	6675
495.665	9158
495.740	11540
495.815	8541
495.890	6758
495.964	4955
496.039	8709
496.114	8358
496.188	12432
496.263	9276
496.338	6054
496.412	6213
496.487	6813
496.561	5851
496.636	5613
496.710	6873
496.785	7049
496.860	7479
496.934	5990
497.009	6732
497.083	6602
497.158	5788
497.232	6725
497.307	6567
497.381	6683
497.455	6869
497.530	6804
497.604	7046
497.679	6478
497.753	8003
497.827	7099
497.902	7128
497.976	8926
498.050	18798
498.125	45145
498.199	38320
498.273	8468
498.348	7857
498.422	6878
498.496	7025
498.570	7761
498.645	6776
498.719	5683
498.793	6705
498.867	8187
498.941	9464
499.016	23383
499.090	43121
499.164	15533
499.238	6722
499.312	7659
499.386	6592
499.460	8047
499.534	7331
499.609	8055
499.683	7306
499.757	8099
499.831	13901
499.905	29916
499.979	24429
500.053	8412
500.127	7550
500.201	6552
500.275	6241
500.349	7356
500.422	6387
500.496	7363
500.570	10076
500.644	19736
500.718	28007
500.792	9543
500.866	6620
500.940	7578
501.013	7302
501.087	6863
501.161	7791
501.235	6443
501.309	15220
501.382	27424
501.456	19709
501.530	8756
501.603	9821
501.677	6935
501.751	5813
501.825	8569
501.898	8330
501.972	12228
502.046	9152
502.119	6344
502.193	9213
502.266	11719
502.340	7747
502.413	8485
502.487	11437
502.561	8141
502.634	7022
502.708	6321
502.781	6184
502.855	7313
502.928	6216
503.002	7023
503.075	6583
503.149	5846
503.222	6962
503.295	6940
503.369	8022
503.442	9070
503.516	14634
503.589	22859
503.662	18474
503.736	16992
503.809	26048
503.882	28427
503.956	49086
504.029	106568
504.102	262385
504.175	328014
504.249	125892
504.322	48648
504.395	26640
504.468	17145
504.542	12880
504.615	10545
504.688	8665
504.761	6758
504.834	9124
504.907	7673
504.980	6779
505.053	6130
505.127	4211
505.200	8761
505.273	5705
505.346	5366
505.419	5344
505.492	7525
505.565	5231
505.638	5626
505.711	4331
505.784	3890
505.857	4969
505.930	6655
506.003	4101
506.076	6611
506.149	4391
506.221	3497
506.294	6619
506.367	7510
506.440	12922
506.513	8344
506.586	4798
506.659	4136
506.731	4195
506.804	3810
506.877	3434
506.950	4035
507.022	5292
507.095	4230
507.168	4890
507.241	5678
507.313	3619
507.386	2471
507.459	4890
507.531	3824
507.604	3630
507.677	5286
507.749	3189
507.822	5730
507.894	5191
507.967	7045
508.040	5158
508.112	6139
508.185	5711
508.257	3690
508.330	6570
508.402	3968
508.475	3745
508.547	5472
508.620	4461
508.692	6004
508.765	5204
508.837	4502
508.909	4184
508.982	4643
509.054	5277
509.127	4377
509.199	3604
509.271	2872
509.344	4328
509.416	4006
509.488	4442
509.560	4974
509.633	3957
509.705	3232
509.777	4731
509.849	5204
509.922	3602
509.994	3939
510.066	5468
510.138	3504
510.210	8446
510.283	5981
510.355	5323
510.427	4677
510.499	5073
510.571	4653
510.643	3954
510.715	6293
510.787	3632
510.859	5941
510.931	4124
511.003	5256
511.076	5129
511.148	3928
511.219	4646
511.291	5062
511.363	5956
511.435	4659
511.507	4023
511.579	5632
511.651	5965
511.723	5500
511.795	4210
511.867	3827
511.939	4836
512.010	5067
512.082	5651
512.154	3086
512.226	5114
512.298	6554
512.369	6362
512.441	6409
512.513	5696
512.585	4324
512.656	5657
512.728	4056
512.800	5039
512.871	5839
512.943	4943
513.015	3939
513.086	5348
513.158	4382
513.230	4197
513.301	5017
513.373	5125
513.444	5476
513.516	5055
513.588	3863
513.659	4339
513.731	4426
513.802	4078
513.874	6479
513.945	5531
514.016	4277
514.088	5421
514.159	4348
514.231	4683
514.302	6116
514.374	5728
514.445	4458
514.516	8244
514.588	4874
514.659	5688
514.730	5223
514.802	6109
514.873	2961
514.944	7230
515.016	4713
515.087	4921
515.158	5160
515.229	7356
515.301	5313
515.372	6234
515.443	4510
515.514	5856
515.585	4457
515.656	6381
515.728	5931
515.799	4841
515.870	5833
515.941	6871
516.012	4993
516.083	7625
516.154	6008
516.225	7059
516.296	8855
516.367	7680
516.438	8767
516.509	8626
516.580	14842
516.651	53449
516.722	127566
516.793	43038
516.864	12870
516.935	11991
517.006	14134
517.077	19086
517.148	52855
517.219	210464
517.289	243581
517.360	38437
517.431	14394
517.502	9539
517.573	10616
517.643	8985
517.714	9841
517.785	10471
517.856	11416
517.926	14443
517.997	16592
518.068	18838
518.138	25656
518.209	45075
518.280	171408
518.350	438867
518.421	145017
518.492	38118
518.562	37526
518.633	52805
518.703	88410
518.774	213677
518.845	471193
518.915	366235
518.986	108796
519.056	47701
519.127	30937
519.197	25450
519.268	25128
519.338	18814
519.408	11799
519.479	10525
519.549	8575
519.620	10349
519.690	7251
519.760	8216
519.831	7040
519.901	6148
519.971	6924
520.042	6319
520.112	5777
520.182	7065
520.253	7016
520.323	5560
520.393	5764
520.463	8566
520.534	3889
520.604	9327
520.674	7418
520.744	5979
520.814	6701
520.885	8084
520.955	9141
521.025	18336
521.095	7793
521.165	6569
521.235	4772
521.305	4846
521.375	5647
521.445	6258
521.515	4710
521.585	7350
521.655	4369
521.725	6632
521.795	6379
521.865	3700
521.935	8171
522.005	5351
522.075	5211
522.145	7328
522.215	6024
522.285	7235
522.355	6164
522.424	8409
522.494	6298
522.564	5786
522.634	6561
522.704	9161
522.774	5044
522.843	6548
522.913	6220
522.983	6669
523.053	5796
523.122	7010
523.192	6545
523.262	5905
523.331	4827
523.401	6578
523.471	5715
523.540	6415
523.610	4937
523.680	7248
523.749	6811
523.819	7721
523.888	6300
523.958	7128
524.027	6535
524.097	6441
524.166	6834
524.236	4602
524.305	7924
524.375	5740
524.444	5419
524.514	8792
524.583	6136
524.653	5623
524.722	6846
524.791	5584
524.861	8605
524.930	6602
524.999	6588
525.069	8591
525.138	7627
525.207	9492
525.277	10068
525.346	10047
525.415	13114
525.484	13362
525.554	14552
525.623	20966
525.692	24522
525.761	26758
525.830	33971
525.900	43137
525.969	76159
526.038	148869
526.107	353830
526.176	796245
526.245	519798
526.314	188145
526.383	440372
526.452	518173
526.522	746304
526.591	529885
526.660	98985
526.729	61111
526.797	68579
526.867	116355
526.935	365500
527.004	982045
527.073	515437
527.142	85633
527.211	37822
527.280	26601
527.349	20161
527.418	15266
527.487	12995
527.555	10685
527.624	9881
527.693	8967
527.762	10421
527.831	6982
527.899	7999
527.968	7656
528.037	5701
528.106	8582
528.174	8200
528.243	7886
528.312	7430
528.380	7359
528.449	5463
528.518	8285
528.586	5816
528.655	8550
528.723	6589
528.792	6225
528.861	5362
528.929	6089
528.998	7212
529.066	7705
529.135	9059
529.203	7763
529.272	9808
529.340	12360
529.409	12176
529.477	9470
529.545	9785
529.614	13180
529.682	10568
529.751	12448
529.819	15616
529.887	15058
529.956	13425
530.024	14212
530.092	11691
530.161	12662
530.229	12828
530.297	12930
530.365	14388
530.434	13945
530.502	13465
530.570	13806
530.638	11150
530.707	13206
530.775	13685
530.843	11490
530.911	13553
530.979	13665
531.047	13261
531.115	14581
531.183	12504
531.252	13654
531.320	12042
531.388	12197
531.456	12837
531.524	13741
531.592	15577
531.660	16592
531.728	13598
531.796	13492
531.864	13216
531.932	14118
532.000	12879
532.067	14411
532.135	16511
532.203	17644
532.271	17461
532.339	17819
532.407	17345
532.475	17423
532.542	16169
532.610	16645
532.678	15885
532.746	22114
532.814	23139
532.881	18522
532.949	18211
533.017	16538
533.084	15274
533.152	14578
533.220	14419
533.287	14792
533.355	15256
533.423	16913
533.490	16333
533.558	16168
533.625	16365
533.693	14946
533.761	15386
533.828	15579
533.896	14925
533.963	18067
534.031	18110
534.098	22215
534.166	21632
534.233	21734
534.300	23242
534.368	22754
534.435	22217
534.503	23734
534.570	25838
534.637	28612
534.705	32005
534.772	42587
534.840	100170
534.907	397653
534.974	348123
535.041	49409
535.109	26300
535.176	20548
535.243	21650
535.310	20181
535.378	18935
535.445	19746
535.512	18787
535.579	18801
535.646	17629
535.714	19299
535.781	20541
535.848	20739
535.915	20071
535.982	19531
536.049	17254
536.116	19820
536.183	17067
536.250	17664
536.317	18114
536.384	19901
536.451	19380
536.518	19248
536.585	18477
536.652	20108
536.719	19411
536.786	16228
536.853	17593
536.920	18843
536.987	19648
537.053	16821
537.120	21899
537.187	21877
537.254	19036
537.321	19705
537.388	20762
537.454	18929
537.521	18819
537.588	18858
537.654	19860
537.721	20377
537.788	19992
537.855	19051
537.921	19808
537.988	18249
538.055	19040
538.121	15623
538.188	16809
538.254	16662
538.321	16913
538.388	18233
538.454	21508
538.521	21331
538.587	20752
538.654	19858
538.720	18843
538.787	19493
538.853	19341
538.920	18926
538.986	16276
539.053	16751
539.119	17461
539.185	17045
539.252	19308
539.318	19316
539.385	22895
539.451	19408
539.517	19347
539.583	19756
539.650	19212
539.716	20025
539.782	18250
539.849	17629
539.915	18540
539.981	17689
540.047	16409
540.114	17015
540.180	20180
540.246	19488
540.312	20937
540.378	19974
540.444	20191
540.510	20415
540.576	21325
540.643	18356
540.709	16557
540.775	18132
540.841	17486
540.907	18215
540.973	18705
541.039	18942
541.105	18176
541.171	19895
541.237	19810
541.303	19736
541.369	21623
541.435	18924
541.500	19392
541.566	16388
541.632	16945
541.698	18986
541.764	19812
541.830	18217
541.896	18265
541.961	18013
542.027	17979
542.093	19238
542.159	19790
542.224	17876
542.290	20698
542.356	18605
542.421	18403
542.487	18751
542.553	16853
542.618	18835
542.684	18094
542.750	18385
542.815	19582
542.881	19003
542.947	21866
543.012	19926
543.078	17587
543.143	16783
543.209	17626
543.274	17315
543.340	18605
543.405	19614
543.471	19274
543.536	18404
543.602	19185
543.667	17798
543.732	19868
543.798	17758
543.863	20291
543.928	19192
543.994	18734
544.059	19633
544.124	21307
544.190	21295
544.255	21357
544.320	21584
544.386	20779
544.451	22937
544.516	20896
544.581	21210
544.646	22062
544.712	24105
544.777	22408
544.842	21681
544.907	21135
544.972	22712
545.037	23439
545.102	23973
545.168	24104
545.233	24664
545.298	25047
545.363	24245
545.428	26790
545.493	27051
545.558	25951
545.623	25868
545.688	25350
545.753	27560
545.818	28138
545.883	30117
545.947	30562
546.012	31558
546.077	31821
546.142	35570
546.207	34506
546.272	36772
546.337	37276
546.401	39509
546.466	40832
546.531	43227
546.596	46944
546.661	47140
546.725	51418
546.790	53912
546.855	56876
546.919	63767
546.984	70652
547.049	76043
547.113	86617
547.178	96214
547.243	110132
547.307	129414
547.372	139876
547.436	139627
547.501	149216
547.565	155577
547.630	141574
547.695	137792
547.759	138704
547.823	140026
547.888	142420
547.952	147504
548.017	155019
548.081	160051
548.146	152355
548.210	160405
548.274	175484
548.339	164516
548.403	152738
548.468	144278
548.532	143298
548.596	146189
548.660	146899
548.725	163372
548.789	174050
548.853	165562
548.917	160948
548.982	153036
549.046	137605
549.110	125273
549.174	135065
549.238	155473
549.303	166460
549.367	171303
549.431	161243
549.495	151520
549.559	155331
549.623	183573
549.687	191869
549.751	193988
549.815	229857
549.879	225975
549.943	221808
550.007	231856
550.071	225459
550.135	199349
550.199	193291
550.263	187688
550.327	178498
550.391	187569
550.455	209011
550.519	217812
550.582	232309
550.646	259739
550.710	259993
550.774	256979
550.838	261264
550.901	270285
550.965	286634
551.029	301545
551.093	324575
551.156	356098
551.220	397592
551.284	414241
551.347	321258
551.411	280108
551.475	272910
551.538	278476
551.602	255711
551.666	244474
551.729	228697
551.793	226309
551.856	220221
551.920	217719
551.983	216754
552.047	212887
552.110	215615
552.174	221159
552.237	219473
552.301	202731
552.364	195355
552.428	192730
552.491	200010
552.554	199755
552.618	201161
552.681	201609
552.745	196524
552.808	208403
552.871	216553
552.934	207725
552.998	200381
553.061	197013
553.124	187509
553.187	191691
553.251	194425
553.314	195587
553.377	197929
553.440	216015
553.503	235196
553.567	235032
553.630	211970
553.693	208467
553.756	208758
553.819	203018
553.882	194255
553.945	195583
554.008	196935
554.071	200414
554.134	199159
554.197	186241
554.260	182316
554.323	186840
554.386	191600
554.449	198917
554.512	198248
554.575	190351
554.638	189748
554.701	185351
554.764	181724
554.827	177787
554.889	170349
554.952	160798
555.015	159281
555.078	162232
555.141	164636
555.203	158913
555.266	159862
555.329	156632
555.391	151275
555.454	149870
555.517	145520
555.580	141541
555.642	135722
555.705	134580
555.768	132773
555.830	127550
555.893	121362
555.955	119056
556.018	117639
556.080	119474
556.143	123809
556.206	121238
556.268	116338
556.330	113717
556.393	110768
556.455	106934
556.518	107204
556.580	102865
556.643	99118
556.705	98111
556.767	95528
556.830	95031
556.892	93432
556.955	91947
557.017	89294
557.079	90189
557.142	87474
557.204	87271
557.266	85584
557.328	79640
557.391	75515
557.453	74815
557.515	73981
557.577	74642
557.639	75266
557.701	75725
557.764	76030
557.826	76811
557.888	79077
557.950	79992
558.012	90676
558.074	128920
558.136	302453
558.198	520470
558.260	162495
558.322	85056
558.384	83539
558.446	86456
558.508	92215
558.570	102574
558.632	116297
558.694	154871
558.756	285454
558.818	774414
558.880	1154458
558.942	536254
559.003	573037
559.065	229921
559.127	109240
559.189	103244
559.251	116470
559.312	181447
559.374	458361
559.436	969680
559.498	400447
559.559	124299
559.621	102323
559.683	122350
559.744	222167
559.806	643658
559.868	660211
559.929	158336
559.991	122551
560.052	235545
560.114	542612
560.176	287642
560.237	369574
560.299	423439
560.360	87847
560.422	48063
560.483	40946
560.545	38388
560.606	37195
560.667	35790
560.729	33435
560.790	31879
560.852	30440
560.913	30953
560.974	29553
561.036	29072
561.097	29556
561.158	28460
561.220	28759
561.281	26436
561.342	26607
561.403	26739
561.465	26494
561.526	26652
561.587	25799
561.648	24438
561.709	23991
561.771	23512
561.832	22501
561.893	22988
561.954	23488
562.015	23149
562.076	22701
562.137	22105
562.198	22102
562.259	22465
562.320	21854
562.381	23143
562.442	21481
562.503	21062
562.564	20851
562.625	20463
562.686	20681
562.747	20829
562.808	20430
562.869	20702
562.930	20250
562.991	19919
563.051	19315
563.112	19310
563.173	19039
563.234	18540
563.294	19168
563.355	17791
563.416	18213
563.477	18310
563.537	17811
563.598	18533
563.659	18263
563.720	17706
563.780	18108
563.841	18039
563.901	19308
563.962	17729
564.023	16977
564.083	17379
564.144	17405
564.204	17662
564.265	16743
564.325	17618
564.386	18719
564.446	17185
564.507	16698
564.567	16606
564.628	16642
564.688	16781
564.749	16321
564.809	17183
564.869	16676
564.930	16993
564.990	16551
565.050	16660
565.111	16817
565.171	16611
565.231	15540
565.292	16830
565.352	15360
565.412	16992
565.472	15978
565.532	16470
565.593	16652
565.653	16086
565.713	15233
565.773	16623
565.833	16032
565.893	16692
565.953	15051
566.013	14608
566.074	14877
566.134	15104
566.194	15713
566.254	15341
566.314	14560
566.374	14781
566.434	14944
566.494	14919
566.554	14646
566.614	15898
566.673	15061
566.733	15607
566.793	16306
566.853	16045
566.913	15052
566.973	15177
567.033	16701
567.092	14912
567.152	15884
567.212	15582
567.272	16316
567.331	16347
567.391	17499
567.451	18472
567.511	17731
567.570	16997
567.630	16860
567.690	15867
567.749	15555
567.809	16090
567.868	16699
567.928	15921
567.988	17352
568.047	16926
568.107	16160
568.166	18113
568.226	18485
568.285	18532
568.345	17086
568.404	17333
568.464	16493
568.523	16638
568.582	16732
568.642	17294
568.701	16697
568.761	17829
568.820	19064
568.879	19099
568.939	18614
568.998	18001
569.057	16624
569.116	16209
569.176	16410
569.235	16043
569.294	15752
569.353	15466
569.413	15833
569.472	14712
569.531	14415
569.590	14287
569.649	14933
569.708	15271
569.767	15585
569.827	14691
569.886	14221
569.945	14852
570.004	15737
570.063	15182
570.122	15076
570.181	15541
570.240	16161
570.299	16322
570.358	16107
570.417	15650
570.475	15823
570.534	16690
570.593	16701
570.652	16443
570.711	15070
570.770	16149
570.829	15817
570.887	15923
570.946	16795
571.005	15599
571.064	16702
571.122	16671
571.181	16326
571.240	15300
571.299	15406
571.357	13674
571.416	16292
571.475	15831
571.533	16133
571.592	17103
571.650	17326
571.709	17964
571.768	19929
571.826	20448
571.885	17545
571.943	16353
572.002	15222
572.060	15361
572.119	14970
572.177	15226
572.236	16370
572.294	16165
572.352	17597
572.411	16641
572.469	15879
572.528	15861
572.586	14197
572.644	15081
572.703	14488
572.761	14260
572.819	14297
572.877	13948
572.936	14225
572.994	14678
573.052	14188
573.110	14861
573.169	16035
573.227	14621
573.285	14944
573.343	14383
573.401	14185
573.459	14601
573.517	15087
573.576	16270
573.634	15651
573.692	15234
573.750	15000
573.808	14547
573.866	14288
573.924	14443
573.982	14729
574.040	13624
574.098	13396
574.155	14003
574.213	14143
574.271	14804
574.329	15926
574.387	14709
574.445	12647
574.503	13574
574.560	12797
574.618	13623
574.676	13370
574.734	12906
574.792	12748
574.849	12022
574.907	11560
574.965	10664
575.022	10900
575.080	11089
575.138	11162
575.195	10890
575.253	10996
575.311	10197
575.368	10805
575.426	9339
575.483	11161
575.541	11355
575.598	10457
575.656	11637
575.713	11451
575.771	12345
575.828	11262
575.886	10465
575.943	11226
576.001	10202
576.058	10901
576.115	10643
576.173	10912
576.230	11707
576.287	11958
576.345	12018
576.402	11826
576.459	11691
576.517	10721
576.574	10688
576.631	10379
576.688	10648
576.746	9662
576.803	10077
576.860	9198
576.917	11023
576.974	10480
577.031	10237
577.089	10305
577.146	9923
577.203	8507
577.260	9775
577.317	10260
577.374	10222
577.431	9522
577.488	9469
577.545	9803
577.602	10367
577.659	10255
577.716	9700
577.773	10591
577.830	9839
577.886	8928
577.943	8580
578.000	9606
578.057	8367
578.114	9812
578.171	10316
578.227	9251
578.284	10290
578.341	10192
578.398	9308
578.454	9510
578.511	10451
578.568	10225
578.625	9400
578.681	8973
578.738	9652
578.794	9695
578.851	9370
578.908	10410
578.964	9294
579.021	9576
579.077	9893
579.134	9474
579.190	10210
579.247	10093
579.303	9562
579.360	10040
579.416	10747
579.473	9574
579.529	9585
579.586	9622
579.642	9866
579.698	9790
579.755	10054
579.811	10309
579.867	10701
579.924	10144
579.980	9872
580.036	11689
580.093	12448
580.149	12234
580.205	13226
580.261	11614
580.317	11894
580.374	11798
580.430	11693
580.486	11778
580.542	10283
580.598	11308
580.619	11401
580.654	11572
580.692	11001
580.710	10730
580.765	11584
580.767	11622
580.823	11566
580.838	11616
580.879	11755
580.911	11488
580.935	11325
580.984	11847
580.991	11926
581.047	11552
581.057	11651
581.103	12137
581.130	11764
581.159	11383
581.203	11488
581.215	11528
581.270	10933
581.276	10913
581.326	10738
581.349	10653
581.382	10560
581.422	10597
581.438	10611
581.494	10258
581.494	10257
581.550	10878
581.567	11165
581.606	11775
581.640	11038
581.661	10602
581.713	12046
581.717	12169
581.773	11204
581.786	11389
581.829	11912
581.859	11442
581.885	11120
581.932	11608
581.940	11702
581.996	12204
582.004	12297
582.052	12695
582.077	12014
582.107	11286
582.150	11766
582.163	11878
582.219	9842
582.223	9933
582.274	11285
582.296	11577
582.330	12008
582.368	12365
582.386	12587
582.441	12448
582.441	12448
582.497	11087
582.514	11330
582.552	11958
582.587	12485
582.608	12801
582.659	11541
582.663	11452
582.719	12165
582.732	12144
582.774	11978
582.805	12319
582.830	12587
582.877	12820
582.885	12882
582.941	13931
582.950	13871
582.996	13514
583.023	13923
583.052	14506
583.095	15028
583.107	15118
583.162	15221
583.168	15172
583.218	14246
583.240	13529
583.273	12818
583.313	13134
583.328	13285
583.384	13008
583.385	12992
583.439	12250
583.458	12237
583.494	12296
583.531	12070
583.549	12036
583.603	12175
583.605	12170
583.660	12827
583.676	12793
583.715	12741
583.748	12489
583.770	12343
583.820	12932
583.825	12996
583.881	13178
583.893	12971
583.936	12265
583.965	12691
583.991	12955
584.038	13450
584.046	13592
584.101	13224
584.110	13315
584.156	13543
584.183	13477
584.211	13315
584.255	13644
584.266	13845
584.321	14338
584.328	14284
584.376	13675
584.400	14345
584.431	15110
584.472	14525
584.486	14418
584.541	15493
584.545	15509
584.596	15528
584.617	15586
584.651	16073
584.689	16888
584.706	17018
584.761	17999
584.762	17995
584.816	18041
584.834	18478
584.871	19403
584.906	20016
584.926	20311
584.978	20426
584.980	20447
585.035	22457
585.051	23099
585.090	25258
585.123	26801
585.145	27790
585.195	30446
585.200	30834
585.254	35188
585.267	36676
585.309	41830
585.340	45781
585.364	49317
585.412	57028
585.419	58487
585.473	74634
585.484	79457
585.528	107760
585.556	136642
585.583	189477
585.628	314962
585.637	359000
585.692	726121
585.700	767962
585.747	886808
585.772	787231
585.801	510140
585.845	213485
585.856	178172
585.910	85329
585.917	75712
585.965	55641
585.989	47629
586.019	42841
586.061	37655
586.074	36727
586.128	32455
586.133	32254
586.183	30723
586.205	29724
586.237	28903
586.277	27922
586.292	27649
586.346	27784
586.349	27708
586.401	26773
586.421	26756
586.455	26828
586.493	26905
586.509	27223
586.564	27360
586.565	27396
586.618	31128
586.637	32289
586.672	35587
586.709	39902
586.727	42018
586.781	45542
586.781	45565
586.835	36799
586.853	34390
586.889	30076
586.925	26815
586.944	26368
586.996	26207
586.998	26227
587.052	25437
587.068	25311
587.106	25748
587.140	26392
587.161	26599
587.212	26054
587.215	26081
587.269	26868
587.284	27026
587.323	27372
587.356	27778
587.377	28132
587.427	28658
587.431	28679
587.485	28584
587.499	28512
587.539	29231
587.571	30127
587.593	30992
587.643	32706
587.648	32869
587.702	33734
587.715	33965
587.755	34068
587.786	34007
587.810	34169
587.858	34255
587.864	34338
587.917	35415
587.930	35507
587.971	35628
588.001	35477
588.025	35663
588.073	36483
588.079	36620
588.133	37434
588.145	37524
588.187	38237
588.217	38922
588.241	39766
588.288	40913
588.295	41161
588.348	43453
588.360	43872
588.402	45470
588.431	46048
588.456	47436
588.503	51450
588.510	52102
588.564	56373
588.575	57322
588.617	62217
588.646	65723
588.671	70535
588.718	81010
588.725	83905
588.778	110155
588.789	116706
588.832	180468
588.861	230553
588.886	318203
588.932	497948
588.939	512361
588.993	574525
589.004	574513
589.047	359025
589.075	225595
589.100	174849
589.147	97073
589.154	94642
589.207	78592
589.218	75454
589.261	74445
589.290	74386
589.314	77293
589.361	84996
589.368	88818
589.421	123602
589.433	132167
589.475	224299
589.504	296817
589.528	377639
589.576	520815
589.582	504906
589.635	298521
589.647	257116
589.689	149330
589.718	81283
589.742	72545
589.790	56337
589.795	55883
589.849	51189
589.861	50119
589.902	47295
589.932	45110
589.955	44893
590.004	44044
590.009	43923
590.062	42212
590.075	41648
590.115	41282
590.146	41010
590.168	40727
590.218	39768
590.222	39894
590.275	41088
590.289	41322
590.328	41895
590.360	41792
590.381	41986
590.431	42832
590.435	42961
590.488	43539
590.503	43698
590.541	43502
590.574	43039
590.594	43602
590.645	45188
590.647	45332
590.700	46883
590.716	47250
590.753	48369
590.787	49228
590.806	49372
590.859	49465
590.859	49569
590.912	50252
590.930	50473
590.965	50931
591.001	51219
591.018	51167
591.071	50537
591.072	50439
591.124	49470
591.143	49089
591.177	49995
591.214	50919
591.230	51409
591.283	52486
591.285	52426
591.336	51015
591.356	50324
591.389	50846
591.427	51241
591.442	51103
591.495	50267
591.498	50109
591.547	51543
591.569	52092
591.600	52921
591.640	53742
591.653	53903
591.706	54044
591.711	53964
591.759	55278
591.782	55762
591.811	56814
591.853	58129
591.864	58347
591.917	58752
591.924	58696
591.969	59391
591.995	59569
592.022	59472
592.066	59056
592.075	59510
592.127	61639
592.137	61899
592.180	62607
592.208	62846
592.233	63621
592.279	64792
592.285	65137
592.338	66930
592.350	67199
592.390	67104
592.421	66801
592.443	67822
592.491	69630
592.495	69767
592.548	69627
592.562	69447
592.600	70011
592.633	70223
592.653	70546
592.704	70617
592.705	71041
592.775	71956
592.846	73309
592.916	73908
592.987	74426
593.058	75868
593.128	76750
593.199	77896
593.270	76452
593.341	78475
593.411	80413
593.482	84026
593.553	85920
593.623	87487
593.694	91047
593.764	92847
593.835	90764
593.906	91872
593.976	94517
594.047	96653
594.117	101154
594.188	104273
594.258	103463
594.329	103645
594.399	106821
594.470	109590
594.540	112723
594.611	115956
594.681	114415
594.751	114841
594.822	119825
594.892	122264
594.963	127342
595.033	130207
595.103	133900
595.174	134547
595.244	138200
595.314	143782
595.384	146120
595.455	148692
595.525	153461
595.595	161100
595.665	159925
595.736	155663
595.806	160005
595.876	161378
595.946	164275
596.016	169026
596.087	173853
596.157	174810
596.227	174432
596.297	185051
596.367	197912
596.437	207788
596.507	206896
596.577	206511
596.647	212291
596.717	221476
596.787	227762
596.857	227043
596.927	228352
596.997	227181
597.067	232050
597.137	237135
597.207	237980
597.277	238339
597.347	229182
597.417	223224
597.487	221961
597.557	228164
597.626	232592
597.696	237192
597.766	235063
597.836	221671
597.906	210795
597.975	204917
598.045	208686
598.115	218994
598.185	236858
598.254	260751
598.324	282392
598.394	289423
598.464	279599
598.533	273062
598.603	259128
598.672	249442
598.742	254416
598.812	255254
598.881	263058
598.951	261605
599.020	267037
599.090	276509
599.159	278399
599.229	268350
599.299	263636
599.368	269920
599.437	264562
599.507	244917
599.576	238940
599.646	234386
599.715	233460
599.785	231116
599.854	224331
599.924	221174
599.993	219515
600.062	225051
600.132	232922
600.201	244638
600.270	283119
600.340	293813
600.409	290745
600.478	288590
600.547	299110
600.617	268248
600.686	216555
600.755	197832
600.824	188250
600.894	184418
600.963	186531
601.032	182664
601.101	178995
601.170	170791
601.239	166112
601.308	164639
601.378	166432
601.447	167397
601.516	168204
601.585	169673
601.654	173463
601.723	172908
601.792	178441
601.861	185248
601.930	192742
601.999	194240
602.068	192608
602.137	196048
602.206	198428
602.275	202729
602.343	202083
602.412	203094
602.481	205738
602.550	208575
602.619	214556
602.688	216477
602.756	216971
602.825	217189
602.894	226068
602.963	228456
603.032	231406
603.100	233462
603.169	232237
603.238	235405
603.307	235677
603.375	239622
603.444	240645
603.513	245068
603.581	247965
603.650	252535
603.719	243351
603.787	250530
603.856	257336
603.924	261345
603.993	271536
604.061	281483
604.130	293413
604.198	298970
604.267	303211
604.335	308880
604.404	312596
604.472	317004
604.541	320176
604.609	322425
604.678	323944
604.746	325754
604.815	333898
604.883	339798
604.951	337585
605.020	344370
605.088	350830
605.156	351793
605.225	358056
605.293	359478
605.361	361140
605.429	364417
605.498	371311
605.566	379688
605.634	395613
605.702	409201
605.771	417095
605.839	420542
605.907	411099
605.975	396382
606.043	387821
606.111	390368
606.180	389927
606.248	384023
606.316	382404
606.384	382649
606.452	379366
606.520	384575
606.588	398655
606.656	401829
606.724	394347
606.792	372685
606.860	337158
606.928	308928
606.996	298068
607.064	294403
607.132	299905
607.200	318597
607.267	329928
607.335	336224
607.403	342573
607.471	330356
607.539	322208
607.607	323354
607.674	286746
607.742	287437
607.810	284557
607.878	284297
607.946	291912
608.013	304154
608.081	310541
608.149	311840
608.216	323817
608.284	331731
608.352	333128
608.419	328734
608.487	322838
608.555	317790
608.622	329286
608.690	346430
608.757	381158
608.825	388732
608.893	375311
608.960	356359
609.028	345829
609.095	343610
609.163	339167
609.230	306030
609.298	281812
609.365	299082
609.432	316986
609.500	344154
609.567	392625
609.635	443195
609.702	463710
609.769	441549
609.837	352491
609.904	307932
609.971	320242
610.039	352835
610.106	438271
610.173	740129
610.241	1434295
610.308	958909
610.375	422762
610.442	347842
610.509	324196
610.577	319598
610.644	324041
610.711	332464
610.778	342919
610.845	353822
610.912	373795
610.980	389139
611.047	390578
611.114	381626
611.181	370403
611.248	370909
611.315	389773
611.382	398589
611.449	412202
611.516	415615
611.583	412500
611.650	414160
611.717	421429
611.784	430089
611.851	449586
611.918	471602
611.984	539372
612.051	697405
612.118	1126398
612.185	2007420
612.252	1577214
612.319	719216
612.386	571232
612.452	512057
612.519	477633
612.586	463838
612.653	472543
612.719	481786
612.786	463482
612.853	433045
612.919	425542
612.986	428519
613.053	407738
613.120	384323
613.186	371207
613.253	370428
613.319	372009
613.386	374466
613.453	383452
613.519	381616
613.586	375745
613.652	378710
613.719	373094
613.785	381827
613.852	385372
613.918	383102
613.985	388338
614.051	404303
614.118	405813
614.184	390624
614.250	382439
614.317	391399
614.383	385137
614.449	394700
614.516	389964
614.582	391478
614.648	385891
614.715	383081
614.781	376865
614.847	372850
614.914	372669
614.980	364368
615.046	366246
615.112	376409
615.179	375805
615.245	380591
615.311	374825
615.377	382995
615.443	385690
615.509	391250
615.575	404586
615.642	401853
615.708	411351
615.774	429239
615.840	456652
615.906	486356
615.972	570406
616.038	779342
616.104	1329616
616.170	2184598
616.236	1998816
616.302	997032
616.368	765597
616.434	572572
616.500	510637
616.565	555673
616.631	695448
616.697	591258
616.763	586085
616.829	828801
616.895	1377628
616.961	1349334
617.026	692482
617.092	465656
617.158	417766
617.224	402294
617.289	371116
617.355	349944
617.421	346728
617.487	343425
617.552	327131
617.618	324187
617.684	325089
617.749	325019
617.815	310670
617.880	304537
617.946	303642
618.012	310699
618.077	316943
618.143	303928
618.208	303379
618.274	325042
618.339	327207
618.405	273088
618.470	275070
618.536	272777
618.601	268633
618.667	249541
618.732	239217
618.798	234059
618.863	235493
618.928	233170
618.994	234644
619.059	231086
619.124	237093
619.190	232397
619.255	232166
619.320	231209
619.386	235328
619.451	229804
619.516	223775
619.581	227395
619.647	233987
619.712	232392
619.777	223412
619.842	225020
619.907	231317
619.972	233157
620.038	231978
620.103	224366
620.168	225679
620.233	229147
620.298	229343
620.363	232896
620.428	240504
620.493	243774
620.558	246912
620.623	248134
620.688	249397
620.753	248159
620.818	253050
620.883	255115
620.948	254969
621.013	249270
621.078	245434
621.143	250736
621.207	253102
621.272	247376
621.337	240176
621.402	237054
621.467	235019
621.532	235312
621.596	236765
621.661	230380
621.726	229352
621.791	230578
621.855	231414
621.920	227872
621.985	232099
622.049	237487
622.114	235728
622.179	238134
622.243	245535
622.308	252425
622.373	262071
622.437	256055
622.502	243514
622.566	240962
622.631	240497
622.695	245543
622.760	244835
622.824	243249
622.889	242252
622.953	244675
623.018	256612
623.082	259616
623.147	256585
623.211	251360
623.276	251905
623.340	242175
623.404	236454
623.469	233216
623.533	238987
623.597	233802
623.662	229451
623.726	216402
623.790	202592
623.854	198863
623.919	200884
623.983	205964
624.047	205789
624.111	209518
624.176	214578
624.240	214349
624.304	219884
624.368	212051
624.432	211922
624.496	217733
624.560	229123
624.625	229951
624.689	229446
624.753	240187
624.817	229317
624.881	222588
624.945	201985
625.009	195985
625.073	200242
625.137	206570
625.201	212865
625.265	213773
625.329	208077
625.393	207771
625.456	209881
625.520	216105
625.584	217307
625.648	225157
625.712	231159
625.776	231038
625.839	218990
625.903	187160
625.967	171921
626.031	182550
626.095	217726
626.158	202755
626.222	158523
626.286	148517
626.349	143157
626.413	134379
626.477	133399
626.540	136662
626.604	133915
626.668	131738
626.731	130218
626.795	130419
626.858	129343
626.922	129127
626.986	130005
627.049	126361
627.113	132685
627.176	129532
627.240	124944
627.303	126130
627.366	124062
627.430	126521
627.493	123609
627.557	120429
627.620	124440
627.684	129980
627.747	130779
627.810	118897
627.874	108549
627.937	104820
628.000	108855
628.064	105968
628.127	95419
628.190	93523
628.253	90764
628.317	87626
628.380	83495
628.443	80713
628.506	80937
628.569	77784
628.632	74134
628.696	74660
628.759	75017
628.822	70780
628.885	69092
628.948	67858
629.011	67902
629.074	65010
629.137	62831
629.200	61372
629.263	61884
629.326	59434
629.389	61247
629.452	59628
629.515	58078
629.578	57227
629.641	58855
629.704	58756
629.767	58733
629.830	57664
629.892	55812
629.955	54870
630.018	57154
630.081	54770
630.144	56292
630.207	54009
630.269	55979
630.332	53720
630.395	53475
630.458	52065
630.520	49776
630.583	52455
630.646	50831
630.708	51824
630.771	52032
630.834	56077
630.896	54709
630.959	54597
631.021	52818
631.084	53749
631.146	55317
631.209	56604
631.272	54303
631.334	55742
631.397	58387
631.459	56799
631.522	60827
631.584	62764
631.646	68518
631.709	71141
631.771	71017
631.834	69205
631.896	64095
631.958	60079
632.021	58161
632.083	54605
632.145	54868
632.208	53289
632.270	52386
632.332	52132
632.395	50900
632.457	51511
632.519	50997
632.581	50337
632.643	49491
632.706	50892
632.768	48404
632.830	50263
632.892	52146
632.954	49998
633.016	52210
633.078	50723
633.141	50664
633.203	51472
633.265	50909
633.327	51133
633.389	51773
633.451	51649
633.513	50674
633.575	53907
633.637	52032
633.698	54691
633.760	56828
633.822	59692
633.884	60210
633.946	63380
634.008	66649
634.070	68462
634.132	73948
634.193	79977
634.255	87915
634.317	89571
634.379	88590
634.441	78126
634.502	69923
634.564	63757
634.626	58821
634.687	55312
634.749	53264
634.811	53445
634.873	52240
634.934	52071
634.996	51406
635.057	51728
635.119	53314
635.181	53659
635.242	55368
635.304	53291
635.365	56278
635.427	53171
635.488	55305
635.550	52413
635.611	55518
635.673	54518
635.734	60606
635.796	63804
635.857	72245
635.918	76170
635.980	86084
636.041	91290
636.102	98544
636.164	99459
636.225	94743
636.286	81068
636.348	72522
636.409	64303
636.470	58342
636.531	55984
636.593	53345
636.654	50372
636.715	48370
636.776	47222
636.838	46023
636.899	45326
636.960	45250
637.021	44242
637.082	43276
637.143	42705
637.204	40866
637.265	42673
637.326	43695
637.387	44076
637.448	42499
637.509	43322
637.570	43086
637.631	41605
637.692	40128
637.753	39237
637.814	39331
637.875	38735
637.936	39513
637.997	38507
638.058	37903
638.119	38106
638.179	37798
638.240	37827
638.301	38515
638.362	36300
638.423	36247
638.483	35996
638.544	34511
638.605	36176
638.666	34765
638.726	35783
638.787	36243
638.848	35678
638.908	34977
638.969	33299
639.030	32521
639.090	32386
639.151	33603
639.211	33938
639.272	34099
639.332	35229
639.393	37159
639.453	39016
639.514	40922
639.574	36115
639.635	32048
639.695	32257
639.756	31413
639.816	31882
639.877	30446
639.937	32158
639.997	32272
640.058	30761
640.118	31244
640.178	32572
640.239	31657
640.299	31963
640.359	32902
640.420	36898
640.480	40619
640.540	46916
640.600	48970
640.661	42099
640.721	39886
640.781	41250
640.841	37962
640.901	33423
640.961	33419
641.021	34962
641.082	37953
641.142	34095
641.202	33104
641.262	28414
641.322	30623
641.382	29754
641.442	29173
641.502	29747
641.562	30221
641.622	31460
641.682	35425
641.742	41092
641.802	36639
641.861	31591
641.921	29449
641.981	28355
642.041	28169
642.101	26911
642.161	26646
642.221	28050
642.280	27464
642.340	27805
642.400	27613
642.460	29153
642.519	29261
642.579	29380
642.639	30415
642.698	27863
642.758	32100
642.818	29231
642.877	29056
642.937	29694
642.997	30701
643.056	30094
643.116	28542
643.175	32051
643.235	31764
643.294	31851
643.354	34727
643.414	38523
643.473	43560
643.532	53854
643.592	71940
643.651	107220
643.711	177676
643.770	327176
643.830	716187
643.889	1221722
643.948	454129
644.008	119929
644.067	69097
644.126	51435
644.186	42862
644.245	38171
644.304	32831
644.363	35123
644.423	30253
644.482	31601
644.541	34353
644.600	35608
644.659	45849
644.719	56968
644.778	84812
644.837	141040
644.896	282728
644.955	600351
645.014	222231
645.073	60063
645.132	42604
645.191	38595
645.250	36096
645.309	38753
645.368	42154
645.427	58933
645.486	104382
645.545	182497
645.604	56227
645.663	33882
645.722	32077
645.781	35581
645.840	38369
645.898	49238
645.957	66817
646.016	97892
646.075	167317
646.134	311098
646.192	733915
646.251	973438
646.310	248446
646.369	82902
646.427	65158
646.486	47103
646.545	36628
646.603	32296
646.662	29688
646.721	29916
646.779	29850
646.838	31816
646.896	40235
646.955	53013
647.014	85977
647.072	164651
647.131	428068
647.189	214420
647.248	39611
647.306	29462
647.365	26102
647.423	21654
647.481	23566
647.540	20760
647.598	21265
647.657	20804
647.715	21639
647.773	19996
647.832	20705
647.890	17253
647.948	19560
648.007	18205
648.065	17219
648.123	17631
648.181	17986
648.240	18058
648.298	16804
648.356	16497
648.414	17102
648.472	16774
648.531	16347
648.589	15381
648.647	16129
648.705	16498
648.763	16405
648.821	17967
648.879	18342
648.937	21513
648.995	25338
649.053	33270
649.111	49024
649.169	78965
649.227	141239
649.285	289119
649.343	719071
649.401	381576
649.459	67264
649.516	37438
649.574	29424
649.632	32320
649.690	37805
649.748	41857
649.806	62403
649.863	117958
649.921	320124
649.979	218410
650.037	34045
650.094	19127
650.152	17427
650.210	14697
650.268	16330
650.325	14639
650.383	16990
650.440	11396
650.498	12876
650.556	12112
650.613	11845
650.671	12210
650.728	12726
650.786	13520
650.843	22031
650.901	15633
650.958	11732
651.016	10448
651.073	10888
651.131	10026
651.188	9696
651.246	10086
651.303	9312
651.360	9744
651.418	10028
651.475	9823
651.532	8626
651.590	10497
651.647	8970
651.704	9125
651.762	9760
651.819	9009
651.876	9242
651.933	8521
651.990	10113
652.048	6720
652.105	9074
652.162	8538
652.219	8115
652.276	8592
652.333	8326
652.390	7803
652.448	8539
652.505	8673
652.562	8157
652.619	7469
652.676	9305
652.733	9232
652.790	8395
652.847	6378
652.904	7664
652.961	6956
653.017	6588
653.074	8274
653.131	8050
653.188	6344
653.245	7239
653.302	7157
653.359	7768
653.415	7980
653.472	7298
653.529	8253
653.586	6243
653.642	7789
653.699	8594
653.756	7106
653.813	7183
653.869	8433
653.926	8477
653.983	6888
654.039	7367
654.096	7064
654.152	7833
654.209	5536
654.266	7041
654.322	6187
654.379	7607
654.435	7595
654.492	7202
654.548	6868
654.605	7049
654.661	8284
654.717	7018
654.774	7354
654.830	7345
654.887	7372
654.943	6746
655.000	8966
655.056	8043
655.112	7136
655.168	6838
655.225	6672
655.281	8037
655.337	7194
655.394	7132
655.450	6428
655.506	7716
655.562	6485
655.618	8358
655.675	5187
655.731	6230
655.787	5630
655.843	7385
655.899	5709
655.955	7205
656.011	7626
656.067	6307
656.123	6739
656.179	6489
656.235	7959
656.291	6418
656.347	7929
656.403	7131
656.459	6750
656.515	6866
656.571	6651
656.627	6561
656.683	6642
656.739	7001
656.795	5556
656.850	5695
656.906	6464
656.962	7114
657.018	6361
657.074	9521
657.129	13486
657.185	21494
657.241	52922
657.297	29009
657.352	7611
657.408	6842
657.464	6863
657.519	6036
657.575	5553
657.630	4869
657.686	5621
657.742	5120
657.797	4769
657.853	5854
657.908	6717
657.964	5547
658.019	5102
658.075	4942
658.130	5644
658.186	4705
658.241	5961
658.297	5054
658.352	5245
658.407	5648
658.463	4972
658.518	5322
658.573	5000
658.629	4677
658.684	4799
658.739	5668
658.795	4846
658.850	6019
658.905	4122
658.960	5348
659.016	5209
659.071	4904
659.126	4536
659.181	3907
659.236	5793
659.291	5888
659.346	4368
659.401	5160
659.457	5320
659.512	5751
659.567	5853
659.622	5112
659.677	4309
659.732	3906
659.787	4281
659.842	3586
659.897	5132
659.952	5081
660.007	4608
660.061	4839
660.116	4035
660.171	4865
660.226	5391
660.281	5175
660.336	4207
660.391	5993
660.445	4432
660.500	4475
660.555	3780
660.610	4096
660.664	4983
660.719	4210
660.774	4088
660.828	4789
660.883	4329
660.938	4712
660.992	3704
661.047	4904
661.101	3841
661.156	4125
661.211	4011
661.265	4010
661.320	4251
661.374	4192
661.429	4207
661.483	5413
661.538	3049
661.592	4235
661.647	4570
661.701	5977
661.755	4546
661.810	4607
661.864	4315
661.919	3471
661.973	4965
662.027	3745
662.081	3566
662.136	4119
662.190	3672
662.244	4764
662.299	3650
662.353	4582
662.407	3522
662.461	3602
662.515	3921
662.569	3024
662.624	4176
662.678	3781
662.732	4242
662.786	3887
662.840	3670
662.894	5245
662.948	3496
663.002	3894
663.056	3275
663.110	3682
663.164	4111
663.218	4867
663.272	3688
663.326	4379
663.380	4150
663.434	4575
663.488	3226
663.542	3947
663.595	4821
663.649	4033
663.703	3576
663.757	4673
663.811	4669
663.864	4211
663.918	4007
663.972	4100
664.026	4338
664.079	3884
664.133	4248
664.187	4597
664.240	3631
664.294	5499
664.348	5438
664.401	4199
664.455	2667
664.508	4209
664.562	3476
664.615	4500
664.669	3100
664.722	4016
664.776	2957
664.829	4130
664.883	4726
664.936	4317
664.990	4321
665.043	4562
665.097	4047
665.150	4542
665.203	3112
665.257	4058
665.310	4323
665.363	5306
665.417	5294
665.470	4206
665.523	4250
665.576	4691
665.630	4227
665.683	4848
665.736	4678
665.789	4538
665.842	3696
665.895	4691
665.949	4984
666.002	4453
666.055	4981
666.108	5499
666.161	4334
666.214	5511
666.267	4845
666.320	5528
666.373	5257
666.426	5032
666.479	4354
666.532	4689
666.585	5535
666.638	5946
666.691	4677
666.744	4708
666.796	4290
666.849	5337
666.902	4846
666.955	4850
667.008	4537
667.060	4350
667.113	3837
667.166	4306
667.219	5569
667.271	4906
667.324	5168
667.377	5035
667.430	4863
667.482	4923
667.535	5021
667.587	4100
667.640	4389
667.693	4915
667.745	4230
667.798	5815
667.850	4439
667.903	5042
667.955	4925
668.008	4501
668.060	4967
668.113	4523
668.165	4853
668.218	4503
668.270	4904
668.322	4286
668.375	4728
668.427	4364
668.479	4607
668.532	4731
668.584	5006
668.636	4418
668.689	3777
668.741	4696
668.793	5321
668.845	4617
668.898	5191
668.950	4737
669.002	4985
669.054	4369
669.106	3759
669.158	4987
669.211	3834
669.263	4235
669.315	4459
669.367	4869
669.419	2748
669.471	4950
669.523	4290
669.575	4891
669.627	4294
669.679	4360
669.731	3835
669.783	4320
669.835	3967
669.886	4517
669.938	3818
669.990	4209
670.042	3458
670.094	4923
670.146	4325
670.197	4545
670.249	4779
670.301	4985
670.353	6610
670.404	6547
670.456	7351
670.508	12024
670.560	17530
670.611	27190
670.663	44920
670.715	103432
670.766	163435
670.818	49957
670.869	11491
670.921	9433
670.972	7256
671.024	6689
671.075	5419
671.127	5999
671.178	4972
671.230	7440
671.281	7279
671.333	9444
671.384	10065
671.436	14721
671.487	19960
671.538	31307
671.590	47903
671.641	79527
671.692	138204
671.744	252858
671.795	194623
671.846	75941
671.897	34478
671.949	21842
672.000	15710
672.051	12707
672.102	9222
672.153	7973
672.204	7007
672.256	6094
672.307	5540
672.358	5648
672.409	4805
672.460	5137
672.511	3764
672.562	4553
672.613	3085
672.664	2761
672.715	4435
672.766	4014
672.817	3418
672.868	3284
672.919	3039
672.970	3006
673.021	2719
673.071	2746
673.122	2732
673.173	3142
673.224	2825
673.275	3328
673.326	2641
673.376	3089
673.427	2058
673.478	2718
673.528	3108
673.579	2904
673.630	2589
673.680	3661
673.731	3099
673.782	3280
673.832	2829
673.883	3642
673.934	3236
673.984	2750
674.035	2394
674.085	2671
674.136	3002
674.186	3132
674.237	3577
674.287	3446
674.338	3908
674.388	3593
674.438	3560
674.489	4505
674.539	4245
674.589	3778
674.640	4196
674.690	4685
674.740	2970
674.791	4402
674.841	2982
674.891	3464
674.942	2925
674.992	3476
675.042	2075
675.092	2256
675.142	2305
675.193	1364
675.243	2051
675.293	2673
675.343	2461
675.393	3113
675.443	3437
675.493	3191
675.543	2485
675.593	2820
675.643	2661
675.693	1985
675.743	2400
675.793	1933
675.843	1873
675.893	2507
675.943	2808
675.993	1841
676.043	2438
676.093	2137
676.142	1564
676.192	2296
676.242	2546
676.292	3046
676.341	1728
676.391	2225
676.441	1324
676.491	1557
676.540	1105
676.590	1427
676.640	1631
676.689	1878
676.739	1365
676.789	1505
676.838	2107
676.888	1993
676.937	853
676.987	1294
677.037	1670
677.086	1915
677.136	812
677.185	1450
677.235	1210
677.284	2603
677.333	1334
677.383	1475
677.432	1347
677.482	1686
677.531	1963
677.580	1150
677.630	1271
677.679	776
677.728	1051
677.778	1650
677.827	1675
677.876	1595
677.925	1796
677.975	2951
678.024	1705
678.073	2052
678.122	1466
678.171	2645
678.220	2561
678.269	4195
678.319	3822
678.368	3550
678.417	2779
678.466	3172
678.515	1799
678.564	1427
678.613	277
678.662	746
678.711	1038
678.760	1234
678.809	1636
678.857	1746
678.906	2040
678.955	1735
679.004	1855
679.053	1253
679.102	1507
679.151	609
679.199	850
679.248	1313
679.297	302
679.346	1370
679.394	206
679.443	732
679.492	1607
679.540	1071
679.589	1752
679.638	1821
679.686	1930
679.735	2396
679.784	2386
679.832	3532
679.881	1933
679.929	1053
679.978	771
680.026	1448
680.075	1702
680.123	1232
680.172	703
680.220	775
680.268	1006
680.317	1159
680.365	1622
680.414	215
680.462	832
680.510	1153
680.559	814
680.607	162
680.655	1187
680.703	1301
680.752	826
680.800	1125
680.848	672
680.896	737
680.945	694
680.993	660
681.041	618
681.089	1228
681.137	450
681.185	992
681.233	1128
681.258	1128
681.281	1098
681.329	142
681.377	624
681.380	670
681.425	1042
681.473	1499
681.502	1319
681.521	1142
681.569	2544
681.617	2154
681.624	2058
681.665	1216
681.713	1726
681.745	1584
681.761	1471
681.809	1771
681.857	1639
681.867	1739
681.904	1969
681.952	1483
681.989	1365
682.000	1291
682.048	1669
682.096	1820
682.111	1989
682.143	2254
682.191	1692
682.233	3224
682.239	3429
682.286	1907
682.334	2521
682.354	2522
682.382	2434
682.430	2813
682.476	2199
682.477	2160
682.525	2478
682.572	2613
682.598	2707
682.620	2765
682.667	2999
682.715	2677
682.720	2729
682.763	2871
682.810	3287
682.841	2573
682.857	2198
682.905	2245
682.952	3075
682.963	3063
683.000	2850
683.047	3237
683.085	4152
683.095	4401
683.142	3366
683.190	4201
683.206	3852
683.237	3023
683.284	3687
683.328	3339
683.332	3296
683.379	3163
683.426	3484
683.449	3465
683.473	3428
683.521	3055
683.568	3886
683.571	3866
683.615	3293
683.662	4038
683.693	3648
683.709	3352
683.757	3419
683.804	3622
683.814	3554
683.851	3317
683.898	3724
683.936	3684
683.945	3664
683.992	4064
684.039	4162
684.057	4119
684.086	3987
684.133	3801
684.179	4363
684.180	4363
684.227	3629
684.274	3892
684.300	4245
684.321	4557
684.368	3624
684.415	4373
684.422	4337
684.462	4048
684.509	4197
684.543	4627
684.556	4740
684.603	4725
684.649	4589
684.665	4716
684.696	4922
684.743	4922
684.786	5662
684.790	5702
684.837	5102
684.883	4695
684.908	5032
684.930	5407
684.977	5666
685.023	5506
685.029	5591
685.070	6060
685.117	5062
685.150	5672
685.164	5873
685.210	6131
685.257	5532
685.272	5586
685.303	5682
685.350	5619
685.393	5480
685.396	5455
685.443	5686
685.490	5642
685.514	5580
685.536	5511
685.583	5170
685.629	5751
685.636	5664
685.675	5206
685.722	5786
685.757	5544
685.768	5424
685.815	5591
685.861	6138
685.878	6131
685.908	6226
685.954	6261
686.000	6458
686.000	6455
686.047	6657
686.093	6496
686.121	6701
686.139	6671
686.185	6406
686.232	6711
686.242	6537
686.278	6187
686.324	6518
686.363	6799
686.370	6813
686.416	7089
686.463	7015
686.484	6802
686.509	6593
686.555	6855
686.601	6883
686.606	6909
686.647	7016
686.693	6506
686.727	6417
686.739	6436
686.785	6855
686.831	7382
686.848	7243
686.877	6806
686.923	6829
686.969	6766
686.969	6767
687.015	6997
687.061	7610
687.090	8104
687.107	8249
687.153	7834
687.199	7440
687.211	7278
687.245	6878
687.291	7578
687.332	7736
687.336	7760
687.382	8094
687.428	8089
687.453	8094
687.474	8103
687.520	8605
687.565	8606
687.574	8513
687.611	8323
687.657	9354
687.695	9306
687.702	9354
687.748	10628
687.794	11860
687.816	11857
687.839	11187
687.885	10048
687.931	9785
687.937	9617
687.976	9117
688.022	8836
688.058	9029
688.067	9092
688.113	8750
688.158	8189
688.179	8365
688.204	8603
688.249	8441
688.295	8426
688.300	8441
688.340	8748
688.386	8925
688.421	8543
688.431	8435
688.477	8811
688.522	8794
688.542	8885
688.567	9187
688.613	9361
688.658	10075
688.663	10084
688.703	9755
688.749	9790
688.784	9387
688.794	9326
688.839	9837
688.884	9624
688.905	9855
688.930	10098
688.975	10007
689.020	9716
689.026	9652
689.065	9398
689.110	9542
689.146	9309
689.155	9318
689.201	10492
689.246	10751
689.267	10660
689.291	10172
689.336	9891
689.381	9525
689.388	9442
689.426	9635
689.471	10007
689.509	10449
689.516	10490
689.561	9789
689.606	9309
689.630	9368
689.651	9601
689.696	9805
689.741	10091
689.750	10209
689.785	10619
689.830	10670
689.871	10667
689.875	10673
689.920	10841
689.965	10363
689.992	10397
690.010	10371
690.054	10226
690.099	10231
690.112	10123
690.144	10177
690.189	10308
690.233	10433
690.233	10447
690.278	10576
690.323	10385
690.354	10334
690.367	10428
690.412	10609
690.457	10683
690.474	10600
690.501	10182
690.546	10081
690.590	9578
690.595	9506
690.635	9777
690.680	10066
690.716	10200
690.724	10168
690.769	10480
690.813	11124
690.836	10887
690.857	11241
690.902	12549
690.946	13559
690.957	13899
690.991	15495
691.035	17214
691.077	19320
691.080	19340
691.124	18048
691.168	17196
691.198	16222
691.213	15536
691.257	14436
691.301	13011
691.318	12433
691.346	12524
691.390	12238
691.434	12220
691.439	12191
691.478	11839
691.522	11519
691.559	11110
691.567	11159
691.611	12007
691.655	12151
691.680	12209
691.699	12075
691.743	11930
691.787	11877
691.800	11806
691.831	11949
691.875	11988
691.919	11995
691.921	11986
691.964	12062
692.008	11570
692.041	11473
692.052	11600
692.096	11693
692.139	12018
692.162	12242
692.183	12226
692.227	12091
692.271	11327
692.282	11281
692.315	11475
692.359	11474
692.402	11655
692.403	11680
692.447	11548
692.490	11856
692.523	11702
692.534	11703
692.578	11725
692.622	11713
692.643	11924
692.666	12079
692.709	11586
692.753	11524
692.763	11500
692.797	11909
692.840	12101
692.884	12633
692.884	12659
692.928	12248
692.971	11880
693.004	11508
693.015	11519
693.059	11855
693.102	12225
693.124	12072
693.146	11914
693.189	11990
693.233	12120
693.245	12084
693.276	12163
693.320	12632
693.363	12287
693.365	12264
693.407	12491
693.450	12745
693.485	13002
693.493	13212
693.537	14087
693.580	14669
693.605	15205
693.624	15797
693.667	16703
693.710	18124
693.725	18488
693.753	21960
693.797	27628
693.840	33433
693.845	34001
693.883	31378
693.926	27785
693.966	25219
693.970	24950
694.013	21267
694.056	17884
694.086	15265
694.099	14973
694.142	14448
694.185	13581
694.206	13233
694.229	13432
694.272	13459
694.315	13587
694.326	13602
694.358	13385
694.401	13260
694.444	12983
694.446	12935
694.487	13204
694.530	13359
694.566	13809
694.573	13878
694.616	13599
694.659	13710
694.686	13526
694.702	13597
694.745	13918
694.787	14150
694.806	14300
694.830	14190
694.873	13760
694.916	13518
694.926	13392
694.959	13817
695.002	14292
695.044	14823
695.046	14797
695.087	14717
695.130	14965
695.166	15195
695.172	15296
695.215	15276
695.258	15767
695.286	15884
695.301	15853
695.343	15745
695.386	15684
695.406	15511
695.428	16202
695.471	17627
695.514	18897
695.526	19293
695.556	20535
695.599	22139
695.641	23691
695.646	23785
695.684	22575
695.726	21437
695.766	20165
695.769	20167
695.811	19476
695.854	18839
695.886	18391
695.896	18664
695.938	19363
695.981	20247
696.005	20640
696.023	20871
696.065	21486
696.108	22116
696.125	22264
696.150	22821
696.192	23775
696.235	24465
696.245	24654
696.277	24777
696.319	24643
696.361	24577
696.365	24513
696.404	24249
696.446	23881
696.485	23469
696.488	23534
696.530	23621
696.572	23731
696.604	23735
696.614	23733
696.656	23420
696.698	23090
696.724	22851
696.740	22932
696.783	23129
696.825	23251
696.844	23217
696.867	23458
696.909	23721
696.951	24094
696.964	24177
696.992	24275
697.034	24170
697.076	24103
697.083	24062
697.118	25303
697.160	26483
697.202	27743
697.203	27706
697.244	27167
697.286	26716
697.323	26069
697.327	26146
697.369	26357
697.411	26461
697.442	26541
697.453	26628
697.494	26628
697.536	26688
697.562	26637
697.578	26781
697.620	27011
697.661	27209
697.682	27293
697.703	27690
697.744	28233
697.786	28847
697.801	28932
697.828	28908
697.869	28922
697.911	28826
697.921	28739
697.952	28371
697.994	27814
698.035	27216
698.040	27079
698.077	27501
698.118	27872
698.160	28215
698.160	28143
698.201	28537
698.243	28819
698.279	29055
698.284	29238
698.325	30211
698.367	31191
698.399	31866
698.408	32051
698.449	32523
698.491	32952
698.518	33184
698.532	33217
698.573	33039
698.614	32888
698.638	32692
698.656	32998
698.697	33544
698.738	34064
698.757	34226
698.779	34144
698.820	33816
698.862	33500
698.877	33294
698.903	33230
698.944	32977
698.985	32739
698.996	32588
699.026	33090
699.067	33673
699.116	34282
699.235	33375
699.354	33462
699.474	29370
699.593	30087
699.713	30529
699.832	29859
699.951	32096
700.070	32352
700.190	28194
700.309	29279
700.428	27349
700.547	28967
700.667	27935
700.786	28265
700.905	27114
701.024	26724
701.143	25356
701.262	28006
701.381	28194
701.500	29347
701.619	28321
701.738	29276
701.857	27481
701.976	25500
702.095	26974
702.214	28479
702.333	26519
702.452	28298
702.571	28105
702.690	28420
702.809	27205
702.928	26692
703.047	23677
703.165	26164
703.284	25548
703.403	25935
703.522	25471
703.640	24148
703.759	24423
703.878	24137
703.997	23422
704.115	24418
704.234	23293
704.353	25603
704.471	22140
704.590	22350
704.708	22586
704.827	22453
704.946	21181
705.064	22907
705.183	20938
705.301	22822
705.420	21771
705.538	22088
705.656	19841
705.775	21086
705.893	23700
706.012	24573
706.130	19551
706.249	21985
706.367	19898
706.485	20611
706.604	19388
706.722	19956
706.840	22460
706.958	26906
707.077	22084
707.195	19718
707.313	18535
707.431	17158
707.549	17071
707.668	16922
707.786	19589
707.904	18280
708.022	18252
708.140	18029
708.258	15717
708.376	18742
708.494	16240
708.612	18689
708.730	19737
708.848	18530
708.966	18211
709.084	18719
709.202	17995
709.320	17031
709.438	16917
709.556	17551
709.674	15482
709.791	16125
709.909	15977
710.027	15601
710.145	15875
710.263	16322
710.380	16837
710.498	15920
710.616	14910
710.733	14403
710.851	15091
710.969	15941
711.086	14235
711.204	15535
711.322	15175
711.439	14569
711.557	13824
711.674	13659
711.792	14317
711.909	14179
712.027	13472
712.144	14395
712.262	13973
712.379	14335
712.497	14714
712.614	14160
712.732	14460
712.849	14040
712.966	13464
713.084	15740
713.201	12542
713.318	14593
713.436	15657
713.553	14704
713.670	15304
713.787	15963
713.905	14924
714.022	16407
714.139	16833
714.256	21311
714.373	30006
714.490	59790
714.608	157847
714.725	626805
714.842	568998
714.959	65620
715.076	26491
715.193	20802
715.310	18957
715.427	13967
715.544	14716
715.661	14791
715.778	12568
715.895	13790
716.011	14057
716.128	13369
716.245	13169
716.362	12893
716.479	10556
716.596	12352
716.713	11880
716.829	12924
716.946	10259
717.063	11274
717.180	10972
717.296	11054
717.413	10562
717.530	11700
717.646	10072
717.763	10647
717.880	10427
717.996	9511
718.113	10342
718.229	9645
718.346	9691
718.462	10077
718.579	9554
718.695	10330
718.812	9525
718.928	10717
719.045	10235
719.161	10584
719.277	9725
719.394	11857
719.510	10981
719.626	13067
719.743	15328
719.859	26746
719.975	57086
720.092	231753
720.208	468410
720.324	60468
720.440	17113
720.557	12752
720.673	11567
720.789	11939
720.905	13740
721.021	10744
721.137	8215
721.253	9170
721.369	9370
721.486	9742
721.602	9313
721.718	7824
721.834	7826
721.950	9681
722.066	7931
722.181	8149
722.297	7687
722.413	8118
722.529	7909
722.645	8484
722.761	7734
722.877	8749
722.993	9562
723.108	13293
723.224	9651
723.340	9435
723.456	7988
723.571	8368
723.687	7028
723.803	7919
723.918	8100
724.034	8010
724.150	7895
724.265	8443
724.381	7772
724.497	8409
724.612	7199
724.728	7804
724.843	6934
724.959	7576
725.074	7652
725.190	9176
725.305	7076
725.421	7151
725.536	6916
725.651	8124
725.767	7130
725.882	7888
725.997	6397
726.113	7864
726.228	6837
726.343	7050
726.459	6776
726.574	7401
726.689	6742
726.804	7228
726.920	5954
727.035	6955
727.150	6530
727.265	6673
727.380	7339
727.495	6776
727.610	6566
727.725	6163
727.841	7356
727.956	8696
728.071	8482
728.186	5961
728.301	5225
728.416	7675
728.531	6969
728.645	6555
728.760	6737
728.875	7500
728.990	5938
729.105	7009
729.220	5914
729.335	7601
729.449	6309
729.564	6632
729.679	6080
729.794	8040
729.908	6820
730.023	6347
730.138	6493
730.253	7019
730.367	5820
730.482	6053
730.596	6531
730.711	9606
730.826	12241
730.940	11372
731.055	8224
731.169	9055
731.284	9204
731.398	9680
731.513	10211
731.627	12251
731.742	14110
731.856	18236
731.970	17240
732.085	23459
732.199	33647
732.313	61374
732.428	164164
732.542	462996
732.656	260963
732.771	52866
732.885	28417
732.999	24149
733.113	26094
733.227	24491
733.342	20846
733.456	22122
733.570	21266
733.684	20065
733.798	18770
733.912	19663
734.026	18296
734.140	18870
734.254	17814
734.368	18372
734.482	18807
734.596	18376
734.710	17395
734.824	17255
734.938	16577
735.052	17458
735.166	17645
735.280	17151
735.393	15317
735.507	16939
735.621	16264
735.735	16711
735.849	15997
735.962	15975
736.076	15899
736.190	15246
736.303	15246
736.417	16408
736.531	13625
736.644	16093
736.758	14621
736.872	14967
736.985	14369
737.099	14853
737.212	13289
737.326	13287
737.439	14649
737.553	13742
737.666	14614
737.780	13545
737.893	13493
738.007	13439
738.120	15187
738.233	12671
738.347	13820
738.460	12560
738.573	14208
738.687	13198
738.800	12961
738.913	14384
739.026	13389
739.140	12792
739.253	13481
739.366	12283
739.479	12958
739.592	13595
739.705	11182
739.818	14395
739.932	10654
740.045	12964
740.158	11381
740.271	13193
740.384	11877
740.497	10612
740.610	12438
740.723	11567
740.836	12195
740.949	11392
741.062	12975
741.174	12071
741.287	11017
741.400	11461
741.513	9705
741.626	11572
741.739	10921
741.851	10817
741.964	11434
742.077	9971
742.189	9905
742.302	11970
742.415	10589
742.527	10259
742.640	10098
742.753	8466
742.865	10375
742.978	10394
743.090	9225
743.203	10353
743.316	9145
743.428	9801
743.541	9374
743.653	8897
743.766	9227
743.878	10485
743.990	7594
744.103	12172
744.215	9602
744.327	9271
744.440	11042
744.552	9431
744.664	8474
744.777	9539
744.889	9320
745.001	9239
745.113	10596
745.226	8878
745.338	7844
745.450	9765
745.562	8645
745.674	7951
745.786	9745
745.898	9975
746.010	8609
746.122	9309
746.234	8268
746.347	8916
746.459	9195
746.570	7140
746.682	9897
746.794	11976
746.906	7620
747.018	8376
747.130	9283
747.242	8122
747.354	7115
747.466	8614
747.577	7057
747.689	8829
747.801	8513
747.913	7270
748.024	7431
748.136	7626
748.248	6958
748.359	7691
748.471	7716
748.583	6751
748.694	7313
748.806	8918
748.918	7080
749.029	7301
749.141	7117
749.252	8042
749.364	7414
749.475	7176
749.587	7239
749.698	7167
749.809	6917
749.921	6300
750.032	6585
750.144	7225
750.255	5963
750.366	6608
750.478	6398
750.589	6316
750.700	4540
750.811	7187
750.923	6068
751.034	6358
751.145	7476
751.256	6743
751.367	5153
751.479	6023
751.590	5635
751.701	6907
751.812	4819
751.923	5960
752.034	7179
752.145	7972
752.256	5815
752.367	6122
752.478	5926
752.589	6275
752.700	5425
752.811	6136
752.922	5285
753.032	6822
753.143	5984
753.254	5820
753.365	6692
753.476	7285
753.586	5103
753.697	5436
753.808	5721
753.919	5584
754.029	4674
754.140	5441
754.251	5434
754.361	6822
754.472	6218
754.582	5958
754.693	5047
754.804	6546
754.914	5514
755.025	5025
755.135	5605
755.246	6679
755.356	4744
755.466	5764
755.577	5308
755.687	5208
755.798	4408
755.908	6372
756.018	5457
756.129	6113
756.239	5354
756.349	6366
756.460	6902
756.570	7211
756.680	5264
756.790	6551
756.900	5847
757.011	6277
757.121	4627
757.231	5557
757.341	5162
757.451	4963
757.561	4407
757.671	5728
757.781	5227
757.891	5714
758.001	4595
758.111	6061
758.221	5762
758.331	7133
758.441	5807
758.551	6510
758.661	6828
758.771	6980
758.880	6363
758.990	5884
759.100	5734
759.210	7136
759.320	5656
759.429	7022
759.539	6606
759.649	7273
759.758	7021
759.868	8483
759.978	8754
760.087	9491
760.197	9298
760.307	9064
760.416	7261
760.526	7167
760.635	8114
760.745	9359
760.854	9954
760.964	11211
761.073	11587
761.182	10554
761.292	8547
761.401	8205
761.511	5878
761.620	6646
761.729	5484
761.839	5285
761.948	5266
762.057	5878
762.166	5789
762.276	5048
762.385	6643
762.494	5519
762.603	5915
762.712	5391
762.822	4838
762.931	4922
763.040	4450
763.149	5117
763.258	5363
763.367	6268
763.476	5290
763.585	6359
763.694	5574
763.803	6025
763.912	5988
764.021	5356
764.130	6039
764.238	6772
764.347	6876
764.456	7605
764.565	6916
764.674	7605
764.783	6929
764.891	8293
765.000	8511
765.109	9109
765.217	8629
765.326	11948
765.435	12743
765.543	15692
765.652	17543
765.761	24005
765.869	31389
765.978	48227
766.086	80044
766.195	147258
766.303	296825
766.412	445577
766.520	357932
766.629	238229
766.737	116242
766.846	66333
766.954	43510
767.062	32764
767.171	24044
767.279	20680
767.387	16030
767.496	14163
767.604	12500
767.712	11126
767.820	9968
767.928	10102
768.037	8685
768.145	9577
768.253	8759
768.361	8695
768.469	8139
768.577	8344
768.685	9300
768.793	10362
768.901	9252
769.009	12061
769.117	12413
769.225	15770
769.333	21629
769.441	34711
769.549	57375
769.657	123441
769.765	288468
769.873	359784
769.981	225972
770.088	91423
770.196	47151
770.304	30187
770.412	22533
770.519	17976
770.627	14449
770.735	12247
770.842	11530
770.950	10338
771.058	10041
771.165	11182
771.273	11100
771.380	12094
771.488	14581
771.595	16765
771.703	13202
771.810	12317
771.918	12331
772.025	15229
772.133	15881
772.240	15826
772.348	17253
772.455	17678
772.562	15421
772.670	14584
772.777	15750
772.884	14620
772.991	14308
773.099	15283
773.206	13284
773.313	14142
773.420	14356
773.528	13801
773.635	12896
773.742	15248
773.849	13053
773.956	14410
774.063	12696
774.170	12979
774.277	12886
774.384	12578
774.491	11712
774.598	13258
774.705	11966
774.812	13330
774.919	11257
775.026	13090
775.133	11338
775.239	13024
775.346	10952
775.453	12364
775.560	10884
775.667	11561
775.773	10891
775.880	11660
775.987	10472
776.093	12145
776.200	11834
776.307	9197
776.413	10154
776.520	12149
776.627	10282
776.733	10197
776.840	7895
776.946	13761
777.053	10832
777.159	12619
777.266	9327
777.372	11593
777.478	11314
777.585	11512
777.691	7428
777.798	10315
777.904	9638
778.010	8446
778.117	9525
778.223	9879
778.329	9419
778.435	8503
778.542	9284
778.648	8748
778.754	7417
778.860	9264
778.966	8891
779.072	8580
779.178	9496
779.284	7290
779.391	7585
779.497	9459
779.603	8978
779.708	8576
779.815	10055
779.920	22586
780.026	33887
780.132	11658
780.238	8018
780.344	7133
780.450	9884
780.556	6808
780.661	6509
780.767	9445
780.873	5123
780.979	7704
781.085	9172
781.190	7751
781.296	6587
781.402	7772
781.507	7114
781.613	6388
781.719	5911
781.824	9720
781.930	7444
782.035	7226
782.141	8588
782.246	6057
782.352	5783
782.457	7338
782.563	7320
782.668	7381
782.773	5890
782.879	5899
782.984	7026
783.090	7776
783.195	6559
783.300	8936
783.405	6113
783.511	6499
783.616	5769
783.721	6931
783.826	6131
783.932	5654
784.037	7075
784.142	7399
784.247	5994
784.352	5642
784.457	4650
784.562	6988
784.667	6039
784.772	5281
784.877	3517
784.982	7239
785.087	5668
785.192	4750
785.297	4427
785.402	6937
785.507	5622
785.611	5827
785.716	4647
785.821	6053
785.926	5555
786.031	5977
786.135	4920
786.240	5660
786.345	3682
786.450	5467
786.554	6016
786.659	4252
786.763	3927
786.868	5431
786.973	6099
787.077	4534
787.182	4911
787.286	5077
787.391	6615
787.495	4168
787.600	3678
787.704	4562
787.809	4774
787.913	5021
788.017	4690
788.122	5296
788.226	3694
788.330	2857
788.435	4111
788.539	5590
788.643	3753
788.747	4108
788.852	3910
788.956	4599
789.060	4822
789.164	5204
789.268	3691
789.372	4976
789.476	4042
789.580	2687
789.684	3889
789.788	4620
789.892	4871
789.996	3998
790.100	3256
790.204	4370
790.308	4876
790.412	3785
790.516	2597
790.620	3454
790.724	4963
790.828	5199
790.931	2498
791.035	4982
791.139	2732
791.242	3875
791.346	4362
791.450	3965
791.554	3416
791.657	2631
791.761	3300
791.864	5065
791.968	4001
792.072	4139
792.175	3160
792.279	3874
792.382	3538
792.486	3852
792.589	2648
792.693	4872
792.796	2709
792.899	4953
793.003	4300
793.106	1633
793.209	2560
793.313	4466
793.416	1053
793.519	3980
793.623	4710
793.726	4558
793.829	3203
793.932	2788
794.035	1827
794.138	4364
794.242	4366
794.345	3314
794.448	2495
794.551	3520
794.654	11005
794.757	17269
794.860	4852
794.963	3925
795.066	2479
795.169	4412
795.272	3284
795.375	4031
795.477	2135
795.580	2701
795.683	2124
795.786	4615
795.889	1540
795.991	3462
796.094	3073
796.197	2747
796.300	3745
796.402	3500
796.505	2824
796.608	2348
796.710	2793
796.813	3809
796.915	2925
797.018	3843
797.120	3228
797.223	2549
797.326	3672
797.428	2991
797.530	1307
797.633	3201
797.735	4111
797.838	3020
797.940	3485
798.042	2833
798.145	2001
798.247	3139
798.349	1084
798.452	3466
798.554	3191
798.656	3312
798.758	3753
798.860	3742
798.962	1673
799.065	2228
799.167	1477
799.269	3763
799.371	3619
799.473	5503
799.575	2715
799.677	2888
799.779	3556
799.881	1830
799.983	2590
800.085	3214
800.187	2450
800.289	2453
800.390	1477
800.492	4361
800.594	2379
800.696	2558
800.798	1184
800.899	2473
801.001	2271
801.103	3220
801.205	2195
801.306	2780
801.408	1277
801.509	2569
801.611	2283
801.713	2529
801.814	1306
801.916	1850
802.017	1621
802.119	1978
802.220	1894
802.322	891
802.423	2504
802.525	946
802.626	2327
802.727	2766
802.829	1768
802.930	194
803.031	3343
803.133	2047
803.234	2143
803.335	2691
803.436	970
803.538	2412
803.639	645
803.740	2645
803.841	1685
803.942	2785
804.043	2103
804.144	1476
804.245	1704
804.346	2147
804.447	1218
804.548	2471
804.649	2940
804.750	1711
804.851	1010
804.952	1251
805.053	1524
805.154	1502
805.255	2045
805.355	2106
805.456	1845
805.557	1625
805.658	2183
805.758	3018
805.859	1652
805.960	1932
806.061	953
806.161	1327
806.262	1646
806.362	1720
806.463	1255
806.564	2867
806.664	1392
806.765	1962
806.865	1159
806.966	1756
807.066	987
807.166	3630
807.267	3049
807.367	1425
807.468	1996
807.568	1453
807.668	2263
807.769	2939
807.869	2065
807.969	1976
808.069	873
808.170	1902
808.270	1059
808.370	2394
808.470	1318
808.570	1328
808.670	2194
808.770	2312
808.870	742
808.970	2226
809.070	710
809.170	1381
809.271	2965
809.370	2342
809.470	1905
809.570	969
809.670	490
809.770	1765
809.870	1766
809.970	2208
810.070	1466
810.169	1956
810.269	460
810.369	2970
810.469	867
810.568	788
810.668	930
810.768	1244
810.867	1194
810.967	1127
811.066	690
811.166	1947
811.265	1954
811.365	1178
811.464	1353
811.564	1857
811.663	1236
811.763	487
811.862	2016
811.962	2573
812.061	633
812.160	1753
812.260	1483
812.359	2577
812.458	1032
812.557	3551
812.657	1763
812.756	2245
812.855	1412
812.954	1700
813.053	1620
813.153	1448
813.252	458
813.351	1856
813.450	755
813.549	1659
813.648	1892
813.747	946
813.846	2268
813.945	2075
814.044	1835
814.143	2668
814.242	2302
814.341	1738
814.439	2148
814.538	2833
814.637	1867
814.736	1955
814.835	2336
814.933	2182
815.032	3357
815.131	5414
815.229	8569
815.328	13241
815.427	8388
815.525	7869
815.624	7783
815.722	7236
815.821	7598
815.919	9412
816.018	7387
816.116	9224
816.215	7699
816.313	8975
816.412	10457
816.510	12470
816.609	11322
816.707	12144
816.805	11223
816.904	10168
817.002	11059
817.100	11534
817.198	11804
817.296	10591
817.395	10015
817.493	10985
817.591	9012
817.689	10221
817.787	9518
817.885	10427
817.983	10007
818.081	13188
818.179	16725
818.277	32971
818.375	27343
818.473	13239
818.571	8885
818.669	10598
818.767	10733
818.865	9554
818.963	7253
819.061	11309
819.158	11379
819.256	18014
819.354	24850
819.452	53975
819.549	34301
819.647	15356
819.745	8809
819.842	9343
819.940	9569
820.038	9020
820.135	7126
820.233	10135
820.330	8006
820.428	7301
820.525	8317
820.623	8209
820.720	6686
820.818	8404
820.915	8740
821.012	7244
821.110	5995
821.207	8253
821.304	6455
821.402	7490
821.499	8405
821.596	7369
821.693	6825
821.791	8265
821.888	6736
821.985	8587
822.082	5953
822.179	7396
822.276	6727
822.373	6453
822.470	6252
822.567	7350
822.664	5252
822.761	7456
822.858	6431
822.955	7444
823.052	5675
823.149	7177
823.246	6991
823.343	4832
823.440	5019
823.536	7678
823.633	6562
823.730	5297
823.827	6511
823.923	5547
824.020	5657
824.117	6749
824.213	6532
824.310	6125
824.407	5058
824.503	6619
824.600	5612
824.696	5042
824.793	7483
824.889	6917
824.986	4697
825.082	3719
825.179	4323
825.275	6425
825.371	6381
825.468	5190
825.564	2960
825.660	6906
825.757	7978
825.853	5807
825.949	3203
826.045	4520
826.142	3920
826.238	6905
826.334	4949
826.430	4839
826.526	3509
826.622	3364
826.718	5799
826.814	6777
826.910	4884
827.006	2764
827.102	2733
827.198	5603
827.294	6348
827.390	5573
827.486	4290
827.582	3030
827.678	3811
827.774	6948
827.869	2678
827.965	5392
828.061	3205
828.157	6123
828.252	4657
828.348	4725
828.444	3443
828.539	3620
828.635	4388
828.731	5422
828.826	2848
828.922	5173
829.017	4444
829.113	5402
829.208	2936
829.304	4276
829.399	5142
829.495	5017
829.590	3695
829.685	4333
829.781	5306
829.876	4625
829.971	2588
830.066	2768
830.162	3427
830.257	7134
830.352	3851
830.447	3929
830.543	3686
830.638	4300
830.733	5801
830.828	3714
830.923	4166
831.018	5084
831.113	4984
831.208	2579
831.303	1879
831.398	3285
831.493	3790
831.588	6814
831.683	2799
831.778	1968
831.873	2441
831.967	5983
832.062	3755
832.157	2975
832.252	3980
832.346	3563
832.441	4931
832.536	3193
832.631	3688
832.725	3274
832.820	3274
832.914	2971
833.009	1832
833.104	2334
833.198	2822
833.293	2826
833.387	4255
833.482	4878
833.576	3143
833.670	4316
833.765	3698
833.859	4437
833.954	3531
834.048	3691
834.142	2597
834.237	2043
834.331	2989
834.425	4653
834.519	2438
834.613	2626
834.708	2527
834.802	2656
834.896	3213
834.990	3656
835.084	2320
835.178	2413
835.272	1913
835.366	3923
835.460	3977
835.554	3551
835.648	1569
835.742	1582
835.836	1448
835.930	2309
836.024	2817
836.117	3610
836.211	2880
836.305	2649
836.399	2420
836.493	1679
836.586	4051
836.680	2864
836.774	1570
836.867	3231
836.961	867
837.055	1158
837.148	986
837.242	2573
837.335	2319
837.429	2358
837.522	1250
837.616	2425
837.709	2230
837.803	2712
837.896	2761
837.989	3339
838.083	1273
838.176	1825
838.269	947
838.363	2193
838.456	940
838.549	3278
838.642	2130
838.735	2547
838.829	2777
838.922	1725
839.015	2261
839.108	2075
839.201	2031
839.294	3187
839.387	2523
839.480	1541
839.573	1271
839.666	1449
839.759	1464
839.852	1969
839.945	2172
840.038	1716
840.131	519
840.223	1733
840.316	2178
840.409	3291
840.502	2157
840.594	3748
840.687	-201
840.780	1450
840.873	295
840.965	1994
841.058	2786
841.150	2765
841.243	1062
841.336	1519
841.428	794
841.521	1165
841.613	494
841.706	1971
841.798	1717
841.890	2275
841.983	765
842.075	2233
842.167	1330
842.260	2048
842.352	2598
842.444	2581
842.537	1132
842.629	1551
842.721	594
842.813	1080
842.905	193
842.997	2334
843.090	1696
843.182	2003
843.274	488
843.366	2358
843.458	2495
843.550	3902
843.642	1621
843.734	1904
843.826	-68
843.918	908
844.009	1402
844.101	1269
844.193	1355
844.285	2446
844.377	1219
844.469	2156
844.560	1040
844.652	1642
844.744	475
844.835	1325
844.927	850
845.019	1939
845.110	914
845.202	2417
845.293	1522
845.385	1053
845.476	780
845.568	2391
845.659	765
845.751	1212
845.842	-60
845.934	1322
846.025	958
846.116	1870
846.208	1297
846.299	745
846.390	582
846.482	1980
846.573	1074
846.664	1562
846.755	99
846.846	2162
846.937	148
847.029	743
847.120	981
847.211	628
847.302	2815
847.393	798
847.484	2405
847.575	1126
847.666	74
847.757	369
847.847	817
847.938	2450
848.029	1484
848.120	881
848.211	403
848.302	798
848.392	676
848.483	2456
848.574	1413
848.664	1533
848.755	269
848.846	1775
848.936	326
849.027	2205
849.118	1929
849.208	2117
849.299	2940
849.389	6422
849.480	10623
849.570	21926
849.661	40346
849.751	63801
849.841	23015
849.932	4133
850.022	2381
850.112	1993
850.203	1067
850.293	1225
850.383	487
850.474	860
850.564	-247
850.654	142
850.744	-47
850.834	869
850.924	1295
851.014	2597
851.104	154
851.194	586
851.284	301
851.374	1470
851.464	212
851.554	2067
851.644	776
851.734	2107
851.824	799
851.914	1632
852.004	1268
852.094	1185
852.183	-190
852.273	1001
852.363	286
852.452	2126
852.542	544
852.632	1210
852.721	97
852.811	1429
852.901	1877
852.990	2397
853.080	1803
853.169	2066
853.259	1980
853.348	2983
853.438	3534
853.527	5303
853.617	6206
853.706	12404
853.795	22466
853.885	45737
853.974	78847
854.063	141779
854.152	183262
854.242	81020
854.331	22277
854.420	10227
854.509	6351
854.598	5669
854.687	3843
854.777	4174
854.866	1737
854.955	2799
855.044	1758
855.133	2178
855.222	1225
855.311	1297
855.400	944
855.488	710
855.577	103
855.666	1381
855.755	1185
855.844	1836
855.933	525
856.021	2400
856.110	935
856.199	552
856.288	-494
856.376	532
856.465	543
856.554	773
856.642	1418
856.731	2162
856.819	424
856.908	1601
856.996	828
857.085	638
857.173	446
857.262	520
857.350	76
857.438	646
857.527	1448
857.615	732
857.703	1125
857.792	1222
857.880	270
857.968	1146
858.056	383
858.145	1618
858.233	1078
858.321	426
858.409	787
858.497	434
858.585	300
858.673	1746
858.761	-145
858.849	646
858.937	98
859.025	1111
859.113	1423
859.201	1479
859.289	1176
859.377	1743
859.465	242
859.552	407
859.640	265
859.728	619
859.816	350
859.903	1646
859.991	105
860.079	1579
860.166	992
860.254	1306
860.342	2075
860.429	515
860.517	550
860.604	1786
860.692	159
860.779	747
860.867	560
860.954	951
861.042	1805
861.129	2000
861.216	893
861.304	789
861.391	1173
861.478	1590
861.565	908
861.653	1376
861.740	105
861.827	1128
861.914	580
862.001	756
862.089	1304
862.176	1866
862.263	522
862.350	1282
862.437	1168
862.524	886
862.611	268
862.698	1928
862.785	1054
862.871	2215
862.958	1860
863.045	2105
863.132	1300
863.219	1255
863.306	43
863.392	1478
863.479	1491
863.566	1404
863.652	1677
863.739	1551
863.826	1488
863.912	2026
863.999	734
864.086	1733
864.172	1406
864.259	2649
864.345	1216
864.432	3041
864.518	1950
864.604	1731
864.691	1894
864.777	3146
864.863	3572
864.950	5434
865.036	6687
865.122	12462
865.209	11922
865.295	11869
865.381	10864
865.467	10780
865.553	11139
865.639	14175
865.726	18214
865.812	31858
865.898	51009
865.984	71114
866.070	121236
866.156	119174
866.242	43453
866.328	17410
866.414	11779
866.499	11394
866.585	10457
866.671	9639
866.757	8957
866.843	9587
866.928	8393
867.014	7981
867.100	8516
867.186	8959
867.271	7580
867.357	8399
867.442	7498
867.528	8408
867.614	7864
867.699	8548
867.785	7962
867.870	7345
867.956	6778
868.041	8582
868.127	7409
868.212	8277
868.297	6861
868.383	8092
868.468	7629
868.553	9075
868.639	7313
868.724	7739
868.809	7544
868.894	7343
868.979	6725
869.065	6765
869.150	5699
869.235	6814
869.320	7629
869.405	5773
869.490	6269
869.575	7575
869.660	4548
869.745	7852
869.830	7072
869.915	6571
870.000	5640
870.085	5680
870.169	7751
870.254	8394
870.339	4826
870.424	5317
870.509	6229
870.593	8087
870.678	7333
870.763	6297
870.847	4394
870.932	6328
871.016	7206
871.101	5176
871.186	5962
871.270	8563
871.355	4693
871.439	5959
871.523	7049
871.608	5122
871.692	4625
871.777	7872
871.861	7098
871.945	6163
872.030	5338
872.114	6201
872.198	4820
872.282	5081
872.367	3911
872.451	5136
872.535	5258
872.619	6303
872.703	4509
872.787	5492
872.871	5953
872.955	4899
873.039	3998
873.123	5778
873.207	5981
873.291	3840
873.375	4088
873.459	6660
873.543	4220
873.627	4140
873.711	4234
873.794	4975
873.878	4468
873.962	3896
874.045	4071
874.129	4360
874.137	4333
874.213	4070
874.245	4472
874.296	5119
874.352	4123
874.380	3637
874.460	4546
874.464	4584
874.547	3567
874.568	3882
874.631	4816
874.676	4735
874.714	4661
874.784	5517
874.798	5687
874.881	3916
874.892	3885
874.965	3703
874.999	3949
875.048	4251
875.107	4611
875.131	4759
875.215	3539
875.215	3538
875.298	2975
875.323	3282
875.381	4040
875.430	5085
875.465	5738
875.538	4863
875.548	4743
875.631	3504
875.646	3291
875.714	2392
875.753	3149
875.798	4080
875.861	4377
875.881	4422
875.964	4518
875.968	4443
876.047	3129
876.076	3469
876.130	4143
876.183	4071
876.213	4034
876.291	5029
876.296	5092
876.379	3048
876.398	3201
876.462	3633
876.506	2969
876.545	2490
876.613	2979
876.628	3077
876.711	3629
876.721	3716
876.794	4405
876.828	4219
876.877	3836
876.935	3831
876.960	3821
877.043	2760
877.043	2766
877.125	4511
877.150	4488
877.208	4210
877.258	4226
877.291	4301
877.365	2875
877.374	2694
877.456	3639
877.472	3439
877.539	2671
877.579	3135
877.622	3666
877.687	4227
877.704	4393
877.787	3519
877.794	3533
877.869	3630
877.901	3859
877.952	3921
878.008	3098
878.034	2797
878.115	2863
878.117	2872
878.199	2424
878.222	2823
878.282	3823
878.329	3997
878.364	4037
878.437	4270
878.447	4279
878.529	3205
878.544	3271
878.611	3504
878.651	3134
878.694	3177
878.758	4168
878.776	4268
878.858	3372
878.865	3412
878.941	3954
878.972	3250
879.023	2187
879.078	2841
879.105	3355
879.185	3609
879.187	3601
879.269	4308
879.292	4019
879.351	3487
879.399	3628
879.433	3653
879.506	2954
879.516	2870
879.598	2944
879.613	2864
879.680	2753
879.720	3357
879.762	3978
879.827	3494
879.844	3320
879.926	3297
879.933	3293
880.007	3396
880.040	3370
880.089	3198
880.147	3010
880.171	3169
880.253	4619
880.254	4615
880.335	3426
880.360	4047
880.417	6251
880.467	6618
880.499	6567
880.574	6970
880.580	6951
880.662	5540
880.680	5252
880.744	3693
880.787	2853
880.825	2769
880.893	3202
880.907	3278
880.989	3225
881.000	3236
881.070	3434
881.106	3401
881.152	2949
881.213	2657
881.233	2670
881.315	2461
881.319	2491
881.396	3468
881.426	3333
881.478	3076
881.532	4257
881.559	4706
881.639	3304
881.641	3272
881.722	3551
881.745	3404
881.803	3219
881.852	3416
881.885	3530
881.958	3329
881.966	3325
882.047	3941
882.064	3895
882.129	3392
882.171	3113
882.210	2718
882.277	2127
882.291	2218
882.372	3379
882.383	3461
882.454	3975
882.489	4333
882.535	4210
882.596	3857
882.616	3976
882.697	4093
882.702	4100
882.778	2922
882.808	2568
882.859	2469
882.914	2291
882.940	2378
883.020	3360
883.021	3372
883.102	3524
883.127	3847
883.183	4928
883.233	4956
883.264	4051
883.339	2483
883.345	2431
883.426	1563
883.445	1569
883.507	2411
883.551	2760
883.587	3137
883.657	4017
883.668	4178
883.749	4982
883.763	4994
883.830	3005
883.869	2165
883.910	2445
883.975	3374
883.991	3472
884.072	3200
884.081	3155
884.152	3912
884.187	4484
884.233	4962
884.292	5243
884.314	4769
884.394	2082
884.398	2014
884.475	2152
884.504	1995
884.555	1922
884.610	2070
884.636	2342
884.716	3022
884.716	3035
884.797	4954
884.821	5206
884.877	4418
884.927	3980
884.958	3671
885.033	2775
885.038	2752
885.118	2455
885.139	2408
885.199	2437
885.244	2588
885.279	3118
885.350	3763
885.359	3844
885.439	4816
885.456	4887
885.520	3736
885.561	3176
885.600	2844
885.667	2372
885.680	2556
885.760	3446
885.773	3570
885.840	2668
885.878	2254
885.920	2307
885.984	2346
886.000	2565
886.080	3514
886.089	3619
886.160	3661
886.195	3665
886.240	3435
886.300	3026
886.320	3225
886.400	4117
886.406	4147
886.480	2862
886.511	2594
886.560	2835
886.616	2485
886.640	2434
886.720	2944
886.722	2943
886.800	3160
886.827	3298
886.879	3392
886.932	3421
886.959	3680
887.038	4522
887.039	4520
887.119	3549
887.143	3347
887.198	3359
887.248	3211
887.278	3112
887.354	2989
887.358	2997
887.437	3078
887.459	3096
887.517	3725
887.564	4033
887.596	3727
887.669	3294
887.676	3204
887.755	1859
887.774	1564
887.835	2343
887.880	2942
887.914	2921
887.985	2718
887.994	2845
888.073	4059
888.090	4297
888.153	4902
888.195	5176
888.232	4174
888.300	2461
888.311	2486
888.391	2501
888.405	2540
888.470	2616
888.510	2552
888.549	2582
888.615	2748
888.628	2912
888.708	3803
888.720	3941
888.787	3950
888.825	3869
888.866	3187
888.930	2228
888.945	2325
889.024	2782
889.035	2845
889.103	4208
889.140	4878
889.182	3992
889.245	2723
889.261	2880
889.340	3585
889.349	3662
889.419	3090
889.454	2774
889.498	2856
889.559	3005
889.577	3155
889.656	3764
889.664	3820
889.735	4051
889.768	4142
889.814	3915
889.873	3594
889.978	2995
890.083	3553
890.187	3069
890.292	4105
890.397	3817
890.501	2753
890.606	2047
890.710	3634
890.815	5799
890.919	3953
891.024	3434
891.128	2919
891.233	2564
891.337	4738
891.442	4561
891.546	3647
891.650	2849
891.755	2621
891.859	4124
891.963	4169
892.068	3545
892.172	2703
892.276	2332
892.380	3160
892.484	3928
892.589	3983
892.693	4313
892.797	1935
892.901	1753
893.005	2150
893.109	4853
893.213	4693
893.317	3201
893.421	1995
893.525	1538
893.629	2245
893.733	3995
893.837	2038
893.941	2962
894.045	2429
894.148	1924
894.252	3509
894.356	4021
894.460	4598
894.564	3348
894.667	2746
894.771	1378
894.875	1858
894.978	2792
895.082	2706
895.186	3299
895.289	2546
895.393	2443
895.496	3723
895.600	2288
895.703	2199
895.807	2102
895.910	2221
896.014	3129
896.117	1903
896.221	3126
896.324	3111
896.427	2127
896.531	1816
896.634	3061
896.737	2523
896.840	2678
896.944	3034
897.047	3751
897.150	3885
897.253	1383
897.356	1777
897.460	1642
897.563	1983
897.666	3556
897.769	3793
897.872	1741
897.975	1349
898.078	3306
898.181	1346
898.284	2843
898.387	2850
898.490	3452
898.593	2383
898.695	1953
898.798	1943
898.901	2379
899.004	2469
899.107	2677
899.209	1822
899.312	3825
899.415	2366
899.518	1840
899.620	1129
899.723	2206
899.826	2369
899.928	1516
900.031	2228
900.133	3489
900.236	1588
900.338	2120
900.441	2090
900.543	2615
900.646	2723
900.748	2535
900.851	3531
900.953	1924
901.055	1116
901.158	2061
901.260	1223
901.362	733
901.465	1442
901.567	2215
901.669	2552
901.771	2569
901.873	1463
901.976	2113
902.078	2162
902.180	2250
902.282	1791
902.384	1725
902.486	3185
902.588	2671
902.690	1012
902.792	1146
902.894	2022
902.996	3028
903.098	2823
903.200	2316
903.302	1170
903.404	1471
903.505	1882
903.607	2346
903.709	3880
903.811	3589
903.913	2656
904.014	1552
904.116	1523
904.218	1640
904.319	1898
904.421	3928
904.523	3169
904.624	1248
904.726	1904
904.827	1417
904.929	892
905.030	1762
905.132	3460
905.233	2899
905.335	1554
905.436	985
905.537	2057
905.639	1833
905.740	1617
905.841	2171
905.943	2634
906.044	998
906.145	1845
906.247	117
906.348	2245
906.449	2135
906.550	2287
906.651	3548
906.752	2088
906.854	663
906.955	1267
907.056	1055
907.157	3075
907.258	4301
907.359	1232
907.460	434
907.561	475
907.662	1296
907.762	1785
907.863	2230
907.964	2557
908.065	2211
908.166	2186
908.267	1070
908.367	1151
908.468	1624
908.569	1612
908.670	3135
908.770	2117
908.871	2340
908.971	1664
909.072	2399
909.173	1134
909.273	1674
909.374	2291
909.474	2575
909.575	1528
909.675	1192
909.776	2301
909.876	1363
909.977	2134
910.077	1946
910.177	2692
910.278	1973
910.378	1063
910.478	800
910.579	2411
910.679	2175
910.779	2513
910.879	2725
910.980	1456
911.080	2409
911.180	1996
911.280	1235
911.380	1177
911.480	1227
911.580	1855
911.680	1850
911.780	2341
911.880	2404
911.980	1185
912.080	2488
912.180	2643
912.280	1364
912.380	1736
912.480	768
912.580	604
912.679	1053
912.779	2461
912.879	3171
912.979	1518
913.078	1601
913.178	880
913.278	1429
913.377	2012
913.477	894
913.577	1481
913.676	2094
913.776	2469
913.875	1900
913.975	1245
914.074	1692
914.174	1760
914.273	1214
914.373	2224
914.472	1642
914.572	1197
914.671	1758
914.770	1823
914.870	1908
914.969	1010
915.068	1940
915.167	2518
915.267	1755
915.366	2260
915.465	2140
915.564	1266
915.663	2155
915.763	1583
915.862	2705
915.961	3484
916.060	1472
916.159	1750
916.258	1186
916.357	1779
916.456	2502
916.555	2507
916.654	1837
916.752	3104
916.851	1885
916.950	1512
917.049	1486
917.148	1183
917.247	1332
917.345	615
917.444	1144
917.543	1631
917.642	1107
917.740	2870
917.839	3614
917.937	4200
918.036	2304
918.135	1550
918.233	1550
918.332	1948
918.430	1319
918.529	2376
918.627	2963
918.726	3116
918.824	2407
918.923	1655
919.021	2529
919.119	1716
919.218	1503
919.316	2081
919.414	2577
919.512	3032
919.611	2988
919.709	2504
919.807	3515
919.905	3545
920.003	2588
920.102	2858
920.200	2669
920.298	3535
920.396	3283
920.494	3159
920.592	3644
920.690	3497
920.788	3484
920.886	2934
920.984	3588
921.082	3449
921.180	4834
921.277	4250
921.375	4647
921.473	6739
921.571	6334
921.669	5498
921.766	5886
921.864	5770
921.962	5806
922.060	5590
922.157	6041
922.255	6144
922.352	5943
922.450	6884
922.548	7594
922.645	8113
922.743	9788
922.840	15677
922.938	18154
923.035	16127
923.133	15426
923.230	17098
923.327	22303
923.425	19953
923.522	19969
923.619	18440
923.717	15975
923.814	15436
923.911	15208
924.008	16139
924.106	15365
924.203	14057
924.300	16262
924.397	16011
924.494	16100
924.591	15054
924.688	14415
924.786	14835
924.883	14929
924.979	15146
925.077	15224
925.173	14364
925.270	14814
925.367	15071
925.464	15569
925.561	15542
925.658	16314
925.755	13404
925.852	16471
925.948	14422
926.045	14803
926.142	14555
926.239	16024
926.335	10884
926.432	15092
926.529	15441
926.625	16896
926.722	13423
926.818	13437
926.915	14720
927.011	14220
927.108	12776
927.204	13648
927.301	12338
927.397	14839
927.494	16206
927.590	11690
927.687	11483
927.783	16194
927.879	15826
927.976	13046
928.072	10911
928.168	13990
928.264	14407
928.361	12207
928.457	14948
928.553	11822
928.649	12616
928.745	14251
928.841	11130
928.937	12587
929.033	12881
929.129	12456
929.225	13918
929.321	12047
929.417	10221
929.513	13262
929.609	11173
929.705	10461
929.801	13517
929.897	9973
929.993	11329
930.089	12768
930.184	10354
930.280	12727
930.376	14938
930.471	11335
930.567	9967
930.663	11252
930.758	9960
930.854	10958
930.950	10629
931.045	9326
931.141	10791
931.236	13529
931.332	10756
931.427	8205
931.523	13314
931.618	11701
931.714	8739
931.809	9951
931.905	12108
932.000	8009
932.095	7497
932.191	12954
932.286	13582
932.381	10821
932.476	7725
932.572	9610
932.667	8373
932.762	9253
932.857	10144
932.952	12262
933.047	9644
933.142	7361
933.237	9564
933.332	10697
933.427	11753
933.522	9663
933.617	8380
933.712	8398
933.807	10985
933.902	13132
933.997	11722
934.092	8661
934.187	8617
934.282	10597
934.376	8780
934.471	11371
934.566	8650
934.661	7951
934.755	9931
934.850	11263
934.945	9215
935.039	7402
935.134	5818
935.228	7846
935.323	12839
935.417	8112
935.512	4793
935.606	6790
935.701	9074
935.795	10008
935.890	8645
935.984	7477
936.079	5197
936.173	7695
936.267	8076
936.362	6560
936.456	8340
936.550	10827
936.644	9608
936.738	6818
936.833	7333
936.927	5710
937.021	6771
937.115	8776
937.209	8958
937.303	8602
937.397	5636
937.491	7703
937.585	9564
937.679	7824
937.773	5789
937.867	5986
937.961	5550
938.055	9598
938.149	9118
938.243	5625
938.337	5486
938.430	5722
938.524	9762
938.618	6812
938.712	5933
938.805	6569
938.899	7283
938.993	9947
939.086	6646
939.180	4856
939.274	6251
939.367	8030
939.461	9051
939.554	6830
939.648	5399
939.741	6319
939.835	7509
939.928	9855
940.022	9117
940.115	7318
940.208	8251
940.302	9136
940.395	10533
940.488	6319
940.582	5792
940.675	5855
940.768	6272
940.861	7368
940.954	9244
941.048	4667
941.141	4164
941.234	5454
941.327	5829
941.420	7789
941.513	8110
941.606	6132
941.699	5556
941.792	8939
941.885	6348
941.978	7637
942.071	7559
942.164	5466
942.257	4247
942.349	5776
942.442	6216
942.535	4899
942.628	4845
942.721	5681
942.813	5232
942.906	6197
942.999	5124
943.091	5088
943.184	5353
943.277	5603
943.369	4267
943.462	2878
943.554	4801
943.647	5828
943.739	7046
943.832	7852
943.924	2771
944.017	4576
944.109	4099
944.201	4591
944.294	4473
944.386	5024
944.478	4921
944.571	4281
944.663	4558
944.755	5440
944.847	6276
944.940	5561
945.032	3356
945.124	3745
945.216	5203
945.308	5288
945.400	5090
945.492	5324
945.584	5729
945.676	6884
945.768	5255
945.860	5906
945.952	6710
946.044	5657
946.136	4554
946.228	4603
946.320	4756
946.412	6342
946.503	6357
946.595	6893
946.687	4111
946.779	3424
946.870	4532
946.962	4250
947.054	4839
947.145	5790
947.237	4421
947.329	4411
947.420	4880
947.512	5328
947.603	2788
947.695	4287
947.786	3748
947.878	2866
947.969	4825
948.061	5389
948.152	4469
948.243	3744
948.335	3144
948.426	3793
948.517	3313
948.609	5952
948.700	5498
948.791	4510
948.882	2618
948.973	3108
949.065	4204
949.156	4325
949.247	2564
949.338	4747
949.429	2957
949.520	2658
949.611	3424
949.702	5226
949.793	4009
949.884	4661
949.975	3645
950.066	2124
950.157	2228
950.247	3766
950.338	3142
950.429	3213
950.520	3364
950.611	2631
950.701	3450
950.792	5942
950.883	4547
950.973	4783
951.064	4759
951.155	4764
951.245	4995
951.336	5264
951.427	4497
951.517	6017
951.608	5898
951.698	4164
951.788	3594
951.879	3174
951.969	3054
952.060	3454
952.150	4370
952.240	5132
952.331	3783
952.421	5284
952.511	3295
952.602	2390
952.692	1958
952.782	2737
952.872	1953
952.962	5002
953.052	3266
953.143	3354
953.233	3655
953.323	4224
953.413	3484
953.503	5167
953.593	3609
953.683	4292
953.773	1020
953.863	3099
953.953	2311
954.042	3201
954.132	3163
954.222	4029
954.312	3272
954.402	3417
954.492	3154
954.581	3296
954.671	4305
954.761	3423
954.850	4066
954.940	2015
955.030	1572
955.119	2532
955.209	3206
955.298	2999
955.388	3773
955.477	4803
955.567	1890
955.656	2245
955.746	3004
955.835	2783
955.925	1794
956.014	4230
956.103	3731
956.193	4801
956.282	4138
956.371	2875
956.461	3244
956.550	3799
956.639	2791
956.728	3038
956.817	3007
956.906	3349
956.995	3984
957.085	3055
957.174	3324
957.263	2994
957.352	2318
957.441	2600
957.530	3272
957.619	3415
957.708	2132
957.796	2906
957.885	2234
957.974	2765
958.063	3039
958.152	1616
958.241	1857
958.329	2205
958.418	3114
958.507	2670
958.596	4299
958.684	2825
958.773	2857
958.861	3271
958.950	2187
959.039	2287
959.127	2196
959.216	3263
959.304	2414
959.393	2933
959.481	3759
959.570	2466
959.658	2009
959.746	1515
959.835	2568
959.923	1874
960.011	1960
960.100	2795
960.188	3619
960.276	3739
960.365	2477
960.453	2042
960.541	601
960.629	2030
960.717	2294
960.805	151
960.893	1975
960.981	2641
961.069	4774
961.158	4275
961.245	4700
961.333	3702
961.421	2865
961.509	3233
961.597	2893
961.685	2137
961.773	3469
961.861	2906
961.949	3364
962.036	2090
962.124	2558
962.212	2160
962.299	2865
962.387	1224
962.475	1595
962.562	2526
962.650	3151
962.738	2209
962.825	2376
962.913	1450
963.000	1582
963.088	3029
963.175	2698
963.263	3041
963.350	2901
963.438	2020
963.525	2276
963.612	2113
963.700	2103
963.787	3736
963.874	2440
963.962	1702
964.049	1849
964.136	1955
964.223	1116
964.310	2259
964.398	1836
964.485	2162
964.572	2070
964.659	2841
964.746	1773
964.833	1522
964.920	1824
965.007	2180
965.094	2303
965.181	2322
965.268	2905
965.355	2361
965.441	2358
965.528	1417
965.615	3520
965.702	2119
965.789	1708
965.875	2614
965.962	2330
966.049	2148
966.136	3429
966.222	3325
966.309	3628
966.395	3511
966.482	3688
966.569	2624
966.655	2236
966.742	2295
966.828	2614
966.915	1514
967.001	1698
967.087	661
967.174	1518
967.260	1935
967.347	2743
967.433	2757
967.519	3392
967.605	2708
967.692	2524
967.778	2429
967.864	1388
967.950	2753
968.036	2488
968.123	2744
968.209	2367
968.295	1129
968.381	3088
968.467	2045
968.553	302
968.639	2878
968.725	1733
968.811	4405
968.897	3596
968.983	1660
969.069	901
969.154	1824
969.240	1651
969.326	738
969.412	1050
969.497	1586
969.583	1054
969.669	2616
969.755	1837
969.840	1690
969.926	5078
970.012	5563
970.097	7075
970.183	6158
970.268	3065
970.354	2773
970.439	1184
970.525	2669
970.610	1453
970.696	3318
970.781	1377
970.866	1134
970.952	1945
971.037	1469
971.122	2716
971.208	2070
971.293	2123
971.378	816
971.463	1439
971.549	2141
971.634	562
971.719	1289
971.804	1389
971.889	1903
971.974	1742
972.059	1961
972.144	2015
972.229	1997
972.314	679
972.399	1937
972.484	1687
972.569	1813
972.654	49
972.739	2450
972.824	776
972.908	1861
972.993	801
973.078	1866
973.163	2269
973.247	1569
973.332	92
973.417	2523
973.501	763
973.586	1429
973.671	1439
973.755	1360
973.840	1792
973.924	3021
974.009	2879
974.093	3738
974.178	3643
974.262	2707
974.346	1569
974.431	2707
974.515	2175
974.600	2542
974.684	2682
974.768	1855
974.852	2830
974.937	513
975.021	2701
975.105	1643
975.189	1429
975.273	1975
975.358	305
975.442	1180
975.526	2605
975.610	1536
975.694	476
975.778	3149
975.862	1718
975.946	321
976.030	3077
976.114	1393
976.198	910
976.281	1463
976.365	2541
976.449	1326
976.533	1340
976.617	1213
976.700	939
976.784	894
976.868	681
976.951	2100
977.035	1687
977.119	2005
977.202	647
977.286	1806
977.369	2957
977.453	5170
977.536	4445
977.620	2573
977.703	3047
977.787	2402
977.870	3727
977.953	3050
978.037	360
978.120	2683
978.203	2425
978.287	3325
978.370	3098
978.453	1263
978.536	2188
978.620	2639
978.703	2319
978.786	1440
978.869	1592
978.952	737
979.035	4032
979.118	2748
979.201	1241
979.284	2512
979.367	2482
979.450	2671
979.533	1672
979.616	1272
979.699	1621
979.782	2262
979.865	2277
979.948	2179
980.030	1116
980.113	1498
980.196	890
980.279	2901
980.361	2402
980.444	2176
980.526	2807
980.609	4463
980.692	4318
980.774	4989
980.857	1825
980.939	3775
981.022	2667
981.104	2057
981.187	1721
981.269	3247
981.352	2149
981.434	1757
981.516	2553
981.599	3255
981.681	2634
981.763	2245
981.846	2315
981.928	2454
982.010	2376
982.092	2342
982.174	2861
982.256	3201
982.339	2669
982.421	2090
982.503	2329
982.585	1695
982.667	1621
982.749	2062
982.831	2327
982.913	1463
982.995	3111
983.077	1173
983.158	4187
983.240	2243
983.322	2763
983.404	5855
983.486	5212
983.568	5907
983.649	4297
983.731	4605
983.813	3996
983.894	3804
983.976	3798
984.058	2578
984.139	2956
984.221	3070
984.302	3839
984.384	3783
984.465	2972
984.547	3412
984.628	2351
984.710	4315
984.791	3046
984.872	4429
984.954	2415
985.035	3611
985.116	2585
985.198	1989
985.279	3812
985.360	3403
985.441	2779
985.522	3332
985.604	2696
985.685	1548
985.766	3488
985.847	4659
985.928	3555
986.009	3633
986.090	3292
986.171	3888
986.252	2899
986.333	4140
986.414	3287
986.495	4150
986.576	3129
986.656	4407
986.737	4605
986.818	3736
986.899	3699
986.980	3765
987.060	4098
987.141	4431
987.222	5679
987.302	5653
987.383	5920
987.464	4998
987.544	5993
987.625	5378
987.705	5018
987.786	6192
987.866	5284
987.947	4734
988.027	5893
988.108	5229
988.188	5048
988.268	4606
988.349	5260
988.429	4985
988.509	4852
988.589	4280
988.670	3553
988.750	5983
988.830	3253
988.910	5069
988.990	4279
989.070	4498
989.151	4582
989.231	3482
989.311	4541
989.391	3873
989.471	3893
989.551	4150
989.631	3309
989.711	4635
989.791	3774
989.870	3588
989.950	4693
990.030	4262
990.110	4106
990.190	3032
990.269	2747
990.349	3735
990.429	4253
990.509	3846
990.588	2154
990.668	3043
990.747	3077
990.827	3132
990.907	2536
990.986	4504
991.066	3912
991.145	2632
991.225	3778
991.304	4014
991.383	3733
991.463	2923
991.542	4345
991.622	2096
991.701	2867
991.780	2355
991.859	1779
991.939	2766
992.018	3350
992.097	3970
992.176	3166
992.256	2320
992.335	2942
992.414	3371
992.493	1938
992.572	2873
992.651	3854
992.730	2554
992.809	3095
992.888	1631
992.967	2879
993.046	2911
993.125	1408
993.203	2650
993.282	3322
993.361	2920
993.440	2703
993.519	1909
993.597	2244
993.676	2506
993.755	2560
993.834	3184
993.912	1421
993.991	2983
994.069	1987
994.148	2308
994.226	1339
994.305	2462
994.384	1740
994.462	2897
994.540	1701
994.619	1888
994.697	2222
994.776	1677
994.854	2480
994.932	2034
995.011	1608
995.089	1359
995.167	1444
995.245	1818
995.324	1113
995.402	3000
995.480	1706
995.558	1233
995.636	1052
995.714	876
995.792	3022
995.870	900
995.948	673
996.026	1928
996.104	489
996.182	2069
996.260	546
996.338	1489
996.416	1410
996.494	855
996.572	1967
996.649	1699
996.727	380
996.805	2824
996.883	1345
996.960	1823
997.038	1057
997.116	1773
997.193	689
997.271	1703
997.348	787
997.426	1063
997.504	672
997.581	1971
997.658	708
997.736	219
997.813	2
997.891	2279
997.968	707
998.046	1275
998.123	1094
998.200	2398
998.277	687
998.355	2344
998.432	-578
998.509	1076
998.586	1069
998.663	1802
998.741	426
998.818	125
998.895	563
998.972	1761
999.049	1577
999.126	415
999.203	788
999.280	911
999.357	920
999.434	964
999.511	1362
999.587	340
999.664	-1353
999.741	1404
999.818	1144
999.895	596
999.971	117
1000.048	1047
1000.125	1719
1000.202	34
1000.278	930
1000.355	1091
1000.431	653
1000.508	-151
1000.584	142
1000.661	828
1000.738	-203
1000.814	477
1000.890	558
1000.967	1285
1001.043	378
1001.120	-527
1001.196	234
1001.272	-59
1001.349	-188
1001.425	1077
1001.501	1033
1001.577	124
1001.654	756
1001.730	564
1001.806	952
1001.882	-438
1001.958	674
1002.034	819
1002.110	8
1002.186	-940
1002.262	-52
1002.338	892
1002.414	-29
1002.490	662
1002.566	-149
1002.642	-581
1002.718	206
1002.794	454
1002.870	-302
1002.945	-50
1003.021	318
1003.097	26
1003.173	903
1003.248	9
1003.324	-208
1003.400	426
1003.475	-349
1003.551	-1237
1003.626	-677
1003.702	-292
1003.777	-221
1003.853	-451
1003.928	-952
1004.004	311
1004.079	228
1004.155	399
1004.230	-1340
1004.305	473
1004.381	-279
1004.456	-568
1004.531	-960
1004.607	-501
1004.682	-157
1004.757	319
1004.832	18
1004.907	-384
1004.982	-45
1005.057	64
1005.133	-543
1005.208	-316
1005.283	-602
1005.358	470
1005.433	-733
1005.508	-771
1005.583	-703
1005.657	83
1005.732	1066
1005.807	-1000
1005.882	-686
1005.957	-1004
1006.032	-45
1006.106	-321
1006.181	-288
1006.256	-379
1006.331	-948
1006.405	-654
1006.480	-716
1006.554	-854
1006.629	-881
1006.704	-1079
1006.778	-964
1006.853	-16
1006.927	-973
1007.002	-394
1007.076	-840
1007.150	-884
1007.225	-664
1007.299	-315
1007.373	-1380
1007.448	-1364
1007.522	-694
1007.596	-1371
1007.671	-992
1007.745	338
1007.819	-1593
1007.893	-267
1007.967	-110
1008.041	-1275
1008.115	-32
1008.190	-1165
1008.264	-220
1008.338	-884
1008.412	-727
1008.486	-62
1008.560	-803
1008.633	-65
1008.707	-211
1008.781	98
1008.855	-1593
1008.929	-280
1009.003	-1571
1009.076	-869
1009.150	-460
1009.224	-772
1009.298	-235
1009.371	-799
1009.445	-595
1009.519	-906
1009.592	-1593
1009.666	-291
1009.739	-216
1009.813	-1050
1009.886	-456
1009.960	-523
1010.033	-675
1010.107	-153
1010.180	-2180
1010.253	-463
1010.327	-1306
1010.400	-1362
1010.473	-1463
1010.547	-24
1010.620	-1460
1010.693	-881
1010.766	-1199
1010.840	-524
1010.913	-1153
1010.986	-1362
1011.059	-1340
1011.132	-1586
1011.205	-765
1011.278	-607
1011.351	-2209
1011.424	-606
1011.497	-1630
1011.570	-1298
1011.643	-1394
1011.716	-1656
1011.789	-1534
1011.862	-591
1011.934	-1020
1012.007	-2355
1012.080	-1429
1012.153	-1763
1012.225	-961
1012.298	-2035
1012.371	-926
1012.443	-557
1012.516	-2137
1012.588	-694
1012.661	-819
1012.733	-996
1012.806	-430
1012.879	-1996
1012.951	-1156
1013.023	-1164
1013.096	-1192
1013.168	-1922
1013.241	-861
1013.313	-997
1013.385	-2349
1013.458	-1572
1013.530	-209
1013.602	-1594
1013.674	-527
1013.746	-1698
1013.819	-1265
1013.891	-1311
1013.963	-1600
1014.035	-925
1014.107	-1507
1014.179	-369
1014.251	-1415
1014.323	-960
1014.395	-1391
1014.467	-1270
1014.539	-1329
1014.611	-1229
1014.683	-1921
1014.754	-755
1014.826	-1880
1014.898	-1154
1014.970	-2154
1015.042	-192
1015.113	-479
1015.185	-1128
1015.257	-1544
1015.328	-690
1015.400	-1776
1015.471	-679
1015.543	-2185
1015.615	-1203
1015.686	-1327
1015.757	-1258
1015.829	-1535
1015.901	-1690
1015.972	-687
1016.043	-1574
1016.115	-1138
1016.186	-1213
1016.257	-1872
1016.328	-539
1016.400	-1146
1016.471	-1374
1016.542	-1792
1016.613	-623
1016.685	-1032
1016.756	-987
1016.827	-1051
1016.898	-944
1016.969	-1375
1017.040	-1442
1017.111	-1382
1017.182	-1022
1017.253	-1589
1017.324	-1578
1017.395	-1693
1017.466	-1108
1017.537	-1826
1017.608	-1168
1017.678	-1667
1017.749	-1419
1017.820	-1225
1017.891	-1800
1017.961	-1788
1018.032	-931
1018.103	-1450
1018.173	-1434
1018.244	-2177
1018.315	-908
1018.385	-423
1018.456	-1177
1018.526	-2071
1018.597	-1902
1018.667	-1785
1018.738	-1644
1018.808	-1792
1018.878	-1989
1018.949	-2012
1019.019	-1308
1019.089	-1605
1019.160	-926
1019.230	-1776
1019.300	-1412
1019.371	-2444
1019.441	-742
1019.511	-2018
1019.581	-1455
1019.651	-1325
1019.721	-1647
1019.791	-1553
1019.861	-1097
1019.931	-1908
1020.001	-1429
1020.071	-1474
1020.141	-1040
1020.211	-1171
1020.281	-1890
1020.351	-1967
1020.421	-1051
1020.491	-845
1020.560	-1749
1020.630	-1023
1020.700	-1959
1020.770	-1143
1020.839	-2034
1020.909	-1959
1020.979	-1715
1021.048	-1445
1021.118	-1410
1021.187	-2180
1021.257	-1088
1021.326	-1229
1021.396	-2425
1021.465	-2022
1021.535	-1195
1021.604	-1916
1021.674	-1635
1021.743	-2125
1021.812	-1119
1021.882	-824
1021.951	-647
1022.020	-1156
1022.089	-599
1022.159	-1977
1022.228	-1039
1022.297	-1985
1022.366	-1248
1022.435	-989
1022.504	-1517
1022.573	-1318
1022.642	-1326
1022.711	-1502
1022.781	-1822
1022.849	-1658
1022.918	-1690
1022.987	-1827
1023.056	-1893
1023.125	-1536
1023.194	-898
1023.263	-755
1023.331	-1306
1023.400	-1708
1023.469	-1461
1023.538	-434
1023.606	-1826
1023.675	-1779
1023.744	-2240
1023.812	-2073
1023.881	-1366
1023.949	-1481
1024.018	-2275
1024.086	-1683
1024.155	-1898
1024.223	-2042
1024.292	-1749
1024.360	-1449
1024.429	-1919
1024.497	-1746
1024.565	-1438
1024.634	-2165
1024.702	-1474
1024.770	-1653
1024.838	-1745
1024.907	-1815
1024.975	-1915
1025.043	-1431
1025.111	-1849
1025.179	-1363
1025.247	-1747
1025.315	-1430
1025.383	-2032
1025.451	-1488
1025.519	-1515
1025.587	-1810
1025.655	-976
1025.723	-1642
1025.791	-1437
1025.859	-1622
1025.927	-1098
1025.995	-1594
1026.062	-1934
1026.130	-2039
1026.198	-1355
1026.266	-1962
1026.333	-1587
1026.401	-586
1026.469	-1243
1026.536	-2289
1026.604	-1453
1026.671	-2427
1026.739	-1603
1026.806	-1176
1026.874	-2288
1026.941	-1118
1027.009	-1366
1027.076	-1743
1027.144	-1037
1027.211	-2104
1027.278	-1660
1027.345	-1911
1027.413	-1279
1027.480	-2086
1027.547	-1329
1027.614	-1906
1027.682	-1744
1027.749	-1493
1027.816	-1495
1027.883	-2238
1027.950	-1428
1028.017	-2005
1028.084	-1494
1028.151	-2627
1028.218	-801
1028.285	-2316
1028.352	-1696
1028.419	-2036
1028.486	-2201
1028.553	-1854
1028.619	-1050
1028.686	-2143
1028.753	-1770
1028.820	-2205
1028.886	-1582
1028.953	-1757
1029.020	-521
1029.086	-1446
1029.153	-2251
1029.220	-2713
1029.286	-956
1029.353	-1995
1029.419	-1812
1029.486	-1745
1029.552	-1559
1029.619	-2236
1029.685	-2015
1029.751	-2005
1029.818	-1142
1029.884	-1062
1029.951	-572
1030.017	-2263
1030.083	-2097
1030.149	-1951
1030.216	-1789
1030.282	-1504
1030.348	-2530
1030.414	-2124
1030.480	-2147
1030.546	-1999
1030.612	-1235
1030.678	-3101
1030.744	-2083
1030.810	-2293
1030.876	-1696
1030.942	-1018
1031.008	-1231
1031.074	-2677
1031.140	-1921
1031.206	-2433
1031.272	-2479
1031.337	-1480
1031.403	-874
1031.469	-2564
1031.534	-2266
1031.600	-2234
1031.666	-1613
1031.731	-2240
1031.797	-1366
1031.863	-2086
1031.928	-1980
1031.994	-2256
1032.059	-1358
1032.125	-1395
1032.190	-2501
1032.256	-2217
1032.321	-2294
1032.386	-1640
1032.452	-1671
1032.517	-1308
1032.582	-1716
1032.647	-1825
1032.713	-1947
1032.778	-1534
1032.843	-1668
1032.908	-1632
1032.974	-1503
1033.039	-1653
1033.104	-1396
1033.169	-2279
1033.234	-1997
1033.299	-1854
1033.364	-1775
1033.429	-1623
1033.494	-1481
1033.559	-2456
1033.624	-958
1033.688	-1996
1033.753	-1614
1033.818	-1720
1033.883	-1557
1033.948	-1395
1034.013	-349
1034.077	341
1034.142	1408
1034.207	715
1034.271	2630
1034.336	3748
1034.400	2340
1034.465	182
1034.530	-401
1034.594	-937
1034.658	-1137
1034.723	-1989
1034.787	-2447
1034.852	-2419
1034.916	-3006
1034.981	-1898
1035.045	-1728
1035.109	-2430
1035.173	-1233
1035.238	-2579
1035.302	-1454
1035.366	-2006
1035.430	-2222
1035.495	-2603
1035.559	-1818
1035.623	-2611
1035.687	-2300
1035.751	-2537
1035.815	-2222
1035.879	-1855
1035.943	-2504
1036.007	-1918
1036.071	-1850
1036.135	-1457
1036.198	-2125
1036.262	-2289
1036.326	-1460
1036.390	-1896
1036.454	-2624
1036.517	-2439
1036.581	-1644
1036.645	-1976
1036.709	-1615
1036.772	-1932
1036.836	-1740
1036.900	-1910
1036.963	-1381
1037.026	-1824
1037.090	-1610
1037.154	-2362
1037.217	-2642
1037.280	-1518
1037.344	-1846
1037.407	-2441
1037.471	-1890
1037.534	-1606
1037.597	-2902
1037.661	-2710
1037.724	-1908
1037.787	-2082
1037.850	-1202
1037.913	-2024
1037.977	-1489
1038.040	-1723
1038.103	-2477
1038.166	-1763
1038.229	-2423
1038.292	-2004
1038.355	-2356
1038.418	-2661
1038.481	-2161
1038.544	-1658
1038.607	-2703
1038.670	-2095
1038.732	-2237
1038.795	-2420
1038.858	-1877
1038.921	-1873
1038.984	-2148
1039.046	-2409
1039.109	-2393
1039.172	-2091
1039.234	-2479
1039.297	-1529
1039.360	-3290
1039.422	-2428
1039.485	-2216
1039.547	-2639
1039.610	-2033
1039.672	-1938
1039.734	-2912
1039.797	-3007
1039.859	-2206
1039.922	-2489
1039.984	-2619
1040.046	-1543
1040.109	-1964
1040.171	-3102
1040.233	-2387
1040.295	-2737
1040.358	-2623
1040.420	-2345
1040.482	-2039
1040.544	-2020
1040.606	-1741
1040.668	-1847
1040.730	-1622
1040.792	-1828
1040.854	-2170
1040.916	-1900
1040.978	-2212
1041.040	-1873
1041.102	-2346
1041.164	-2083
1041.225	-3189
1041.287	-2102
1041.349	-1353
1041.411	-2072
1041.472	-2250
1041.534	-1890
1041.596	-2155
1041.657	-1922
1041.719	-2188
1041.781	-2915
1041.842	-1405
1041.904	-2120
1041.965	-2605
1042.027	-2093
1042.088	-2263
1042.150	-3328
1042.211	-2334
1042.272	-2053
1042.334	-1965
1042.395	-1978
1042.456	-1687
1042.518	-2342
1042.579	-2127
1042.640	-2329
1042.701	-2247
1042.763	-1850
1042.824	-2405
1042.885	-2544
1042.946	-1974
1043.007	-2775
1043.068	-1915
1043.129	-2403
1043.190	-2256
1043.251	-2763
1043.312	-2309
1043.373	-1919
1043.434	-1816
1043.495	-2296
1043.556	-1702
1043.616	-2065
1043.677	-2312
1043.738	-2471
1043.799	-2229
1043.859	-2770
1043.920	-1952
1043.981	-2071
1044.041	-2486
1044.102	-2736
1044.162	-1527
1044.223	-2370
1044.284	-1751
1044.344	-2155
1044.405	-2914
1044.465	-2312
1044.525	-2934
1044.586	-2045
1044.646	-1651
1044.707	-2306
1044.767	-2138
1044.827	-2036
1044.887	-2296
1044.948	-2020
1045.008	-1961
1045.068	-2366
1045.128	-1949
1045.188	-2789
1045.249	-1376
1045.309	-2609
1045.369	-2497
1045.429	-1937
1045.489	-1989
1045.549	-2567
1045.609	-2188
1045.669	-2255
1045.729	-2105
1045.789	-1338
1045.848	-1922
1045.908	-1510
1045.968	-1396
1046.028	-1723
1046.088	-2306
1046.147	-2114
1046.207	-2551
1046.267	-2585
1046.326	-1704
1046.386	-1827
1046.446	-1314
1046.505	-1351
1046.565	-1161
1046.624	-1607
1046.684	-1171
1046.743	-824
1046.803	-201
1046.862	-1431
1046.922	0
