'Start Wavelength	183.907
'End Wavelength	1046.922
'Gate Delay	5.000
'Gate Width (ms)	1.050
'Laser Output Level	0.000
'X Position	0.000
'Y Position	0.000
'Z Position	0.000
'Grid Point Number	1.000
'Shot Number	100.000
183.907	-124.000
183.977	-230.000
184.047	-42
184.116	-224
184.186	-450
184.256	-419
184.325	-187
184.395	-867
184.465	928
184.534	360
184.604	-209
184.674	-465
184.743	-673
184.813	-247
184.883	682
184.952	-180
185.022	6
185.092	-69
185.161	505
185.231	-32
185.301	-718
185.370	299
185.440	-537
185.509	-585
185.579	-519
185.649	-84
185.718	661
185.788	-517
185.857	-590
185.927	-535
185.996	-532
186.066	-413
186.136	-965
186.205	-583
186.275	382
186.344	-14
186.414	-280
186.483	-293
186.553	646
186.622	177
186.692	42
186.761	-806
186.831	60
186.900	-150
186.970	-96
187.039	-309
187.109	-65
187.178	-409
187.248	179
187.317	-178
187.387	-845
187.456	-210
187.526	-222
187.595	479
187.664	-273
187.734	-341
187.803	-180
187.873	39
187.942	-110
188.012	-515
188.081	-139
188.150	-397
188.220	-186
188.289	158
188.358	-468
188.428	430
188.497	181
188.567	45
188.636	-296
188.705	-241
188.775	67
188.844	-937
188.913	503
188.983	17
189.052	-89
189.121	-400
189.191	4
189.260	15
189.329	-32
189.399	-638
189.468	-554
189.537	-195
189.606	-289
189.676	-363
189.745	586
189.814	227
189.883	-728
189.953	526
190.022	162
190.091	-425
190.161	689
190.230	-120
190.299	-261
190.368	-343
190.437	217
190.507	166
190.576	-293
190.645	-211
190.714	-326
190.783	-542
190.853	641
190.922	228
190.991	-124
191.060	-259
191.129	-986
191.198	-313
191.268	-304
191.337	-32
191.406	646
191.475	-56
191.544	-60
191.613	-35
191.682	-346
191.752	20
191.821	163
191.890	-464
191.959	-530
192.028	-369
192.097	667
192.166	144
192.235	-91
192.304	-519
192.373	-629
192.442	154
192.511	-425
192.580	-318
192.650	-165
192.719	-229
192.788	452
192.857	-370
192.926	-396
192.995	-440
193.064	403
193.133	-461
193.202	457
193.271	78
193.340	-537
193.409	-336
193.478	469
193.547	276
193.615	-152
193.684	26
193.753	883
193.822	-78
193.891	-48
193.960	211
194.029	-325
194.098	-265
194.167	-494
194.236	-86
194.305	-567
194.374	-567
194.443	-676
194.512	-374
194.580	-394
194.649	-141
194.718	178
194.787	-343
194.856	-587
194.925	-467
194.994	-16
195.062	99
195.131	103
195.200	-389
195.269	22
195.338	374
195.407	565
195.475	568
195.544	770
195.613	-869
195.682	370
195.751	-37
195.819	33
195.888	-593
195.957	689
196.026	-75
196.094	414
196.163	-507
196.232	15
196.301	-1147
196.369	-21
196.438	35
196.507	698
196.576	-1040
196.644	-391
196.713	583
196.782	-1124
196.850	-143
196.919	-309
196.988	-338
197.056	-395
197.125	332
197.194	515
197.262	403
197.331	-1171
197.400	-227
197.468	-5
197.537	-312
197.606	-426
197.674	388
197.743	741
197.812	-363
197.880	-203
197.949	914
198.017	884
198.086	35
198.155	47
198.223	-217
198.292	197
198.360	-578
198.429	-365
198.497	-548
198.566	627
198.635	577
198.703	1212
198.772	-332
198.840	726
198.909	612
198.977	-227
199.046	-65
199.114	442
199.183	-841
199.251	622
199.320	101
199.388	22
199.457	9
199.525	-146
199.594	-74
199.662	-56
199.731	-5
199.799	471
199.867	43
199.936	-613
200.004	13
200.073	32
200.141	-78
200.210	-487
200.278	-711
200.346	720
200.415	18
200.483	384
200.552	-209
200.620	-303
200.688	100
200.757	514
200.825	-535
200.893	-222
200.962	689
201.030	198
201.098	-894
201.167	508
201.235	67
201.303	32
201.372	-339
201.440	-189
201.508	386
201.577	-232
201.645	-393
201.713	161
201.781	-103
201.850	303
201.918	209
201.986	150
202.055	119
202.123	-576
202.191	-232
202.259	106
202.327	-150
202.396	-501
202.464	-3
202.532	268
202.600	1220
202.669	214
202.737	611
202.805	-219
202.873	-83
202.941	-289
203.009	-220
203.078	444
203.146	384
203.214	-198
203.282	-175
203.350	-307
203.418	-408
203.487	508
203.555	-98
203.623	-280
203.691	-26
203.759	208
203.827	-50
203.895	384
203.963	-1189
204.031	-645
204.099	853
204.168	436
204.236	-153
204.304	436
204.372	-609
204.440	-563
204.508	-555
204.576	-146
204.644	-263
204.712	-887
204.780	-163
204.848	458
204.916	-392
204.984	-170
205.052	-175
205.120	-375
205.188	-34
205.256	-7
205.324	-52
205.392	161
205.460	-485
205.528	-48
205.596	101
205.664	126
205.732	-158
205.799	46
205.867	345
205.935	-859
206.003	-365
206.071	226
206.139	-168
206.207	79
206.275	-455
206.343	-412
206.411	-675
206.478	-6
206.546	-195
206.614	22
206.682	-22
206.750	501
206.818	321
206.885	792
206.953	-1116
207.021	389
207.089	334
207.157	-28
207.225	-280
207.292	156
207.360	-679
207.428	432
207.496	-163
207.563	20
207.631	-481
207.699	67
207.767	-309
207.834	-441
207.902	-450
207.970	-252
208.038	-233
208.105	126
208.173	382
208.241	-267
208.309	219
208.376	529
208.444	803
208.512	191
208.579	-1030
208.647	241
208.715	355
208.782	177
208.850	547
208.918	-527
208.985	319
209.053	-14
209.120	-289
209.188	-813
209.256	-513
209.323	-721
209.391	-523
209.459	872
209.526	246
209.594	-181
209.661	-314
209.729	217
209.796	33
209.864	-226
209.932	-1762
209.999	473
210.067	105
210.134	117
210.202	-534
210.269	452
210.337	680
210.404	323
210.472	266
210.539	164
210.607	-500
210.674	305
210.742	-121
210.809	299
210.877	552
210.944	1148
211.012	-497
211.079	1379
211.146	30
211.214	82
211.281	858
211.349	775
211.416	-381
211.484	1195
211.551	103
211.618	198
211.686	499
211.753	-286
211.821	-267
211.888	-134
211.955	420
212.023	791
212.090	-193
212.157	-266
212.225	175
212.292	482
212.359	1349
212.427	3562
212.494	2080
212.561	960
212.629	-162
212.696	-278
212.763	291
212.831	-196
212.898	893
212.965	358
213.032	-202
213.100	234
213.167	-590
213.234	144
213.301	-75
213.369	246
213.436	-194
213.503	-615
213.570	-185
213.638	-375
213.705	-946
213.772	-518
213.839	-69
213.906	1200
213.973	-336
214.041	-430
214.108	1108
214.175	247
214.242	-1061
214.309	-207
214.376	703
214.444	-196
214.511	-78
214.578	-70
214.645	180
214.712	415
214.779	317
214.846	553
214.913	518
214.980	951
215.048	847
215.115	1026
215.182	123
215.249	262
215.316	-42
215.383	773
215.450	-18
215.517	232
215.584	308
215.651	334
215.718	-107
215.785	32
215.852	-374
215.919	372
215.986	431
216.053	72
216.120	-1104
216.187	434
216.254	395
216.321	568
216.388	231
216.455	329
216.522	1164
216.589	165
216.656	202
216.722	936
216.789	644
216.856	945
216.923	808
216.990	631
217.057	163
217.124	1055
217.191	493
217.258	641
217.324	1058
217.391	1892
217.458	395
217.525	745
217.592	424
217.659	-1078
217.725	879
217.792	533
217.859	547
217.926	-585
217.993	-110
218.059	319
218.126	-105
218.193	-947
218.260	-221
218.327	-320
218.393	-238
218.460	-178
218.527	-172
218.594	-278
218.660	-146
218.727	1245
218.794	-325
218.860	378
218.927	-482
218.994	-312
219.061	-436
219.127	10
219.194	182
219.261	208
219.327	-859
219.394	-75
219.461	-825
219.527	359
219.594	100
219.661	-108
219.727	-594
219.794	544
219.860	-259
219.927	-282
219.994	374
220.060	2211
220.127	1656
220.193	318
220.260	-43
220.326	591
220.393	1279
220.460	2130
220.526	1190
220.593	167
220.659	784
220.726	357
220.792	1561
220.859	2276
220.925	2441
220.992	4057
221.058	2577
221.125	2814
221.191	1729
221.258	583
221.324	1017
221.391	-57
221.457	98
221.524	47
221.590	1496
221.657	2699
221.723	900
221.789	1128
221.856	1133
221.922	46
221.989	169
222.055	639
222.121	-982
222.188	2040
222.254	182
222.321	43
222.387	-110
222.453	109
222.520	-991
222.586	-480
222.652	-458
222.719	-589
222.785	225
222.851	33
222.918	-119
222.984	-135
223.050	-53
223.116	-1362
223.183	577
223.249	-581
223.315	-164
223.382	-85
223.448	21
223.514	-597
223.580	-264
223.647	-404
223.713	-811
223.779	-826
223.845	-32
223.911	78
223.978	-814
224.044	43
224.110	-675
224.176	393
224.242	-663
224.309	-624
224.375	-664
224.441	431
224.507	140
224.573	-626
224.639	-376
224.705	-111
224.772	46
224.838	-163
224.904	4
224.970	294
225.036	-679
225.102	-480
225.168	-374
225.234	-859
225.300	-612
225.366	74
225.432	-592
225.499	120
225.565	-405
225.631	-378
225.697	-252
225.763	250
225.829	135
225.895	103
225.961	614
226.027	107
226.093	-451
226.159	1046
226.225	2450
226.291	3848
226.357	6833
226.423	3091
226.489	1116
226.554	833
226.620	380
226.686	1289
226.752	2316
226.818	3713
226.884	8861
226.950	7839
227.016	2421
227.082	1831
227.148	272
227.214	732
227.279	1197
227.345	256
227.411	520
227.477	1081
227.543	2686
227.609	2543
227.674	1867
227.740	330
227.806	429
227.872	404
227.938	-180
228.003	1037
228.069	25
228.135	138
228.201	-67
228.267	-686
228.332	104
228.398	-1034
228.464	1020
228.530	-771
228.595	805
228.661	-32
228.727	-876
228.792	801
228.858	-1024
228.924	-1223
228.990	790
229.055	-936
229.121	148
229.187	85
229.252	-410
229.318	-564
229.384	208
229.449	679
229.515	-1719
229.581	-1791
229.646	942
229.712	-138
229.777	-838
229.843	-12
229.909	858
229.974	882
230.040	341
230.105	123
230.171	-137
230.236	785
230.302	564
230.368	210
230.433	-993
230.499	37
230.564	1235
230.630	-1028
230.695	446
230.761	571
230.826	-1271
230.892	846
230.957	-755
231.023	-718
231.088	-133
231.154	64
231.219	-137
231.284	-285
231.350	-210
231.415	-1019
231.481	307
231.546	254
231.612	-499
231.677	-557
231.742	-1819
231.808	972
231.873	-800
231.939	-1590
232.004	1255
232.069	770
232.135	-923
232.200	-637
232.265	235
232.331	-279
232.396	-364
232.461	-218
232.527	-1029
232.592	-662
232.657	-595
232.723	267
232.788	-660
232.853	117
232.918	-254
232.984	-123
233.049	-1254
233.114	-251
233.179	13
233.245	614
233.310	837
233.375	-522
233.440	157
233.506	-653
233.571	-305
233.636	141
233.701	-1133
233.766	355
233.832	303
233.897	54
233.962	-1292
234.027	795
234.092	1037
234.157	59
234.222	-214
234.288	719
234.353	1523
234.418	1334
234.483	771
234.548	196
234.613	406
234.678	89
234.743	-1026
234.808	3060
234.873	-113
234.938	589
235.004	-261
235.069	-127
235.134	-1384
235.199	-265
235.264	-380
235.329	-1138
235.394	-295
235.459	605
235.524	-565
235.589	552
235.654	-441
235.719	-1341
235.784	366
235.849	-25
235.913	736
235.978	-12
236.043	948
236.108	227
236.173	-412
236.238	-23
236.303	-258
236.368	294
236.433	633
236.498	737
236.563	1417
236.627	2377
236.692	11051
236.757	8639
236.822	3026
236.887	1190
236.952	2103
237.017	170
237.081	2026
237.146	653
237.211	5182
237.276	10589
237.341	16703
237.405	7713
237.470	2943
237.535	1942
237.600	1724
237.664	1174
237.729	-599
237.794	103
237.859	2576
237.923	790
237.988	985
238.053	1301
238.118	168
238.182	2543
238.247	3435
238.312	-172
238.376	550
238.441	-799
238.506	1262
238.570	-373
238.635	726
238.700	-178
238.764	-546
238.829	1068
238.893	356
238.958	1098
239.023	305
239.087	-296
239.152	653
239.216	-926
239.281	484
239.346	64
239.410	-174
239.475	-436
239.539	2972
239.604	1455
239.668	1300
239.733	433
239.797	2083
239.862	5001
239.926	4576
239.991	1880
240.055	587
240.120	339
240.184	1033
240.249	-737
240.313	-218
240.378	-303
240.442	1671
240.507	2787
240.571	533
240.635	24
240.700	1692
240.764	-464
240.829	-22
240.893	-1099
240.957	248
241.022	1282
241.086	2608
241.151	390
241.215	-1698
241.279	172
241.344	565
241.408	524
241.472	-272
241.537	684
241.601	-53
241.665	-941
241.730	-753
241.794	1085
241.858	-1290
241.922	-176
241.987	-158
242.051	-280
242.115	-771
242.179	2
242.244	-764
242.308	-172
242.372	498
242.436	47
242.501	-341
242.565	-501
242.629	-912
242.693	37
242.757	-1787
242.822	-687
242.886	152
242.950	824
243.014	-435
243.078	360
243.142	-437
243.206	-391
243.271	-95
243.335	60
243.399	641
243.463	3911
243.527	12845
243.591	2957
243.655	702
243.719	-262
243.783	938
243.847	600
243.911	1747
243.975	1552
244.040	831
244.104	1759
244.168	222
244.232	400
244.296	1141
244.360	1566
244.424	52
244.488	247
244.552	205
244.615	-1213
244.679	-159
244.743	-646
244.807	-42
244.871	259
244.935	-69
244.999	-973
245.063	-805
245.127	264
245.191	-117
245.255	353
245.319	741
245.383	-305
245.446	1127
245.510	-1283
245.574	132
245.638	418
245.702	-882
245.766	1843
245.829	1678
245.893	-697
245.957	305
246.021	786
246.085	-454
246.149	578
246.212	2837
246.276	3217
246.340	665
246.404	1302
246.467	1150
246.531	212
246.595	1392
246.659	1223
246.722	-97
246.786	949
246.850	696
246.913	1045
246.977	-1425
247.041	180
247.104	-311
247.168	86
247.232	2738
247.295	5944
247.359	2570
247.423	-465
247.486	1193
247.550	1270
247.614	79
247.677	962
247.741	457
247.804	-332
247.868	1369
247.932	1136
247.995	5632
248.059	1292
248.122	-1009
248.186	1342
248.249	2063
248.313	8913
248.376	9938
248.440	5485
248.503	388
248.567	2648
248.630	1508
248.694	3124
248.757	4692
248.821	9942
248.884	6415
248.948	4913
249.011	7256
249.075	11608
249.138	10193
249.202	3318
249.265	1217
249.328	2412
249.392	808
249.455	1806
249.519	513
249.582	893
249.645	1589
249.709	1505
249.772	980
249.835	1121
249.899	873
249.962	1095
250.025	-77
250.089	2737
250.152	5350
250.215	2535
250.279	221
250.342	2126
250.405	1770
250.468	168
250.532	1444
250.595	3967
250.658	10209
250.721	20162
250.785	6336
250.848	3482
250.911	199
250.974	1916
251.038	2021
251.101	5883
251.164	1737
251.227	2745
251.290	2442
251.354	3252
251.417	16352
251.480	15993
251.543	9629
251.606	30855
251.669	22618
251.732	8051
251.795	7855
251.859	8200
251.922	19834
251.985	11594
252.048	3709
252.111	2477
252.174	1739
252.237	5184
252.300	11521
252.363	12457
252.426	26631
252.489	9261
252.552	4763
252.615	2585
252.678	3511
252.741	8690
252.804	10499
252.867	25954
252.930	14881
252.993	8068
253.056	4807
253.119	3847
253.182	2056
253.245	2739
253.308	3347
253.371	2152
253.434	2785
253.497	2610
253.559	5115
253.622	3530
253.685	4104
253.748	4611
253.811	1159
253.874	3009
253.937	954
254.000	1805
254.062	2632
254.125	5916
254.188	6728
254.251	3690
254.314	1823
254.376	3310
254.439	4067
254.502	4059
254.565	2586
254.628	7205
254.690	3632
254.753	1831
254.816	856
254.878	1426
254.941	3729
255.004	3648
255.067	606
255.129	607
255.192	885
255.255	-480
255.317	231
255.380	309
255.443	127
255.505	145
255.568	-581
255.631	1029
255.693	355
255.756	-211
255.819	131
255.881	11
255.944	60
256.006	-753
256.069	-1105
256.132	-52
256.194	687
256.257	2687
256.319	1506
256.382	1185
256.444	1704
256.507	1201
256.569	291
256.632	781
256.694	936
256.757	5519
256.819	18249
256.882	5753
256.944	1518
257.007	1777
257.069	644
257.132	1023
257.194	1434
257.257	175
257.319	247
257.381	293
257.444	4160
257.506	19417
257.569	22536
257.631	5871
257.693	4612
257.756	2235
257.818	1147
257.880	-100
257.943	606
258.005	0
258.067	-443
258.130	655
258.192	614
258.254	1980
258.317	483
258.379	1313
258.441	2437
258.503	2764
258.566	2573
258.628	5430
258.690	180
258.753	580
258.815	1755
258.877	649
258.939	-325
259.001	942
259.064	-25
259.126	-354
259.188	684
259.250	435
259.312	363
259.375	528
259.437	355
259.499	306
259.561	308
259.623	400
259.685	118
259.747	1164
259.809	3559
259.872	6542
259.934	9446
259.996	10940
260.058	2600
260.120	168
260.182	685
260.244	-174
260.306	-313
260.368	532
260.430	-650
260.492	2356
260.554	3670
260.616	201
260.678	4931
260.740	6595
260.802	1002
260.864	1580
260.926	324
260.988	784
261.050	542
261.112	3747
261.174	10063
261.236	5501
261.298	778
261.359	2464
261.421	4376
261.483	715
261.545	1349
261.607	-151
261.669	-19
261.731	1112
261.793	4410
261.854	594
261.916	858
261.978	108
262.040	1729
262.102	538
262.164	31
262.225	1664
262.287	521
262.349	2283
262.411	2014
262.472	796
262.534	-69
262.596	3418
262.658	509
262.719	46
262.781	787
262.843	2774
262.904	1457
262.966	684
263.028	1516
263.090	7012
263.151	19981
263.213	6052
263.275	3178
263.336	1033
263.398	999
263.459	-229
263.521	-415
263.583	2972
263.644	1517
263.706	-503
263.767	-238
263.829	446
263.891	-414
263.952	-661
264.014	-167
264.075	1730
264.137	5075
264.198	1462
264.260	17
264.321	434
264.383	1658
264.444	8000
264.506	1777
264.567	713
264.629	2204
264.690	6127
264.752	2215
264.813	678
264.875	-490
264.936	1330
264.998	-274
265.059	423
265.120	728
265.182	592
265.243	9457
265.305	10540
265.366	1275
265.427	997
265.489	402
265.550	-70
265.611	719
265.673	-294
265.734	172
265.795	146
265.857	-203
265.918	-580
265.979	1946
266.040	15429
266.102	12896
266.163	2953
266.224	2601
266.286	694
266.347	256
266.408	232
266.469	1236
266.530	301
266.592	118
266.653	1691
266.714	2657
266.775	445
266.836	-316
266.898	224
266.959	854
267.020	791
267.081	1068
267.142	-402
267.203	-143
267.264	473
267.326	1066
267.387	-383
267.448	-754
267.509	1172
267.570	-650
267.631	-937
267.692	-1275
267.753	266
267.814	-424
267.875	1248
267.936	3634
267.997	2272
268.058	-18
268.119	652
268.180	311
268.241	508
268.302	-323
268.363	-70
268.424	-80
268.485	-747
268.546	-514
268.607	-526
268.668	-1590
268.729	-413
268.790	-453
268.851	59
268.912	1505
268.972	870
269.033	571
269.094	-357
269.155	-407
269.216	-246
269.277	-588
269.338	-113
269.398	-882
269.459	29
269.520	707
269.581	1553
269.642	1317
269.702	-120
269.763	-108
269.824	-71
269.885	-178
269.945	1357
270.006	-153
270.067	-322
270.128	-117
270.188	-330
270.249	-974
270.310	10
270.370	56
270.431	-1025
270.492	-1239
270.553	-186
270.613	819
270.674	3361
270.734	-20
270.795	956
270.856	958
270.916	736
270.977	4
271.038	764
271.098	-487
271.159	-65
271.219	668
271.280	632
271.340	-410
271.401	-105
271.462	552
271.522	1298
271.583	-250
271.643	390
271.704	-166
271.764	144
271.825	2557
271.885	9447
271.946	13498
272.006	3331
272.066	5706
272.127	10332
272.187	4421
272.248	1269
272.308	1014
272.369	7297
272.429	3129
272.489	2148
272.550	2432
272.610	2946
272.671	983
272.731	1716
272.791	1860
272.852	1067
272.912	775
272.972	73
273.033	-68
273.093	591
273.153	1889
273.214	454
273.274	1062
273.334	6769
273.394	11273
273.455	3771
273.515	4620
273.575	10070
273.635	3896
273.696	5393
273.756	9950
273.816	3789
273.876	2185
273.936	3766
273.997	6901
274.057	2011
274.117	740
274.177	1853
274.237	12357
274.297	10828
274.358	5389
274.418	6883
274.478	5746
274.538	1331
274.598	19
274.658	5725
274.718	5653
274.778	2286
274.838	1025
274.898	2066
274.958	9371
275.018	9286
275.078	5380
275.138	1590
275.198	624
275.258	243
275.318	1146
275.378	1731
275.438	2364
275.498	1343
275.558	4420
275.618	9451
275.678	6244
275.738	3627
275.798	2544
275.858	1823
275.918	-274
275.978	860
276.038	1000
276.098	-372
276.157	1488
276.217	6264
276.277	3015
276.337	1588
276.397	1232
276.457	880
276.517	502
276.576	740
276.636	300
276.696	898
276.756	2545
276.815	1604
276.875	421
276.935	728
276.995	1161
277.055	780
277.114	565
277.174	1056
277.234	4769
277.293	1837
277.353	503
277.413	867
277.472	1208
277.532	1259
277.592	1683
277.651	7957
277.711	14976
277.771	5210
277.830	17002
277.890	13567
277.950	8858
278.009	27975
278.069	9591
278.128	10913
278.188	16217
278.248	6640
278.307	17049
278.367	10416
278.426	1327
278.486	1836
278.545	465
278.605	697
278.664	581
278.724	1491
278.783	3977
278.843	11313
278.902	2550
278.962	1282
279.021	1815
279.081	3894
279.140	3847
279.199	2230
279.259	2172
279.318	3384
279.378	3786
279.437	5980
279.496	18216
279.556	66574
279.615	56740
279.675	17074
279.734	9357
279.793	9316
279.853	10313
279.912	5071
279.971	2647
280.031	3321
280.090	3850
280.149	6739
280.208	9511
280.268	48550
280.327	50510
280.386	13359
280.445	8719
280.505	6258
280.564	3328
280.623	2304
280.682	3450
280.742	6109
280.801	1582
280.860	1319
280.919	1194
280.978	931
281.037	757
281.097	591
281.156	1159
281.215	477
281.274	833
281.333	6657
281.392	4789
281.451	603
281.510	900
281.569	1089
281.628	569
281.688	967
281.747	285
281.806	707
281.865	573
281.924	-440
281.983	-16
282.042	190
282.101	-162
282.160	-186
282.219	97
282.278	486
282.337	3150
282.396	1770
282.454	606
282.513	-83
282.572	5376
282.631	2291
282.690	602
282.749	171
282.808	283
282.867	845
282.926	354
282.985	138
283.043	120
283.102	-445
283.161	-254
283.220	2134
283.279	6757
283.338	2226
283.396	342
283.455	1047
283.514	463
283.573	1933
283.631	1190
283.690	760
283.749	532
283.808	2080
283.866	2538
283.925	516
283.984	1609
284.043	1762
284.101	1350
284.160	1264
284.219	2709
284.277	1882
284.336	2741
284.395	8522
284.453	6472
284.512	4081
284.570	4664
284.629	4471
284.688	4546
284.746	5721
284.805	6951
284.863	9878
284.922	11545
284.981	14818
285.039	20513
285.098	32835
285.156	58176
285.215	59421
285.273	57501
285.332	58755
285.390	38468
285.449	25434
285.507	17087
285.566	12233
285.624	9485
285.683	7816
285.741	5558
285.799	5021
285.858	3366
285.916	3416
285.975	2659
286.033	2196
286.091	2124
286.150	1415
286.208	1680
286.267	2434
286.325	1393
286.383	2779
286.442	1980
286.500	1127
286.558	454
286.616	806
286.675	1919
286.733	786
286.791	416
286.850	1430
286.908	1807
286.966	2958
287.024	1071
287.083	1287
287.141	638
287.199	987
287.257	1012
287.315	873
287.374	556
287.432	3371
287.490	1876
287.548	1135
287.606	330
287.664	792
287.723	1250
287.781	1961
287.839	233
287.897	379
287.955	1310
288.013	2037
288.071	4480
288.129	22276
288.187	67969
288.245	28149
288.303	8897
288.361	3427
288.419	3524
288.477	2187
288.535	781
288.593	1228
288.651	1237
288.709	734
288.767	-435
288.825	908
288.883	205
288.941	1087
288.999	-291
289.057	-310
289.115	-85
289.173	-186
289.231	445
289.289	193
289.346	-187
289.404	87
289.462	968
289.520	670
289.578	583
289.636	123
289.694	-191
289.751	139
289.809	-136
289.867	219
289.925	776
289.983	276
290.040	79
290.098	-234
290.156	-411
290.214	1107
290.271	-577
290.329	-54
290.387	-92
290.444	-256
290.502	-683
290.560	237
290.617	225
290.675	557
290.733	177
290.790	690
290.848	46
290.906	484
290.963	-199
291.021	-373
291.078	-265
291.136	-461
291.194	3109
291.251	8033
291.309	1906
291.366	-147
291.424	161
291.481	395
291.539	57
291.596	682
291.654	-605
291.711	636
291.769	181
291.826	1420
291.884	709
291.941	-209
291.999	114
292.056	554
292.114	385
292.171	802
292.228	305
292.286	682
292.343	993
292.401	1683
292.458	692
292.515	643
292.573	331
292.630	587
292.687	502
292.745	326
292.802	576
292.859	4602
292.917	7094
292.974	3950
293.031	713
293.089	-256
293.146	-145
293.203	277
293.260	-304
293.318	140
293.375	1410
293.432	187
293.489	427
293.546	-406
293.604	563
293.661	4005
293.718	12322
293.775	6277
293.832	2724
293.889	2476
293.947	939
294.004	1184
294.061	671
294.118	2097
294.175	6978
294.232	11975
294.289	5207
294.346	1811
294.403	739
294.460	1479
294.517	142
294.574	770
294.631	653
294.688	1252
294.745	2317
294.802	13349
294.859	16790
294.916	5595
294.973	1998
295.030	1355
295.087	1083
295.144	1371
295.201	522
295.258	645
295.315	-71
295.372	3351
295.429	8872
295.486	3825
295.542	1910
295.599	7280
295.656	12290
295.713	7969
295.770	9017
295.827	3368
295.883	1520
295.940	1227
295.997	2063
296.054	2025
296.111	738
296.167	689
296.224	-143
296.281	-338
296.338	212
296.394	224
296.451	457
296.508	3177
296.564	8118
296.621	4870
296.678	8927
296.734	14821
296.791	5547
296.848	2299
296.904	2331
296.961	5034
297.018	9191
297.074	7239
297.131	2577
297.187	1659
297.244	2727
297.301	8998
297.357	17591
297.414	5883
297.470	2856
297.527	563
297.583	1447
297.640	1240
297.696	89
297.753	238
297.809	-274
297.866	-24
297.922	274
297.979	-612
298.035	57
298.092	1435
298.148	5344
298.204	5214
298.261	1866
298.317	4299
298.374	12383
298.430	7229
298.486	1934
298.543	916
298.599	1132
298.656	1659
298.712	3438
298.768	8749
298.824	4972
298.881	1605
298.937	848
298.993	648
299.050	916
299.106	1026
299.162	1000
299.218	553
299.275	495
299.331	1294
299.387	1968
299.443	10828
299.500	15505
299.556	7412
299.612	2735
299.668	2648
299.724	6241
299.780	7302
299.837	3235
299.893	3234
299.949	11422
300.005	14552
300.061	11281
300.117	20206
300.173	8397
300.229	3959
300.285	3695
300.341	4313
300.397	2146
300.453	1234
300.510	959
300.566	1777
300.622	2207
300.678	11402
300.734	17705
300.790	12165
300.845	11899
300.901	9220
300.957	13863
301.013	8718
301.069	2001
301.125	2450
301.181	2364
301.237	2714
301.293	603
301.349	1291
301.405	687
301.461	913
301.516	789
301.572	1189
301.628	1797
301.684	2174
301.740	3264
301.796	6680
301.851	4367
301.907	6738
301.963	6072
302.019	9281
302.074	28517
302.130	27412
302.186	11772
302.242	5034
302.297	3071
302.353	2754
302.409	5380
302.464	4822
302.520	3433
302.576	10088
302.631	11997
302.687	7061
302.743	2214
302.798	875
302.854	868
302.910	930
302.965	1061
303.021	4020
303.076	2419
303.132	3899
303.187	4656
303.243	1993
303.299	907
303.354	425
303.410	403
303.465	692
303.521	543
303.576	409
303.632	818
303.687	2738
303.743	8817
303.798	8539
303.853	1959
303.909	1279
303.964	200
304.020	2217
304.075	2939
304.130	2693
304.186	5326
304.241	6341
304.297	5375
304.352	1835
304.358	1729
304.407	864
304.449	1138
304.463	1236
304.518	308
304.539	277
304.573	215
304.629	1172
304.630	1179
304.684	1680
304.720	5113
304.739	6768
304.794	10765
304.811	9077
304.850	5147
304.902	2408
304.905	2234
304.960	226
304.992	890
305.015	1354
305.071	1633
305.083	1603
305.126	1499
305.173	855
305.181	746
305.236	54
305.264	481
305.292	958
305.347	851
305.354	871
305.402	1017
305.445	1210
305.457	1221
305.512	1993
305.535	1959
305.567	2006
305.622	2017
305.626	2092
305.678	3964
305.716	8402
305.733	9911
305.788	11661
305.807	9980
305.843	7356
305.897	9815
305.898	9835
305.953	9174
305.988	6180
306.008	4648
306.063	2876
306.078	2527
306.118	1707
306.168	892
306.173	812
306.228	1306
306.259	1022
306.283	863
306.338	543
306.349	738
306.393	1455
306.440	1275
306.448	1282
306.503	1291
306.530	1774
306.558	2517
306.613	5659
306.620	5937
306.668	7580
306.711	9995
306.723	10245
306.778	7480
306.801	5605
306.833	3726
306.888	2229
306.892	2146
306.943	1327
306.982	874
306.997	694
307.052	705
307.072	853
307.107	1399
307.162	2231
307.163	2247
307.217	3860
307.253	4468
307.272	4519
307.327	5010
307.343	4524
307.381	3793
307.434	2976
307.436	3017
307.491	6649
307.524	9840
307.546	10632
307.600	9126
307.614	8005
307.655	5025
307.704	2390
307.710	2310
307.765	3407
307.795	4717
307.819	5477
307.874	9270
307.885	9064
307.929	7081
307.975	5302
307.984	5300
308.038	6701
308.065	8067
308.093	14294
308.148	30165
308.156	34159
308.202	48010
308.246	53106
308.257	52278
308.312	28807
308.336	20735
308.366	15276
308.421	9417
308.426	8895
308.475	5465
308.517	3963
308.530	3661
308.585	3403
308.607	3334
308.639	3569
308.694	4120
308.697	4200
308.748	7725
308.787	12075
308.803	12190
308.857	8470
308.877	6782
308.912	5738
308.967	6024
308.967	6044
309.021	9249
309.058	11766
309.076	14293
309.130	23787
309.148	27394
309.185	45868
309.238	78037
309.239	78091
309.293	77944
309.328	67053
309.348	58945
309.402	29914
309.418	23214
309.457	16864
309.508	11493
309.511	11393
309.566	12319
309.598	13895
309.620	16821
309.674	26234
309.688	28712
309.729	26375
309.778	18941
309.783	18403
309.837	11858
309.868	8888
309.892	9680
309.946	13270
309.959	14407
310.001	15882
310.049	16954
310.055	16425
310.109	9628
310.139	5985
310.163	4636
310.218	2861
310.229	2470
310.272	2112
310.319	1992
310.326	1936
310.381	2155
310.409	2099
310.435	2034
310.489	1786
310.499	1753
310.543	1952
310.589	2318
310.598	2356
310.652	2564
310.679	2614
310.706	2210
310.760	1249
310.769	1122
310.814	1460
310.859	1755
310.868	1746
310.923	1743
310.948	1747
310.977	2077
311.031	2667
311.038	2732
311.085	2039
311.128	1418
311.139	1485
311.193	1774
311.218	1943
311.247	1823
311.301	1509
311.308	1473
311.356	1418
311.398	1330
311.410	1271
311.464	974
311.488	838
311.518	1065
311.572	1485
311.578	1530
311.626	2011
311.668	2494
311.680	2510
311.734	2473
311.758	2448
311.788	2328
311.842	2111
311.847	2087
311.896	3409
311.937	4582
311.950	4363
312.004	3371
312.027	2914
312.058	2450
312.112	1647
312.117	1569
312.165	1758
312.207	1926
312.297	2480
312.386	1732
312.476	2527
312.566	3128
312.656	2215
312.745	1280
312.835	2276
312.925	1585
313.015	1582
313.104	1618
313.194	2598
313.284	2837
313.374	2429
313.463	1806
313.553	1574
313.643	763
313.732	2179
313.822	1372
313.912	2380
314.001	2309
314.091	2960
314.180	2420
314.270	3196
314.360	3170
314.449	2552
314.539	1325
314.628	1760
314.718	2670
314.808	2813
314.897	2105
314.987	2509
315.076	1911
315.166	3446
315.255	2646
315.345	2900
315.434	2539
315.524	2408
315.613	2283
315.703	4054
315.792	7485
315.881	17248
315.971	4589
316.060	5679
316.150	7539
316.239	7700
316.328	2597
316.418	2041
316.507	1470
316.597	2507
316.686	1579
316.775	4767
316.865	7104
316.954	2400
317.043	2525
317.133	2086
317.222	1934
317.311	1464
317.400	438
317.490	3379
317.579	2076
317.668	2458
317.757	4376
317.847	13104
317.936	28468
318.025	8571
318.114	6694
318.203	3294
318.293	3379
318.382	6541
318.471	6351
318.560	10887
318.649	17597
318.738	3792
318.828	3366
318.917	2788
319.006	4977
319.095	10433
319.184	23981
319.273	10252
319.362	5223
319.451	2408
319.540	2213
319.629	5189
319.718	5360
319.807	3981
319.896	10893
319.985	27872
320.074	7441
320.163	2935
320.252	4585
320.341	3958
320.430	3558
320.519	5219
320.608	1809
320.697	2214
320.786	1920
320.875	3096
320.964	4642
321.053	5650
321.142	8024
321.230	6714
321.319	6803
321.408	12150
321.497	6208
321.586	6647
321.675	8257
321.764	6387
321.852	4777
321.941	7509
322.030	5387
322.119	6763
322.207	14452
322.296	10866
322.385	6694
322.474	9167
322.562	16554
322.651	7951
322.740	5906
322.829	8664
322.917	9249
323.006	4849
323.095	4181
323.183	4083
323.272	5932
323.361	14035
323.449	26927
323.538	9995
323.626	21256
323.715	8488
323.804	7461
323.892	18251
323.981	6641
324.069	4443
324.158	13316
324.246	7506
324.335	3004
324.424	4228
324.512	2191
324.601	3660
324.689	6092
324.778	9165
324.866	5857
324.954	2190
325.043	1922
325.131	5253
325.220	9128
325.308	7833
325.397	7063
325.485	3302
325.574	944
325.662	1690
325.750	1629
325.839	2338
325.927	1582
326.015	2595
326.104	3976
326.192	3966
326.280	2248
326.369	2167
326.457	2480
326.545	4325
326.634	1711
326.722	2129
326.810	2226
326.898	2139
326.987	1340
327.075	3609
327.163	5271
327.251	1984
327.340	4375
327.428	5049
327.516	2172
327.604	2238
327.692	2030
327.781	2325
327.869	3421
327.957	2053
328.045	1467
328.133	1545
328.221	2084
328.309	1694
328.397	1331
328.485	2322
328.574	2857
328.662	8850
328.750	4362
328.838	2201
328.926	2156
329.014	1204
329.102	2375
329.190	6151
329.278	2463
329.366	2019
329.454	769
329.542	1734
329.630	1126
329.718	1746
329.806	1538
329.893	2160
329.981	707
330.069	1589
330.157	2536
330.245	4236
330.333	2119
330.421	1959
330.509	3046
330.597	9694
330.684	4727
330.772	3637
330.860	4593
330.948	5355
331.036	981
331.123	998
331.211	1406
331.299	2665
331.387	5989
331.475	6410
331.562	2302
331.650	1488
331.738	1251
331.825	3445
331.913	906
332.001	2098
332.089	2211
332.176	4636
332.264	10903
332.352	5630
332.439	2425
332.527	1564
332.614	1405
332.702	2350
332.790	1740
332.877	6513
332.965	9637
333.052	2956
333.140	5568
333.228	7675
333.315	2456
333.403	2549
333.490	6526
333.578	7196
333.665	11714
333.753	4252
333.840	1199
333.928	3064
334.015	7493
334.103	14461
334.190	28794
334.278	6576
334.365	5178
334.452	5236
334.540	2802
334.627	3704
334.715	4641
334.802	12513
334.889	44976
334.977	31195
335.064	8528
335.151	3553
335.239	3661
335.326	4858
335.413	20354
335.501	16577
335.588	3376
335.675	2809
335.762	4320
335.850	5985
335.937	6458
336.024	18827
336.111	45695
336.199	20190
336.286	5932
336.373	4129
336.460	1891
336.547	2573
336.635	2310
336.722	2330
336.809	1621
336.896	3957
336.983	11472
337.070	25050
337.157	29849
337.245	25251
337.332	10952
337.419	2277
337.506	2159
337.593	3162
337.680	10078
337.767	20524
337.854	5918
337.941	8022
338.028	7387
338.115	2071
338.202	4310
338.289	10189
338.376	20554
338.463	5920
338.550	15762
338.637	10648
338.724	6133
338.811	6604
338.898	1837
338.984	1852
339.071	2363
339.158	2036
339.245	5113
339.332	3235
339.419	5501
339.506	4259
339.593	516
339.679	1614
339.766	543
339.853	1755
339.940	3546
340.027	1826
340.113	1823
340.200	1875
340.287	656
340.374	2499
340.460	2950
340.547	1737
340.634	3506
340.720	9981
340.807	3244
340.894	1832
340.980	1502
341.067	1574
341.154	2810
341.240	3199
341.327	3910
341.414	2743
341.500	2834
341.587	2340
341.674	1191
341.760	3150
341.847	2819
341.933	1254
342.020	385
342.106	1300
342.193	1743
342.279	2041
342.366	2292
342.452	2898
342.539	1418
342.625	4668
342.712	8422
342.798	3283
342.885	1780
342.971	709
343.058	1203
343.144	1194
343.230	1351
343.317	1726
343.403	384
343.490	809
343.576	1045
343.662	981
343.749	2154
343.835	2584
343.921	5708
344.008	29694
344.094	41758
344.180	7037
344.267	3619
344.353	15638
344.439	10626
344.525	4385
344.612	2847
344.698	2918
344.784	891
344.870	1250
344.957	1251
345.043	2351
345.129	925
345.215	3110
345.301	2315
345.387	2539
345.474	502
345.560	988
345.646	904
345.732	2086
345.818	658
345.904	1223
345.990	1103
346.076	2404
346.162	3398
346.249	2717
346.335	1054
346.421	2385
346.507	7756
346.593	17191
346.679	1895
346.765	2396
346.851	1736
346.937	637
347.023	1726
347.108	1690
347.194	749
347.280	1543
347.366	1987
347.452	10182
347.538	23610
347.624	16665
347.710	9523
347.796	1870
347.882	906
347.967	2147
348.053	1714
348.139	2299
348.225	1201
348.311	568
348.397	1210
348.482	2314
348.568	1539
348.654	1075
348.740	4100
348.825	2865
348.911	4045
348.997	14899
349.083	17625
349.168	2314
349.254	2092
349.340	1338
349.425	1186
349.511	2161
349.597	1732
349.682	3883
349.768	12526
349.854	3887
349.939	1583
350.025	466
350.110	1179
350.196	1431
350.282	824
350.367	1654
350.453	2198
350.538	2408
350.624	1755
350.709	1481
350.795	853
350.880	1632
350.966	2053
351.051	2978
351.137	1254
351.222	2138
351.308	5317
351.393	8908
351.479	2271
351.564	974
351.649	1098
351.735	1284
351.820	-149
351.906	537
351.991	2139
352.076	6995
352.162	7727
352.247	1710
352.332	1698
352.418	3821
352.503	5344
352.588	16518
352.673	9724
352.759	1890
352.844	545
352.929	1970
353.014	1135
353.100	1340
353.185	1114
353.270	3071
353.355	2074
353.441	2130
353.526	603
353.611	3696
353.696	2152
353.781	1806
353.866	514
353.952	1793
354.037	3205
354.122	6686
354.207	5214
354.292	2001
354.377	579
354.462	943
354.547	1186
354.632	1253
354.717	1058
354.802	449
354.887	256
354.972	1030
355.057	1051
355.142	77
355.227	1763
355.312	2283
355.397	4005
355.482	10007
355.567	3233
355.652	4468
355.737	4655
355.822	14504
355.907	7658
355.991	2449
356.076	736
356.161	1553
356.246	942
356.331	950
356.416	4876
356.501	28171
356.585	18910
356.670	2206
356.755	3016
356.840	4067
356.924	22105
357.009	51530
357.094	14570
357.179	3875
357.263	2427
357.348	3729
357.433	3501
357.517	2830
357.602	2149
357.687	1410
357.771	3637
357.856	12229
357.941	7115
358.025	19678
358.110	53876
358.195	17513
358.279	2444
358.364	3030
358.448	12569
358.533	25161
358.617	15722
358.702	17804
358.787	4842
358.871	3867
358.956	2288
359.040	677
359.125	422
359.209	2384
359.294	6447
359.378	9606
359.462	3159
359.547	2102
359.631	1508
359.716	299
359.800	1230
359.885	2680
359.969	572
360.053	1913
360.138	1155
360.222	2005
360.306	2813
360.391	3136
360.475	7803
360.559	11556
360.644	9172
360.728	4720
360.812	18543
360.896	33366
360.981	12278
361.065	5049
361.149	2571
361.233	1985
361.318	1024
361.402	1668
361.486	2185
361.570	1351
361.654	1465
361.739	5787
361.823	28062
361.907	31646
361.991	4534
362.075	3138
362.159	6439
362.243	7466
362.327	11511
362.411	17676
362.495	6131
362.580	2594
362.664	2678
362.748	2413
362.832	3715
362.916	8243
363.000	32034
363.084	62524
363.168	44536
363.252	9470
363.336	4531
363.420	7612
363.503	24798
363.587	21369
363.671	3570
363.755	1898
363.839	4544
363.923	1691
364.007	4726
364.091	6215
364.175	13650
364.258	43246
364.342	39818
364.426	62956
364.510	28235
364.594	10633
364.677	12512
364.761	33908
364.845	17884
364.929	7046
365.013	4000
365.096	4731
365.180	4274
365.264	14177
365.347	34673
365.431	10781
365.515	2663
365.598	1139
365.682	3644
365.766	3720
365.849	3731
365.933	2340
366.017	4160
366.100	1641
366.184	402
366.267	1853
366.351	1706
366.435	576
366.518	531
366.602	1662
366.685	1250
366.769	1925
366.852	3273
366.936	4256
367.019	2069
367.103	2424
367.186	4833
367.270	1136
367.353	-247
367.436	2759
367.520	1336
367.603	1598
367.687	1303
367.770	3519
367.853	4035
367.937	12297
368.020	13287
368.104	2342
368.187	3174
368.270	4515
368.353	4149
368.437	8041
368.520	15781
368.603	7051
368.687	11520
368.770	16127
368.853	3297
368.936	5632
369.020	4298
369.103	1378
369.186	600
369.269	1383
369.352	2653
369.436	3520
369.519	1687
369.602	374
369.685	2876
369.768	871
369.851	1729
369.934	298
370.018	1554
370.101	2361
370.184	3866
370.267	2654
370.350	3391
370.433	7735
370.516	20048
370.599	21071
370.682	5317
370.765	11225
370.848	15362
370.931	22230
371.014	7547
371.097	1314
371.180	1278
371.263	1523
371.346	-7
371.429	1176
371.511	931
371.594	2167
371.677	4448
371.760	6807
371.843	4752
371.926	26129
372.009	41421
372.091	13847
372.174	13123
372.257	24146
372.340	7891
372.423	7307
372.505	9145
372.588	3286
372.671	11086
372.754	22576
372.836	10295
372.919	12851
373.002	18453
373.085	4087
373.167	4954
373.250	12215
373.332	24017
373.415	38343
373.498	56035
373.580	23099
373.663	40740
373.746	38828
373.828	6939
373.911	5142
373.993	5653
374.076	22240
374.159	15503
374.241	8535
374.324	20474
374.406	13200
374.489	26266
374.571	50558
374.654	16666
374.736	13130
374.819	35020
374.901	50189
374.983	38666
375.066	6283
375.148	4623
375.231	20596
375.313	28539
375.395	8759
375.478	2082
375.560	2282
375.643	3459
375.725	14921
375.807	43318
375.890	31038
375.972	11490
376.054	8711
376.136	12067
376.219	5014
376.301	15616
376.383	31695
376.465	10813
376.548	5915
376.630	12361
376.712	27604
376.794	9739
376.877	1764
376.959	-141
377.041	2241
377.123	5003
377.205	5433
377.287	-129
377.369	1520
377.452	637
377.534	1794
377.616	1145
377.698	882
377.780	162
377.862	868
377.944	1220
378.026	635
378.108	1326
378.190	675
378.272	960
378.354	1330
378.436	413
378.518	2398
378.600	8299
378.682	7452
378.764	13614
378.846	8445
378.928	2562
379.010	2689
379.091	1973
379.173	1124
379.255	361
379.337	1838
379.419	7984
379.501	19022
379.583	5469
379.664	2024
379.746	5567
379.828	18152
379.910	18325
379.991	13532
380.073	2090
380.155	2013
380.237	1261
380.318	1675
380.400	1024
380.482	2916
380.564	3747
380.645	3097
380.727	2899
380.809	2832
380.890	1217
380.972	297
381.053	1139
381.135	3118
381.217	5125
381.298	13990
381.380	5538
381.461	9213
381.543	31298
381.624	28944
381.706	4734
381.787	3346
381.869	3737
381.951	19705
382.032	48632
382.113	26434
382.195	4362
382.276	5522
382.358	10965
382.439	27574
382.521	35552
382.602	45248
382.684	22881
382.765	40959
382.846	57296
382.928	91614
383.009	41791
383.090	42604
383.172	140967
383.253	162405
383.334	51419
383.416	42821
383.497	20298
383.578	14515
383.659	33896
383.741	129924
383.822	240049
383.903	103426
383.984	37860
384.066	49171
384.147	24452
384.228	7165
384.309	4975
384.390	4506
384.471	2816
384.553	4282
384.634	4289
384.715	5230
384.796	2547
384.877	4461
384.958	15252
385.039	13139
385.120	4156
385.201	3739
385.282	3598
385.363	5409
385.444	3134
385.525	8947
385.606	22839
385.687	16455
385.768	4423
385.849	7073
385.930	28821
386.011	36010
386.092	8629
386.173	3003
386.254	2816
386.335	4364
386.416	5184
386.496	10687
386.577	12726
386.658	5857
386.739	2821
386.820	4459
386.901	3764
386.981	3256
387.062	2602
387.143	4918
387.224	14928
387.304	12760
387.385	6383
387.466	3912
387.547	5429
387.627	3533
387.708	9887
387.789	29594
387.869	27581
387.950	8245
388.031	2485
388.111	902
388.192	7328
388.273	9958
388.353	5325
388.434	2894
388.514	8187
388.595	28408
388.676	28088
388.756	12834
388.837	12150
388.917	6619
388.998	833
389.078	2099
389.159	1454
389.239	485
389.320	3954
389.400	1051
389.480	8318
389.561	15362
389.641	7141
389.722	3083
389.802	3398
389.883	8450
389.963	18962
390.043	9522
390.124	2772
390.204	7533
390.284	15042
390.365	9090
390.445	15113
390.525	22722
390.605	14977
390.686	4898
390.766	2086
390.846	2800
390.927	572
391.007	1327
391.087	2376
391.167	1580
391.247	868
391.328	4049
391.408	5579
391.488	4106
391.568	899
391.648	2334
391.728	2564
391.808	4493
391.888	3577
391.969	10010
392.049	12705
392.129	7589
392.209	8913
392.289	18099
392.369	9808
392.449	10036
392.529	6241
392.609	6056
392.689	9145
392.769	19376
392.849	15607
392.929	17977
393.009	31470
393.089	25538
393.169	37762
393.248	118949
393.328	294157
393.408	257384
393.488	83107
393.568	27947
393.648	14152
393.728	8937
393.807	5657
393.887	6385
393.967	5058
394.047	4671
394.127	5018
394.206	8972
394.286	36441
394.366	117929
394.446	96532
394.525	18876
394.605	4656
394.685	6671
394.764	15777
394.844	23698
394.924	14638
395.003	4192
395.083	2878
395.163	2641
395.242	2247
395.322	2263
395.402	745
395.481	5055
395.561	11485
395.640	27926
395.720	27174
395.799	30949
395.879	18098
395.958	11329
396.038	50575
396.117	150680
396.197	130671
396.276	35184
396.356	13318
396.435	11944
396.515	9550
396.594	13053
396.673	32384
396.753	119716
396.832	254345
396.912	163114
396.991	40454
397.070	14746
397.150	6963
397.229	8063
397.308	14181
397.388	19796
397.467	9336
397.546	3393
397.625	205
397.705	4424
397.784	2229
397.863	1863
397.942	1897
398.022	3342
398.101	10751
398.180	23170
398.259	10431
398.338	2986
398.417	1513
398.497	1309
398.576	2171
398.655	369
398.734	1225
398.813	2302
398.892	11164
398.971	25562
399.050	9258
399.129	964
399.208	1028
399.287	1507
399.366	344
399.445	969
399.524	521
399.603	83
399.682	2712
399.761	10404
399.840	28047
399.919	18554
399.998	1540
400.077	162
400.156	-690
400.235	3049
400.313	394
400.392	1337
400.471	8287
400.550	10516
400.629	1832
400.708	2100
400.786	1513
400.865	6029
400.944	3999
401.023	3642
401.102	187
401.180	708
401.259	-495
401.338	828
401.416	1558
401.495	878
401.574	1223
401.652	639
401.731	1821
401.810	730
401.888	-243
401.967	506
402.046	97
402.124	1750
402.203	799
402.281	1047
402.360	1898
402.438	6662
402.517	2556
402.596	1520
402.674	728
402.753	166
402.831	1371
402.910	960
402.988	1166
403.066	3292
403.145	2453
403.223	1986
403.302	1388
403.380	1736
403.459	760
403.537	1246
403.615	673
403.694	-536
403.772	2270
403.850	300
403.929	180
404.007	-193
404.085	1403
404.164	-98
404.242	-40
404.320	4873
404.398	13297
404.477	18595
404.555	40356
404.633	28129
404.711	10599
404.789	5214
404.868	612
404.946	-71
405.024	333
405.102	172
405.180	-99
405.258	-347
405.336	1616
405.415	327
405.493	1535
405.571	1408
405.649	3
405.727	-632
405.805	1836
405.883	1529
405.961	1658
406.039	1705
406.117	-844
406.195	2392
406.273	11424
406.351	29647
406.429	14197
406.507	2403
406.585	-396
406.663	1261
406.740	404
406.818	353
406.896	-163
406.974	1665
407.052	3593
407.130	20525
407.208	20877
407.285	3927
407.363	-283
407.441	402
407.519	-201
407.596	479
407.674	3133
407.752	9276
407.830	8584
407.907	3187
407.985	66
408.063	298
408.141	-88
408.218	1934
408.296	-524
408.373	285
408.451	1430
408.529	672
408.606	-585
408.684	512
408.762	93
408.839	-57
408.917	131
408.994	863
409.072	-71
409.149	524
409.227	2311
409.304	3785
409.382	2700
409.459	3882
409.537	5274
409.614	5171
409.692	2715
409.769	3125
409.846	5620
409.924	7453
410.001	2235
410.079	2498
410.156	2407
410.233	1471
410.311	489
410.388	211
410.465	1378
410.543	701
410.620	1160
410.697	1521
410.775	603
410.852	-730
410.929	1247
411.006	1907
411.083	925
411.161	1576
411.238	2396
411.315	892
411.392	244
411.469	1774
411.547	1260
411.624	-833
411.701	43
411.778	1275
411.855	1381
411.932	441
412.009	-340
412.086	1109
412.163	492
412.240	575
412.317	918
412.394	358
412.471	185
412.548	-381
412.625	293
412.702	1427
412.779	844
412.856	1218
412.933	-466
413.010	120
413.087	1117
413.164	6989
413.241	8129
413.318	326
413.395	902
413.471	1588
413.548	-39
413.625	897
413.702	-556
413.779	259
413.855	-168
413.932	-698
414.009	-1066
414.086	389
414.162	379
414.239	1538
414.316	7890
414.393	13357
414.469	2090
414.546	-482
414.623	-186
414.699	459
414.776	-202
414.853	222
414.929	896
415.006	-222
415.082	426
415.159	284
415.236	-416
415.312	484
415.389	1491
415.465	1089
415.542	298
415.618	203
415.695	1288
415.771	142
415.848	920
415.924	413
416.000	240
416.077	1193
416.153	-1209
416.230	-297
416.306	-310
416.383	-746
416.459	627
416.535	-381
416.612	-808
416.688	17
416.764	-291
416.841	-587
416.917	-395
416.993	-377
417.069	766
417.146	512
417.222	1069
417.298	447
417.374	-216
417.451	95
417.527	-236
417.603	974
417.679	113
417.755	32
417.831	-927
417.908	-8
417.984	-572
418.060	-170
418.136	1837
418.212	940
418.288	281
418.364	613
418.440	-563
418.516	1736
418.592	821
418.668	2533
418.744	3450
418.820	2208
418.896	-417
418.972	-940
419.048	897
419.124	2541
419.200	-856
419.276	3
419.352	-401
419.428	-385
419.504	-406
419.579	248
419.655	-631
419.731	832
419.807	2724
419.883	3439
419.959	1962
420.034	731
420.110	2954
420.186	8224
420.262	5127
420.337	975
420.413	645
420.489	630
420.565	1229
420.640	-29
420.716	594
420.792	149
420.867	1179
420.943	-39
421.019	1139
421.094	1588
421.170	166
421.245	782
421.321	1497
421.397	565
421.472	3599
421.548	5545
421.623	3729
421.699	2880
421.774	2736
421.850	2573
421.925	3885
422.001	4934
422.076	5108
422.152	6774
422.227	9533
422.302	14611
422.378	21447
422.453	37443
422.529	78587
422.604	142186
422.679	164341
422.755	125568
422.830	70276
422.905	36622
422.981	21574
423.056	14696
423.131	10578
423.207	8309
423.282	6685
423.357	7124
423.432	4376
423.508	5199
423.583	5734
423.658	4387
423.733	3246
423.808	2698
423.883	2750
423.959	3102
424.034	2060
424.109	2995
424.184	693
424.259	510
424.334	701
424.409	366
424.484	645
424.559	700
424.634	131
424.709	1271
424.784	777
424.859	876
424.934	1168
425.009	6741
425.084	8770
425.159	2853
425.234	235
425.309	-274
425.384	3470
425.459	4401
425.534	958
425.609	-267
425.683	-461
425.758	346
425.833	412
425.908	1205
425.983	3675
426.058	8856
426.132	3008
426.207	-338
426.282	2042
426.357	561
426.431	-398
426.506	240
426.581	-272
426.655	-191
426.730	-197
426.805	-266
426.879	697
426.954	379
427.029	2200
427.103	13437
427.178	23527
427.253	8112
427.327	585
427.402	1471
427.476	5710
427.551	1967
427.625	-158
427.700	1039
427.774	-732
427.849	-324
427.923	-53
427.998	-150
428.072	265
428.147	3501
428.221	18420
428.296	45334
428.370	19342
428.444	2547
428.519	3001
428.593	5561
428.667	4153
428.742	5507
428.816	8821
428.890	32701
428.965	41313
429.039	11879
429.113	5421
429.188	1017
429.262	446
429.336	2206
429.410	4152
429.485	3379
429.559	3545
429.633	3437
429.707	888
429.781	8005
429.855	34045
429.930	39912
430.004	20320
430.078	25738
430.152	29264
430.226	59984
430.300	49193
430.374	7493
430.448	2951
430.522	10099
430.596	23793
430.670	19367
430.744	48489
430.818	49327
430.892	6998
430.966	670
431.040	202
431.114	-1074
431.188	-614
431.262	-84
431.336	-520
431.410	2919
431.484	4851
431.557	2165
431.631	216
431.705	1284
431.779	11929
431.853	41401
431.927	22788
432.000	2234
432.074	144
432.148	883
432.222	251
432.295	33
432.369	-585
432.443	965
432.516	12744
432.590	23804
432.664	5214
432.737	-325
432.811	-1575
432.885	-603
432.958	-273
433.032	-820
433.106	-1500
433.179	-934
433.253	-402
433.326	-524
433.400	-1489
433.473	-614
433.547	-733
433.620	-356
433.694	-618
433.767	706
433.841	-1142
433.914	-464
433.988	-971
434.061	-1167
434.134	-738
434.208	-1472
434.281	-1776
434.355	-1038
434.428	-746
434.501	-438
434.575	-821
434.648	-974
434.721	-1282
434.795	-648
434.868	-1555
434.941	-1143
435.014	-1306
435.088	-25
435.161	320
435.234	900
435.307	699
435.381	362
435.454	931
435.527	2647
435.600	2160
435.673	1616
435.746	29
435.819	-68
435.892	372
435.966	-29
436.039	-675
436.112	199
436.185	-1580
436.258	-813
436.331	-1167
436.404	-352
436.477	-1652
436.550	-858
436.623	-329
436.696	-605
436.769	-696
436.842	-423
436.915	-357
436.987	29
437.060	-990
437.133	-551
437.206	-793
437.279	38
437.352	-1459
437.425	-1269
437.498	-437
437.570	417
437.643	-250
437.716	-252
437.789	-1514
437.861	-403
437.934	681
438.007	11
438.080	-1306
438.152	10
438.225	2334
438.298	18396
438.370	34013
438.443	9749
438.516	581
438.588	-1282
438.661	-890
438.734	85
438.806	-989
438.879	-263
438.951	-331
439.024	-127
439.096	-1574
439.169	-935
439.241	-530
439.314	-788
439.386	-250
439.459	1434
439.531	736
439.604	-474
439.676	-926
439.749	-542
439.821	-1972
439.893	-767
439.966	-1024
440.038	-914
440.110	-612
440.183	-976
440.255	-888
440.327	831
440.400	7474
440.472	21192
440.544	8851
440.617	259
440.689	1436
440.761	1037
440.833	1046
440.905	-3
440.978	-684
441.050	-1249
441.122	61
441.194	-1021
441.266	-947
441.338	-671
441.411	537
441.483	7050
441.555	6663
441.627	713
441.699	760
441.771	49
441.843	-665
441.915	-360
441.987	-423
442.059	-147
442.131	49
442.203	982
442.275	39
442.347	973
442.419	5068
442.491	28828
442.563	51598
442.635	18978
442.706	6635
442.778	3064
442.850	-545
442.922	69
442.994	119
443.066	1292
443.137	711
443.209	823
443.281	2119
443.353	7193
443.425	34501
443.496	94049
443.568	81167
443.640	26623
443.711	4786
443.783	1490
443.855	785
443.926	581
443.998	-391
444.070	1118
444.141	-220
444.213	719
444.285	1246
444.356	441
444.428	-276
444.499	31
444.571	-460
444.642	-238
444.714	-893
444.785	1079
444.857	2214
444.928	3289
445.000	1267
445.071	4055
445.143	2213
445.214	2783
445.285	6494
445.357	19918
445.428	68819
445.500	116424
445.571	74462
445.642	41624
445.714	14456
445.785	7537
445.856	973
445.928	1482
445.999	84
446.070	162
446.141	142
446.213	169
446.284	-823
446.355	94
446.426	-551
446.497	-303
446.569	261
446.640	866
446.711	-485
446.782	-541
446.853	548
446.924	300
446.995	-1351
447.066	167
447.138	-265
447.209	-352
447.280	-1241
447.351	-1520
447.422	-1246
447.493	475
447.564	34
447.635	-418
447.706	-915
447.777	-662
447.847	-1066
447.918	-149
447.989	-341
448.060	201
448.131	1992
448.202	806
448.273	255
448.344	73
448.414	-933
448.485	-422
448.556	-11
448.627	-688
448.698	-298
448.768	-1040
448.839	-547
448.910	568
448.981	-137
449.051	-673
449.122	-1289
449.193	-3
449.263	61
449.334	-739
449.405	-119
449.475	545
449.546	22
449.616	1046
449.687	460
449.758	-432
449.828	-1605
449.899	-1184
449.969	-460
450.040	-688
450.110	-289
450.181	24
450.251	-521
450.322	-508
450.392	-480
450.463	-425
450.533	-434
450.604	161
450.674	-1364
450.744	-403
450.815	-1189
450.885	349
450.955	-163
451.026	153
451.096	-730
451.166	304
451.237	1784
451.307	3985
451.377	188
451.447	-309
451.518	-939
451.588	-148
451.658	130
451.728	791
451.799	4740
451.869	3152
451.939	-1225
452.009	-429
452.079	-671
452.149	-22
452.219	670
452.289	5412
452.360	1837
452.430	-480
452.500	-91
452.570	1057
452.640	2722
452.710	8470
452.780	8754
452.850	4078
452.920	2005
452.990	-14
453.060	-151
453.129	911
453.199	116
453.269	9275
453.339	11898
453.409	14549
453.479	20281
453.549	27222
453.619	24926
453.688	4922
453.758	868
453.828	-320
453.898	-668
453.968	-221
454.037	-198
454.087	-149
454.107	-139
454.168	-846
454.177	-963
454.247	-714
454.249	-713
454.316	-1144
454.330	-881
454.386	-72
454.411	813
454.456	2114
454.492	2370
454.525	2614
454.574	1089
454.595	442
454.655	-164
454.665	-265
454.734	941
454.736	991
454.804	1137
454.817	1911
454.873	4464
454.898	4286
454.943	3858
454.979	2098
455.013	652
455.060	633
455.082	721
455.141	1169
455.152	1185
455.221	5636
455.222	5711
455.291	5588
455.303	5389
455.360	4810
455.384	5724
455.430	6689
455.465	5247
455.499	3925
455.546	4644
455.569	4727
455.627	2485
455.638	2147
455.707	-484
455.708	-470
455.777	-675
455.789	-536
455.846	165
455.869	101
455.916	-82
455.950	380
455.985	792
456.031	624
456.054	514
456.112	67
456.124	-17
456.193	892
456.193	880
456.262	601
456.274	790
456.332	1556
456.355	1348
456.401	726
456.436	614
456.470	583
456.516	849
456.540	963
456.597	375
456.609	227
456.678	51
456.678	39
456.747	787
456.759	671
456.817	184
456.840	374
456.886	593
456.920	585
456.955	716
457.001	763
457.024	702
457.082	886
457.093	931
457.162	1743
457.163	1763
457.232	1690
457.243	1533
457.301	736
457.324	550
457.370	453
457.405	776
457.439	1099
457.485	1437
457.508	1562
457.566	1296
457.577	1374
457.646	2582
457.647	2622
457.715	7195
457.727	7832
457.784	11193
457.808	14697
457.853	18172
457.889	18796
457.922	17632
457.969	12436
457.991	12774
458.050	16858
458.060	17668
458.129	30323
458.130	30658
458.198	23963
458.211	20545
458.267	10302
458.292	7227
458.336	6201
458.372	7043
458.405	10771
458.453	16230
458.474	19689
458.533	33337
458.543	33824
458.611	44146
458.614	44178
458.680	21453
458.694	15710
458.749	6764
458.775	5066
458.818	3717
458.855	2890
458.887	2342
458.936	2113
458.955	2122
459.016	2178
459.024	2136
459.093	2390
459.097	2355
459.162	1848
459.177	1984
459.230	2442
459.257	2359
459.299	2099
459.338	2438
459.368	2769
459.418	2280
459.437	2060
459.499	2476
459.505	2501
459.574	2248
459.579	2230
459.643	1876
459.659	1836
459.711	2230
459.740	2542
459.780	2708
459.820	2717
459.849	2601
459.900	2675
459.917	2859
459.981	3107
459.986	3076
460.054	2820
460.061	2825
460.123	3010
460.141	3161
460.191	3727
460.222	3602
460.260	3369
460.302	3804
460.328	3672
460.382	3112
460.397	3133
460.462	3467
460.465	3566
460.534	5588
460.543	5897
460.602	11615
460.623	13880
460.671	21075
460.703	27090
460.739	21865
460.783	12741
460.808	10484
460.864	3563
460.876	3056
460.944	2976
460.945	2969
461.013	2812
461.024	2756
461.081	2636
461.104	2845
461.150	2854
461.184	2496
461.218	2495
461.264	2591
461.286	2506
461.345	2509
461.355	2590
461.423	2934
461.425	2939
461.491	2992
461.505	3156
461.559	6298
461.585	7672
461.628	10800
461.665	13794
461.696	13793
461.745	13969
461.764	11898
461.825	3312
461.832	3240
461.901	3240
461.905	3297
461.969	2522
461.985	2269
462.037	3249
462.065	3804
462.105	4065
462.145	4421
462.173	5780
462.225	8145
462.241	8573
462.305	10962
462.310	10669
462.378	5293
462.385	4589
462.446	2615
462.465	2330
462.514	2690
462.545	2856
462.582	2861
462.625	2944
462.650	3149
462.705	3333
462.718	3401
462.785	3991
462.786	4014
462.854	5270
462.865	5460
462.922	5711
462.945	5923
462.990	5133
463.025	4023
463.058	3432
463.104	2949
463.126	2882
463.184	2793
463.194	2853
463.262	3153
463.264	3174
463.330	3575
463.344	3568
463.398	3996
463.424	4184
463.466	3830
463.504	3716
463.533	3738
463.583	3509
463.601	3769
463.663	4679
463.669	4786
463.737	6111
463.743	6215
463.805	9200
463.823	10151
463.873	14400
463.903	16991
463.940	16210
463.982	15531
464.008	12470
464.062	4653
464.076	4361
464.142	3738
464.144	3725
464.211	3103
464.221	3043
464.279	3714
464.301	3909
464.347	4139
464.381	4368
464.414	4762
464.461	5241
464.482	5282
464.540	5476
464.550	5363
464.617	4082
464.620	4051
464.685	5182
464.699	5325
464.753	5582
464.779	5802
464.820	6166
464.859	6492
464.888	6650
464.938	6885
464.956	6898
465.018	6645
465.023	6586
465.091	5974
465.098	5886
465.158	5491
465.177	5371
465.226	5528
465.257	5577
465.293	5674
465.336	5821
465.361	6353
465.416	7559
465.428	8062
465.495	10538
465.496	10595
465.563	16726
465.575	17805
465.631	19101
465.654	19582
465.698	11865
465.734	5248
465.765	5147
465.813	5027
465.833	4994
465.893	5075
465.900	5052
465.968	4731
465.972	4700
466.035	4706
466.052	4686
466.102	5289
466.131	5636
466.170	5436
466.210	5152
466.237	5027
466.290	4883
466.304	4984
466.369	5159
466.372	5160
466.439	4995
466.449	4957
466.506	6466
466.528	7014
466.573	10519
466.607	13144
466.641	17360
466.687	23159
466.708	24310
466.766	27462
466.775	25287
466.842	8388
466.845	7570
466.909	6478
466.925	6244
466.977	6717
467.004	6946
467.044	7024
467.083	7101
467.111	7868
467.163	9234
467.178	9261
467.242	9315
467.245	9285
467.312	8306
467.321	8164
467.379	7516
467.400	7258
467.446	9050
467.480	10322
467.559	8225
467.638	7789
467.717	7528
467.796	9295
467.875	9243
467.955	9013
468.034	16235
468.113	29478
468.192	38474
468.271	11368
468.350	12208
468.429	14378
468.508	13975
468.588	10813
468.667	9334
468.746	8829
468.825	8814
468.904	8046
468.983	8614
469.062	12917
469.141	14278
469.220	7907
469.299	7919
469.378	8208
469.456	9212
469.535	7891
469.614	7726
469.693	8552
469.772	10750
469.851	14976
469.930	8621
470.009	8166
470.088	8350
470.166	11017
470.245	15193
470.324	17072
470.403	11068
470.482	8555
470.560	7647
470.639	7581
470.718	8037
470.797	6932
470.875	9908
470.954	11288
471.033	10896
471.111	6645
471.190	6351
471.269	7059
471.347	6410
471.426	6975
471.505	7529
471.583	8199
471.662	7197
471.740	6753
471.819	6788
471.898	5453
471.976	7735
472.055	7063
472.133	7741
472.212	10275
472.290	9283
472.369	6972
472.447	6128
472.526	6982
472.604	6843
472.683	6634
472.761	6176
472.839	6874
472.918	7131
472.996	6546
473.075	8545
473.153	7859
473.231	5882
473.310	8026
473.388	6314
473.466	7397
473.545	8529
473.623	10197
473.701	7132
473.780	6610
473.858	5432
473.936	8935
474.014	6232
474.093	8252
474.171	10997
474.249	14322
474.327	7601
474.405	5809
474.484	5304
474.562	5728
474.640	6103
474.718	6033
474.796	5733
474.874	6035
474.952	4536
475.030	5332
475.108	5511
475.187	5830
475.265	5779
475.343	7390
475.421	5831
475.499	6974
475.577	7555
475.655	10744
475.733	17442
475.811	27527
475.889	24518
475.966	12631
476.044	5679
476.122	6233
476.200	6230
476.278	6218
476.356	5468
476.434	6850
476.512	7001
476.590	7737
476.667	7231
476.745	6658
476.823	6402
476.901	6903
476.979	5845
477.056	6916
477.134	6567
477.212	6976
477.290	6957
477.367	5948
477.445	6122
477.523	5617
477.601	5762
477.678	6154
477.756	8386
477.834	7390
477.911	5993
477.989	6580
478.066	6097
478.144	6429
478.222	5723
478.299	6200
478.377	5039
478.454	6004
478.532	6147
478.609	5919
478.687	6205
478.764	5561
478.842	5940
478.919	6180
478.997	6821
479.074	6398
479.152	7470
479.229	9061
479.307	5172
479.384	5759
479.461	5257
479.539	5637
479.616	7209
479.694	6299
479.771	5773
479.848	6597
479.926	8231
480.003	9550
480.080	6156
480.157	6106
480.235	5273
480.312	5737
480.389	7587
480.467	10695
480.544	12171
480.621	6348
480.698	6370
480.775	7567
480.853	7684
480.930	6863
481.007	5718
481.084	8162
481.161	7812
481.238	7160
481.315	5126
481.392	5443
481.470	6134
481.547	6671
481.624	5994
481.701	5658
481.778	6389
481.855	7308
481.932	10961
482.009	16778
482.086	9293
482.163	7157
482.240	7042
482.317	8052
482.393	6411
482.470	6789
482.547	6856
482.624	5716
482.701	6299
482.778	5925
482.855	6143
482.932	6099
483.009	6176
483.085	6842
483.162	7682
483.239	8034
483.316	6021
483.393	7231
483.469	6262
483.546	7799
483.623	7655
483.699	5864
483.776	5823
483.853	6659
483.930	12202
484.006	25434
484.083	38028
484.160	17718
484.236	23460
484.313	17326
484.389	14374
484.466	14506
484.543	14155
484.619	15259
484.696	16837
484.772	14960
484.849	15001
484.925	11723
485.002	12329
485.078	12978
485.155	12012
485.231	12009
485.308	10650
485.384	11739
485.461	15152
485.537	23727
485.614	24946
485.690	11922
485.766	11651
485.843	11773
485.919	14816
485.995	14353
486.072	10206
486.148	10481
486.224	10925
486.301	11798
486.377	12831
486.453	12562
486.530	12998
486.606	16051
486.682	16455
486.758	21742
486.835	22499
486.911	19135
486.987	32390
487.063	26972
487.139	29615
487.215	21712
487.292	14473
487.368	14001
487.444	15628
487.520	20536
487.596	24346
487.672	56837
487.748	138401
487.824	176208
487.900	46832
487.976	20401
488.052	16534
488.128	16052
488.204	12130
488.280	13819
488.356	15799
488.432	30655
488.508	38100
488.584	12331
488.660	10730
488.736	9786
488.812	10326
488.888	13409
488.964	17123
489.039	31391
489.115	40202
489.191	19442
489.267	11213
489.343	10116
489.418	8681
489.494	9579
489.570	7835
489.646	10071
489.722	9228
489.797	10205
489.873	17601
489.949	33024
490.024	19621
490.100	8848
490.176	9223
490.251	10565
490.327	12439
490.403	8305
490.478	7619
490.554	8224
490.629	7585
490.705	7676
490.781	8871
490.856	7668
490.932	9704
491.007	9415
491.083	8739
491.158	8877
491.234	13449
491.309	25473
491.385	19891
491.460	8657
491.536	9656
491.611	7187
491.686	8204
491.762	10846
491.837	19883
491.913	32327
491.988	44349
492.063	42591
492.139	17178
492.214	11194
492.289	6534
492.365	6818
492.440	7939
492.515	8080
492.590	8040
492.666	7567
492.741	10071
492.816	14336
492.891	6428
492.967	7709
493.042	5644
493.117	5927
493.192	6689
493.267	12259
493.342	25513
493.418	26015
493.493	7118
493.568	6892
493.643	6195
493.718	9795
493.793	10897
493.868	10808
493.943	8195
494.018	7289
494.093	6923
494.168	6261
494.243	5032
494.318	5839
494.393	6887
494.468	4957
494.543	5211
494.618	6939
494.693	5742
494.768	6110
494.842	6124
494.917	5588
494.992	6356
495.067	6173
495.142	5607
495.217	6542
495.292	6396
495.366	7508
495.441	7279
495.516	10826
495.591	14866
495.665	44321
495.740	81075
495.815	22565
495.890	8353
495.964	6183
496.039	9890
496.114	7990
496.188	9392
496.263	7841
496.338	7249
496.412	7960
496.487	9613
496.561	9795
496.636	8316
496.710	7030
496.785	9201
496.860	9967
496.934	7029
497.009	7900
497.083	7673
497.158	8619
497.232	9836
497.307	10751
497.381	9131
497.455	11252
497.530	14292
497.604	9205
497.679	10661
497.753	16422
497.827	14959
497.902	11744
497.976	18917
498.050	64181
498.125	195656
498.199	125499
498.273	16392
498.348	13066
498.422	11008
498.496	12154
498.570	11139
498.645	9332
498.719	8000
498.793	12703
498.867	19316
498.941	29865
499.016	92582
499.090	189469
499.164	36457
499.238	9607
499.312	8747
499.386	11005
499.460	9514
499.534	10328
499.609	12595
499.683	16343
499.757	16700
499.831	47461
499.905	146383
499.979	87887
500.053	19315
500.127	17365
500.201	11263
500.275	9285
500.349	8442
500.422	10575
500.496	16014
500.570	34480
500.644	89927
500.718	125758
500.792	17130
500.866	10202
500.940	12496
501.013	9579
501.087	10231
501.161	16216
501.235	22200
501.309	60972
501.382	137748
501.456	75787
501.530	26314
501.603	40982
501.677	11054
501.751	6873
501.825	11890
501.898	23363
501.972	54303
502.046	21801
502.119	10061
502.193	28583
502.266	54764
502.340	19533
502.413	30458
502.487	45488
502.561	22260
502.634	9094
502.708	7643
502.781	5743
502.855	6299
502.928	5988
503.002	5594
503.075	5964
503.149	6104
503.222	6321
503.295	6547
503.369	8910
503.442	14744
503.516	50366
503.589	95678
503.662	46444
503.736	22876
503.809	50509
503.882	35085
503.956	65421
504.029	56003
504.102	82109
504.175	92397
504.249	28937
504.322	15421
504.395	10914
504.468	7597
504.542	7892
504.615	5483
504.688	5972
504.761	3590
504.834	7794
504.907	8001
504.980	9607
505.053	6033
505.127	6884
505.200	9716
505.273	8825
505.346	4422
505.419	4956
505.492	5171
505.565	3718
505.638	4664
505.711	4175
505.784	3456
505.857	3575
505.930	6200
506.003	3158
506.076	6570
506.149	7050
506.221	5751
506.294	10332
506.367	26014
506.440	70794
506.513	21659
506.586	8904
506.659	4283
506.731	5018
506.804	6007
506.877	6913
506.950	5518
507.022	6175
507.095	6310
507.168	7497
507.241	5202
507.313	4119
507.386	3492
507.459	6184
507.531	4281
507.604	3635
507.677	4791
507.749	2707
507.822	6583
507.894	9593
507.967	10194
508.040	5068
508.112	5695
508.185	5087
508.257	4067
508.330	8430
508.402	4095
508.475	5903
508.547	5780
508.620	7135
508.692	9223
508.765	4860
508.837	3489
508.909	4490
508.982	5319
509.054	6175
509.127	3336
509.199	4106
509.271	3519
509.344	3775
509.416	4350
509.488	4845
509.560	5127
509.633	4220
509.705	5414
509.777	5786
509.849	6557
509.922	3804
509.994	5114
510.066	5099
510.138	4760
510.210	11377
510.283	7448
510.355	6693
510.427	6574
510.499	5774
510.571	6281
510.643	5909
510.715	9980
510.787	5562
510.859	6744
510.931	7188
511.003	7880
511.076	7647
511.148	4828
511.219	6755
511.291	11815
511.363	10238
511.435	4497
511.507	4249
511.579	5868
511.651	6447
511.723	5162
511.795	4648
511.867	5393
511.939	7310
512.010	13623
512.082	7895
512.154	4106
512.226	4788
512.298	9398
512.369	9772
512.441	7635
512.513	8563
512.585	5452
512.656	8178
512.728	6726
512.800	4976
512.871	5746
512.943	5923
513.015	3992
513.086	6125
513.158	6228
513.230	5151
513.301	8421
513.373	8545
513.444	5470
513.516	5713
513.588	5193
513.659	6309
513.731	6488
513.802	5794
513.874	14045
513.945	16367
514.016	5315
514.088	6180
514.159	4650
514.231	8302
514.302	8221
514.374	7811
514.445	6844
514.516	17362
514.588	8374
514.659	8212
514.730	13823
514.802	9790
514.873	2918
514.944	7504
515.016	6963
515.087	7251
515.158	10922
515.229	12116
515.301	4425
515.372	6836
515.443	5158
515.514	4534
515.585	3409
515.656	5588
515.728	6135
515.799	5702
515.870	6415
515.941	6076
516.012	5926
516.083	9136
516.154	8897
516.225	11879
516.296	10937
516.367	10249
516.438	10286
516.509	14040
516.580	28591
516.651	107590
516.722	246932
516.793	59360
516.864	19018
516.935	19675
517.006	21570
517.077	32944
517.148	94629
517.219	352559
517.289	327883
517.360	84634
517.431	22931
517.502	11412
517.573	11788
517.643	11680
517.714	11877
517.785	13090
517.856	12553
517.926	17321
517.997	17439
518.068	21696
518.138	29004
518.209	62109
518.280	258172
518.350	598040
518.421	133492
518.492	26140
518.562	20804
518.633	21739
518.703	27112
518.774	64164
518.845	136063
518.915	90514
518.986	27156
519.056	20314
519.127	23348
519.197	36828
519.268	77503
519.338	30813
519.408	12047
519.479	12919
519.549	8031
519.620	10030
519.690	7359
519.760	6799
519.831	6936
519.901	6899
519.971	6877
520.042	7025
520.112	7294
520.182	8538
520.253	8584
520.323	7733
520.393	10048
520.463	12763
520.534	8706
520.604	18358
520.674	9432
520.744	10975
520.814	21209
520.885	16588
520.955	34987
521.025	83729
521.095	17054
521.165	7064
521.235	5792
521.305	5091
521.375	5682
521.445	7045
521.515	6520
521.585	9008
521.655	5267
521.725	8734
521.795	6237
521.865	3694
521.935	10818
522.005	5932
522.075	4899
522.145	6593
522.215	7011
522.285	9902
522.355	13845
522.424	24347
522.494	15136
522.564	8961
522.634	19510
522.704	37932
522.774	9721
522.843	6076
522.913	5724
522.983	6164
523.053	3999
523.122	6093
523.192	9276
523.262	24143
523.331	13817
523.401	6282
523.471	4748
523.540	4626
523.610	2645
523.680	4560
523.749	5063
523.819	7378
523.888	4676
523.958	3575
524.027	4646
524.097	5907
524.166	4837
524.236	4253
524.305	6996
524.375	5049
524.444	4588
524.514	6966
524.583	5445
524.653	6552
524.722	7068
524.791	4185
524.861	4924
524.930	3897
524.999	4799
525.069	8100
525.138	5677
525.207	6335
525.277	6627
525.346	5550
525.415	6508
525.484	7353
525.554	7834
525.623	8460
525.692	9174
525.761	9678
525.830	11689
525.900	14681
525.969	24875
526.038	44285
526.107	110484
526.176	239051
526.245	132208
526.314	55451
526.383	139370
526.452	144438
526.522	270194
526.591	155053
526.660	35870
526.729	22081
526.797	29163
526.867	63702
526.935	221225
527.004	419359
527.073	145968
527.142	19963
527.211	12005
527.280	11455
527.349	8589
527.418	5262
527.487	6891
527.555	4461
527.624	4897
527.693	3949
527.762	5159
527.831	3374
527.899	5363
527.968	4011
528.037	2985
528.106	6614
528.174	9128
528.243	8744
528.312	11728
528.380	9823
528.449	3888
528.518	5471
528.586	2860
528.655	5047
528.723	4298
528.792	3828
528.861	3132
528.929	3518
528.998	4798
529.066	5157
529.135	7579
529.203	6415
529.272	8962
529.340	11310
529.409	9842
529.477	8379
529.545	10137
529.614	13270
529.682	13027
529.751	14504
529.819	17896
529.887	14112
529.956	12604
530.024	12988
530.092	10237
530.161	12180
530.229	14093
530.297	12431
530.365	12941
530.434	14265
530.502	12724
530.570	11848
530.638	8755
530.707	10598
530.775	11353
530.843	10684
530.911	11847
530.979	11678
531.047	12419
531.115	12613
531.183	10392
531.252	10966
531.320	10612
531.388	9974
531.456	12746
531.524	10371
531.592	13245
531.660	15183
531.728	11901
531.796	12407
531.864	12045
531.932	12685
532.000	11379
532.067	13748
532.135	13984
532.203	15971
532.271	16133
532.339	20534
532.407	27391
532.475	17122
532.542	15467
532.610	15589
532.678	20172
532.746	55208
532.814	72443
532.881	23283
532.949	15208
533.017	14446
533.084	12797
533.152	12060
533.220	13962
533.287	13297
533.355	13702
533.423	14667
533.490	12730
533.558	12926
533.625	12677
533.693	13083
533.761	12359
533.828	12601
533.896	12594
533.963	18098
534.031	18245
534.098	21827
534.166	14590
534.233	12360
534.300	14532
534.368	13360
534.435	11976
534.503	14100
534.570	14852
534.637	14285
534.705	14566
534.772	19931
534.840	35876
534.907	130196
534.974	88539
535.041	15951
535.109	13366
535.176	11126
535.243	11503
535.310	11265
535.378	10519
535.445	10388
535.512	9750
535.579	10520
535.646	8586
535.714	9980
535.781	11235
535.848	11271
535.915	12170
535.982	11445
536.049	10522
536.116	11724
536.183	9274
536.250	8266
536.317	8529
536.384	10023
536.451	11724
536.518	11710
536.585	8804
536.652	13782
536.719	13796
536.786	8376
536.853	8351
536.920	14564
536.987	15165
537.053	16748
537.120	49364
537.187	25173
537.254	8629
537.321	8916
537.388	9642
537.454	8177
537.521	7873
537.588	7559
537.654	8873
537.721	8781
537.788	9121
537.855	8076
537.921	8652
537.988	7904
538.055	8237
538.121	6687
538.188	7110
538.254	11151
538.321	13547
538.388	10151
538.454	8259
538.521	8856
538.587	8572
538.654	7777
538.720	7663
538.787	8001
538.853	7949
538.920	8599
538.986	8251
539.053	7802
539.119	8114
539.185	8223
539.252	10132
539.318	10334
539.385	10639
539.451	7722
539.517	8161
539.583	10498
539.650	19928
539.716	28493
539.782	9046
539.849	6728
539.915	8176
539.981	7642
540.047	8237
540.114	8097
540.180	9079
540.246	7778
540.312	9902
540.378	15125
540.444	13636
540.510	20252
540.576	33327
540.643	9691
540.709	5542
540.775	7709
540.841	7118
540.907	10157
540.973	11715
541.039	10276
541.105	9764
541.171	7763
541.237	6660
541.303	8797
541.369	9579
541.435	10923
541.500	12331
541.566	7838
541.632	7081
541.698	6908
541.764	7991
541.830	7047
541.896	6034
541.961	7599
542.027	6126
542.093	8116
542.159	7906
542.224	8307
542.290	10009
542.356	13314
542.421	12592
542.487	9343
542.553	7139
542.618	7759
542.684	6572
542.750	7560
542.815	9502
542.881	14380
542.947	32972
543.012	16104
543.078	6884
543.143	6926
543.209	7753
543.274	6791
543.340	8500
543.405	17359
543.471	16455
543.536	7879
543.602	6785
543.667	6546
543.732	7983
543.798	6401
543.863	6675
543.928	5865
543.994	6627
544.059	6998
544.124	7465
544.190	6958
544.255	7665
544.320	7731
544.386	7098
544.451	10187
544.516	9808
544.581	11099
544.646	26353
544.712	25006
544.777	9236
544.842	9893
544.907	9202
544.972	8948
545.037	8052
545.102	9264
545.168	8748
545.233	10333
545.298	9781
545.363	10491
545.428	11376
545.493	19532
545.558	25140
545.623	11848
545.688	9305
545.753	9935
545.818	9960
545.883	11219
545.947	9879
546.012	11214
546.077	10752
546.142	13241
546.207	11695
546.272	14081
546.337	12522
546.401	13617
546.466	12799
546.531	13751
546.596	15014
546.661	15200
546.725	15083
546.790	15136
546.855	16999
546.919	17852
546.984	20557
547.049	21871
547.113	24623
547.178	24250
547.243	30034
547.307	35235
547.372	37970
547.436	37175
547.501	38487
547.565	40237
547.630	38061
547.695	37660
547.759	38005
547.823	36427
547.888	36714
547.952	37540
548.017	39195
548.081	41560
548.146	43156
548.210	42423
548.274	43611
548.339	42146
548.403	39101
548.468	37191
548.532	36443
548.596	37218
548.660	37747
548.725	42771
548.789	45846
548.853	44116
548.917	41236
548.982	43010
549.046	37092
549.110	33008
549.174	36258
549.238	40597
549.303	42594
549.367	44882
549.431	40190
549.495	39291
549.559	41472
549.623	48599
549.687	50873
549.751	54019
549.815	59720
549.879	59237
549.943	56815
550.007	60922
550.071	57078
550.135	54847
550.199	50098
550.263	49838
550.327	48515
550.391	51061
550.455	53918
550.519	57919
550.582	63084
550.646	70046
550.710	67748
550.774	66405
550.838	67857
550.901	70300
550.965	72568
551.029	77366
551.093	82674
551.156	93286
551.220	114307
551.284	110041
551.347	85378
551.411	93383
551.475	82567
551.538	74757
551.602	65760
551.666	63751
551.729	60190
551.793	60086
551.856	59024
551.920	58737
551.983	57399
552.047	56875
552.110	59191
552.174	58706
552.237	57903
552.301	55211
552.364	51947
552.428	52298
552.491	53494
552.554	55599
552.618	54765
552.681	56962
552.745	55516
552.808	68363
552.871	69484
552.934	58860
552.998	54725
553.061	53863
553.124	51069
553.187	52941
553.251	53649
553.314	55226
553.377	55551
553.440	60772
553.503	76478
553.567	73428
553.630	58906
553.693	58381
553.756	59175
553.819	56892
553.882	55751
553.945	57193
554.008	56001
554.071	56513
554.134	56755
554.197	53209
554.260	53518
554.323	56091
554.386	55406
554.449	57048
554.512	55929
554.575	53421
554.638	54442
554.701	54304
554.764	51066
554.827	50612
554.889	48722
554.952	46590
555.015	45980
555.078	46840
555.141	46919
555.203	46179
555.266	46694
555.329	46617
555.391	44799
555.454	44723
555.517	43018
555.580	41283
555.642	39483
555.705	39789
555.768	38713
555.830	37813
555.893	36296
555.955	34934
556.018	35264
556.080	34188
556.143	35959
556.206	35209
556.268	34644
556.330	34409
556.393	33048
556.455	33929
556.518	35285
556.580	32762
556.643	28916
556.705	29181
556.767	27686
556.830	28572
556.892	28165
556.955	30497
557.017	28912
557.079	27310
557.142	25984
557.204	27769
557.266	31411
557.328	26048
557.391	22441
557.453	22713
557.515	22723
557.577	24980
557.639	24094
557.701	23297
557.764	21861
557.826	23304
557.888	23434
557.950	24783
558.012	27417
558.074	37701
558.136	90298
558.198	135303
558.260	38470
558.322	25352
558.384	26036
558.446	26678
558.508	29467
558.570	32950
558.632	41821
558.694	54171
558.756	92890
558.818	287545
558.880	403909
558.942	134040
559.003	148449
559.065	51243
559.127	30583
559.189	29007
559.251	35273
559.312	57553
559.374	160529
559.436	335396
559.498	98633
559.559	32443
559.621	28769
559.683	37837
559.744	72641
559.806	219551
559.868	185417
559.929	37975
559.991	35193
560.052	70139
560.114	147568
560.176	67195
560.237	107118
560.299	103453
560.360	21582
560.422	15525
560.483	14263
560.545	13975
560.606	13044
560.667	13337
560.729	11786
560.790	11694
560.852	11910
560.913	11697
560.974	10715
561.036	11701
561.097	11256
561.158	10909
561.220	11120
561.281	9753
561.342	10678
561.403	11761
561.465	12825
561.526	22265
561.587	19707
561.648	10772
561.709	10793
561.771	9960
561.832	9980
561.893	10198
561.954	9899
562.015	10345
562.076	9433
562.137	9585
562.198	9161
562.259	10142
562.320	10433
562.381	10870
562.442	11599
562.503	9861
562.564	8597
562.625	9498
562.686	8871
562.747	8858
562.808	8998
562.869	10024
562.930	10006
562.991	10276
563.051	8926
563.112	9810
563.173	9340
563.234	8910
563.294	9219
563.355	9432
563.416	9211
563.477	8683
563.537	8694
563.598	8708
563.659	8534
563.720	9048
563.780	8679
563.841	9587
563.901	8543
563.962	7794
564.023	8958
564.083	9202
564.144	8710
564.204	8696
564.265	9216
564.325	11811
564.386	15746
564.446	11455
564.507	7472
564.567	8839
564.628	8349
564.688	8171
564.749	8085
564.809	10339
564.869	9630
564.930	7868
564.990	9017
565.050	8949
565.111	8633
565.171	8088
565.231	8005
565.292	9092
565.352	7741
565.412	8242
565.472	8318
565.532	8809
565.593	7918
565.653	7314
565.713	8128
565.773	9046
565.833	9031
565.893	9600
565.953	7672
566.013	7756
566.074	9130
566.134	11077
566.194	14147
566.254	12082
566.314	9854
566.374	8558
566.434	7633
566.494	8850
566.554	7386
566.614	8032
566.673	6929
566.733	9006
566.793	8902
566.853	8147
566.913	8774
566.973	7863
567.033	8733
567.092	8927
567.152	8247
567.212	8635
567.272	8222
567.331	9550
567.391	8454
567.451	9872
567.511	12087
567.570	10849
567.630	8185
567.690	8624
567.749	8507
567.809	7789
567.868	8688
567.928	8844
567.988	8949
568.047	9137
568.107	8528
568.166	9575
568.226	10190
568.285	11778
568.345	9836
568.404	9390
568.464	9884
568.523	8159
568.582	9749
568.642	9036
568.701	9669
568.761	10985
568.820	13143
568.879	13392
568.939	12513
568.998	9850
569.057	8586
569.116	8927
569.176	8498
569.235	8264
569.294	7918
569.353	8778
569.413	7150
569.472	8561
569.531	7169
569.590	7799
569.649	8001
569.708	6821
569.767	7986
569.827	8328
569.886	7897
569.945	7859
570.004	8180
570.063	7947
570.122	7687
570.181	9184
570.240	9410
570.299	8672
570.358	9890
570.417	8831
570.475	7964
570.534	9545
570.593	8567
570.652	9141
570.711	8054
570.770	8074
570.829	8723
570.887	8858
570.946	9318
571.005	8187
571.064	8785
571.122	9134
571.181	7978
571.240	7744
571.299	7158
571.357	8717
571.416	8978
571.475	10013
571.533	8615
571.592	9036
571.650	8336
571.709	8150
571.768	8414
571.826	9502
571.885	8850
571.943	8870
572.002	7943
572.060	8126
572.119	7524
572.177	8713
572.236	7584
572.294	7113
572.352	9453
572.411	8947
572.469	8077
572.528	8212
572.586	8480
572.644	8538
572.703	8234
572.761	7494
572.819	7068
572.877	7633
572.936	6739
572.994	8316
573.052	7230
573.110	7837
573.169	7848
573.227	7183
573.285	7621
573.343	8151
573.401	7764
573.459	8409
573.517	8230
573.576	8160
573.634	7024
573.692	7518
573.750	7902
573.808	7478
573.866	8275
573.924	9216
573.982	8788
574.040	6977
574.098	6890
574.155	7078
574.213	6935
574.271	7739
574.329	6867
574.387	6961
574.445	5828
574.503	6390
574.560	6244
574.618	6168
574.676	6723
574.734	6469
574.792	6519
574.849	6691
574.907	6037
574.965	5787
575.022	4560
575.080	6153
575.138	5845
575.195	6069
575.253	5750
575.311	6417
575.368	6118
575.426	6341
575.483	7052
575.541	7486
575.598	5805
575.656	5969
575.713	6227
575.771	6460
575.828	6015
575.886	5497
575.943	6951
576.001	6682
576.058	5749
576.115	5809
576.173	7094
576.230	6847
576.287	7471
576.345	7013
576.402	6380
576.459	6746
576.517	5391
576.574	7653
576.631	7577
576.688	6142
576.746	5991
576.803	6905
576.860	6258
576.917	6734
576.974	7337
577.031	6512
577.089	6498
577.146	6347
577.203	5703
577.260	7352
577.317	7030
577.374	6707
577.431	6438
577.488	6521
577.545	5564
577.602	6136
577.659	5539
577.716	7262
577.773	5818
577.830	6388
577.886	5603
577.943	6448
578.000	5728
578.057	6883
578.114	7218
578.171	8392
578.227	8584
578.284	8091
578.341	8126
578.398	6237
578.454	7097
578.511	7603
578.568	7363
578.625	7033
578.681	6200
578.738	6450
578.794	6389
578.851	6635
578.908	6262
578.964	6533
579.021	6820
579.077	6658
579.134	6881
579.190	5913
579.247	6232
579.303	6063
579.360	6232
579.416	5947
579.473	6139
579.529	6190
579.586	6168
579.642	7320
579.698	6362
579.755	7054
579.811	6186
579.867	6787
579.924	6725
579.980	7402
580.036	8336
580.093	9860
580.149	11644
580.205	11197
580.261	9281
580.317	8587
580.374	8434
580.430	9894
580.486	8320
580.542	7479
580.598	7825
580.619	7972
580.654	8236
580.692	7625
580.710	7330
580.765	8478
580.767	8522
580.823	8940
580.838	8598
580.879	7717
580.911	7906
580.935	8062
580.984	7819
580.991	7800
581.047	8172
581.057	8250
581.103	8581
581.130	8726
581.159	8901
581.203	9698
581.215	9924
581.270	9052
581.276	9016
581.326	8654
581.349	8520
581.382	8387
581.422	8850
581.438	9032
581.494	8728
581.494	8721
581.550	8548
581.567	8739
581.606	9118
581.640	8868
581.661	8746
581.713	9351
581.717	9407
581.773	9196
581.786	9145
581.829	9040
581.859	9248
581.885	9398
581.932	9493
581.940	9496
581.996	10127
582.004	10067
582.052	9880
582.077	9746
582.107	9569
582.150	9664
582.163	9714
582.219	10409
582.223	10361
582.274	9742
582.296	9814
582.330	9981
582.368	10626
582.386	10949
582.441	11145
582.441	11147
582.497	9565
582.514	9874
582.552	10784
582.587	10556
582.608	10386
582.659	10811
582.663	10841
582.719	10671
582.732	10771
582.774	11304
582.805	11483
582.830	11478
582.877	12564
582.885	12793
582.941	12618
582.950	13056
582.996	15295
583.023	15980
583.052	16736
583.095	16341
583.107	16179
583.162	16234
583.168	16179
583.218	15587
583.240	14561
583.273	12944
583.313	12877
583.328	13010
583.384	12353
583.385	12326
583.439	10948
583.458	10979
583.494	11253
583.531	11069
583.549	11063
583.603	11190
583.605	11191
583.660	11583
583.676	11558
583.715	11279
583.748	11526
583.770	11799
583.820	11695
583.825	11681
583.881	11004
583.893	10935
583.936	10774
583.965	11006
583.991	11006
584.038	10692
584.046	10712
584.101	11521
584.110	11468
584.156	11052
584.183	11191
584.211	11377
584.255	12024
584.266	12199
584.321	12828
584.328	12809
584.376	12612
584.400	12527
584.431	12328
584.472	12026
584.486	11966
584.541	13297
584.545	13270
584.596	12641
584.617	12835
584.651	13436
584.689	13690
584.706	13635
584.761	13966
584.762	13964
584.816	13970
584.834	13990
584.871	13968
584.906	13991
584.926	14024
584.978	14598
584.980	14623
585.035	14687
585.051	15043
585.090	15833
585.123	15756
585.145	15891
585.195	15870
585.200	15868
585.254	17406
585.267	17755
585.309	19322
585.340	20086
585.364	20400
585.412	21692
585.419	21966
585.473	25626
585.484	26696
585.528	33058
585.556	40171
585.583	52646
585.628	83322
585.637	93972
585.692	191234
585.700	200739
585.747	225589
585.772	192840
585.801	117076
585.845	48096
585.856	41475
585.910	26067
585.917	24486
585.965	21060
585.989	19763
586.019	19073
586.061	18580
586.074	18473
586.128	17610
586.133	17589
586.183	17537
586.205	17149
586.237	16391
586.277	15923
586.292	15873
586.346	15554
586.349	15581
586.401	16178
586.421	15968
586.455	15682
586.493	16314
586.509	16940
586.564	18531
586.565	18619
586.618	23554
586.637	23276
586.672	20489
586.709	19374
586.727	19194
586.781	18419
586.781	18421
586.835	15912
586.853	15415
586.889	14872
586.925	14397
586.944	14242
586.996	14241
586.998	14264
587.052	14602
587.068	14672
587.106	14550
587.140	14476
587.161	14528
587.212	14439
587.215	14432
587.269	14327
587.284	14385
587.323	14972
587.356	15143
587.377	15185
587.427	15932
587.431	15963
587.485	15565
587.499	15516
587.539	15696
587.571	15895
587.593	16412
587.643	17848
587.648	17867
587.702	17403
587.715	17325
587.755	17807
587.786	17880
587.810	17683
587.858	17833
587.864	17888
587.917	18184
587.930	18257
587.971	19349
588.001	19944
588.025	19656
588.073	19330
588.079	19488
588.133	20927
588.145	21283
588.187	21778
588.217	21838
588.241	22214
588.288	23392
588.295	23621
588.348	25389
588.360	25742
588.402	26873
588.431	27822
588.456	28890
588.503	31130
588.510	31532
588.564	35160
588.575	36056
588.617	40319
588.646	43691
588.671	47389
588.718	55818
588.725	58120
588.778	80411
588.789	86282
588.832	131264
588.861	166460
588.886	221008
588.932	330962
588.939	339669
588.993	373119
589.004	371501
589.047	238937
589.075	157827
589.100	123383
589.147	71055
589.154	68732
589.207	55185
589.218	52720
589.261	50835
589.290	51087
589.314	53137
589.361	58599
589.368	61302
589.421	87675
589.433	94591
589.475	156455
589.504	205407
589.528	256282
589.576	341777
589.582	331739
589.635	199613
589.647	173126
589.689	100424
589.718	56050
589.742	48709
589.790	36047
589.795	35536
589.849	31857
589.861	31162
589.902	30838
589.932	29738
589.955	27483
590.004	23364
590.009	23247
590.062	22730
590.075	22391
590.115	21729
590.146	21370
590.168	21038
590.218	20235
590.222	20259
590.275	20670
590.289	20686
590.328	21016
590.360	21291
590.381	21053
590.431	20240
590.435	20269
590.488	20793
590.503	20827
590.541	21085
590.574	21555
590.594	21619
590.645	21441
590.647	21469
590.700	21721
590.716	21718
590.753	21828
590.787	22114
590.806	22348
590.859	22740
590.859	22758
590.912	22304
590.930	22179
590.965	22474
591.001	22676
591.018	22780
591.071	22929
591.072	22901
591.124	22067
591.143	21729
591.177	22522
591.214	23399
591.230	23376
591.283	22995
591.285	22952
591.336	23291
591.356	23479
591.389	23243
591.427	22705
591.442	22587
591.495	22151
591.498	22095
591.547	22949
591.569	23308
591.600	23149
591.640	22874
591.653	23066
591.706	23733
591.711	23779
591.759	24489
591.782	24830
591.811	25843
591.853	27199
591.864	27022
591.917	25871
591.924	25667
591.969	25491
591.995	25392
592.022	25697
592.066	26061
592.075	26095
592.127	26128
592.137	26114
592.180	27469
592.208	28231
592.233	27762
592.279	26842
592.285	26898
592.338	27101
592.350	27119
592.390	27270
592.421	27322
592.443	27219
592.491	26907
592.495	26995
592.548	27821
592.562	28028
592.600	28112
592.633	28113
592.653	27951
592.704	27317
592.705	27489
592.775	28316
592.846	28902
592.916	28677
592.987	29399
593.058	29289
593.128	29886
593.199	29994
593.270	29507
593.341	30151
593.411	30978
593.482	31787
593.553	32586
593.623	32117
593.694	34663
593.764	34142
593.835	34241
593.906	33556
593.976	34272
594.047	36032
594.117	38493
594.188	38773
594.258	37874
594.329	36579
594.399	38059
594.470	38112
594.540	40540
594.611	41267
594.681	39786
594.751	40979
594.822	42331
594.892	43653
594.963	45233
595.033	45978
595.103	46908
595.174	48171
595.244	51577
595.314	55238
595.384	51759
595.455	52047
595.525	54127
595.595	56083
595.665	55850
595.736	54159
595.806	55593
595.876	56598
595.946	56993
596.016	58950
596.087	60814
596.157	59814
596.227	61671
596.297	63869
596.367	68535
596.437	72469
596.507	75097
596.577	75319
596.647	73618
596.717	76624
596.787	77544
596.857	78788
596.927	77833
596.997	77778
597.067	78838
597.137	81550
597.207	81096
597.277	81240
597.347	80371
597.417	77692
597.487	79295
597.557	80625
597.626	82985
597.696	84127
597.766	84252
597.836	84167
597.906	78458
597.975	76970
598.045	76957
598.115	79892
598.185	83974
598.254	93403
598.324	101282
598.394	103718
598.464	100352
598.533	97672
598.603	93539
598.672	91787
598.742	93703
598.812	94414
598.881	97708
598.951	95408
599.020	97496
599.090	101774
599.159	103576
599.229	100858
599.299	99826
599.368	101576
599.437	102602
599.507	96600
599.576	95159
599.646	94160
599.715	93545
599.785	94022
599.854	92609
599.924	93818
599.993	94528
600.062	96446
600.132	98570
600.201	102775
600.270	114872
600.340	118653
600.409	118854
600.478	119357
600.547	123263
600.617	117072
600.686	100775
600.755	96934
600.824	95521
600.894	94104
600.963	96561
601.032	96144
601.101	96794
601.170	94990
601.239	94534
601.308	95291
601.378	97906
601.447	100803
601.516	100265
601.585	102565
601.654	103809
601.723	105725
601.792	109057
601.861	112791
601.930	118792
601.999	122119
602.068	119579
602.137	120484
602.206	121025
602.275	122247
602.343	123368
602.412	126831
602.481	126580
602.550	126239
602.619	130773
602.688	131029
602.756	133079
602.825	132871
602.894	135895
602.963	133753
603.032	138121
603.100	137865
603.169	133821
603.238	139032
603.307	135005
603.375	134784
603.444	142790
603.513	133492
603.581	137527
603.650	145236
603.719	125901
603.787	122954
603.856	124767
603.924	127756
603.993	131432
604.061	136305
604.130	139957
604.198	143239
604.267	144969
604.335	147906
604.404	147617
604.472	150784
604.541	152223
604.609	155826
604.678	159849
604.746	162065
604.815	169139
604.883	161383
604.951	162183
605.020	163905
605.088	158818
605.156	151444
605.225	155090
605.293	152899
605.361	155242
605.429	152391
605.498	157535
605.566	155324
605.634	164154
605.702	165867
605.771	170233
605.839	171325
605.907	162397
605.975	166605
606.043	160612
606.111	156453
606.180	166524
606.248	155494
606.316	153352
606.384	162270
606.452	142847
606.520	129982
606.588	132730
606.656	133591
606.724	130874
606.792	123385
606.860	112071
606.928	103653
606.996	100783
607.064	98036
607.132	101872
607.200	106114
607.267	109522
607.335	112575
607.403	114083
607.471	111030
607.539	107300
607.607	108608
607.674	96538
607.742	97166
607.810	95896
607.878	96472
607.946	96932
608.013	102210
608.081	102193
608.149	104226
608.216	106439
608.284	110573
608.352	110609
608.419	109377
608.487	107367
608.555	104183
608.622	108772
608.690	112693
608.757	122919
608.825	124455
608.893	120408
608.960	114902
609.028	112516
609.095	113297
609.163	110773
609.230	99258
609.298	91297
609.365	96488
609.432	103627
609.500	112358
609.567	127832
609.635	145150
609.702	152562
609.769	145044
609.837	114724
609.904	99774
609.971	101769
610.039	111134
610.106	135316
610.173	224302
610.241	461631
610.308	328355
610.375	167988
610.442	114517
610.509	105400
610.577	105669
610.644	105436
610.711	108782
610.778	109887
610.845	115479
610.912	121770
610.980	125763
611.047	127945
611.114	125665
611.181	120679
611.248	118280
611.315	126963
611.382	129610
611.449	133208
611.516	134648
611.583	132415
611.650	134299
611.717	136276
611.784	138317
611.851	142259
611.918	149450
611.984	165928
612.051	211285
612.118	353102
612.185	717796
612.252	495029
612.319	197835
612.386	172897
612.452	160376
612.519	153697
612.586	152607
612.653	153851
612.719	157935
612.786	152387
612.853	143231
612.919	138747
612.986	143853
613.053	135070
613.120	126651
613.186	123255
613.253	125708
613.319	124635
613.386	125686
613.453	126212
613.519	127878
613.586	126451
613.652	129992
613.719	128269
613.785	129415
613.852	127682
613.918	129029
613.985	131113
614.051	135592
614.118	138060
614.184	133360
614.250	128381
614.317	131608
614.383	128691
614.449	132504
614.516	129956
614.582	132428
614.648	129929
614.715	128950
614.781	125663
614.847	125415
614.914	125897
614.980	122183
615.046	123934
615.112	126210
615.179	126918
615.245	128800
615.311	127013
615.377	129190
615.443	129403
615.509	130844
615.575	135246
615.642	133235
615.708	135536
615.774	141050
615.840	147240
615.906	152633
615.972	174351
616.038	232879
616.104	411816
616.170	798730
616.236	687426
616.302	261782
616.368	210722
616.434	164270
616.500	154966
616.565	165293
616.631	195624
616.697	169766
616.763	170226
616.829	228756
616.895	366008
616.961	348703
617.026	180979
617.092	141660
617.158	136577
617.224	134702
617.289	126400
617.355	121709
617.421	120056
617.487	122535
617.552	115362
617.618	115649
617.684	114338
617.749	116458
617.815	111687
617.880	107796
617.946	111267
618.012	112641
618.077	115385
618.143	111086
618.208	110554
618.274	117704
618.339	120463
618.405	102479
618.470	102260
618.536	102380
618.601	102071
618.667	96523
618.732	92807
618.798	91458
618.863	91803
618.928	90475
618.994	92686
619.059	93587
619.124	92524
619.190	91320
619.255	91245
619.320	91708
619.386	92916
619.451	90798
619.516	88732
619.581	90593
619.647	93494
619.712	93139
619.777	91898
619.842	91371
619.907	92745
619.972	94607
620.038	93923
620.103	91459
620.168	91270
620.233	94095
620.298	92581
620.363	93348
620.428	97123
620.493	96656
620.558	99226
620.623	99176
620.688	98667
620.753	99128
620.818	99689
620.883	101231
620.948	101009
621.013	99625
621.078	99037
621.143	98193
621.207	103082
621.272	100239
621.337	98681
621.402	98265
621.467	99639
621.532	100044
621.596	99282
621.661	96438
621.726	95095
621.791	96526
621.855	96891
621.920	94961
621.985	96783
622.049	100075
622.114	99940
622.179	99876
622.243	101972
622.308	104410
622.373	107964
622.437	106550
622.502	101759
622.566	99720
622.631	99526
622.695	101552
622.760	101327
622.824	101533
622.889	101265
622.953	101995
623.018	108428
623.082	108823
623.147	105990
623.211	103112
623.276	102502
623.340	98692
623.404	98032
623.469	98532
623.533	98408
623.597	95655
623.662	94952
623.726	91794
623.790	86751
623.854	84914
623.919	87282
623.983	85954
624.047	88175
624.111	88073
624.176	89674
624.240	90275
624.304	93892
624.368	90760
624.432	89042
624.496	90592
624.560	94162
624.625	94666
624.689	93216
624.753	96540
624.817	93169
624.881	90506
624.945	84643
625.009	82861
625.073	83151
625.137	83998
625.201	88081
625.265	87916
625.329	84969
625.393	84459
625.456	86394
625.520	86465
625.584	87887
625.648	91708
625.712	96868
625.776	110396
625.839	109484
625.903	81788
625.967	71005
626.031	80690
626.095	96321
626.158	79818
626.222	65364
626.286	62424
626.349	60494
626.413	56584
626.477	58516
626.540	56987
626.604	56275
626.668	55291
626.731	54258
626.795	54754
626.858	54167
626.922	52578
626.986	52741
627.049	51638
627.113	55082
627.176	53023
627.240	50075
627.303	50444
627.366	49616
627.430	50524
627.493	49464
627.557	48681
627.620	50085
627.684	51315
627.747	49747
627.810	46094
627.874	43879
627.937	41889
628.000	44868
628.064	41443
628.127	37132
628.190	37771
628.253	37329
628.317	36154
628.380	34612
628.443	34697
628.506	33873
628.569	32986
628.632	30860
628.696	31482
628.759	30972
628.822	29153
628.885	29365
628.948	28543
629.011	27592
629.074	27703
629.137	27195
629.200	25897
629.263	27273
629.326	24964
629.389	24815
629.452	25162
629.515	25078
629.578	24111
629.641	25675
629.704	24654
629.767	23764
629.830	23626
629.892	23846
629.955	22744
630.018	25090
630.081	22201
630.144	24075
630.207	21859
630.269	23224
630.332	22755
630.395	21846
630.458	21754
630.520	20463
630.583	21479
630.646	22161
630.708	21135
630.771	20647
630.834	22863
630.896	21427
630.959	20914
631.021	20470
631.084	21254
631.146	21518
631.209	23131
631.272	19785
631.334	20678
631.397	20609
631.459	20505
631.522	21388
631.584	21589
631.646	24364
631.709	23926
631.771	22862
631.834	22942
631.896	22589
631.958	20035
632.021	21164
632.083	18986
632.145	19695
632.208	19006
632.270	20081
632.332	19989
632.395	17974
632.457	19967
632.519	18767
632.581	20485
632.643	18650
632.706	19058
632.768	17913
632.830	19234
632.892	19717
632.954	19146
633.016	20350
633.078	18660
633.141	18844
633.203	19532
633.265	19632
633.327	18665
633.389	18493
633.451	19543
633.513	19577
633.575	20976
633.637	19194
633.698	19890
633.760	20871
633.822	20826
633.884	20659
633.946	21123
634.008	20266
634.070	21407
634.132	21963
634.193	22958
634.255	24800
634.317	25069
634.379	25947
634.441	22267
634.502	20561
634.564	20476
634.626	17883
634.687	18597
634.749	18826
634.811	18737
634.873	18007
634.934	18265
634.996	18428
635.057	17511
635.119	18296
635.181	18126
635.242	19158
635.304	16392
635.365	20729
635.427	17820
635.488	18661
635.550	17988
635.611	18580
635.673	16188
635.734	20504
635.796	19859
635.857	22223
635.918	20527
635.980	24181
636.041	23630
636.102	25647
636.164	24768
636.225	25371
636.286	20255
636.348	20822
636.409	18732
636.470	18088
636.531	18154
636.593	18396
636.654	17508
636.715	17802
636.776	16736
636.838	16878
636.899	16693
636.960	16201
637.021	15923
637.082	15705
637.143	16065
637.204	15986
637.265	16311
637.326	16489
637.387	16271
637.448	15291
637.509	17117
637.570	15952
637.631	16576
637.692	14087
637.753	13975
637.814	16430
637.875	15706
637.936	16755
637.997	14660
638.058	14925
638.119	16182
638.179	15391
638.240	14043
638.301	15878
638.362	14319
638.423	15447
638.483	16182
638.544	13670
638.605	15096
638.666	13031
638.726	14373
638.787	14663
638.848	14456
638.908	14998
638.969	13591
639.030	13891
639.090	13471
639.151	14137
639.211	14511
639.272	14761
639.332	15946
639.393	15882
639.453	13949
639.514	14402
639.574	14988
639.635	13165
639.695	13838
639.756	12373
639.816	13664
639.877	13070
639.937	15209
639.997	15776
640.058	12115
640.118	12188
640.178	13395
640.239	13148
640.299	12916
640.359	12812
640.420	13721
640.480	14911
640.540	15602
640.600	15535
640.661	14805
640.721	13008
640.781	15334
640.841	12575
640.901	14264
640.961	13595
641.021	14440
641.082	13494
641.142	14539
641.202	13837
641.262	11456
641.322	13003
641.382	10387
641.442	13214
641.502	12719
641.562	12748
641.622	12276
641.682	13396
641.742	14999
641.802	13794
641.861	13734
641.921	11595
641.981	12906
642.041	11989
642.101	13097
642.161	11721
642.221	11508
642.280	12134
642.340	10849
642.400	11475
642.460	13446
642.519	12056
642.579	12474
642.639	13255
642.698	10426
642.758	14547
642.818	13116
642.877	11494
642.937	12394
642.997	12242
643.056	13147
643.116	10901
643.175	13806
643.235	13541
643.294	12592
643.354	13734
643.414	13536
643.473	15036
643.532	17543
643.592	21666
643.651	32004
643.711	51392
643.770	95220
643.830	220146
643.889	429349
643.948	120292
644.008	28958
644.067	19028
644.126	16335
644.186	14383
644.245	14207
644.304	11175
644.363	13793
644.423	11436
644.482	11798
644.541	12555
644.600	10591
644.659	15067
644.719	16877
644.778	23507
644.837	38065
644.896	72969
644.955	163232
645.014	56716
645.073	17200
645.132	14261
645.191	12691
645.250	12021
645.309	14454
645.368	13582
645.427	17147
645.486	24228
645.545	42049
645.604	15517
645.663	12088
645.722	11952
645.781	12897
645.840	13815
645.898	16205
645.957	21166
646.016	29046
646.075	47851
646.134	91004
646.192	230875
646.251	324349
646.310	61268
646.369	21287
646.427	17982
646.486	14117
646.545	12818
646.603	12101
646.662	10358
646.721	10300
646.779	10187
646.838	9405
646.896	13495
646.955	15896
647.014	23830
647.072	42158
647.131	110288
647.189	53817
647.248	12342
647.306	10783
647.365	10313
647.423	7360
647.481	10580
647.540	6730
647.598	8809
647.657	8492
647.715	8890
647.773	7271
647.832	9576
647.890	6945
647.948	6450
648.007	8442
648.065	6667
648.123	7173
648.181	7812
648.240	7589
648.298	7818
648.356	7155
648.414	7601
648.472	7397
648.531	7841
648.589	6799
648.647	6323
648.705	7062
648.763	6896
648.821	7489
648.879	6990
648.937	7704
648.995	8945
649.053	10474
649.111	15491
649.169	23749
649.227	39582
649.285	82636
649.343	228319
649.401	110653
649.459	20203
649.516	12770
649.574	8310
649.632	11499
649.690	12579
649.748	12443
649.806	16311
649.863	30830
649.921	77269
649.979	51037
650.037	9256
650.094	5834
650.152	5417
650.210	5442
650.268	7281
650.325	5328
650.383	5474
650.440	4396
650.498	5491
650.556	4801
650.613	4441
650.671	5379
650.728	5268
650.786	5033
650.843	6766
650.901	4782
650.958	4930
651.016	4941
651.073	4299
651.131	3423
651.188	4217
651.246	4000
651.303	3633
651.360	4685
651.418	3387
651.475	4338
651.532	2834
651.590	4127
651.647	3327
651.704	3963
651.762	3974
651.819	4021
651.876	3582
651.933	3950
651.990	4334
652.048	2352
652.105	3756
652.162	3424
652.219	1752
652.276	4221
652.333	3902
652.390	2311
652.448	4139
652.505	2715
652.562	3503
652.619	3992
652.676	4302
652.733	4383
652.790	2940
652.847	2330
652.904	3646
652.961	2111
653.017	3176
653.074	4084
653.131	2920
653.188	2016
653.245	3356
653.302	4096
653.359	2575
653.415	3196
653.472	2801
653.529	3571
653.586	2419
653.642	2711
653.699	3229
653.756	1673
653.813	2741
653.869	4109
653.926	2550
653.983	2828
654.039	2875
654.096	2712
654.152	3616
654.209	2179
654.266	3173
654.322	1516
654.379	3870
654.435	2754
654.492	2927
654.548	3118
654.605	3382
654.661	3508
654.717	2166
654.774	3322
654.830	3153
654.887	3016
654.943	3327
655.000	2418
655.056	1963
655.112	2624
655.168	2150
655.225	2665
655.281	2975
655.337	4006
655.394	4073
655.450	3370
655.506	3362
655.562	4388
655.618	5258
655.675	1209
655.731	3028
655.787	2266
655.843	4233
655.899	2095
655.955	3065
656.011	3710
656.067	2097
656.123	2390
656.179	2482
656.235	3820
656.291	1772
656.347	3831
656.403	2881
656.459	2304
656.515	2688
656.571	2916
656.627	2365
656.683	2351
656.739	2511
656.795	2949
656.850	2881
656.906	3533
656.962	2975
657.018	1996
657.074	3017
657.129	4155
657.185	6812
657.241	13097
657.297	8011
657.352	3039
657.408	1515
657.464	3829
657.519	2273
657.575	1699
657.630	1564
657.686	1688
657.742	1686
657.797	2015
657.853	2982
657.908	2723
657.964	1596
658.019	1540
658.075	3021
658.130	2270
658.186	1067
658.241	2489
658.297	733
658.352	2868
658.407	2837
658.463	2262
658.518	2293
658.573	1865
658.629	991
658.684	1972
658.739	2477
658.795	1548
658.850	1670
658.905	2059
658.960	2300
659.016	699
659.071	1987
659.126	2317
659.181	1842
659.236	2980
659.291	3155
659.346	1970
659.401	2490
659.457	2418
659.512	2322
659.567	2517
659.622	1845
659.677	2501
659.732	1794
659.787	1526
659.842	1962
659.897	2863
659.952	2525
660.007	1911
660.061	2759
660.116	1150
660.171	1263
660.226	1235
660.281	3165
660.336	999
660.391	2734
660.445	1487
660.500	2479
660.555	1902
660.610	1701
660.664	1807
660.719	1431
660.774	901
660.828	1928
660.883	1207
660.938	1920
660.992	1041
661.047	1786
661.101	1193
661.156	1874
661.211	1621
661.265	1859
661.320	1423
661.374	991
661.429	1438
661.483	2750
661.538	1384
661.592	1368
661.647	2142
661.701	2453
661.755	1392
661.810	1597
661.864	1098
661.919	1196
661.973	2124
662.027	1248
662.081	572
662.136	1770
662.190	1611
662.244	2052
662.299	1171
662.353	1982
662.407	1625
662.461	1837
662.515	1567
662.569	1485
662.624	1921
662.678	1736
662.732	1465
662.786	1795
662.840	1688
662.894	2190
662.948	1230
663.002	1668
663.056	1455
663.110	1595
663.164	1435
663.218	2095
663.272	1632
663.326	1719
663.380	949
663.434	1935
663.488	1169
663.542	1794
663.595	1703
663.649	1767
663.703	2255
663.757	1871
663.811	1066
663.864	1828
663.918	2046
663.972	1625
664.026	1522
664.079	1574
664.133	1981
664.187	1287
664.240	1187
664.294	1284
664.348	2237
664.401	1761
664.455	1937
664.508	929
664.562	1910
664.615	1564
664.669	820
664.722	1460
664.776	782
664.829	1903
664.883	1225
664.936	1373
664.990	1379
665.043	1776
665.097	1701
665.150	2584
665.203	1390
665.257	1731
665.310	1836
665.363	1728
665.417	1787
665.470	1910
665.523	1386
665.576	2419
665.630	957
665.683	1903
665.736	1699
665.789	1852
665.842	1707
665.895	2113
665.949	1596
666.002	2536
666.055	1871
666.108	3138
666.161	1168
666.214	1942
666.267	1826
666.320	1996
666.373	1882
666.426	1881
666.479	1452
666.532	2273
666.585	1810
666.638	2423
666.691	2004
666.744	3211
666.796	2099
666.849	2416
666.902	2738
666.955	1982
667.008	1570
667.060	1849
667.113	908
667.166	1568
667.219	2442
667.271	1577
667.324	1834
667.377	1494
667.430	1348
667.482	2265
667.535	2550
667.587	2150
667.640	2262
667.693	1820
667.745	2183
667.798	2810
667.850	1789
667.903	1884
667.955	1312
668.008	1693
668.060	1855
668.113	1976
668.165	2632
668.218	1626
668.270	1598
668.322	1943
668.375	857
668.427	2332
668.479	1754
668.532	2125
668.584	2193
668.636	1976
668.689	1488
668.741	1841
668.793	1993
668.845	1355
668.898	2591
668.950	2971
669.002	1869
669.054	2310
669.106	1572
669.158	2665
669.211	1859
669.263	2053
669.315	1607
669.367	2252
669.419	2154
669.471	2650
669.523	1991
669.575	2919
669.627	1663
669.679	1455
669.731	2083
669.783	1587
669.835	2373
669.886	2983
669.938	1193
669.990	2376
670.042	2040
670.094	2683
670.146	2998
670.197	3518
670.249	4327
670.301	5225
670.353	6541
670.404	9266
670.456	12494
670.508	20034
670.560	31897
670.611	53236
670.663	94169
670.715	202052
670.766	286419
670.818	119577
670.869	28220
670.921	12933
670.972	9826
671.024	6789
671.075	5188
671.127	4482
671.178	4609
671.230	3691
671.281	3368
671.333	3439
671.384	3110
671.436	4226
671.487	5439
671.538	6900
671.590	10327
671.641	17330
671.692	29829
671.744	58107
671.795	37537
671.846	12770
671.897	6269
671.949	4557
672.000	3148
672.051	2359
672.102	3345
672.153	1826
672.204	1919
672.256	1387
672.307	2622
672.358	2252
672.409	1136
672.460	2169
672.511	1799
672.562	1333
672.613	1430
672.664	1401
672.715	1041
672.766	1428
672.817	1437
672.868	811
672.919	577
672.970	580
673.021	1180
673.071	373
673.122	610
673.173	1839
673.224	1380
673.275	1855
673.326	1294
673.376	1403
673.427	1122
673.478	490
673.528	1515
673.579	1474
673.630	995
673.680	2566
673.731	667
673.782	993
673.832	1068
673.883	627
673.934	1182
673.984	1425
674.035	799
674.085	1618
674.136	1589
674.186	1927
674.237	936
674.287	2362
674.338	1031
674.388	358
674.438	527
674.489	1476
674.539	1265
674.589	1057
674.640	936
674.690	1413
674.740	333
674.791	1416
674.841	1431
674.891	1289
674.942	1470
674.992	375
675.042	217
675.092	400
675.142	1010
675.193	545
675.243	262
675.293	889
675.343	690
675.393	1062
675.443	174
675.493	107
675.543	1141
675.593	816
675.643	1043
675.693	1135
675.743	610
675.793	515
675.843	586
675.893	399
675.943	1416
675.993	1345
676.043	1494
676.093	447
676.142	896
676.192	761
676.242	1105
676.292	497
676.341	388
676.391	806
676.441	267
676.491	611
676.540	967
676.590	522
676.640	585
676.689	-135
676.739	-408
676.789	533
676.838	1030
676.888	261
676.937	11
676.987	434
677.037	489
677.086	546
677.136	141
677.185	114
677.235	-361
677.284	282
677.333	-386
677.383	618
677.432	409
677.482	374
677.531	88
677.580	560
677.630	-507
677.679	116
677.728	-44
677.778	377
677.827	74
677.876	617
677.925	5
677.975	534
678.024	456
678.073	185
678.122	-48
678.171	-194
678.220	615
678.269	660
678.319	769
678.368	318
678.417	482
678.466	956
678.515	485
678.564	-289
678.613	-164
678.662	408
678.711	377
678.760	225
678.809	326
678.857	589
678.906	342
678.955	658
679.004	1352
679.053	479
679.102	-273
679.151	851
679.199	110
679.248	823
679.297	388
679.346	567
679.394	-417
679.443	-390
679.492	-82
679.540	198
679.589	1199
679.638	1060
679.686	600
679.735	272
679.784	962
679.832	264
679.881	1024
679.929	683
679.978	405
680.026	239
680.075	483
680.123	-406
680.172	-365
680.220	232
680.268	89
680.317	-645
680.365	431
680.414	242
680.462	252
680.510	1053
680.559	-13
680.607	580
680.655	71
680.703	-359
680.752	-98
680.800	16
680.848	-132
680.896	569
680.945	310
680.993	-156
681.041	283
681.089	-68
681.137	-326
681.185	-264
681.233	-210
681.258	90
681.281	337
681.329	-623
681.377	-91
681.380	-31
681.425	396
681.473	333
681.502	450
681.521	461
681.569	1292
681.617	676
681.624	721
681.665	738
681.713	798
681.745	882
681.761	863
681.809	454
681.857	1122
681.867	1041
681.904	608
681.952	911
681.989	1055
682.000	1054
682.048	1466
682.096	1082
682.111	1299
682.143	1641
682.191	1219
682.233	2377
682.239	2517
682.286	1676
682.334	2134
682.354	1934
682.382	1548
682.430	2069
682.476	1879
682.477	1846
682.525	1855
682.572	1043
682.598	1907
682.620	2553
682.667	2945
682.715	2502
682.720	2545
682.763	2661
682.810	2516
682.841	2440
682.857	2348
682.905	3073
682.952	2273
682.963	2526
683.000	3261
683.047	2618
683.085	3390
683.095	3565
683.142	2496
683.190	2825
683.206	2913
683.237	3040
683.284	4027
683.328	3582
683.332	3508
683.379	3741
683.426	3185
683.449	3671
683.473	4139
683.521	3390
683.568	3127
683.571	3174
683.615	3355
683.662	4109
683.693	4001
683.709	3912
683.757	3945
683.804	3771
683.814	3762
683.851	3636
683.898	4384
683.936	4040
683.945	3934
683.992	3840
684.039	3936
684.057	3951
684.086	3903
684.133	4339
684.179	3850
684.180	3813
684.227	5150
684.274	4663
684.300	4891
684.321	4996
684.368	4613
684.415	4402
684.422	4530
684.462	5171
684.509	4457
684.543	5248
684.556	5526
684.603	5656
684.649	4896
684.665	5017
684.696	5250
684.743	5435
684.786	5975
684.790	5989
684.837	5659
684.883	6274
684.908	5997
684.930	5781
684.977	6369
685.023	6192
685.029	6240
685.070	6357
685.117	6516
685.150	6572
685.164	6567
685.210	5875
685.257	6833
685.272	6827
685.303	6777
685.350	6672
685.393	6501
685.396	6469
685.443	7102
685.490	6737
685.514	6838
685.536	6936
685.583	6690
685.629	6664
685.636	6636
685.675	6476
685.722	7236
685.757	7037
685.768	6906
685.815	6813
685.861	6951
685.878	7194
685.908	7755
685.954	7689
686.000	7716
686.000	7705
686.047	6714
686.093	7968
686.121	8024
686.139	8069
686.185	8380
686.232	7412
686.242	7698
686.278	8457
686.324	7920
686.363	7450
686.370	7403
686.416	7651
686.463	8301
686.484	8344
686.509	8360
686.555	7597
686.601	8215
686.606	8211
686.647	8045
686.693	8315
686.727	7989
686.739	7857
686.785	8251
686.831	8304
686.848	8209
686.877	8092
686.923	8411
686.969	8556
686.969	8556
687.015	9198
687.061	9066
687.090	9360
687.107	9423
687.153	9890
687.199	9063
687.211	9074
687.245	9076
687.291	9320
687.332	8883
687.336	8858
687.382	9355
687.428	9630
687.453	9498
687.474	9352
687.520	9561
687.565	9333
687.574	9384
687.611	9602
687.657	9226
687.695	9718
687.702	9855
687.748	10167
687.794	10503
687.816	10525
687.839	10286
687.885	10436
687.931	9598
687.937	9635
687.976	10000
688.022	9782
688.058	9907
688.067	10006
688.113	9654
688.158	10241
688.179	10358
688.204	10349
688.249	10314
688.295	10366
688.300	10384
688.340	10765
688.386	11369
688.421	11039
688.431	10919
688.477	10829
688.522	11538
688.542	11384
688.567	11378
688.613	11425
688.658	12027
688.663	12072
688.703	12011
688.749	10782
688.784	11029
688.794	11188
688.839	11212
688.884	11357
688.905	11370
688.930	11356
688.975	11507
689.020	11500
689.026	11430
689.065	11163
689.110	11660
689.146	11868
689.155	11900
689.201	11504
689.246	11864
689.267	11751
689.291	11711
689.336	11802
689.381	11717
689.388	11670
689.426	11465
689.471	12076
689.509	11669
689.516	11617
689.561	11479
689.606	11677
689.630	11769
689.651	11783
689.696	11836
689.741	11511
689.750	11494
689.785	11800
689.830	11852
689.871	12432
689.875	12492
689.920	11975
689.965	12205
689.992	12091
690.010	12051
690.054	11968
690.099	12873
690.112	12826
690.144	12702
690.189	12497
690.233	12030
690.233	12047
690.278	12406
690.323	12097
690.354	12386
690.367	12628
690.412	12980
690.457	13061
690.474	13083
690.501	12920
690.546	12824
690.590	13109
690.595	13039
690.635	13046
690.680	13533
690.716	13502
690.724	13562
690.769	14333
690.813	15297
690.836	15324
690.857	16364
690.902	19008
690.946	22095
690.957	22674
690.991	28169
691.035	36429
691.077	43567
691.080	43466
691.124	38740
691.168	35125
691.198	31977
691.213	29861
691.257	24853
691.301	19133
691.318	16870
691.346	16372
691.390	15716
691.434	14755
691.439	14654
691.478	14559
691.522	14906
691.559	14530
691.567	14577
691.611	14996
691.655	15203
691.680	15341
691.699	15261
691.743	15251
691.787	15165
691.800	15096
691.831	15167
691.875	15070
691.919	14746
691.921	14725
691.964	15240
692.008	15403
692.041	15606
692.052	15580
692.096	15299
692.139	15194
692.162	14834
692.183	14684
692.227	14634
692.271	14581
692.282	14488
692.315	14261
692.359	14340
692.402	14213
692.403	14243
692.447	14260
692.490	14532
692.523	14481
692.534	14452
692.578	14431
692.622	14297
692.643	14229
692.666	14401
692.709	14406
692.753	14782
692.763	14873
692.797	15073
692.840	14733
692.884	14801
692.884	14838
692.928	15213
692.971	15618
693.004	15634
693.015	15494
693.059	15510
693.102	15052
693.124	14773
693.146	14854
693.189	15058
693.233	15242
693.245	15232
693.276	15376
693.320	15814
693.363	15818
693.365	15803
693.407	17099
693.450	18113
693.485	18733
693.493	19014
693.537	20599
693.580	21720
693.605	22472
693.624	24758
693.667	30202
693.710	36016
693.725	37912
693.753	49273
693.797	67278
693.840	85359
693.845	87263
693.883	78697
693.926	68298
693.966	59125
693.970	57957
694.013	45150
694.056	32047
694.086	22847
694.099	22371
694.142	21131
694.185	19512
694.206	18727
694.229	18405
694.272	17825
694.315	17438
694.326	17278
694.358	17393
694.401	17106
694.444	17129
694.446	17080
694.487	16735
694.530	16270
694.566	16221
694.573	16311
694.616	16140
694.659	16162
694.686	16208
694.702	16294
694.745	16442
694.787	16280
694.806	16309
694.830	16399
694.873	16238
694.916	16210
694.926	16195
694.959	16404
695.002	16246
695.044	16396
695.046	16361
695.087	17010
695.130	17495
695.166	17945
695.172	18002
695.215	17910
695.258	18107
695.286	18109
695.301	18195
695.343	18351
695.386	18349
695.406	18351
695.428	18536
695.471	18690
695.514	19023
695.526	19057
695.556	20162
695.599	21724
695.641	23139
695.646	23254
695.684	22516
695.726	21605
695.766	20448
695.769	20467
695.811	20246
695.854	19953
695.886	19681
695.896	19770
695.938	19899
695.981	19916
696.005	20028
696.023	20428
696.065	20921
696.108	21815
696.125	22034
696.150	22261
696.192	22745
696.235	22979
696.245	22976
696.277	23032
696.319	23200
696.361	23394
696.365	23326
696.404	22975
696.446	22819
696.485	22474
696.488	22546
696.530	22737
696.572	22985
696.604	23035
696.614	23016
696.656	22838
696.698	22661
696.724	22366
696.740	22449
696.783	22580
696.825	22861
696.844	22837
696.867	22996
696.909	23235
696.951	23469
696.964	23507
696.992	23684
697.034	23750
697.076	23829
697.083	23798
697.118	24103
697.160	24253
697.202	24535
697.203	24475
697.244	24444
697.286	24443
697.323	24240
697.327	24289
697.369	24400
697.411	24180
697.442	24122
697.453	24258
697.494	24430
697.536	24681
697.562	24762
697.578	24731
697.620	24379
697.661	24123
697.682	23893
697.703	24372
697.744	25327
697.786	26233
697.801	26461
697.828	26464
697.869	26389
697.911	26305
697.921	26217
697.952	26021
697.994	25700
698.035	25306
698.040	25197
698.077	25549
698.118	25859
698.160	26098
698.160	26028
698.201	26816
698.243	27427
698.279	27954
698.284	28056
698.325	28284
698.367	28522
698.399	28620
698.408	28751
698.449	28949
698.491	29205
698.518	29284
698.532	29322
698.573	29171
698.614	29057
698.638	28899
698.656	29174
698.697	29638
698.738	30102
698.757	30236
698.779	30139
698.820	29795
698.862	29451
698.877	29246
698.903	29397
698.944	29507
698.985	29605
698.996	29554
699.026	29440
699.067	29164
699.116	28758
699.235	29415
699.354	27730
699.474	28541
699.593	26561
699.713	28827
699.832	27010
699.951	28221
700.070	27970
700.190	26947
700.309	26384
700.428	25741
700.547	26053
700.667	25580
700.786	24837
700.905	24544
701.024	25164
701.143	24189
701.262	25119
701.381	25582
701.500	24906
701.619	24861
701.738	24831
701.857	24743
701.976	24045
702.095	23975
702.214	25095
702.333	24429
702.452	24726
702.571	24292
702.690	24320
702.809	24695
702.928	23168
703.047	23381
703.165	23145
703.284	23548
703.403	22449
703.522	22571
703.640	21761
703.759	22942
703.878	22576
703.997	21948
704.115	22764
704.234	21364
704.353	21936
704.471	21563
704.590	20435
704.708	21222
704.827	20351
704.946	20474
705.064	20668
705.183	21575
705.301	21688
705.420	23347
705.538	22315
705.656	21051
705.775	21091
705.893	23104
706.012	22835
706.130	20932
706.249	22218
706.367	20425
706.485	20360
706.604	19339
706.722	19033
706.840	21546
706.958	21847
707.077	19583
707.195	19208
707.313	20532
707.431	18397
707.549	18639
707.668	18405
707.786	20118
707.904	18375
708.022	19409
708.140	18475
708.258	18179
708.376	18977
708.494	17699
708.612	19509
708.730	21851
708.848	19869
708.966	19666
709.084	19957
709.202	19751
709.320	19143
709.438	19624
709.556	19625
709.674	18808
709.791	18739
709.909	18025
710.027	18161
710.145	17239
710.263	17172
710.380	17153
710.498	17829
710.616	17236
710.733	18010
710.851	16796
710.969	17555
711.086	15800
711.204	16899
711.322	16554
711.439	17223
711.557	16843
711.674	15659
711.792	16986
711.909	15744
712.027	16655
712.144	15717
712.262	16103
712.379	16122
712.497	19276
712.614	19822
712.732	19054
712.849	17852
712.966	17600
713.084	18011
713.201	16642
713.318	18180
713.436	18379
713.553	16880
713.670	17628
713.787	17614
713.905	17849
714.022	17182
714.139	17584
714.256	18496
714.373	21233
714.490	28838
714.608	57594
714.725	196892
714.842	208253
714.959	30544
715.076	18555
715.193	18004
715.310	17508
715.427	15311
715.544	16660
715.661	15712
715.778	15738
715.895	15303
716.011	15008
716.128	15079
716.245	15416
716.362	14764
716.479	13769
716.596	14701
716.713	15638
716.829	13988
716.946	13807
717.063	14191
717.180	13882
717.296	13500
717.413	14365
717.530	13415
717.646	12249
717.763	13882
717.880	13310
717.996	12611
718.113	12160
718.229	12365
718.346	12281
718.462	11822
718.579	12980
718.695	13082
718.812	14383
718.928	12703
719.045	12806
719.161	12182
719.277	12988
719.394	13104
719.510	12204
719.626	12964
719.743	14860
719.859	17260
719.975	25060
720.092	72418
720.208	157845
720.324	28032
720.440	14129
720.557	13963
720.673	13730
720.789	14342
720.905	20102
721.021	14021
721.137	11495
721.253	11680
721.369	11977
721.486	11664
721.602	12744
721.718	11914
721.834	12233
721.950	10489
722.066	11336
722.181	10651
722.297	11352
722.413	11029
722.529	11306
722.645	10679
722.761	11015
722.877	10937
722.993	10361
723.108	12219
723.224	11382
723.340	10682
723.456	10957
723.571	10466
723.687	9891
723.803	10237
723.918	10258
724.034	9536
724.150	9916
724.265	9714
724.381	11619
724.497	11878
724.612	10210
724.728	10323
724.843	9459
724.959	9910
725.074	11919
725.190	12204
725.305	9982
725.421	9796
725.536	9914
725.651	9507
725.767	8733
725.882	9494
725.997	9472
726.113	9101
726.228	9759
726.343	9549
726.459	9266
726.574	8020
726.689	9031
726.804	9009
726.920	8741
727.035	8593
727.150	9662
727.265	8707
727.380	8943
727.495	9623
727.610	7758
727.725	8338
727.841	9160
727.956	10016
728.071	9804
728.186	9704
728.301	8621
728.416	8959
728.531	8711
728.645	7949
728.760	8283
728.875	8402
728.990	8557
729.105	8802
729.220	7938
729.335	7872
729.449	8809
729.564	8459
729.679	7547
729.794	8717
729.908	9398
730.023	7814
730.138	8503
730.253	7060
730.367	8245
730.482	7995
730.596	8030
730.711	9223
730.826	12207
730.940	9802
731.055	9827
731.169	9161
731.284	8978
731.398	10018
731.513	9874
731.627	10072
731.742	11788
731.856	13068
731.970	12509
732.085	13056
732.199	15807
732.313	22699
732.428	44345
732.542	120820
732.656	78102
732.771	20807
732.885	15075
732.999	15429
733.113	17826
733.227	16415
733.342	16468
733.456	15337
733.570	16142
733.684	14745
733.798	13962
733.912	14180
734.026	15413
734.140	14411
734.254	14196
734.368	14879
734.482	16379
734.596	14153
734.710	14577
734.824	13411
734.938	13617
735.052	13350
735.166	14369
735.280	13657
735.393	13037
735.507	13662
735.621	13945
735.735	14379
735.849	14281
735.962	12286
736.076	13837
736.190	12464
736.303	13663
736.417	13669
736.531	12346
736.644	12374
736.758	12478
736.872	11851
736.985	11990
737.099	12216
737.212	11120
737.326	10449
737.439	12160
737.553	11310
737.666	12664
737.780	11441
737.893	12299
738.007	10198
738.120	12504
738.233	10533
738.347	11493
738.460	11310
738.573	12574
738.687	10680
738.800	11151
738.913	10677
739.026	10590
739.140	10652
739.253	10861
739.366	11066
739.479	11298
739.592	10213
739.705	10873
739.818	11210
739.932	10476
740.045	10117
740.158	10425
740.271	11124
740.384	10495
740.497	9191
740.610	10511
740.723	9453
740.836	9417
740.949	10033
741.062	10663
741.174	10068
741.287	9979
741.400	9906
741.513	9224
741.626	9756
741.739	9876
741.851	9413
741.964	10276
742.077	9303
742.189	9363
742.302	9205
742.415	8689
742.527	9121
742.640	9667
742.753	8175
742.865	10368
742.978	9057
743.090	10039
743.203	9765
743.316	8490
743.428	8953
743.541	9352
743.653	9274
743.766	8696
743.878	9534
743.990	8494
744.103	8280
744.215	9996
744.327	8178
744.440	10276
744.552	9150
744.664	8132
744.777	9466
744.889	9238
745.001	8365
745.113	9008
745.226	7881
745.338	8037
745.450	8695
745.562	7802
745.674	7268
745.786	8625
745.898	8987
746.010	7991
746.122	7477
746.234	8429
746.347	8793
746.459	8552
746.570	7293
746.682	8310
746.794	9619
746.906	7766
747.018	7603
747.130	8580
747.242	7375
747.354	7872
747.466	8672
747.577	8244
747.689	8054
747.801	7582
747.913	7238
748.024	7805
748.136	7244
748.248	6872
748.359	7256
748.471	7719
748.583	6693
748.694	6780
748.806	7009
748.918	8167
749.029	7123
749.141	7533
749.252	8090
749.364	6601
749.475	7278
749.587	7213
749.698	7176
749.809	7297
749.921	7063
750.032	7271
750.144	6851
750.255	6798
750.366	6977
750.478	6683
750.589	6921
750.700	8104
750.811	7630
750.923	7069
751.034	6546
751.145	7990
751.256	6121
751.367	6574
751.479	6696
751.590	6766
751.701	7006
751.812	6644
751.923	5544
752.034	6977
752.145	7332
752.256	6759
752.367	5989
752.478	7341
752.589	7247
752.700	6837
752.811	5989
752.922	7804
753.032	6628
753.143	7629
753.254	6204
753.365	7474
753.476	6637
753.586	7754
753.697	6743
753.808	8208
753.919	5781
754.029	6779
754.140	6183
754.251	6518
754.361	6361
754.472	7055
754.582	5923
754.693	6521
754.804	7595
754.914	7403
755.025	6133
755.135	6934
755.246	7163
755.356	7081
755.466	6848
755.577	6932
755.687	7099
755.798	5874
755.908	6807
756.018	7174
756.129	7284
756.239	6809
756.349	6654
756.460	7224
756.570	7186
756.680	7213
756.790	6949
756.900	7814
757.011	7134
757.121	6770
757.231	6879
757.341	7346
757.451	7215
757.561	6667
757.671	7131
757.781	7094
757.891	6997
758.001	6583
758.111	7583
758.221	7270
758.331	8068
758.441	7139
758.551	7137
758.661	7348
758.771	7317
758.880	7476
758.990	7414
759.100	7835
759.210	7650
759.320	8224
759.429	7468
759.539	8619
759.649	8344
759.758	8820
759.868	8826
759.978	7854
760.087	9060
760.197	8745
760.307	9081
760.416	9932
760.526	7722
760.635	9225
760.745	9082
760.854	10054
760.964	10054
761.073	9584
761.182	9631
761.292	10525
761.401	9465
761.511	8640
761.620	8925
761.729	9384
761.839	9846
761.948	9865
762.057	10331
762.166	11218
762.276	9926
762.385	12430
762.494	11223
762.603	11519
762.712	11676
762.822	11454
762.931	12412
763.040	12820
763.149	12307
763.258	12982
763.367	13386
763.476	14440
763.585	15174
763.694	15225
763.803	15518
763.912	16669
764.021	18337
764.130	18129
764.238	19571
764.347	21288
764.456	21628
764.565	23944
764.674	26102
764.783	26735
764.891	29830
765.000	34759
765.109	37541
765.217	42305
765.326	48678
765.435	57740
765.543	69068
765.652	84556
765.761	109357
765.869	140139
765.978	191343
766.086	265299
766.195	368205
766.303	470287
766.412	416747
766.520	376913
766.629	432013
766.737	345129
766.846	252332
766.954	184849
767.062	141237
767.171	108697
767.279	87281
767.387	70761
767.496	59689
767.604	52315
767.712	46454
767.820	41727
767.928	37656
768.037	36324
768.145	33948
768.253	32807
768.361	30338
768.469	31566
768.577	32165
768.685	33036
768.793	34387
768.901	36694
769.009	44349
769.117	51982
769.225	65362
769.333	86264
769.441	123449
769.549	191443
769.657	304267
769.765	431524
769.873	366677
769.981	375548
770.088	290300
770.196	190100
770.304	129574
770.412	96156
770.519	73336
770.627	59529
770.735	48115
770.842	42972
770.950	36917
771.058	31488
771.165	29464
771.273	28307
771.380	25818
771.488	25643
771.595	24905
771.703	22845
771.810	21608
771.918	20029
772.025	20376
772.133	21281
772.240	19365
772.348	21233
772.455	20537
772.562	17903
772.670	17069
772.777	18130
772.884	17637
772.991	16091
773.099	16336
773.206	15238
773.313	14645
773.420	15991
773.528	14789
773.635	15068
773.742	15341
773.849	14763
773.956	13893
774.063	14089
774.170	13206
774.277	13968
774.384	12866
774.491	12831
774.598	13069
774.705	13205
774.812	12423
774.919	13440
775.026	12467
775.133	11185
775.239	11585
775.346	11840
775.453	10639
775.560	11149
775.667	11529
775.773	10799
775.880	11464
775.987	10775
776.093	10955
776.200	12596
776.307	9206
776.413	11218
776.520	10088
776.627	10431
776.733	9398
776.840	8511
776.946	11534
777.053	9821
777.159	10033
777.266	8661
777.372	9683
777.478	9964
777.585	9558
777.691	9121
777.798	10117
777.904	9572
778.010	8924
778.117	8950
778.223	8944
778.329	9556
778.435	7919
778.542	9364
778.648	8782
778.754	8057
778.860	8113
778.966	9011
779.072	7913
779.178	8881
779.284	7892
779.391	7905
779.497	7425
779.603	11299
779.708	11157
779.815	18057
779.920	52916
780.026	99898
780.132	22022
780.238	10218
780.344	8530
780.450	10351
780.556	7643
780.661	6926
780.767	7622
780.873	6750
780.979	6881
781.085	6788
781.190	6724
781.296	6581
781.402	6751
781.507	6336
781.613	6666
781.719	7174
781.824	7607
781.930	6971
782.035	6057
782.141	7646
782.246	5694
782.352	6183
782.457	5892
782.563	6318
782.668	6519
782.773	6269
782.879	5342
782.984	6776
783.090	7364
783.195	7075
783.300	6400
783.405	6414
783.511	6169
783.616	6410
783.721	6716
783.826	5962
783.932	5942
784.037	6233
784.142	6436
784.247	5875
784.352	7298
784.457	5311
784.562	5928
784.667	6806
784.772	5671
784.877	4522
784.982	6423
785.087	6237
785.192	5621
785.297	5377
785.402	5420
785.507	5131
785.611	5371
785.716	4894
785.821	5231
785.926	5310
786.031	5163
786.135	5419
786.240	6035
786.345	4035
786.450	5513
786.554	5823
786.659	4430
786.763	4279
786.868	5188
786.973	6958
787.077	4315
787.182	4124
787.286	4462
787.391	5816
787.495	3452
787.600	4612
787.704	4318
787.809	4400
787.913	4349
788.017	4444
788.122	4333
788.226	4623
788.330	3338
788.435	5160
788.539	4452
788.643	4538
788.747	3425
788.852	4034
788.956	3592
789.060	4760
789.164	5204
789.268	4200
789.372	5107
789.476	4542
789.580	3105
789.684	3695
789.788	5263
789.892	3816
789.996	4309
790.100	3406
790.204	3846
790.308	4546
790.412	3316
790.516	4530
790.620	3603
790.724	4911
790.828	4482
790.931	3034
791.035	5132
791.139	3784
791.242	3237
791.346	5695
791.450	3969
791.554	4116
791.657	2836
791.761	4160
791.864	4494
791.968	4242
792.072	3534
792.175	2865
792.279	3307
792.382	3695
792.486	3757
792.589	3603
792.693	3757
792.796	2864
792.899	3836
793.003	4015
793.106	2695
793.209	3511
793.313	3704
793.416	1362
793.519	3828
793.623	4597
793.726	3492
793.829	3135
793.932	4044
794.035	2417
794.138	4291
794.242	5458
794.345	2771
794.448	5411
794.551	8318
794.654	29675
794.757	62057
794.860	11938
794.963	5153
795.066	2797
795.169	4136
795.272	3222
795.375	3556
795.477	2431
795.580	3130
795.683	1409
795.786	3508
795.889	2131
795.991	4377
796.094	3373
796.197	2026
796.300	3919
796.402	3379
796.505	2882
796.608	1327
796.710	3322
796.813	2885
796.915	2838
797.018	3433
797.120	3386
797.223	1237
797.326	3986
797.428	2623
797.530	2355
797.633	2684
797.735	3709
797.838	2665
797.940	3921
798.042	2532
798.145	2309
798.247	3445
798.349	1223
798.452	2718
798.554	2784
798.656	1649
798.758	3842
798.860	2511
798.962	2655
799.065	1796
799.167	2261
799.269	3222
799.371	3399
799.473	3548
799.575	1941
799.677	2916
799.779	4360
799.881	1647
799.983	4286
800.085	2973
800.187	2303
800.289	1676
800.390	2124
800.492	3417
800.594	3591
800.696	1912
800.798	2341
800.899	2021
801.001	2112
801.103	1832
801.205	2926
801.306	2283
801.408	1990
801.509	2236
801.611	3237
801.713	2430
801.814	2177
801.916	2188
802.017	2098
802.119	1679
802.220	2912
802.322	394
802.423	4496
802.525	1383
802.626	1969
802.727	2559
802.829	2897
802.930	609
803.031	3820
803.133	1535
803.234	2726
803.335	3012
803.436	1799
803.538	2060
803.639	1298
803.740	2611
803.841	1666
803.942	2263
804.043	2535
804.144	1486
804.245	2476
804.346	1443
804.447	1942
804.548	1549
804.649	3073
804.750	1676
804.851	1481
804.952	1698
805.053	1850
805.154	711
805.255	2915
805.355	1985
805.456	2255
805.557	1189
805.658	1130
805.758	2783
805.859	1372
805.960	2165
806.061	1664
806.161	1582
806.262	2146
806.362	1241
806.463	1589
806.564	2285
806.664	2778
806.765	1812
806.865	2312
806.966	773
807.066	1324
807.166	2872
807.267	2332
807.367	1081
807.468	2951
807.568	604
807.668	2276
807.769	2871
807.869	2719
807.969	1511
808.069	2061
808.170	1694
808.270	1269
808.370	1865
808.470	2695
808.570	120
808.670	1983
808.770	2252
808.870	1313
808.970	1954
809.070	1551
809.170	800
809.271	2668
809.370	1343
809.470	2689
809.570	1218
809.670	921
809.770	1429
809.870	2777
809.970	1805
810.070	1623
810.169	3198
810.269	410
810.369	2380
810.469	1266
810.568	1553
810.668	1983
810.768	1640
810.867	1798
810.967	1276
811.066	1267
811.166	1026
811.265	2241
811.365	1126
811.464	1258
811.564	1869
811.663	2101
811.763	309
811.862	2430
811.962	1679
812.061	1777
812.160	895
812.260	2034
812.359	2354
812.458	2413
812.557	5398
812.657	7022
812.756	3112
812.855	1807
812.954	1959
813.053	2431
813.153	812
813.252	775
813.351	1713
813.450	2215
813.549	564
813.648	1978
813.747	1325
813.846	1885
813.945	1358
814.044	1909
814.143	2023
814.242	2620
814.341	962
814.439	2293
814.538	2128
814.637	1562
814.736	2229
814.835	3034
814.933	1458
815.032	2331
815.131	4086
815.229	5615
815.328	8646
815.427	5932
815.525	5145
815.624	5317
815.722	4108
815.821	5585
815.919	5009
816.018	4957
816.116	5855
816.215	5108
816.313	5073
816.412	6562
816.510	7166
816.609	8236
816.707	7463
816.805	6870
816.904	5883
817.002	6632
817.100	6991
817.198	7144
817.296	5901
817.395	6657
817.493	6860
817.591	5358
817.689	6495
817.787	5987
817.885	7493
817.983	7228
818.081	8839
818.179	14005
818.277	29097
818.375	23653
818.473	8585
818.571	6687
818.669	6813
818.767	8243
818.865	5806
818.963	6042
819.061	7378
819.158	7753
819.256	13578
819.354	22547
819.452	48122
819.549	28446
819.647	10709
819.745	7331
819.842	6385
819.940	6769
820.038	4272
820.135	4959
820.233	6559
820.330	5084
820.428	5196
820.525	6848
820.623	4969
820.720	4968
820.818	5093
820.915	6222
821.012	4698
821.110	3919
821.207	5506
821.304	3769
821.402	5047
821.499	5557
821.596	4562
821.693	4634
821.791	5333
821.888	4819
821.985	5666
822.082	4238
822.179	4950
822.276	5028
822.373	4825
822.470	3486
822.567	4580
822.664	4139
822.761	3922
822.858	4736
822.955	4538
823.052	4037
823.149	4345
823.246	4204
823.343	3409
823.440	4675
823.536	3943
823.633	4359
823.730	3192
823.827	4449
823.923	4097
824.020	3923
824.117	4465
824.213	3825
824.310	4280
824.407	3044
824.503	4492
824.600	4236
824.696	3007
824.793	4762
824.889	4387
824.986	3206
825.082	2450
825.179	3243
825.275	4952
825.371	4900
825.468	2357
825.564	1398
825.660	3322
825.757	5070
825.853	3552
825.949	3260
826.045	3257
826.142	3519
826.238	3867
826.334	4380
826.430	2916
826.526	2833
826.622	2356
826.718	4132
826.814	4476
826.910	4426
827.006	2416
827.102	2523
827.198	3247
827.294	3686
827.390	3805
827.486	3068
827.582	2205
827.678	1864
827.774	4497
827.869	1829
827.965	3111
828.061	2146
828.157	3964
828.252	3487
828.348	2360
828.444	3677
828.539	2332
828.635	3070
828.731	3365
828.826	2704
828.922	3282
829.017	3510
829.113	3669
829.208	1901
829.304	1458
829.399	3950
829.495	2289
829.590	2857
829.685	2820
829.781	3055
829.876	3204
829.971	1998
830.066	1732
830.162	2059
830.257	3708
830.352	3098
830.447	1971
830.543	2357
830.638	1766
830.733	4102
830.828	1567
830.923	2492
831.018	2789
831.113	3591
831.208	1576
831.303	2585
831.398	1901
831.493	2495
831.588	4095
831.683	2859
831.778	1983
831.873	1524
831.967	2916
832.062	2510
832.157	1924
832.252	3693
832.346	1427
832.441	2686
832.536	2955
832.631	3679
832.725	1705
832.820	1801
832.914	1699
833.009	1560
833.104	1616
833.198	1808
833.293	1613
833.387	3194
833.482	2421
833.576	2267
833.670	1867
833.765	1216
833.859	1987
833.954	3627
834.048	1774
834.142	2835
834.237	747
834.331	2563
834.425	2496
834.519	2188
834.613	1639
834.708	1592
834.802	2240
834.896	1128
834.990	2393
835.084	2427
835.178	1616
835.272	1965
835.366	2904
835.460	3634
835.554	2228
835.648	1414
835.742	712
835.836	2289
835.930	1127
836.024	3020
836.117	3109
836.211	1642
836.305	1989
836.399	1771
836.493	524
836.586	2657
836.680	949
836.774	1630
836.867	2049
836.961	909
837.055	300
837.148	1707
837.242	1569
837.335	1898
837.429	1878
837.522	1618
837.616	1542
837.709	1900
837.803	1191
837.896	2545
837.989	1234
838.083	1580
838.176	2211
838.269	1245
838.363	1492
838.456	2152
838.549	1281
838.642	1302
838.735	1249
838.829	2388
838.922	973
839.015	2220
839.108	713
839.201	2172
839.294	1727
839.387	1766
839.480	1282
839.573	1451
839.666	1003
839.759	1754
839.852	1472
839.945	1751
840.038	1789
840.131	485
840.223	1257
840.316	2623
840.409	1647
840.502	1903
840.594	3151
840.687	878
840.780	1178
840.873	507
840.965	1200
841.058	2907
841.150	2240
841.243	731
841.336	1486
841.428	701
841.521	575
841.613	1296
841.706	1692
841.798	1404
841.890	2178
841.983	582
842.075	1284
842.167	567
842.260	1103
842.352	2464
842.444	1351
842.537	2136
842.629	1527
842.721	793
842.813	1360
842.905	736
842.997	1905
843.090	1687
843.182	1928
843.274	1403
843.366	3314
843.458	5377
843.550	3571
843.642	2044
843.734	1570
843.826	1101
843.918	1551
844.009	1506
844.101	-285
844.193	1619
844.285	1366
844.377	1500
844.469	1201
844.560	805
844.652	-30
844.744	1414
844.835	525
844.927	1907
845.019	1069
845.110	1743
845.202	1147
845.293	266
845.385	324
845.476	1589
845.568	1707
845.659	894
845.751	1204
845.842	666
845.934	522
846.025	1176
846.116	947
846.208	1540
846.299	-415
846.390	789
846.482	371
846.573	1153
846.664	1187
846.755	701
846.846	1439
846.937	-75
847.029	972
847.120	626
847.211	553
847.302	1321
847.393	532
847.484	1494
847.575	738
847.666	-144
847.757	454
847.847	393
847.938	1697
848.029	1134
848.120	620
848.211	972
848.302	210
848.392	878
848.483	1040
848.574	460
848.664	1033
848.755	1122
848.846	857
848.936	890
849.027	1536
849.118	897
849.208	319
849.299	1221
849.389	1667
849.480	3061
849.570	4730
849.661	9074
849.751	14583
849.841	4497
849.932	1508
850.022	754
850.112	1456
850.203	897
850.293	797
850.383	996
850.474	-571
850.564	510
850.654	128
850.744	458
850.834	910
850.924	1459
851.014	1649
851.104	1128
851.194	316
851.284	511
851.374	1023
851.464	386
851.554	1252
851.644	739
851.734	1181
851.824	2209
851.914	1445
852.004	4293
852.094	3774
852.183	1331
852.273	1176
852.363	84
852.452	763
852.542	1045
852.632	75
852.721	357
852.811	427
852.901	1403
852.990	1208
853.080	416
853.169	428
853.259	902
853.348	670
853.438	1016
853.527	1194
853.617	2626
853.706	3966
853.795	6311
853.885	12351
853.974	22334
854.063	41948
854.152	58694
854.242	21666
854.331	4826
854.420	2269
854.509	2055
854.598	1594
854.687	1424
854.777	1157
854.866	396
854.955	844
855.044	189
855.133	1146
855.222	1318
855.311	913
855.400	1168
855.488	261
855.577	400
855.666	651
855.755	1083
855.844	410
855.933	308
856.021	656
856.110	627
856.199	-33
856.288	614
856.376	974
856.465	-147
856.554	521
856.642	141
856.731	1249
856.819	906
856.908	271
856.996	502
857.085	771
857.173	80
857.262	929
857.350	1126
857.438	564
857.527	1263
857.615	866
857.703	1366
857.792	637
857.880	-541
857.968	32
858.056	149
858.145	18
858.233	712
858.321	16
858.409	1430
858.497	168
858.585	725
858.673	567
858.761	-63
858.849	-359
858.937	-481
859.025	650
859.113	883
859.201	150
859.289	1583
859.377	255
859.465	1174
859.552	-541
859.640	658
859.728	167
859.816	347
859.903	-55
859.991	-214
860.079	900
860.166	468
860.254	-116
860.342	754
860.429	-551
860.517	-79
860.604	138
860.692	365
860.779	385
860.867	420
860.954	266
861.042	762
861.129	958
861.216	709
861.304	641
861.391	64
861.478	-183
861.565	-161
861.653	466
861.740	242
861.827	626
861.914	1417
862.001	942
862.089	409
862.176	861
862.263	1088
862.350	234
862.437	517
862.524	-527
862.611	662
862.698	459
862.785	500
862.871	632
862.958	1327
863.045	451
863.132	353
863.219	22
863.306	-684
863.392	801
863.479	-332
863.566	1003
863.652	1281
863.739	496
863.826	1145
863.912	1069
863.999	419
864.086	-15
864.172	1068
864.259	404
864.345	1072
864.432	1866
864.518	1174
864.604	603
864.691	963
864.777	1869
864.863	1946
864.950	2592
865.036	3311
865.122	6690
865.209	7581
865.295	6729
865.381	4902
865.467	5130
865.553	5848
865.639	5805
865.726	8104
865.812	11043
865.898	16443
865.984	23029
866.070	38813
866.156	38310
866.242	13215
866.328	6305
866.414	5614
866.499	4906
866.585	5775
866.671	5080
866.757	5627
866.843	5278
866.928	4146
867.014	4601
867.100	4915
867.186	5107
867.271	4536
867.357	5228
867.442	4489
867.528	5702
867.614	4490
867.699	4358
867.785	5356
867.870	4678
867.956	3914
868.041	3944
868.127	4108
868.212	3843
868.297	4406
868.383	4100
868.468	4844
868.553	5381
868.639	4181
868.724	4390
868.809	4736
868.894	3861
868.979	3727
869.065	4406
869.150	3179
869.235	3620
869.320	4272
869.405	3033
869.490	3948
869.575	4162
869.660	2588
869.745	3727
869.830	4784
869.915	3151
870.000	4016
870.085	3490
870.169	4154
870.254	5135
870.339	2805
870.424	2670
870.509	4717
870.593	4163
870.678	4277
870.763	3265
870.847	2935
870.932	3509
871.016	3628
871.101	2012
871.186	3934
871.270	4781
871.355	3114
871.439	2473
871.523	3901
871.608	2496
871.692	2590
871.777	3102
871.861	4739
871.945	2987
872.030	3667
872.114	3018
872.198	3007
872.282	2781
872.367	2930
872.451	2643
872.535	3071
872.619	3123
872.703	2748
872.787	2947
872.871	3579
872.955	2500
873.039	2415
873.123	2728
873.207	4172
873.291	1318
873.375	2614
873.459	3265
873.543	2437
873.627	2422
873.711	2161
873.794	3332
873.878	2951
873.962	1120
874.045	2746
874.129	2365
874.137	2395
874.213	2690
874.245	2736
874.296	2822
874.352	2599
874.380	2487
874.460	1598
874.464	1563
874.547	2185
874.568	2196
874.631	2214
874.676	1982
874.714	1798
874.784	2554
874.798	2701
874.881	3238
874.892	2997
874.965	1350
874.999	1982
875.048	2861
875.107	2732
875.131	2671
875.215	1698
875.215	1698
875.298	1384
875.323	1556
875.381	2056
875.430	2908
875.465	3452
875.538	2560
875.548	2443
875.631	1867
875.646	1789
875.714	1374
875.753	1447
875.798	1627
875.861	2260
875.881	2396
875.964	1709
875.968	1703
876.047	1719
876.076	1845
876.130	2043
876.183	2233
876.213	2447
876.291	2801
876.296	2802
876.379	2368
876.398	2298
876.462	2189
876.506	1617
876.545	1053
876.613	1778
876.628	1971
876.711	1371
876.721	1465
876.794	2081
876.828	2347
876.877	2653
876.935	1539
876.960	1135
877.043	1374
877.043	1377
877.125	2086
877.150	2256
877.208	2567
877.258	2186
877.291	1935
877.365	1898
877.374	1901
877.456	1174
877.472	1277
877.539	1716
877.579	1606
877.622	1391
877.687	1732
877.704	1837
877.787	2010
877.794	1982
877.869	1713
877.901	1618
877.952	1515
878.008	1194
878.034	1042
878.115	1215
878.117	1217
878.199	1218
878.222	1266
878.282	1469
878.329	2113
878.364	2561
878.437	2098
878.447	2023
878.529	1346
878.544	1360
878.611	1528
878.651	1575
878.694	1606
878.758	1687
878.776	1720
878.858	1832
878.865	1810
878.941	1282
878.972	1048
879.023	918
879.078	922
879.105	894
879.185	1609
879.187	1624
879.269	1981
879.292	1925
879.351	1640
879.399	978
879.433	568
879.506	1553
879.516	1668
879.598	1395
879.613	1335
879.680	1300
879.720	1563
879.762	1638
879.827	1536
879.844	1587
879.926	1400
879.933	1450
880.007	1730
880.040	1391
880.089	1058
880.147	1737
880.171	1903
880.253	1715
880.254	1714
880.335	2137
880.360	2599
880.417	4134
880.467	5804
880.499	7107
880.574	8157
880.580	7891
880.662	4180
880.680	3253
880.744	1636
880.787	816
880.825	301
880.893	851
880.907	1027
880.989	1315
881.000	1335
881.070	1275
881.106	1220
881.152	1235
881.213	1248
881.233	1210
881.315	1381
881.319	1377
881.396	1533
881.426	1591
881.478	1575
881.532	1553
881.559	1499
881.639	877
881.641	865
881.722	1221
881.745	1338
881.803	1729
881.852	1344
881.885	1076
881.958	1072
881.966	1086
882.047	1187
882.064	1210
882.129	894
882.171	707
882.210	800
882.277	1209
882.291	1265
882.372	1481
882.383	1500
882.454	1852
882.489	2116
882.535	1979
882.596	1373
882.616	1361
882.697	1685
882.702	1662
882.778	997
882.808	1042
882.859	1209
882.914	935
882.940	694
883.020	500
883.021	507
883.102	1696
883.127	1894
883.183	2033
883.233	1918
883.264	1588
883.339	859
883.345	850
883.426	508
883.445	671
883.507	1092
883.551	1049
883.587	1061
883.657	1220
883.668	1305
883.749	1722
883.763	1749
883.830	1017
883.869	805
883.910	1087
883.975	1534
883.991	1412
884.072	738
884.081	663
884.152	1447
884.187	1880
884.233	1758
884.292	1122
884.314	943
884.394	192
884.398	188
884.475	101
884.504	73
884.555	557
884.610	645
884.636	465
884.716	641
884.716	648
884.797	1535
884.821	1826
884.877	1697
884.927	1183
884.958	967
885.033	601
885.038	598
885.118	612
885.139	713
885.199	714
885.244	643
885.279	822
885.350	1140
885.359	1184
885.439	1769
885.456	1747
885.520	1084
885.561	741
885.600	595
885.667	704
885.680	725
885.760	596
885.773	582
885.840	627
885.878	635
885.920	669
885.984	1121
886.000	1302
886.080	1575
886.089	1615
886.160	1341
886.195	1204
886.240	1163
886.300	1075
886.320	1037
886.400	909
886.406	914
886.480	958
886.511	849
886.560	972
886.616	1195
886.640	1193
886.720	1204
886.722	1205
886.800	366
886.827	-10
886.879	605
886.932	1319
886.959	1418
887.038	1474
887.039	1474
887.119	1276
887.143	1244
887.198	996
887.248	727
887.278	783
887.354	886
887.358	872
887.437	642
887.459	574
887.517	1452
887.564	2142
887.596	1836
887.669	1019
887.676	1007
887.755	1001
887.774	996
887.835	864
887.880	781
887.914	1005
887.985	1344
887.994	1296
888.073	1067
888.090	960
888.153	1544
888.195	2032
888.232	1671
888.300	967
888.311	1026
888.391	1400
888.405	1471
888.470	868
888.510	498
888.549	732
888.615	1154
888.628	1123
888.708	914
888.720	879
888.787	1103
888.825	1218
888.866	735
888.930	34
888.945	141
889.024	670
889.035	749
889.103	542
889.140	415
889.182	704
889.245	1148
889.261	1158
889.340	1227
889.349	1229
889.419	1232
889.454	1257
889.498	901
889.559	397
889.577	497
889.656	959
889.664	1008
889.735	1223
889.768	1327
889.814	1411
889.873	1519
889.978	411
890.083	1232
890.187	315
890.292	1781
890.397	590
890.501	1792
890.606	367
890.710	971
890.815	2075
890.919	1943
891.024	389
891.128	583
891.233	580
891.337	1247
891.442	234
891.546	416
891.650	-448
891.755	291
891.859	2218
891.963	1170
892.068	832
892.172	923
892.276	233
892.380	1627
892.484	310
892.589	720
892.693	422
892.797	745
892.901	392
893.005	75
893.109	897
893.213	1630
893.317	512
893.421	1228
893.525	11
893.629	960
893.733	927
893.837	510
893.941	431
894.045	1131
894.148	472
894.252	1548
894.356	1289
894.460	1759
894.564	245
894.667	527
894.771	-399
894.875	1241
894.978	149
895.082	1127
895.186	972
895.289	1073
895.393	760
895.496	944
895.600	543
895.703	775
895.807	437
895.910	544
896.014	563
896.117	939
896.221	393
896.324	898
896.427	492
896.531	167
896.634	426
896.737	737
896.840	-11
896.944	422
897.047	136
897.150	706
897.253	188
897.356	946
897.460	57
897.563	462
897.666	263
897.769	860
897.872	-636
897.975	135
898.078	683
898.181	-789
898.284	-284
898.387	926
898.490	1059
898.593	931
898.695	-245
898.798	744
898.901	302
899.004	1159
899.107	4
899.209	456
899.312	603
899.415	327
899.518	552
899.620	80
899.723	963
899.826	1884
899.928	779
900.031	-143
900.133	226
900.236	812
900.338	195
900.441	497
900.543	93
900.646	751
900.748	34
900.851	1095
900.953	-199
901.055	-31
901.158	459
901.260	782
901.362	-664
901.465	288
901.567	46
901.669	1557
901.771	28
901.873	99
901.976	250
902.078	406
902.180	579
902.282	2
902.384	-426
902.486	705
902.588	96
902.690	489
902.792	-163
902.894	752
902.996	-101
903.098	734
903.200	468
903.302	135
903.404	-184
903.505	353
903.607	-465
903.709	1427
903.811	-84
903.913	431
904.014	-644
904.116	-65
904.218	-397
904.319	154
904.421	1010
904.523	816
904.624	156
904.726	528
904.827	-526
904.929	1025
905.030	198
905.132	1018
905.233	118
905.335	325
905.436	66
905.537	1124
905.639	286
905.740	159
905.841	30
905.943	581
906.044	-435
906.145	764
906.247	-411
906.348	-25
906.449	536
906.550	654
906.651	95
906.752	265
906.854	140
906.955	-46
907.056	144
907.157	75
907.258	428
907.359	366
907.460	-755
907.561	483
907.662	-258
907.762	-326
907.863	-91
907.964	1095
908.065	296
908.166	31
908.267	-290
908.367	408
908.468	752
908.569	-174
908.670	-288
908.770	793
908.871	980
908.971	823
909.072	648
909.173	613
909.273	-867
909.374	161
909.474	218
909.575	466
909.675	466
909.776	233
909.876	362
909.977	193
910.077	796
910.177	781
910.278	-104
910.378	62
910.478	-275
910.579	984
910.679	759
910.779	722
910.879	-44
910.980	1191
911.080	534
911.180	487
911.280	-151
911.380	1
911.480	-84
911.580	169
911.680	213
911.780	-77
911.880	-199
911.980	429
912.080	182
912.180	121
912.280	-367
912.380	-133
912.480	63
912.580	-520
912.679	-1148
912.779	814
912.879	-423
912.979	215
913.078	-436
913.178	-192
913.278	-312
913.377	-457
913.477	-468
913.577	209
913.676	349
913.776	308
913.875	-170
913.975	1111
914.074	2
914.174	-8
914.273	-175
914.373	976
914.472	-510
914.572	295
914.671	-14
914.770	-313
914.870	137
914.969	-659
915.068	-117
915.167	791
915.267	-854
915.366	255
915.465	-223
915.564	217
915.663	-474
915.763	305
915.862	-452
915.961	536
916.060	-875
916.159	-162
916.258	-484
916.357	752
916.456	-272
916.555	16
916.654	-556
916.752	330
916.851	-218
916.950	157
917.049	-388
917.148	-135
917.247	546
917.345	432
917.444	-311
917.543	752
917.642	-744
917.740	173
917.839	359
917.937	724
918.036	63
918.135	170
918.233	290
918.332	420
918.430	-572
918.529	-323
918.627	-494
918.726	756
918.824	-228
918.923	-234
919.021	-342
919.119	-43
919.218	-390
919.316	-81
919.414	-141
919.512	1316
919.611	-514
919.709	418
919.807	364
919.905	1348
920.003	189
920.102	464
920.200	312
920.298	841
920.396	128
920.494	-11
920.592	248
920.690	913
920.788	-332
920.886	802
920.984	227
921.082	-110
921.180	940
921.277	1247
921.375	144
921.473	1003
921.571	1332
921.669	1328
921.766	445
921.864	1467
921.962	1606
922.060	1702
922.157	577
922.255	1192
922.352	816
922.450	1768
922.548	1224
922.645	1505
922.743	1387
922.840	4041
922.938	5283
923.035	3298
923.133	3980
923.230	4952
923.327	5482
923.425	4640
923.522	4644
923.619	4167
923.717	4123
923.814	3990
923.911	3728
924.008	4355
924.106	4152
924.203	3277
924.300	3386
924.397	3280
924.494	3684
924.591	3507
924.688	2752
924.786	3271
924.883	3655
924.979	3449
925.077	3196
925.173	3885
925.270	3373
925.367	3893
925.464	3234
925.561	4014
925.658	4148
925.755	3889
925.852	3301
925.948	4160
926.045	3259
926.142	3756
926.239	3666
926.335	3449
926.432	3189
926.529	3752
926.625	4111
926.722	3141
926.818	1916
926.915	3675
927.011	2914
927.108	2909
927.204	3723
927.301	2240
927.397	2770
927.494	3761
927.590	1591
927.687	2723
927.783	3131
927.879	3849
927.976	2957
928.072	2326
928.168	3032
928.264	3801
928.361	1562
928.457	4112
928.553	2647
928.649	2824
928.745	2828
928.841	3168
928.937	2998
929.033	2846
929.129	2195
929.225	1973
929.321	3790
929.417	2118
929.513	2251
929.609	2818
929.705	1643
929.801	3631
929.897	1878
929.993	2296
930.089	2414
930.184	2325
930.280	2491
930.376	3404
930.471	2938
930.567	2334
930.663	2400
930.758	2132
930.854	2000
930.950	2409
931.045	2386
931.141	2628
931.236	2611
931.332	3121
931.427	1342
931.523	2609
931.618	2862
931.714	1694
931.809	1645
931.905	2600
932.000	1386
932.095	2307
932.191	2005
932.286	2791
932.381	2501
932.476	1320
932.572	1091
932.667	2599
932.762	1570
932.857	2772
932.952	2590
933.047	1695
933.142	810
933.237	1684
933.332	1422
933.427	2639
933.522	1548
933.617	1390
933.712	1875
933.807	2478
933.902	1768
933.997	2792
934.092	1408
934.187	1864
934.282	1597
934.376	1797
934.471	1492
934.566	1979
934.661	1548
934.755	2068
934.850	2688
934.945	1893
935.039	61
935.134	1721
935.228	1274
935.323	3816
935.417	1087
935.512	1713
935.606	50
935.701	2472
935.795	2314
935.890	2086
935.984	1568
936.079	397
936.173	1392
936.267	1136
936.362	627
936.456	1639
936.550	2286
936.644	1542
936.738	811
936.833	1546
936.927	261
937.021	1411
937.115	1305
937.209	1353
937.303	1195
937.397	1303
937.491	1174
937.585	1315
937.679	1776
937.773	485
937.867	167
937.961	1624
938.055	1612
938.149	2415
938.243	308
938.337	814
938.430	960
938.524	1981
938.618	520
938.712	933
938.805	760
938.899	1088
938.993	1279
939.086	1364
939.180	-177
939.274	1066
939.367	1188
939.461	2146
939.554	959
939.648	810
939.741	-101
939.835	519
939.928	1662
940.022	1596
940.115	637
940.208	2016
940.302	1628
940.395	2946
940.488	-25
940.582	1291
940.675	10
940.768	1061
940.861	707
940.954	2736
941.048	2
941.141	584
941.234	-467
941.327	1745
941.420	1426
941.513	1385
941.606	313
941.699	1374
941.792	1673
941.885	2090
941.978	1498
942.071	1107
942.164	82
942.257	762
942.349	874
942.442	751
942.535	153
942.628	87
942.721	442
942.813	142
942.906	862
942.999	960
943.091	-891
943.184	121
943.277	297
943.369	791
943.462	-190
943.554	250
943.647	332
943.739	1072
943.832	932
943.924	163
944.017	-8
944.109	-154
944.201	256
944.294	882
944.386	-137
944.478	1107
944.571	-15
944.663	815
944.755	1149
944.847	469
944.940	211
945.032	-88
945.124	277
945.216	519
945.308	1
945.400	870
945.492	-63
945.584	589
945.676	-391
945.768	418
945.860	176
945.952	563
946.044	-76
946.136	116
946.228	-69
946.320	62
946.412	429
946.503	805
946.595	513
946.687	-22
946.779	-196
946.870	772
946.962	-286
947.054	491
947.145	504
947.237	414
947.329	-925
947.420	33
947.512	262
947.603	154
947.695	-271
947.786	-587
947.878	-639
947.969	394
948.061	-596
948.152	264
948.243	-224
948.335	288
948.426	-233
948.517	928
948.609	457
948.700	187
948.791	177
948.882	-225
948.973	-1120
949.065	-133
949.156	1156
949.247	-732
949.338	364
949.429	169
949.520	-750
949.611	-199
949.702	830
949.793	-367
949.884	185
949.975	419
950.066	-773
950.157	-251
950.247	-772
950.338	-224
950.429	-171
950.520	736
950.611	-1143
950.701	-170
950.792	297
950.883	608
950.973	-943
951.064	1234
951.155	-75
951.245	652
951.336	-163
951.427	-249
951.517	1344
951.608	-1
951.698	137
951.788	-1
951.879	-730
951.969	-53
952.060	-932
952.150	28
952.240	977
952.331	-275
952.421	1068
952.511	-982
952.602	-351
952.692	-143
952.782	-437
952.872	-195
952.962	-991
953.052	83
953.143	-29
953.233	699
953.323	-61
953.413	-236
953.503	-478
953.593	214
953.683	-382
953.773	-283
953.863	-625
953.953	-1406
954.042	-251
954.132	-88
954.222	426
954.312	-271
954.402	-500
954.492	-293
954.581	508
954.671	9
954.761	-795
954.850	748
954.940	-532
955.030	-496
955.119	-720
955.209	-600
955.298	-36
955.388	-475
955.477	381
955.567	-321
955.656	98
955.746	-871
955.835	-1683
955.925	-820
956.014	-78
956.103	353
956.193	-22
956.282	374
956.371	-74
956.461	949
956.550	-279
956.639	97
956.728	-904
956.817	-166
956.906	-193
956.995	475
957.085	-378
957.174	-30
957.263	-442
957.352	-197
957.441	-1217
957.530	245
957.619	59
957.708	-250
957.796	-296
957.885	-68
957.974	-1031
958.063	506
958.152	-1118
958.241	64
958.329	-711
958.418	-345
958.507	-629
958.596	1497
958.684	-499
958.773	257
958.861	-654
958.950	437
959.039	-758
959.127	-91
959.216	-109
959.304	-73
959.393	-9
959.481	-41
959.570	-104
959.658	-477
959.746	-999
959.835	207
959.923	239
960.011	82
960.100	-58
960.188	-151
960.276	1
960.365	-341
960.453	-1397
960.541	-746
960.629	-890
960.717	-772
960.805	-1839
960.893	-148
960.981	-725
961.069	967
961.158	-494
961.245	1169
961.333	-14
961.421	-622
961.509	-377
961.597	306
961.685	-360
961.773	-253
961.861	-208
961.949	305
962.036	-125
962.124	-866
962.212	-869
962.299	-1099
962.387	-754
962.475	287
962.562	-879
962.650	1073
962.738	-261
962.825	-34
962.913	-657
963.000	-592
963.088	-174
963.175	-472
963.263	9
963.350	132
963.438	-906
963.525	160
963.612	1094
963.700	1614
963.787	4492
963.874	2199
963.962	-324
964.049	-126
964.136	-940
964.223	364
964.310	-958
964.398	-244
964.485	-1254
964.572	-81
964.659	1084
964.746	-477
964.833	-1348
964.920	-577
965.007	-186
965.094	27
965.181	-1065
965.268	-356
965.355	-1574
965.441	-193
965.528	-190
965.615	280
965.702	-712
965.789	-1173
965.875	-498
965.962	-18
966.049	-1213
966.136	226
966.222	-460
966.309	402
966.395	-546
966.482	657
966.569	-218
966.655	-635
966.742	-5
966.828	-643
966.915	-1503
967.001	-423
967.087	-1298
967.174	-486
967.260	-449
967.347	86
967.433	1518
967.519	3530
967.605	157
967.692	-1127
967.778	-24
967.864	-572
967.950	-1048
968.036	-404
968.123	-148
968.209	13
968.295	-758
968.381	313
968.467	-846
968.553	-1093
968.639	-22
968.725	-415
968.811	566
968.897	932
968.983	-949
969.069	-815
969.154	18
969.240	-20
969.326	-1356
969.412	-811
969.497	-1105
969.583	-979
969.669	-734
969.755	219
969.840	-495
969.926	-32
970.012	-52
970.097	1855
970.183	430
970.268	43
970.354	573
970.439	-35
970.525	2487
970.610	-849
970.696	-797
970.781	-540
970.866	-2394
970.952	595
971.037	-1018
971.122	-459
971.208	-1331
971.293	-35
971.378	-2013
971.463	-323
971.549	-179
971.634	-344
971.719	-1184
971.804	-190
971.889	149
971.974	-696
972.059	-1244
972.144	135
972.229	-986
972.314	-567
972.399	-1300
972.484	-1072
972.569	-844
972.654	-1157
972.739	1215
972.824	772
972.908	-978
972.993	-745
973.078	-916
973.163	-689
973.247	-700
973.332	-2370
973.417	-88
973.501	-991
973.586	-569
973.671	-869
973.755	-1453
973.840	-930
973.924	-774
974.009	-930
974.093	-128
974.178	909
974.262	-37
974.346	174
974.431	-1225
974.515	-207
974.600	-807
974.684	262
974.768	-497
974.852	-520
974.937	-1266
975.021	-301
975.105	-281
975.189	-760
975.273	-689
975.358	-891
975.442	-1419
975.526	-463
975.610	-1680
975.694	-1785
975.778	-403
975.862	-613
975.946	-1610
976.030	897
976.114	-1271
976.198	724
976.281	-1190
976.365	510
976.449	-1393
976.533	-293
976.617	-1260
976.700	-257
976.784	-682
976.868	176
976.951	195
977.035	-188
977.119	-666
977.202	-686
977.286	-1295
977.369	-120
977.453	-785
977.536	-248
977.620	-958
977.703	-331
977.787	-1737
977.870	192
977.953	-78
978.037	-1302
978.120	195
978.203	-525
978.287	371
978.370	-9
978.453	-896
978.536	256
978.620	759
978.703	-158
978.786	-2142
978.869	-1498
978.952	-2090
979.035	571
979.118	-719
979.201	-1214
979.284	-621
979.367	-527
979.450	-82
979.533	-964
979.616	-1067
979.699	-882
979.782	-761
979.865	-191
979.948	-1223
980.030	-867
980.113	-1191
980.196	-1464
980.279	-771
980.361	-267
980.444	-1330
980.526	-232
980.609	-214
980.692	161
980.774	366
980.857	-1719
980.939	-233
981.022	-774
981.104	-784
981.187	370
981.269	140
981.352	15
981.434	-1778
981.516	-742
981.599	189
981.681	-170
981.763	-1097
981.846	-910
981.928	-1308
982.010	-807
982.092	-1736
982.174	172
982.256	-810
982.339	-141
982.421	-587
982.503	-295
982.585	-1606
982.667	-299
982.749	-230
982.831	-648
982.913	-1639
982.995	717
983.077	-1152
983.158	997
983.240	-1152
983.322	264
983.404	746
983.486	36
983.568	-19
983.649	27
983.731	94
983.813	4
983.894	-526
983.976	-116
984.058	-203
984.139	-71
984.221	-1855
984.302	227
984.384	-649
984.465	-1134
984.547	-877
984.628	-1642
984.710	-302
984.791	-177
984.872	-300
984.954	-262
985.035	-813
985.116	106
985.198	-847
985.279	1052
985.360	-895
985.441	-251
985.522	-334
985.604	-801
985.685	-1557
985.766	1240
985.847	23
985.928	-651
986.009	-633
986.090	-494
986.171	-718
986.252	-859
986.333	-758
986.414	-537
986.495	-96
986.576	62
986.656	-414
986.737	-810
986.818	-738
986.899	-226
986.980	-603
987.060	907
987.141	-947
987.222	304
987.302	14
987.383	-74
987.464	-24
987.544	1522
987.625	-930
987.705	-168
987.786	-201
987.866	-679
987.947	23
988.027	564
988.108	-958
988.188	-219
988.268	-1173
988.349	1208
988.429	-167
988.509	318
988.589	-510
988.670	-874
988.750	759
988.830	-327
988.910	207
988.990	-981
989.070	-883
989.151	-563
989.231	-940
989.311	278
989.391	-424
989.471	-680
989.551	-793
989.631	21
989.711	229
989.791	-621
989.870	-1109
989.950	364
990.030	-777
990.110	-78
990.190	-636
990.269	-1149
990.349	-1340
990.429	-137
990.509	-963
990.588	-1069
990.668	-869
990.747	-796
990.827	-636
990.907	62
990.986	-1093
991.066	537
991.145	-1039
991.225	-498
991.304	-1135
991.383	245
991.463	-1789
991.542	-16
991.622	-1266
991.701	-1175
991.780	-1160
991.859	-1035
991.939	-1544
992.018	-552
992.097	-898
992.176	-695
992.256	-972
992.335	-1215
992.414	-16
992.493	-1143
992.572	-1749
992.651	753
992.730	-755
992.809	-139
992.888	-1155
992.967	-1067
993.046	-28
993.125	-1276
993.203	-945
993.282	-181
993.361	-1551
993.440	-426
993.519	-1568
993.597	-707
993.676	-1417
993.755	554
993.834	-969
993.912	-779
993.991	-834
994.069	-1409
994.148	-1019
994.226	-597
994.305	-726
994.384	-1321
994.462	-316
994.540	-1158
994.619	-2296
994.697	90
994.776	-841
994.854	-837
994.932	-1854
995.011	-557
995.089	-1483
995.167	-653
995.245	-1111
995.324	-696
995.402	-443
995.480	-826
995.558	-1560
995.636	-2146
995.714	-2142
995.792	144
995.870	-1128
995.948	-1021
996.026	-813
996.104	-2254
996.182	-847
996.260	-1004
996.338	-1313
996.416	-1292
996.494	-2063
996.572	-289
996.649	-1472
996.727	-1990
996.805	-956
996.883	-1501
996.960	-1086
997.038	-963
997.116	-1032
997.193	-1347
997.271	-1144
997.348	-1071
997.426	-1314
997.504	-1608
997.581	-414
997.658	-993
997.736	-3163
997.813	-1914
997.891	-1380
997.968	-1855
998.046	-1589
998.123	-1537
998.200	-697
998.277	-1302
998.355	-404
998.432	-2587
998.509	-1921
998.586	-493
998.663	-1470
998.741	-1513
998.818	-1485
998.895	-1699
998.972	-1157
999.049	-1547
999.126	-1139
999.203	-954
999.280	-1463
999.357	-1147
999.434	-1359
999.511	-1016
999.587	-523
999.664	-1058
999.741	-1291
999.818	-481
999.895	-1126
999.971	-1095
1000.048	-2211
1000.125	232
1000.202	-1911
1000.278	-1533
1000.355	-1419
1000.431	-1454
1000.508	-1970
1000.584	-639
1000.661	-1328
1000.738	-934
1000.814	-980
1000.890	-773
1000.967	-1174
1001.043	-80
1001.120	-1919
1001.196	-1537
1001.272	-1174
1001.349	-1739
1001.425	-1927
1001.501	-522
1001.577	-938
1001.654	-690
1001.730	-1944
1001.806	-728
1001.882	-1928
1001.958	-146
1002.034	-1589
1002.110	-1357
1002.186	-1509
1002.262	-2324
1002.338	-2006
1002.414	128
1002.490	-857
1002.566	-497
1002.642	-1292
1002.718	-322
1002.794	-1776
1002.870	-1105
1002.945	-1858
1003.021	-582
1003.097	-1416
1003.173	-1070
1003.248	-2657
1003.324	-1083
1003.400	-1752
1003.475	-1312
1003.551	-1742
1003.626	-1204
1003.702	-1635
1003.777	-623
1003.853	-1449
1003.928	-653
1004.004	-2213
1004.079	-1199
1004.155	-757
1004.230	-1561
1004.305	-1064
1004.381	-1409
1004.456	-1843
1004.531	-1319
1004.607	-868
1004.682	-1410
1004.757	-1475
1004.832	-1346
1004.907	-1627
1004.982	-665
1005.057	-1178
1005.133	-2455
1005.208	-1769
1005.283	-1760
1005.358	-795
1005.433	-2231
1005.508	-1501
1005.583	-1868
1005.657	-316
1005.732	-334
1005.807	-1516
1005.882	-1664
1005.957	-1543
1006.032	-922
1006.106	-1780
1006.181	-1103
1006.256	-579
1006.331	-1089
1006.405	-2394
1006.480	-660
1006.554	-2091
1006.629	-1100
1006.704	-634
1006.778	-1272
1006.853	-1590
1006.927	-844
1007.002	-1950
1007.076	-1600
1007.150	-1655
1007.225	-799
1007.299	-725
1007.373	-1521
1007.448	-1344
1007.522	-506
1007.596	-995
1007.671	-1078
1007.745	-904
1007.819	-1650
1007.893	-2571
1007.967	-717
1008.041	-1919
1008.115	-823
1008.190	-1852
1008.264	-288
1008.338	-1906
1008.412	-1373
1008.486	-1700
1008.560	-1582
1008.633	-1732
1008.707	-1262
1008.781	-591
1008.855	-1337
1008.929	-1331
1009.003	-1284
1009.076	-2197
1009.150	-563
1009.224	-1718
1009.298	-170
1009.371	-1606
1009.445	-1369
1009.519	-2157
1009.592	-1671
1009.666	-803
1009.739	-804
1009.813	-2143
1009.886	215
1009.960	-1847
1010.033	-1195
1010.107	-1744
1010.180	-1902
1010.253	-1539
1010.327	-1622
1010.400	-1331
1010.473	-985
1010.547	-891
1010.620	-1847
1010.693	-1714
1010.766	-992
1010.840	-852
1010.913	-881
1010.986	-1963
1011.059	-869
1011.132	-961
1011.205	-1581
1011.278	-1416
1011.351	-1421
1011.424	-1810
1011.497	-1494
1011.570	-1759
1011.643	-1330
1011.716	-1631
1011.789	-1417
1011.862	-1220
1011.934	-986
1012.007	-1503
1012.080	-1352
1012.153	-1441
1012.225	-1034
1012.298	-2097
1012.371	-851
1012.443	-1493
1012.516	-1915
1012.588	-2527
1012.661	-1125
1012.733	-2488
1012.806	-332
1012.879	-1819
1012.951	-1358
1013.023	-2247
1013.096	-670
1013.168	-2578
1013.241	-338
1013.313	-2043
1013.385	-1448
1013.458	-1448
1013.530	-1287
1013.602	-2166
1013.674	-862
1013.746	-2689
1013.819	-1667
1013.891	-1323
1013.963	-1726
1014.035	-1899
1014.107	-1088
1014.179	-1828
1014.251	-1954
1014.323	-1313
1014.395	-1423
1014.467	-1514
1014.539	-1094
1014.611	-1535
1014.683	-1195
1014.754	-1752
1014.826	-1457
1014.898	-1417
1014.970	-2460
1015.042	-1250
1015.113	-940
1015.185	-2098
1015.257	-1442
1015.328	-1450
1015.400	-1215
1015.471	-797
1015.543	-1793
1015.615	-1574
1015.686	-1021
1015.757	-1998
1015.829	-1737
1015.901	-1493
1015.972	-1073
1016.043	-1630
1016.115	-1143
1016.186	-1816
1016.257	-1679
1016.328	-1970
1016.400	-400
1016.471	-2440
1016.542	-1784
1016.613	-1753
1016.685	-769
1016.756	-1108
1016.827	-2056
1016.898	-1870
1016.969	-783
1017.040	-1923
1017.111	-1485
1017.182	-1767
1017.253	-1176
1017.324	-1281
1017.395	-1245
1017.466	-1196
1017.537	-1701
1017.608	-1795
1017.678	-828
1017.749	-1041
1017.820	-1495
1017.891	-2007
1017.961	-1300
1018.032	-1531
1018.103	-1980
1018.173	-1741
1018.244	-1537
1018.315	-1962
1018.385	-1253
1018.456	-1837
1018.526	-517
1018.597	-2223
1018.667	-1073
1018.738	-2666
1018.808	-1045
1018.878	-1636
1018.949	-1468
1019.019	-1876
1019.089	-772
1019.160	-1462
1019.230	-2298
1019.300	-1644
1019.371	-774
1019.441	-1573
1019.511	-1363
1019.581	-2112
1019.651	-763
1019.721	-2137
1019.791	-1726
1019.861	-1946
1019.931	-1258
1020.001	-2478
1020.071	-1515
1020.141	-2780
1020.211	-2110
1020.281	-2667
1020.351	-1530
1020.421	-2403
1020.491	-538
1020.560	-2635
1020.630	-1462
1020.700	-2022
1020.770	-1720
1020.839	-1160
1020.909	-1800
1020.979	-2049
1021.048	-1517
1021.118	-2328
1021.187	-2360
1021.257	-2608
1021.326	-1318
1021.396	-1791
1021.465	-829
1021.535	-1854
1021.604	-2467
1021.674	-2108
1021.743	-1836
1021.812	-1898
1021.882	-1510
1021.951	-2405
1022.020	-2065
1022.089	-2117
1022.159	-977
1022.228	-1430
1022.297	-1135
1022.366	-1690
1022.435	-1162
1022.504	-2017
1022.573	-1563
1022.642	-2080
1022.711	-2519
1022.781	-1875
1022.849	-1210
1022.918	-2935
1022.987	-2075
1023.056	-1266
1023.125	-1726
1023.194	-2743
1023.263	-1590
1023.331	-1757
1023.400	-1872
1023.469	-2283
1023.538	-613
1023.606	-1981
1023.675	-1556
1023.744	-2261
1023.812	-1708
1023.881	-1763
1023.949	-716
1024.018	-2320
1024.086	-1513
1024.155	-1364
1024.223	-1648
1024.292	-1586
1024.360	-1040
1024.429	-2516
1024.497	-1858
1024.565	-2294
1024.634	-2405
1024.702	-1988
1024.770	-1648
1024.838	-2277
1024.907	-2037
1024.975	-1765
1025.043	-1774
1025.111	-1719
1025.179	-1737
1025.247	-1122
1025.315	-1395
1025.383	-1877
1025.451	-1221
1025.519	-1442
1025.587	-1790
1025.655	-2510
1025.723	-2018
1025.791	-1825
1025.859	-1700
1025.927	-1922
1025.995	-2392
1026.062	-1874
1026.130	-1353
1026.198	-2180
1026.266	-842
1026.333	-2348
1026.401	-1765
1026.469	-2369
1026.536	-1029
1026.604	-1606
1026.671	-1178
1026.739	-2232
1026.806	-1986
1026.874	-2180
1026.941	-2195
1027.009	-1957
1027.076	-1805
1027.144	-1667
1027.211	-1976
1027.278	-2869
1027.345	-1578
1027.413	-2088
1027.480	-1965
1027.547	-1916
1027.614	-2539
1027.682	-1362
1027.749	-1342
1027.816	-2189
1027.883	-1899
1027.950	-2083
1028.017	-1977
1028.084	-1269
1028.151	-1843
1028.218	-2155
1028.285	-2404
1028.352	-2524
1028.419	-1875
1028.486	-2041
1028.553	-1759
1028.619	-2422
1028.686	-2049
1028.753	-1960
1028.820	-1197
1028.886	-2874
1028.953	-1410
1029.020	-2154
1029.086	-1495
1029.153	-2409
1029.220	-1986
1029.286	-2918
1029.353	-1333
1029.419	-1973
1029.486	-2014
1029.552	-2760
1029.619	-1818
1029.685	-2666
1029.751	-2339
1029.818	-1123
1029.884	-1652
1029.951	-1713
1030.017	-2539
1030.083	-2879
1030.149	-1006
1030.216	-1777
1030.282	-1819
1030.348	-2501
1030.414	-1726
1030.480	-2073
1030.546	-1223
1030.612	-1529
1030.678	-1912
1030.744	-1995
1030.810	-1780
1030.876	-2169
1030.942	-1586
1031.008	-2583
1031.074	-1523
1031.140	-2742
1031.206	-1519
1031.272	-2551
1031.337	-1408
1031.403	-1374
1031.469	-2286
1031.534	-1689
1031.600	-1891
1031.666	-2340
1031.731	-1552
1031.797	-2021
1031.863	-2579
1031.928	-2632
1031.994	-1880
1032.059	-2351
1032.125	-1809
1032.190	-2106
1032.256	-1067
1032.321	-2635
1032.386	-1605
1032.452	-1769
1032.517	-2410
1032.582	-2770
1032.647	-1540
1032.713	-2648
1032.778	-1678
1032.843	-3043
1032.908	-1291
1032.974	-2615
1033.039	-1783
1033.104	-2272
1033.169	-2357
1033.234	-2436
1033.299	-1307
1033.364	-1968
1033.429	-1697
1033.494	-2386
1033.559	-1749
1033.624	-2366
1033.688	-1348
1033.753	-2248
1033.818	-1831
1033.883	-2538
1033.948	-2483
1034.013	-1597
1034.077	-1457
1034.142	-1120
1034.207	-588
1034.271	105
1034.336	1613
1034.400	-761
1034.465	-452
1034.530	-2179
1034.594	-344
1034.658	-2361
1034.723	-2289
1034.787	-1863
1034.852	-2433
1034.916	-2443
1034.981	-1787
1035.045	-1979
1035.109	-2456
1035.173	-2261
1035.238	-1717
1035.302	-2442
1035.366	-2427
1035.430	-2386
1035.495	-1629
1035.559	-1415
1035.623	-2161
1035.687	-1840
1035.751	-2149
1035.815	-2547
1035.879	-1689
1035.943	-2108
1036.007	-2321
1036.071	-2659
1036.135	-1648
1036.198	-1873
1036.262	-2118
1036.326	-2200
1036.390	-1290
1036.454	-1826
1036.517	-1649
1036.581	-1764
1036.645	-786
1036.709	-1432
1036.772	-2282
1036.836	-2167
1036.900	-2135
1036.963	-2056
1037.026	-1441
1037.090	-2793
1037.154	-2012
1037.217	-2942
1037.280	-2531
1037.344	-2219
1037.407	-2156
1037.471	-1822
1037.534	-2242
1037.597	-1646
1037.661	-2093
1037.724	-2434
1037.787	-2085
1037.850	-2242
1037.913	-2495
1037.977	-2256
1038.040	-1388
1038.103	-2021
1038.166	-1800
1038.229	-2249
1038.292	-1595
1038.355	-2610
1038.418	-2126
1038.481	-2530
1038.544	-2024
1038.607	-2373
1038.670	-1962
1038.732	-2263
1038.795	-2256
1038.858	-2877
1038.921	-3085
1038.984	-2556
1039.046	-1757
1039.109	-2574
1039.172	-3261
1039.234	-2055
1039.297	-2039
1039.360	-1673
1039.422	-1406
1039.485	-2356
1039.547	-2970
1039.610	-1935
1039.672	-1892
1039.734	-2340
1039.797	-2051
1039.859	-1823
1039.922	-1532
1039.984	-2093
1040.046	-1366
1040.109	-2297
1040.171	-1765
1040.233	-2179
1040.295	-2034
1040.358	-2552
1040.420	-2334
1040.482	-2723
1040.544	-2301
1040.606	-2444
1040.668	-1807
1040.730	-2352
1040.792	-2247
1040.854	-2949
1040.916	-1909
1040.978	-2239
1041.040	-1572
1041.102	-1876
1041.164	-1956
1041.225	-3009
1041.287	-1710
1041.349	-3088
1041.411	-1413
1041.472	-2523
1041.534	-2006
1041.596	-2665
1041.657	-1885
1041.719	-2559
1041.781	-1769
1041.842	-2421
1041.904	-2599
1041.965	-2660
1042.027	-1776
1042.088	-2219
1042.150	-1859
1042.211	-2058
1042.272	-1443
1042.334	-1692
1042.395	-2777
1042.456	-2871
1042.518	-2271
1042.579	-2195
1042.640	-1912
1042.701	-2574
1042.763	-1922
1042.824	-2339
1042.885	-2468
1042.946	-2662
1043.007	-1996
1043.068	-2859
1043.129	-1698
1043.190	-3086
1043.251	-1854
1043.312	-2415
1043.373	-1357
1043.434	-1880
1043.495	-905
1043.556	-2058
1043.616	-2140
1043.677	-2231
1043.738	-1173
1043.799	-2302
1043.859	-1225
1043.920	-3014
1043.981	-2073
1044.041	-2131
1044.102	-2133
1044.162	-2435
1044.223	-2104
1044.284	-2014
1044.344	-2521
1044.405	-2279
1044.465	-1904
1044.525	-2210
1044.586	-1819
1044.646	-2121
1044.707	-2083
1044.767	-2014
1044.827	-1894
1044.887	-1763
1044.948	-1874
1045.008	-2228
1045.068	-2203
1045.128	-2130
1045.188	-1340
1045.249	-1577
1045.309	-2355
1045.369	-1696
1045.429	-2319
1045.489	-2010
1045.549	-1917
1045.609	-2989
1045.669	-2592
1045.729	-1957
1045.789	-2058
1045.848	-1851
1045.908	-2106
1045.968	-1689
1046.028	-1319
1046.088	-2029
1046.147	-1371
1046.207	-2140
1046.267	-1530
1046.326	-2388
1046.386	-1322
1046.446	-1592
1046.505	-1246
1046.565	-1682
1046.624	-637
1046.684	-1254
1046.743	-682
1046.803	-865
1046.862	-595
1046.922	0
