'Start Wavelength	183.907
'End Wavelength	1046.922
'Gate Delay	5.000
'Gate Width (ms)	1.050
'Laser Output Level	0.000
'X Position	0.000
'Y Position	0.000
'Z Position	0.000
'Grid Point Number	1.000
'Shot Number	100.000
183.907	679.000
183.977	198.000
184.047	66
184.116	518
184.186	265
184.256	-225
184.325	-459
184.395	-497
184.465	1342
184.534	182
184.604	-549
184.674	440
184.743	-21
184.813	889
184.883	586
184.952	454
185.022	875
185.092	28
185.161	-317
185.231	-25
185.301	99
185.370	581
185.440	-647
185.509	-230
185.579	309
185.649	-107
185.718	715
185.788	885
185.857	-45
185.927	32
185.996	221
186.066	-643
186.136	770
186.205	-74
186.275	205
186.344	458
186.414	248
186.483	-259
186.553	644
186.622	446
186.692	175
186.761	-116
186.831	43
186.900	82
186.970	28
187.039	165
187.109	-214
187.178	-728
187.248	813
187.317	-64
187.387	-166
187.456	565
187.526	-110
187.595	742
187.664	578
187.734	-191
187.803	176
187.873	586
187.942	694
188.012	442
188.081	96
188.150	-302
188.220	892
188.289	802
188.358	-157
188.428	857
188.497	-58
188.567	202
188.636	-298
188.705	-356
188.775	204
188.844	-870
188.913	510
188.983	12
189.052	348
189.121	-104
189.191	241
189.260	453
189.329	302
189.399	326
189.468	533
189.537	-446
189.606	462
189.676	474
189.745	552
189.814	266
189.883	111
189.953	-33
190.022	134
190.091	59
190.161	341
190.230	76
190.299	-596
190.368	-284
190.437	138
190.507	-10
190.576	348
190.645	26
190.714	-155
190.783	-65
190.853	310
190.922	421
190.991	332
191.060	302
191.129	266
191.198	547
191.268	-346
191.337	-170
191.406	511
191.475	-101
191.544	458
191.613	100
191.682	194
191.752	32
191.821	-147
191.890	-425
191.959	262
192.028	332
192.097	118
192.166	-564
192.235	-147
192.304	663
192.373	136
192.442	-274
192.511	291
192.580	316
192.650	-661
192.719	97
192.788	788
192.857	194
192.926	-334
192.995	587
193.064	138
193.133	433
193.202	-93
193.271	1038
193.340	1241
193.409	643
193.478	712
193.547	475
193.615	375
193.684	556
193.753	193
193.822	881
193.891	-342
193.960	755
194.029	-126
194.098	1012
194.167	-705
194.236	406
194.305	510
194.374	291
194.443	29
194.512	-143
194.580	592
194.649	711
194.718	252
194.787	104
194.856	-34
194.925	-46
194.994	-436
195.062	62
195.131	392
195.200	394
195.269	466
195.338	100
195.407	768
195.475	104
195.544	471
195.613	310
195.682	678
195.751	288
195.819	368
195.888	700
195.957	605
196.026	-73
196.094	901
196.163	188
196.232	125
196.301	532
196.369	345
196.438	448
196.507	708
196.576	278
196.644	138
196.713	-136
196.782	-374
196.850	148
196.919	472
196.988	532
197.056	77
197.125	-28
197.194	326
197.262	-253
197.331	-162
197.400	252
197.468	323
197.537	501
197.606	69
197.674	229
197.743	636
197.812	-817
197.880	113
197.949	87
198.017	534
198.086	209
198.155	-446
198.223	476
198.292	-646
198.360	256
198.429	-368
198.497	152
198.566	473
198.635	696
198.703	790
198.772	646
198.840	376
198.909	36
198.977	-292
199.046	219
199.114	211
199.183	544
199.251	-401
199.320	-14
199.388	532
199.457	-419
199.525	321
199.594	-742
199.662	285
199.731	148
199.799	-15
199.867	446
199.936	-192
200.004	500
200.073	-9
200.141	28
200.210	210
200.278	513
200.346	476
200.415	742
200.483	354
200.552	255
200.620	469
200.688	918
200.757	136
200.825	669
200.893	-310
200.962	672
201.030	-143
201.098	578
201.167	-132
201.235	-169
201.303	795
201.372	263
201.440	524
201.508	685
201.577	183
201.645	-102
201.713	-180
201.781	-406
201.850	816
201.918	746
201.986	-297
202.055	285
202.123	413
202.191	278
202.259	149
202.327	1238
202.396	56
202.464	-22
202.532	-312
202.600	400
202.669	372
202.737	614
202.805	-489
202.873	-251
202.941	335
203.009	246
203.078	-270
203.146	534
203.214	501
203.282	-87
203.350	162
203.418	-308
203.487	487
203.555	83
203.623	305
203.691	-367
203.759	-324
203.827	553
203.895	416
203.963	179
204.031	0
204.099	264
204.168	-468
204.236	1160
204.304	-23
204.372	435
204.440	-69
204.508	-159
204.576	-505
204.644	667
204.712	-435
204.780	111
204.848	470
204.916	-427
204.984	-184
205.052	401
205.120	639
205.188	-440
205.256	251
205.324	392
205.392	57
205.460	409
205.528	657
205.596	460
205.664	757
205.732	-280
205.799	375
205.867	759
205.935	-403
206.003	524
206.071	-322
206.139	-64
206.207	136
206.275	186
206.343	-295
206.411	676
206.478	191
206.546	463
206.614	-326
206.682	-50
206.750	476
206.818	161
206.885	547
206.953	-350
207.021	1875
207.089	593
207.157	358
207.225	715
207.292	135
207.360	-4
207.428	-17
207.496	581
207.563	491
207.631	327
207.699	-98
207.767	454
207.834	-609
207.902	-148
207.970	127
208.038	662
208.105	-256
208.173	-21
208.241	-139
208.309	389
208.376	543
208.444	422
208.512	212
208.579	-290
208.647	122
208.715	610
208.782	-36
208.850	282
208.918	532
208.985	972
209.053	945
209.120	408
209.188	-367
209.256	549
209.323	-590
209.391	174
209.459	1629
209.526	345
209.594	226
209.661	36
209.729	577
209.796	819
209.864	1444
209.932	155
209.999	1479
210.067	1215
210.134	1054
210.202	64
210.269	942
210.337	1162
210.404	440
210.472	-106
210.539	457
210.607	-86
210.674	167
210.742	524
210.809	290
210.877	369
210.944	-70
211.012	-981
211.079	1666
211.146	771
211.214	652
211.281	759
211.349	644
211.416	390
211.484	1138
211.551	137
211.618	503
211.686	65
211.753	359
211.821	942
211.888	866
211.955	700
212.023	287
212.090	176
212.157	433
212.225	253
212.292	522
212.359	922
212.427	2088
212.494	797
212.561	329
212.629	989
212.696	315
212.763	843
212.831	459
212.898	1248
212.965	399
213.032	911
213.100	765
213.167	685
213.234	980
213.301	549
213.369	837
213.436	825
213.503	-137
213.570	622
213.638	337
213.705	252
213.772	-110
213.839	791
213.906	187
213.973	301
214.041	-41
214.108	1193
214.175	1220
214.242	722
214.309	1068
214.376	1211
214.444	286
214.511	612
214.578	375
214.645	992
214.712	1057
214.779	394
214.846	-102
214.913	527
214.980	1480
215.048	473
215.115	1140
215.182	77
215.249	624
215.316	-146
215.383	967
215.450	635
215.517	362
215.584	474
215.651	179
215.718	473
215.785	603
215.852	439
215.919	1688
215.986	914
216.053	318
216.120	416
216.187	949
216.254	691
216.321	420
216.388	-376
216.455	128
216.522	361
216.589	367
216.656	1411
216.722	1013
216.789	1958
216.856	984
216.923	931
216.990	1044
217.057	749
217.124	1036
217.191	-157
217.258	611
217.324	350
217.391	1187
217.458	489
217.525	805
217.592	1170
217.659	699
217.725	907
217.792	138
217.859	893
217.926	115
217.993	131
218.059	1011
218.126	193
218.193	146
218.260	1009
218.327	625
218.393	258
218.460	-476
218.527	415
218.594	529
218.660	-375
218.727	984
218.794	-524
218.860	706
218.927	1022
218.994	-7
219.061	-111
219.127	-184
219.194	154
219.261	734
219.327	-290
219.394	962
219.461	-241
219.527	308
219.594	558
219.661	435
219.727	-890
219.794	1466
219.860	356
219.927	1189
219.994	944
220.060	1719
220.127	2087
220.193	1245
220.260	1655
220.326	1861
220.393	2706
220.460	1415
220.526	511
220.593	1174
220.659	1833
220.726	213
220.792	1886
220.859	1798
220.925	1977
220.992	2100
221.058	2550
221.125	2524
221.191	592
221.258	920
221.324	719
221.391	421
221.457	-272
221.524	417
221.590	1006
221.657	1339
221.723	290
221.789	662
221.856	815
221.922	30
221.989	970
222.055	964
222.121	-646
222.188	1868
222.254	552
222.321	55
222.387	298
222.453	1498
222.520	970
222.586	69
222.652	1124
222.719	294
222.785	417
222.851	-69
222.918	178
222.984	688
223.050	-165
223.116	-743
223.183	1241
223.249	136
223.315	510
223.382	786
223.448	172
223.514	-371
223.580	976
223.647	202
223.713	-268
223.779	387
223.845	94
223.911	108
223.978	-17
224.044	-539
224.110	124
224.176	86
224.242	0
224.309	-1015
224.375	-328
224.441	607
224.507	-124
224.573	-719
224.639	899
224.705	287
224.772	255
224.838	-107
224.904	1090
224.970	629
225.036	210
225.102	-718
225.168	1425
225.234	557
225.300	-596
225.366	-414
225.432	748
225.499	-105
225.565	304
225.631	413
225.697	243
225.763	1019
225.829	1010
225.895	557
225.961	1531
226.027	643
226.093	114
226.159	1553
226.225	2408
226.291	3070
226.357	4253
226.423	2694
226.489	2113
226.554	1178
226.620	1500
226.686	1147
226.752	1768
226.818	3451
226.884	5653
226.950	5435
227.016	3160
227.082	1799
227.148	474
227.214	1163
227.279	717
227.345	1004
227.411	248
227.477	669
227.543	1887
227.609	2196
227.674	3397
227.740	1272
227.806	1536
227.872	556
227.938	439
228.003	847
228.069	682
228.135	268
228.201	516
228.267	329
228.332	1022
228.398	-833
228.464	297
228.530	68
228.595	393
228.661	329
228.727	-524
228.792	1216
228.858	189
228.924	-652
228.990	1047
229.055	-136
229.121	824
229.187	15
229.252	-48
229.318	-537
229.384	101
229.449	387
229.515	-1154
229.581	-403
229.646	1885
229.712	-57
229.777	368
229.843	363
229.909	564
229.974	1232
230.040	584
230.105	388
230.171	472
230.236	1043
230.302	632
230.368	-156
230.433	-675
230.499	657
230.564	1384
230.630	-384
230.695	714
230.761	1117
230.826	-710
230.892	1633
230.957	-215
231.023	380
231.088	450
231.154	643
231.219	431
231.284	-348
231.350	737
231.415	242
231.481	1533
231.546	276
231.612	364
231.677	-203
231.742	-890
231.808	1450
231.873	-120
231.939	-1315
232.004	1876
232.069	729
232.135	91
232.200	-109
232.265	846
232.331	615
232.396	-88
232.461	-94
232.527	475
232.592	762
232.657	287
232.723	530
232.788	106
232.853	799
232.918	845
232.984	-191
233.049	476
233.114	-144
233.179	694
233.245	1808
233.310	-49
233.375	-795
233.440	850
233.506	-221
233.571	242
233.636	511
233.701	651
233.766	262
233.832	-27
233.897	-56
233.962	-718
234.027	1160
234.092	-349
234.157	459
234.222	270
234.288	294
234.353	423
234.418	1667
234.483	1991
234.548	877
234.613	181
234.678	1222
234.743	-323
234.808	1649
234.873	-360
234.938	682
235.004	273
235.069	361
235.134	-106
235.199	670
235.264	282
235.329	-1371
235.394	944
235.459	1429
235.524	-793
235.589	1179
235.654	588
235.719	-411
235.784	676
235.849	1227
235.913	833
235.978	332
236.043	818
236.108	1305
236.173	594
236.238	530
236.303	94
236.368	-227
236.433	340
236.498	221
236.563	1474
236.627	1833
236.692	7983
236.757	7163
236.822	3450
236.887	1623
236.952	2210
237.017	-101
237.081	1657
237.146	1124
237.211	4129
237.276	6507
237.341	10090
237.405	5524
237.470	2883
237.535	2404
237.600	1914
237.664	1036
237.729	-71
237.794	447
237.859	2838
237.923	1157
237.988	-19
238.053	1019
238.118	342
238.182	1255
238.247	1853
238.312	-200
238.376	1105
238.441	-935
238.506	1310
238.570	-1044
238.635	998
238.700	1086
238.764	-374
238.829	1041
238.893	352
238.958	784
239.023	836
239.087	287
239.152	1131
239.216	601
239.281	292
239.346	50
239.410	240
239.475	145
239.539	2311
239.604	374
239.668	2284
239.733	1634
239.797	3348
239.862	4992
239.926	4500
239.991	2593
240.055	2575
240.120	428
240.184	804
240.249	1099
240.313	248
240.378	206
240.442	903
240.507	1329
240.571	1087
240.635	1039
240.700	1067
240.764	-55
240.829	87
240.893	-1219
240.957	301
241.022	1252
241.086	1427
241.151	-55
241.215	-676
241.279	1220
241.344	310
241.408	393
241.472	587
241.537	1674
241.601	1253
241.665	8
241.730	-12
241.794	942
241.858	198
241.922	449
241.987	393
242.051	-370
242.115	-932
242.179	878
242.244	-124
242.308	1532
242.372	984
242.436	289
242.501	648
242.565	68
242.629	596
242.693	703
242.757	-819
242.822	457
242.886	689
242.950	744
243.014	-294
243.078	285
243.142	498
243.206	-135
243.271	1056
243.335	-23
243.399	1665
243.463	2288
243.527	7609
243.591	2205
243.655	684
243.719	222
243.783	2962
243.847	1123
243.911	1520
243.975	866
244.040	-433
244.104	1895
244.168	547
244.232	309
244.296	466
244.360	671
244.424	333
244.488	178
244.552	544
244.615	-1023
244.679	517
244.743	13
244.807	-302
244.871	1062
244.935	980
244.999	-944
245.063	-254
245.127	659
245.191	1033
245.255	359
245.319	-222
245.383	-812
245.446	810
245.510	-489
245.574	1403
245.638	914
245.702	-1069
245.766	1552
245.829	1764
245.893	-68
245.957	-187
246.021	1304
246.085	-167
246.149	55
246.212	1751
246.276	1471
246.340	-175
246.404	800
246.467	1054
246.531	-831
246.595	1721
246.659	1741
246.722	-319
246.786	183
246.850	863
246.913	869
246.977	-65
247.041	870
247.104	-198
247.168	1411
247.232	1946
247.295	2919
247.359	1199
247.423	620
247.486	1573
247.550	1706
247.614	-633
247.677	808
247.741	288
247.804	403
247.868	2001
247.932	666
247.995	3265
248.059	1147
248.122	-220
248.186	1116
248.249	1204
248.313	4508
248.376	5476
248.440	2397
248.503	-125
248.567	1486
248.630	634
248.694	2271
248.757	3314
248.821	5552
248.884	4720
248.948	2691
249.011	4317
249.075	5113
249.138	4882
249.202	3126
249.265	815
249.328	2392
249.392	882
249.455	2060
249.519	1026
249.582	1007
249.645	2001
249.709	1340
249.772	938
249.835	1825
249.899	1743
249.962	1814
250.025	351
250.089	1910
250.152	3530
250.215	1424
250.279	737
250.342	1095
250.405	749
250.468	661
250.532	1767
250.595	2797
250.658	7166
250.721	11488
250.785	4068
250.848	4481
250.911	544
250.974	1031
251.038	1859
251.101	3644
251.164	1973
251.227	2210
251.290	2813
251.354	3610
251.417	10502
251.480	10465
251.543	7860
251.606	17517
251.669	13743
251.732	6565
251.795	5709
251.859	6532
251.922	11358
251.985	6758
252.048	4149
252.111	2221
252.174	635
252.237	3241
252.300	6246
252.363	7839
252.426	15706
252.489	5646
252.552	2830
252.615	1187
252.678	2501
252.741	6123
252.804	6826
252.867	15108
252.930	9908
252.993	4365
253.056	2976
253.119	2339
253.182	1464
253.245	2531
253.308	1945
253.371	1481
253.434	949
253.497	2223
253.559	3773
253.622	1722
253.685	2139
253.748	2776
253.811	761
253.874	1776
253.937	1947
254.000	513
254.062	2727
254.125	2821
254.188	2973
254.251	2459
254.314	1227
254.376	1373
254.439	2900
254.502	2053
254.565	1247
254.628	4491
254.690	1836
254.753	833
254.816	950
254.878	1226
254.941	2412
255.004	2313
255.067	1208
255.129	485
255.192	693
255.255	121
255.317	1503
255.380	1038
255.443	355
255.505	1042
255.568	-940
255.631	178
255.693	644
255.756	200
255.819	1079
255.881	292
255.944	748
256.006	373
256.069	149
256.132	-72
256.194	531
256.257	1290
256.319	1517
256.382	1179
256.444	1606
256.507	975
256.569	836
256.632	1415
256.694	1128
256.757	5583
256.819	13946
256.882	5605
256.944	2742
257.007	2935
257.069	1040
257.132	818
257.194	2173
257.257	908
257.319	624
257.381	1216
257.444	3279
257.506	13966
257.569	15678
257.631	5599
257.693	2619
257.756	1680
257.818	562
257.880	772
257.943	1839
258.005	205
258.067	501
258.130	1059
258.192	869
258.254	1525
258.317	917
258.379	459
258.441	1795
258.503	2406
258.566	1020
258.628	2650
258.690	-12
258.753	1103
258.815	1461
258.877	606
258.939	838
259.001	1480
259.064	651
259.126	134
259.188	703
259.250	1147
259.312	619
259.375	1203
259.437	423
259.499	1042
259.561	1156
259.623	466
259.685	-164
259.747	280
259.809	1970
259.872	2291
259.934	5383
259.996	5533
260.058	1806
260.120	445
260.182	573
260.244	800
260.306	51
260.368	1135
260.430	83
260.492	2182
260.554	3561
260.616	396
260.678	2149
260.740	2530
260.802	392
260.864	543
260.926	-3
260.988	1837
261.050	358
261.112	2696
261.174	5438
261.236	2721
261.298	1343
261.359	1091
261.421	2671
261.483	166
261.545	1476
261.607	-50
261.669	938
261.731	98
261.793	2965
261.854	139
261.916	1142
261.978	1223
262.040	1377
262.102	1009
262.164	76
262.225	1230
262.287	291
262.349	977
262.411	955
262.472	1023
262.534	-389
262.596	959
262.658	1067
262.719	375
262.781	1416
262.843	717
262.904	1595
262.966	1061
263.028	950
263.090	3612
263.151	11101
263.213	4407
263.275	3300
263.336	566
263.398	1344
263.459	-173
263.521	451
263.583	1467
263.644	1182
263.706	223
263.767	-249
263.829	750
263.891	-396
263.952	684
264.014	-712
264.075	1356
264.137	3579
264.198	1486
264.260	1022
264.321	61
264.383	1425
264.444	6047
264.506	1616
264.567	1347
264.629	2814
264.690	3533
264.752	1591
264.813	1309
264.875	359
264.936	631
264.998	1431
265.059	372
265.120	1434
265.182	932
265.243	7155
265.305	9363
265.366	2212
265.427	1244
265.489	1683
265.550	-560
265.611	1572
265.673	122
265.734	1063
265.795	649
265.857	-75
265.918	1036
265.979	2531
266.040	11899
266.102	11290
266.163	3453
266.224	2932
266.286	1444
266.347	-212
266.408	1269
266.469	933
266.530	671
266.592	309
266.653	697
266.714	1434
266.775	681
266.836	56
266.898	-536
266.959	628
267.020	1001
267.081	2459
267.142	919
267.203	-89
267.264	-299
267.326	674
267.387	-38
267.448	78
267.509	1102
267.570	363
267.631	168
267.692	229
267.753	639
267.814	-383
267.875	1409
267.936	2464
267.997	1194
268.058	837
268.119	396
268.180	463
268.241	294
268.302	-497
268.363	-175
268.424	-51
268.485	79
268.546	-158
268.607	336
268.668	319
268.729	-139
268.790	725
268.851	464
268.912	767
268.972	1790
269.033	897
269.094	-96
269.155	525
269.216	-372
269.277	689
269.338	163
269.398	870
269.459	1130
269.520	-79
269.581	897
269.642	1243
269.702	1074
269.763	1021
269.824	844
269.885	1163
269.945	1545
270.006	-144
270.067	267
270.128	103
270.188	229
270.249	-270
270.310	119
270.370	955
270.431	703
270.492	-491
270.553	129
270.613	645
270.674	2448
270.734	1160
270.795	657
270.856	296
270.916	291
270.977	-59
271.038	1233
271.098	726
271.159	985
271.219	969
271.280	-272
271.340	1062
271.401	64
271.462	874
271.522	1183
271.583	229
271.643	730
271.704	384
271.764	433
271.825	1438
271.885	4946
271.946	6774
272.006	2331
272.066	3093
272.127	5944
272.187	4960
272.248	2329
272.308	1388
272.369	3843
272.429	3003
272.489	1858
272.550	1826
272.610	1566
272.671	1129
272.731	1443
272.791	1828
272.852	953
272.912	671
272.972	1374
273.033	721
273.093	-400
273.153	1618
273.214	672
273.274	911
273.334	3457
273.394	5857
273.455	2386
273.515	2413
273.575	5438
273.635	1446
273.696	2991
273.756	4432
273.816	2350
273.876	909
273.936	1441
273.997	3295
274.057	673
274.117	352
274.177	1858
274.237	6290
274.297	5452
274.358	3284
274.418	3977
274.478	3656
274.538	1071
274.598	329
274.658	2291
274.718	3519
274.778	1559
274.838	1036
274.898	1187
274.958	3082
275.018	5228
275.078	3600
275.138	1074
275.198	694
275.258	29
275.318	1061
275.378	1676
275.438	1971
275.498	933
275.558	1355
275.618	4670
275.678	3280
275.738	2531
275.798	1954
275.858	1137
275.918	408
275.978	507
276.038	632
276.098	572
276.157	1293
276.217	4024
276.277	2621
276.337	834
276.397	1255
276.457	978
276.517	1270
276.576	1095
276.636	271
276.696	1150
276.756	2030
276.815	1986
276.875	1241
276.935	969
276.995	1055
277.055	228
277.114	290
277.174	459
277.234	2695
277.293	1243
277.353	713
277.413	776
277.472	860
277.532	674
277.592	1163
277.651	2789
277.711	5633
277.771	2523
277.830	6684
277.890	5614
277.950	3209
278.009	11524
278.069	5459
278.128	4333
278.188	5389
278.248	2835
278.307	6617
278.367	3399
278.426	1695
278.486	788
278.545	-375
278.605	861
278.664	306
278.724	1113
278.783	2469
278.843	6245
278.902	1513
278.962	1217
279.021	663
279.081	1508
279.140	1005
279.199	753
279.259	676
279.318	1992
279.378	1615
279.437	2058
279.496	6239
279.556	22436
279.615	17854
279.675	5268
279.734	4102
279.793	4117
279.853	4574
279.912	2510
279.971	1804
280.031	1266
280.090	2456
280.149	3459
280.208	3798
280.268	15848
280.327	16838
280.386	3797
280.445	3066
280.505	2830
280.564	1736
280.623	1517
280.682	2202
280.742	2494
280.801	1671
280.860	1139
280.919	1230
280.978	179
281.037	654
281.097	707
281.156	1262
281.215	748
281.274	753
281.333	3692
281.392	2520
281.451	653
281.510	426
281.569	102
281.628	417
281.688	957
281.747	554
281.806	782
281.865	1231
281.924	237
281.983	690
282.042	48
282.101	388
282.160	379
282.219	-12
282.278	306
282.337	1919
282.396	1327
282.454	517
282.513	1080
282.572	3294
282.631	2250
282.690	36
282.749	326
282.808	1136
282.867	274
282.926	1384
282.985	201
283.043	-104
283.102	243
283.161	128
283.220	1569
283.279	4052
283.338	1573
283.396	673
283.455	973
283.514	1268
283.573	1730
283.631	982
283.690	1169
283.749	707
283.808	1289
283.866	1819
283.925	799
283.984	1158
284.043	966
284.101	1424
284.160	344
284.219	1404
284.277	1507
284.336	1870
284.395	5403
284.453	4003
284.512	1879
284.570	2553
284.629	2483
284.688	2088
284.746	2059
284.805	1975
284.863	3535
284.922	4393
284.981	5317
285.039	8609
285.098	13717
285.156	25092
285.215	28878
285.273	28769
285.332	26691
285.390	15839
285.449	10082
285.507	7022
285.566	5443
285.624	4194
285.683	3849
285.741	2894
285.799	2679
285.858	3242
285.916	2310
285.975	1303
286.033	1208
286.091	1030
286.150	815
286.208	914
286.267	1736
286.325	912
286.383	1322
286.442	2065
286.500	807
286.558	1186
286.616	693
286.675	1507
286.733	1653
286.791	1185
286.850	612
286.908	1098
286.966	2735
287.024	1483
287.083	217
287.141	1061
287.199	1520
287.257	1034
287.315	1240
287.374	642
287.432	2326
287.490	2050
287.548	978
287.606	647
287.664	1224
287.723	1195
287.781	1761
287.839	1362
287.897	1478
287.955	1890
288.013	2945
288.071	5242
288.129	16455
288.187	41537
288.245	22410
288.303	7599
288.361	4361
288.419	2716
288.477	1657
288.535	1997
288.593	1003
288.651	538
288.709	786
288.767	692
288.825	774
288.883	191
288.941	1368
288.999	379
289.057	1076
289.115	296
289.173	917
289.231	699
289.289	1081
289.346	1222
289.404	745
289.462	1368
289.520	1150
289.578	486
289.636	956
289.694	912
289.751	1258
289.809	536
289.867	695
289.925	1069
289.983	1135
290.040	313
290.098	512
290.156	629
290.214	866
290.271	305
290.329	1137
290.387	760
290.444	316
290.502	779
290.560	1411
290.617	229
290.675	190
290.733	647
290.790	698
290.848	37
290.906	1792
290.963	250
291.021	1324
291.078	1370
291.136	1019
291.194	2463
291.251	5469
291.309	1946
291.366	1041
291.424	1046
291.481	671
291.539	869
291.596	496
291.654	542
291.711	901
291.769	1280
291.826	2025
291.884	1229
291.941	259
291.999	932
292.056	875
292.114	687
292.171	873
292.228	988
292.286	765
292.343	1468
292.401	1289
292.458	1617
292.515	709
292.573	1499
292.630	1328
292.687	759
292.745	781
292.802	1226
292.859	3798
292.917	4607
292.974	2838
293.031	848
293.089	645
293.146	1194
293.203	387
293.260	509
293.318	636
293.375	1532
293.432	513
293.489	885
293.546	1352
293.604	1285
293.661	1985
293.718	6502
293.775	3937
293.832	1960
293.889	1093
293.947	992
294.004	1310
294.061	1114
294.118	2403
294.175	5376
294.232	8840
294.289	3240
294.346	1420
294.403	2108
294.460	1547
294.517	1000
294.574	918
294.631	649
294.688	1460
294.745	2707
294.802	7578
294.859	11694
294.916	3622
294.973	1062
295.030	1926
295.087	1147
295.144	915
295.201	1353
295.258	1072
295.315	1299
295.372	2779
295.429	5614
295.486	2832
295.542	1429
295.599	6058
295.656	9660
295.713	5559
295.770	6012
295.827	2240
295.883	1680
295.940	1410
295.997	1975
296.054	1579
296.111	1038
296.167	1399
296.224	1374
296.281	-288
296.338	497
296.394	761
296.451	589
296.508	2587
296.564	4518
296.621	4306
296.678	5534
296.734	9019
296.791	4290
296.848	2930
296.904	2234
296.961	3376
297.018	6582
297.074	4744
297.131	1861
297.187	2258
297.244	2141
297.301	6283
297.357	9644
297.414	3850
297.470	1661
297.527	2066
297.583	1618
297.640	837
297.696	1275
297.753	892
297.809	893
297.866	1337
297.922	647
297.979	803
298.035	1132
298.092	1300
298.148	3527
298.204	4812
298.261	2106
298.317	3470
298.374	7877
298.430	5768
298.486	1781
298.543	764
298.599	1320
298.656	1123
298.712	3144
298.768	5788
298.824	5394
298.881	1310
298.937	1357
298.993	1202
299.050	1146
299.106	1270
299.162	837
299.218	1220
299.275	777
299.331	1469
299.387	2230
299.443	7456
299.500	12746
299.556	8093
299.612	3617
299.668	3100
299.724	7541
299.780	9671
299.837	3974
299.893	2808
299.949	9918
300.005	13186
300.061	9653
300.117	14904
300.173	7429
300.229	3088
300.285	2644
300.341	3879
300.397	1899
300.453	1092
300.510	1533
300.566	1910
300.622	3128
300.678	12429
300.734	17123
300.790	9997
300.845	7675
300.901	8656
300.957	13816
301.013	8382
301.069	2762
301.125	2047
301.181	1931
301.237	1390
301.293	1161
301.349	1552
301.405	969
301.461	1401
301.516	2602
301.572	1328
301.628	1645
301.684	1642
301.740	2162
301.796	4039
301.851	3404
301.907	4704
301.963	4599
302.019	5821
302.074	16764
302.130	16905
302.186	9801
302.242	3451
302.297	1860
302.353	1753
302.409	4763
302.464	2966
302.520	2362
302.576	6005
302.631	8101
302.687	4454
302.743	2456
302.798	933
302.854	1178
302.910	1428
302.965	1308
303.021	2958
303.076	2584
303.132	2304
303.187	4102
303.243	1791
303.299	2220
303.354	1154
303.410	1514
303.465	1417
303.521	327
303.576	692
303.632	1410
303.687	2498
303.743	5299
303.798	4974
303.853	3085
303.909	1984
303.964	1513
304.020	2302
304.075	2496
304.130	2214
304.186	3765
304.241	4898
304.297	3836
304.352	2764
304.358	2610
304.407	1359
304.449	1657
304.463	1764
304.518	909
304.539	959
304.573	1021
304.629	1863
304.630	1861
304.684	1864
304.720	3033
304.739	3591
304.794	6242
304.811	5607
304.850	4106
304.902	2672
304.905	2578
304.960	1683
304.992	1141
305.015	757
305.071	1993
305.083	1852
305.126	1351
305.173	1155
305.181	1123
305.236	1060
305.264	1466
305.292	1899
305.347	1259
305.354	1389
305.402	2220
305.445	1960
305.457	1852
305.512	2110
305.535	1786
305.567	1445
305.622	1623
305.626	1714
305.678	3543
305.716	5932
305.733	6719
305.788	7386
305.807	6334
305.843	4613
305.897	5727
305.898	5736
305.953	5873
305.988	4199
306.008	3275
306.063	1260
306.078	1168
306.118	1172
306.168	858
306.173	820
306.228	1663
306.259	1279
306.283	1018
306.338	380
306.349	610
306.393	1441
306.440	1122
306.448	1090
306.503	1677
306.530	1541
306.558	1558
306.613	2935
306.620	3148
306.668	4474
306.711	6283
306.723	6514
306.778	4558
306.801	3313
306.833	2079
306.888	1658
306.892	1641
306.943	1513
306.982	1299
306.997	1203
307.052	473
307.072	750
307.107	1520
307.162	1807
307.163	1821
307.217	3035
307.253	3001
307.272	2838
307.327	3057
307.343	2767
307.381	2398
307.434	2447
307.436	2494
307.491	3759
307.524	5729
307.546	6265
307.600	5560
307.614	4893
307.655	3210
307.704	2179
307.710	2153
307.765	2243
307.795	3166
307.819	3926
307.874	5358
307.885	5256
307.929	4232
307.975	4570
307.984	4893
308.038	6798
308.065	8263
308.093	12939
308.148	25515
308.156	28371
308.202	40447
308.246	46715
308.257	45778
308.312	28363
308.336	20561
308.366	15221
308.421	9132
308.426	8679
308.475	5954
308.517	4633
308.530	4259
308.585	3484
308.607	3274
308.639	3383
308.694	3693
308.697	3723
308.748	5217
308.787	6936
308.803	6877
308.857	5473
308.877	4805
308.912	4500
308.967	4839
308.967	4851
309.021	6888
309.058	8423
309.076	10224
309.130	17692
309.148	20478
309.185	33259
309.238	55732
309.239	55839
309.293	56782
309.328	52144
309.348	46682
309.402	26253
309.418	21068
309.457	15283
309.508	9753
309.511	9564
309.566	8023
309.598	7520
309.620	7563
309.674	8352
309.688	8669
309.729	8419
309.778	7417
309.783	7300
309.837	5703
309.868	4797
309.892	5392
309.946	7542
309.959	8304
310.001	9580
310.049	10010
310.055	9717
310.109	6519
310.139	4462
310.163	3380
310.218	1854
310.229	1580
310.272	1993
310.319	2457
310.326	2339
310.381	1616
310.409	1305
310.435	1537
310.489	1819
310.499	1913
310.543	2059
310.589	2001
310.598	2012
310.652	2267
310.679	2340
310.706	1905
310.760	916
310.769	785
310.814	1292
310.859	1838
310.868	1836
310.923	1505
310.948	1492
310.977	1466
311.031	1313
311.038	1319
311.085	1227
311.128	812
311.139	884
311.193	1533
311.218	1787
311.247	1658
311.301	1363
311.308	1336
311.356	1476
311.398	1627
311.410	1665
311.464	1720
311.488	1758
311.518	1673
311.572	1474
311.578	1456
311.626	1622
311.668	1790
311.680	1873
311.734	2143
311.758	2294
311.788	2148
311.842	1810
311.847	1778
311.896	2833
311.937	3764
311.950	3612
312.004	2910
312.027	2598
312.058	2507
312.112	2340
312.117	2322
312.165	2080
312.207	1872
312.297	2536
312.386	2039
312.476	1548
312.566	2451
312.656	2211
312.745	930
312.835	2139
312.925	1691
313.015	1752
313.104	2014
313.194	2505
313.284	1902
313.374	2999
313.463	1479
313.553	1042
313.643	1749
313.732	1798
313.822	1783
313.912	2050
314.001	2703
314.091	3052
314.180	2885
314.270	3161
314.360	1915
314.449	2839
314.539	1280
314.628	2245
314.718	2165
314.808	3079
314.897	2215
314.987	3159
315.076	2424
315.166	3193
315.255	3807
315.345	2982
315.434	2435
315.524	3189
315.613	2855
315.703	3294
315.792	7730
315.881	20560
315.971	6414
316.060	4516
316.150	5208
316.239	5175
316.328	1986
316.418	2657
316.507	2316
316.597	3659
316.686	2885
316.775	4090
316.865	4707
316.954	2219
317.043	2030
317.133	2249
317.222	1251
317.311	1405
317.400	347
317.490	2817
317.579	1948
317.668	2080
317.757	3478
317.847	11554
317.936	31581
318.025	9543
318.114	8089
318.203	4362
318.293	3885
318.382	6664
318.471	5398
318.560	8802
318.649	14587
318.738	3415
318.828	1895
318.917	3013
319.006	2367
319.095	6181
319.184	16907
319.273	7476
319.362	2661
319.451	2127
319.540	1592
319.629	3534
319.718	3814
319.807	3547
319.896	6220
319.985	20020
320.074	4840
320.163	3050
320.252	3521
320.341	4676
320.430	3191
320.519	4164
320.608	2164
320.697	3108
320.786	2150
320.875	3853
320.964	3625
321.053	5307
321.142	5819
321.230	6568
321.319	6343
321.408	10527
321.497	6005
321.586	5740
321.675	6312
321.764	5876
321.852	4887
321.941	6845
322.030	4702
322.119	6021
322.207	9596
322.296	9451
322.385	7464
322.474	7964
322.562	12579
322.651	7678
322.740	5273
322.829	7292
322.917	6466
323.006	4892
323.095	3731
323.183	4132
323.272	4349
323.361	7663
323.449	15980
323.538	6010
323.626	11358
323.715	6308
323.804	3928
323.892	11524
323.981	4509
324.069	3683
324.158	6600
324.246	5062
324.335	2326
324.424	3229
324.512	2543
324.601	3457
324.689	3672
324.778	5918
324.866	3247
324.954	2218
325.043	752
325.131	2649
325.220	5626
325.308	5115
325.397	3257
325.485	2842
325.574	1530
325.662	909
325.750	525
325.839	2883
325.927	1074
326.015	1760
326.104	2297
326.192	2776
326.280	1756
326.369	2168
326.457	1800
326.545	2784
326.634	1632
326.722	1580
326.810	1367
326.898	2319
326.987	2333
327.075	2369
327.163	3397
327.251	2142
327.340	3777
327.428	4423
327.516	2124
327.604	2861
327.692	2012
327.781	2268
327.869	2602
327.957	1866
328.045	1853
328.133	1739
328.221	1673
328.309	1700
328.397	2197
328.485	2679
328.574	3455
328.662	6069
328.750	3272
328.838	2140
328.926	1360
329.014	1925
329.102	1465
329.190	5128
329.278	2323
329.366	1327
329.454	1857
329.542	1729
329.630	230
329.718	1677
329.806	986
329.893	2047
329.981	352
330.069	1492
330.157	1786
330.245	2590
330.333	1807
330.421	1197
330.509	2836
330.597	5571
330.684	3152
330.772	2460
330.860	2466
330.948	4384
331.036	1964
331.123	1413
331.211	939
331.299	2371
331.387	3788
331.475	5817
331.562	1306
331.650	1741
331.738	1212
331.825	1950
331.913	1146
332.001	1995
332.089	1718
332.176	2953
332.264	5940
332.352	4010
332.439	1955
332.527	2157
332.614	1234
332.702	1979
332.790	1858
332.877	4031
332.965	5679
333.052	2570
333.140	2928
333.228	3868
333.315	1098
333.403	1463
333.490	3986
333.578	3560
333.665	4284
333.753	3557
333.840	2566
333.928	3528
334.015	5589
334.103	9466
334.190	21324
334.278	9483
334.365	8139
334.452	6832
334.540	5067
334.627	5787
334.715	6778
334.802	11864
334.889	30653
334.977	27923
335.064	11840
335.151	6270
335.239	4837
335.326	5526
335.413	14565
335.501	13703
335.588	4520
335.675	5390
335.762	6865
335.850	10043
335.937	11677
336.024	20709
336.111	40543
336.199	22621
336.286	10514
336.373	6205
336.460	4515
336.547	4105
336.635	4123
336.722	2672
336.809	2891
336.896	3634
336.983	8605
337.070	18074
337.157	20769
337.245	13771
337.332	7968
337.419	2247
337.506	2387
337.593	3156
337.680	7779
337.767	16222
337.854	4024
337.941	5197
338.028	4399
338.115	1955
338.202	3668
338.289	5355
338.376	12471
338.463	4544
338.550	11371
338.637	8802
338.724	3205
338.811	5026
338.898	1814
338.984	1504
339.071	2502
339.158	2715
339.245	3787
339.332	3093
339.419	3805
339.506	3439
339.593	549
339.679	2050
339.766	951
339.853	2519
339.940	1920
340.027	2376
340.113	1280
340.200	1917
340.287	1247
340.374	2109
340.460	1963
340.547	694
340.634	2212
340.720	6082
340.807	2677
340.894	1718
340.980	1729
341.067	1204
341.154	1500
341.240	1902
341.327	2497
341.414	2725
341.500	1297
341.587	2470
341.674	1879
341.760	2665
341.847	1365
341.933	2002
342.020	444
342.106	1368
342.193	1302
342.279	2284
342.366	1725
342.452	2424
342.539	1458
342.625	3194
342.712	5218
342.798	2929
342.885	1366
342.971	1234
343.058	1037
343.144	1502
343.230	1044
343.317	2302
343.403	942
343.490	1562
343.576	315
343.662	1513
343.749	1742
343.835	1602
343.921	2556
344.008	12860
344.094	21557
344.180	5603
344.267	2020
344.353	8475
344.439	7521
344.525	3504
344.612	4593
344.698	4362
344.784	2231
344.870	1981
344.957	881
345.043	2201
345.129	771
345.215	2818
345.301	1511
345.387	1673
345.474	564
345.560	1746
345.646	747
345.732	2256
345.818	980
345.904	1911
345.990	1754
346.076	2084
346.162	2349
346.249	2771
346.335	1357
346.421	1505
346.507	3443
346.593	9938
346.679	2058
346.765	2755
346.851	2008
346.937	1909
347.023	2887
347.108	2088
347.194	1857
347.280	1855
347.366	2281
347.452	7464
347.538	14337
347.624	10935
347.710	6509
347.796	2575
347.882	1211
347.967	1347
348.053	2317
348.139	1704
348.225	774
348.311	1521
348.397	955
348.482	1626
348.568	2088
348.654	2225
348.740	7063
348.825	6868
348.911	3945
348.997	7355
349.083	11097
349.168	1707
349.254	2068
349.340	1930
349.425	1055
349.511	2045
349.597	1026
349.682	2075
349.768	7867
349.854	3657
349.939	1837
350.025	1274
350.110	1328
350.196	1331
350.282	346
350.367	2513
350.453	1190
350.538	2183
350.624	1780
350.709	2439
350.795	567
350.880	1431
350.966	2326
351.051	1901
351.137	1040
351.222	1790
351.308	3365
351.393	5256
351.479	1289
351.564	773
351.649	1231
351.735	1212
351.820	793
351.906	978
351.991	566
352.076	3993
352.162	5311
352.247	1694
352.332	1614
352.418	2762
352.503	3078
352.588	8294
352.673	4615
352.759	1568
352.844	1234
352.929	1649
353.014	1246
353.100	2277
353.185	1195
353.270	2071
353.355	2260
353.441	1691
353.526	478
353.611	2034
353.696	2117
353.781	2994
353.866	89
353.952	2251
354.037	1276
354.122	4141
354.207	2558
354.292	1954
354.377	1239
354.462	2001
354.547	454
354.632	2053
354.717	2275
354.802	689
354.887	829
354.972	1566
355.057	2033
355.142	1112
355.227	1904
355.312	1413
355.397	2396
355.482	6179
355.567	2131
355.652	3875
355.737	3024
355.822	8879
355.907	5471
355.991	2311
356.076	940
356.161	2281
356.246	1209
356.331	1524
356.416	1953
356.501	15409
356.585	11491
356.670	2106
356.755	3447
356.840	2986
356.924	10429
357.009	27186
357.094	10103
357.179	3155
357.263	1889
357.348	2608
357.433	2557
357.517	2040
357.602	1458
357.687	1737
357.771	2715
357.856	9262
357.941	5490
358.025	9885
358.110	28989
358.195	11897
358.279	2305
358.364	2793
358.448	6722
358.533	14330
358.617	8935
358.702	10164
358.787	3710
358.871	2846
358.956	2034
359.040	2413
359.125	854
359.209	2644
359.294	5435
359.378	8312
359.462	3129
359.547	2155
359.631	1340
359.716	1319
359.800	1358
359.885	2909
359.969	702
360.053	2100
360.138	1415
360.222	1989
360.306	1960
360.391	2778
360.475	4999
360.559	8733
360.644	5495
360.728	2810
360.812	9427
360.896	19304
360.981	8141
361.065	4511
361.149	2901
361.233	2315
361.318	1496
361.402	1987
361.486	2427
361.570	2209
361.654	2292
361.739	3788
361.823	15114
361.907	19205
361.991	4923
362.075	4970
362.159	5597
362.243	10824
362.327	20189
362.411	27132
362.495	10526
362.580	6484
362.664	5889
362.748	6704
362.832	10362
362.916	20413
363.000	51214
363.084	70023
363.168	37602
363.252	11209
363.336	6581
363.420	7350
363.503	17894
363.587	17512
363.671	4650
363.755	3752
363.839	6432
363.923	5019
364.007	7041
364.091	9962
364.175	16900
364.258	46246
364.342	65083
364.426	92372
364.510	46118
364.594	18211
364.677	12881
364.761	20059
364.845	12649
364.929	5328
365.013	4516
365.096	4330
365.180	3257
365.264	9199
365.347	24012
365.431	9678
365.515	2655
365.598	1513
365.682	3023
365.766	4160
365.849	3548
365.933	2143
366.017	4362
366.100	2642
366.184	844
366.267	3011
366.351	1491
366.435	1865
366.518	900
366.602	1682
366.685	1539
366.769	2478
366.852	2804
366.936	4808
367.019	1790
367.103	3152
367.186	4625
367.270	2440
367.353	267
367.436	3174
367.520	1482
367.603	2630
367.687	1752
367.770	2385
367.853	3039
367.937	7295
368.020	8222
368.104	1860
368.187	2932
368.270	3810
368.353	2296
368.437	4822
368.520	7945
368.603	5411
368.687	6463
368.770	10188
368.853	2287
368.936	3833
369.020	4074
369.103	1655
369.186	964
369.269	1704
369.352	2557
369.436	3128
369.519	2257
369.602	262
369.685	2860
369.768	492
369.851	1496
369.934	1244
370.018	1028
370.101	1597
370.184	3787
370.267	2677
370.350	3104
370.433	4142
370.516	11202
370.599	16696
370.682	4941
370.765	6193
370.848	9315
370.931	12675
371.014	6726
371.097	965
371.180	1271
371.263	2525
371.346	76
371.429	2152
371.511	1053
371.594	1734
371.677	3963
371.760	4853
371.843	2659
371.926	13712
372.009	22034
372.091	10438
372.174	5516
372.257	13102
372.340	4398
372.423	5529
372.505	7222
372.588	2388
372.671	5268
372.754	11829
372.836	6874
372.919	9559
373.002	13311
373.085	2558
373.167	3112
373.250	5822
373.332	11431
373.415	20307
373.498	30712
373.580	14259
373.663	25764
373.746	27218
373.828	5690
373.911	4234
373.993	4807
374.076	14375
374.159	11803
374.241	5768
374.324	11655
374.406	8591
374.489	12364
374.571	26822
374.654	9561
374.736	7872
374.819	17255
374.901	27153
374.983	22586
375.066	5724
375.148	3952
375.231	13356
375.313	19819
375.395	7745
375.478	2272
375.560	2265
375.643	2430
375.725	7619
375.807	20614
375.890	17632
375.972	6420
376.054	5468
376.136	6641
376.219	3831
376.301	8783
376.383	17582
376.465	7001
376.548	3515
376.630	5766
376.712	15993
376.794	6585
376.877	2204
376.959	492
377.041	2141
377.123	3666
377.205	3818
377.287	957
377.369	1763
377.452	1104
377.534	1208
377.616	1034
377.698	1303
377.780	740
377.862	1363
377.944	1638
378.026	704
378.108	684
378.190	1652
378.272	1607
378.354	1413
378.436	863
378.518	1733
378.600	5957
378.682	5075
378.764	7338
378.846	5863
378.928	2189
379.010	2807
379.091	2757
379.173	1736
379.255	1257
379.337	1344
379.419	4364
379.501	11124
379.583	3961
379.664	2450
379.746	1800
379.828	8927
379.910	9318
379.991	8389
380.073	1744
380.155	2058
380.237	664
380.318	875
380.400	1139
380.482	2649
380.564	2128
380.645	1871
380.727	1893
380.809	2542
380.890	593
380.972	344
381.053	1451
381.135	2592
381.217	2899
381.298	8582
381.380	3414
381.461	4419
381.543	15645
381.624	16681
381.706	2683
381.787	3008
381.869	2944
381.951	10553
382.032	23424
382.113	16516
382.195	2664
382.276	4220
382.358	4972
382.439	13143
382.521	17243
382.602	23525
382.684	11419
382.765	21062
382.846	22604
382.928	30082
383.009	15758
383.090	16948
383.172	47139
383.253	58477
383.334	22522
383.416	22194
383.497	11557
383.578	7208
383.659	15132
383.741	47947
383.822	89787
383.903	42875
383.984	17828
384.066	27481
384.147	14355
384.228	5038
384.309	4166
384.390	3822
384.471	2783
384.553	3430
384.634	3264
384.715	4042
384.796	1723
384.877	2797
384.958	7732
385.039	7700
385.120	3821
385.201	3646
385.282	3137
385.363	4329
385.444	2745
385.525	5835
385.606	12224
385.687	10120
385.768	4042
385.849	3991
385.930	15125
386.011	21165
386.092	5696
386.173	4214
386.254	3118
386.335	4153
386.416	2809
386.496	6582
386.577	8054
386.658	4546
386.739	2955
386.820	4696
386.901	3027
386.981	3995
387.062	3162
387.143	4463
387.224	9912
387.304	9841
387.385	6892
387.466	5366
387.547	6678
387.627	5102
387.708	7780
387.789	17418
387.869	16954
387.950	6930
388.031	3586
388.111	2794
388.192	6978
388.273	7807
388.353	5266
388.434	4000
388.514	4890
388.595	15045
388.676	14910
388.756	8077
388.837	7247
388.917	4689
388.998	816
389.078	3326
389.159	2766
389.239	1485
389.320	3786
389.400	1443
389.480	4581
389.561	8597
389.641	4931
389.722	3031
389.802	2755
389.883	5995
389.963	11441
390.043	7222
390.124	2759
390.204	4825
390.284	8068
390.365	5984
390.445	10913
390.525	21292
390.605	14557
390.686	4632
390.766	3260
390.846	3282
390.927	1708
391.007	1500
391.087	2949
391.167	2310
391.247	535
391.328	4588
391.408	4685
391.488	3995
391.568	1277
391.648	2865
391.728	3341
391.808	4628
391.888	3679
391.969	7989
392.049	8363
392.129	6574
392.209	7057
392.289	13145
392.369	8456
392.449	9814
392.529	6129
392.609	7698
392.689	9085
392.769	14965
392.849	15264
392.929	18517
393.009	28728
393.089	31924
393.169	52026
393.248	119521
393.328	236118
393.408	226417
393.488	107633
393.568	45214
393.648	24233
393.728	15573
393.807	10454
393.887	10344
393.967	7869
394.047	6917
394.127	6235
394.206	10840
394.286	28153
394.366	86761
394.446	85258
394.525	24671
394.605	8123
394.685	8297
394.764	13342
394.844	20597
394.924	17100
395.003	6552
395.083	3735
395.163	3824
395.242	3327
395.322	4599
395.402	1871
395.481	5651
395.561	9857
395.640	26964
395.720	31901
395.799	28822
395.879	16806
395.958	13848
396.038	40767
396.117	108273
396.197	110589
396.276	41859
396.356	18019
396.435	15908
396.515	14930
396.594	21173
396.673	41196
396.753	111881
396.832	210491
396.912	155493
396.991	53258
397.070	23017
397.150	11520
397.229	11779
397.308	20515
397.388	35118
397.467	17975
397.546	7190
397.625	2447
397.705	5428
397.784	3362
397.863	3158
397.942	3334
398.022	2989
398.101	6695
398.180	17336
398.259	8350
398.338	4503
398.417	2259
398.497	1830
398.576	2451
398.655	918
398.734	2184
398.813	2813
398.892	6696
398.971	18068
399.050	7033
399.129	2157
399.208	1895
399.287	1738
399.366	264
399.445	1264
399.524	595
399.603	-26
399.682	2377
399.761	6444
399.840	16830
399.919	12949
399.998	2234
400.077	405
400.156	382
400.235	3653
400.313	427
400.392	614
400.471	5109
400.550	6651
400.629	1061
400.708	2135
400.786	937
400.865	4792
400.944	3008
401.023	3626
401.102	60
401.180	744
401.259	1228
401.338	909
401.416	1132
401.495	922
401.574	1005
401.652	641
401.731	1973
401.810	1038
401.888	240
401.967	90
402.046	493
402.124	2187
402.203	773
402.281	1911
402.360	1244
402.438	4613
402.517	2329
402.596	1136
402.674	446
402.753	262
402.831	885
402.910	1977
402.988	1613
403.066	2528
403.145	2677
403.223	2389
403.302	2345
403.380	2916
403.459	2182
403.537	972
403.615	1244
403.694	-154
403.772	1132
403.850	868
403.929	662
404.007	787
404.085	1842
404.164	403
404.242	1823
404.320	8319
404.398	17964
404.477	17894
404.555	24086
404.633	20240
404.711	14390
404.789	9426
404.868	1885
404.946	607
405.024	1614
405.102	938
405.180	176
405.258	-234
405.336	1177
405.415	719
405.493	1713
405.571	2081
405.649	29
405.727	108
405.805	1981
405.883	1430
405.961	1295
406.039	1574
406.117	-282
406.195	2018
406.273	4590
406.351	16455
406.429	10073
406.507	2141
406.585	-222
406.663	628
406.740	797
406.818	402
406.896	-200
406.974	1639
407.052	292
407.130	10288
407.208	11530
407.285	3805
407.363	723
407.441	1056
407.519	67
407.596	1300
407.674	4028
407.752	14430
407.830	12199
407.907	3684
407.985	873
408.063	936
408.141	-246
408.218	1788
408.296	666
408.373	110
408.451	1399
408.529	849
408.606	661
408.684	891
408.762	1181
408.839	1131
408.917	900
408.994	1470
409.072	308
409.149	2341
409.227	3725
409.304	6240
409.382	6079
409.459	7146
409.537	8778
409.614	8841
409.692	5890
409.769	6502
409.846	9367
409.924	12112
410.001	7843
410.079	6303
410.156	4784
410.233	3326
410.311	2052
410.388	1847
410.465	2377
410.543	1687
410.620	2308
410.697	2304
410.775	1922
410.852	548
410.929	1472
411.006	2761
411.083	1843
411.161	2316
411.238	2419
411.315	2285
411.392	895
411.469	2325
411.547	1517
411.624	-649
411.701	132
411.778	823
411.855	1189
411.932	332
412.009	384
412.086	1008
412.163	812
412.240	402
412.317	958
412.394	126
412.471	166
412.548	-39
412.625	-481
412.702	872
412.779	1142
412.856	1857
412.933	-437
413.010	71
413.087	614
413.164	3485
413.241	4363
413.318	653
413.395	1666
413.471	881
413.548	311
413.625	1529
413.702	-346
413.779	818
413.855	157
413.932	485
414.009	-669
414.086	385
414.162	313
414.239	840
414.316	3194
414.393	7337
414.469	896
414.546	395
414.623	-152
414.699	2
414.776	-786
414.853	371
414.929	875
415.006	322
415.082	724
415.159	1011
415.236	201
415.312	708
415.389	742
415.465	854
415.542	-587
415.618	-374
415.695	1494
415.771	431
415.848	-319
415.924	94
416.000	354
416.077	937
416.153	-503
416.230	-272
416.306	378
416.383	341
416.459	-258
416.535	-60
416.612	-834
416.688	-139
416.764	-94
416.841	-57
416.917	-268
416.993	823
417.069	-574
417.146	906
417.222	1294
417.298	265
417.374	-451
417.451	1243
417.527	-360
417.603	-393
417.679	266
417.755	287
417.831	-338
417.908	497
417.984	62
418.060	-229
418.136	1099
418.212	1159
418.288	616
418.364	774
418.440	-207
418.516	1372
418.592	1382
418.668	1952
418.744	462
418.820	1517
418.896	62
418.972	-214
419.048	6
419.124	1478
419.200	-198
419.276	577
419.352	-630
419.428	1018
419.504	620
419.579	1152
419.655	602
419.731	918
419.807	1343
419.883	2140
419.959	1556
420.034	1722
420.110	2301
420.186	4857
420.262	3869
420.337	1746
420.413	1161
420.489	1376
420.565	1875
420.640	1375
420.716	1912
420.792	1029
420.867	2305
420.943	1486
421.019	2317
421.094	2277
421.170	1986
421.245	2271
421.321	2821
421.397	4053
421.472	7148
421.548	11133
421.623	7911
421.699	5734
421.774	6864
421.850	6820
421.925	9472
422.001	11256
422.076	13169
422.152	17008
422.227	22548
422.302	31823
422.378	45201
422.453	69689
422.529	100135
422.604	113505
422.679	100147
422.755	115295
422.830	102211
422.905	69639
422.981	47335
423.056	32988
423.131	24376
423.207	18653
423.282	14937
423.357	13375
423.432	9460
423.508	9442
423.583	7369
423.658	6877
423.733	5812
423.808	5673
423.883	5615
423.959	5939
424.034	5514
424.109	6176
424.184	3195
424.259	2931
424.334	2059
424.409	2447
424.484	2221
424.559	1715
424.634	1825
424.709	2834
424.784	2442
424.859	2029
424.934	1708
425.009	4298
425.084	5600
425.159	2208
425.234	1449
425.309	966
425.384	3575
425.459	4865
425.534	1311
425.609	268
425.683	598
425.758	932
425.833	835
425.908	1538
425.983	1252
426.058	5275
426.132	2255
426.207	1817
426.282	2277
426.357	1028
426.431	116
426.506	617
426.581	347
426.655	961
426.730	570
426.805	-91
426.879	404
426.954	385
427.029	-66
427.103	6973
427.178	13506
427.253	6024
427.327	1084
427.402	2342
427.476	5832
427.551	1785
427.625	971
427.700	669
427.774	-272
427.849	1638
427.923	-321
427.998	316
428.072	490
428.147	4903
428.221	19812
428.296	48662
428.370	24932
428.444	3981
428.519	2470
428.593	3932
428.667	3632
428.742	5384
428.816	9390
428.890	34795
428.965	46974
429.039	13703
429.113	4435
429.188	2412
429.262	510
429.336	1024
429.410	1626
429.485	2202
429.559	3033
429.633	4011
429.707	1353
429.781	7937
429.855	34543
429.930	44187
430.004	18726
430.078	21624
430.152	31129
430.226	66301
430.300	61140
430.374	14359
430.448	5209
430.522	7678
430.596	16709
430.670	17318
430.744	43133
430.818	46243
430.892	8292
430.966	982
431.040	1239
431.114	-961
431.188	-122
431.262	86
431.336	-356
431.410	2581
431.484	3287
431.557	2277
431.631	450
431.705	3764
431.779	14065
431.853	47492
431.927	30775
432.000	5411
432.074	1803
432.148	1147
432.222	-535
432.295	144
432.369	-620
432.443	877
432.516	5783
432.590	13024
432.664	4283
432.737	112
432.811	-269
432.885	-100
432.958	-60
433.032	-398
433.106	-446
433.179	-420
433.253	-628
433.326	-816
433.400	-843
433.473	147
433.547	-692
433.620	-513
433.694	550
433.767	413
433.841	-935
433.914	-184
433.988	-306
434.061	265
434.134	-466
434.208	-203
434.281	-657
434.355	-4
434.428	324
434.501	246
434.575	-923
434.648	-212
434.721	-475
434.795	-309
434.868	-1257
434.941	61
435.014	-872
435.088	-408
435.161	-71
435.234	535
435.307	692
435.381	320
435.454	2025
435.527	3895
435.600	3614
435.673	3617
435.746	3247
435.819	1424
435.892	797
435.966	355
436.039	446
436.112	272
436.185	-486
436.258	21
436.331	-556
436.404	-917
436.477	-126
436.550	-839
436.623	-104
436.696	-504
436.769	-339
436.842	400
436.915	-293
436.987	-64
437.060	-309
437.133	-268
437.206	-1319
437.279	-167
437.352	-1135
437.425	-139
437.498	-587
437.570	547
437.643	-749
437.716	28
437.789	-880
437.861	64
437.934	1633
438.007	922
438.080	-1428
438.152	48
438.225	832
438.298	7701
438.370	18081
438.443	7137
438.516	866
438.588	-274
438.661	-1290
438.734	-548
438.806	-712
438.879	259
438.951	-548
439.024	159
439.096	-161
439.169	-295
439.241	-1329
439.314	-1046
439.386	-290
439.459	402
439.531	-264
439.604	25
439.676	-623
439.749	-482
439.821	-1001
439.893	-108
439.966	-724
440.038	-574
440.110	-606
440.183	-54
440.255	-1018
440.327	293
440.400	3705
440.472	11814
440.544	5961
440.617	360
440.689	-97
440.761	652
440.833	345
440.905	52
440.978	-602
441.050	-216
441.122	805
441.194	-294
441.266	-604
441.338	-107
441.411	285
441.483	3356
441.555	3541
441.627	818
441.699	185
441.771	1179
441.843	-811
441.915	-274
441.987	-426
442.059	-397
442.131	213
442.203	852
442.275	1490
442.347	3882
442.419	9488
442.491	40700
442.563	72093
442.635	29940
442.706	9138
442.778	4333
442.850	1729
442.922	441
442.994	1028
443.066	2793
443.137	2061
443.209	2996
443.281	5682
443.353	14509
443.425	48126
443.496	112804
443.568	112108
443.640	49079
443.711	11912
443.783	4335
443.855	2218
443.926	2100
443.998	1099
444.070	1721
444.141	302
444.213	939
444.285	919
444.356	701
444.428	406
444.499	614
444.571	128
444.642	965
444.714	123
444.785	1683
444.857	2334
444.928	4699
445.000	2955
445.071	4967
445.143	5260
445.214	6136
445.285	12587
445.357	32406
445.428	84462
445.500	135215
445.571	109069
445.642	68582
445.714	24975
445.785	12015
445.856	3709
445.928	3326
445.999	848
446.070	1516
446.141	784
446.213	800
446.284	-62
446.355	1806
446.426	-622
446.497	181
446.569	565
446.640	720
446.711	506
446.782	62
446.853	-229
446.924	1121
446.995	-1113
447.066	137
447.138	250
447.209	141
447.280	-955
447.351	-583
447.422	-650
447.493	-464
447.564	-1180
447.635	-674
447.706	-531
447.777	-501
447.847	-629
447.918	-1153
447.989	-153
448.060	580
448.131	1506
448.202	1513
448.273	-480
448.344	134
448.414	-962
448.485	-178
448.556	-866
448.627	-647
448.698	-370
448.768	-1209
448.839	-647
448.910	386
448.981	-102
449.051	-736
449.122	-242
449.193	-645
449.263	-766
449.334	-262
449.405	-578
449.475	615
449.546	609
449.616	-598
449.687	264
449.758	31
449.828	-1567
449.899	-35
449.969	-1486
450.040	99
450.110	-1351
450.181	-210
450.251	-1429
450.322	-358
450.392	-765
450.463	-33
450.533	-1192
450.604	126
450.674	-1155
450.744	-380
450.815	77
450.885	53
450.955	-554
451.026	-168
451.096	-1048
451.166	-251
451.237	1192
451.307	3207
451.377	840
451.447	-602
451.518	-12
451.588	-309
451.658	-371
451.728	965
451.799	3149
451.869	3682
451.939	236
452.009	-475
452.079	-1089
452.149	-104
452.219	225
452.289	4955
452.360	1800
452.430	687
452.500	-339
452.570	1052
452.640	4352
452.710	11246
452.780	12973
452.850	7684
452.920	2876
452.990	1485
453.060	282
453.129	520
453.199	1140
453.269	6080
453.339	10320
453.409	14586
453.479	16666
453.549	23027
453.619	22212
453.688	7627
453.758	831
453.828	-91
453.898	-77
453.968	-277
454.037	-823
454.087	-374
454.107	-202
454.168	-1284
454.177	-1455
454.247	-175
454.249	-191
454.316	-923
454.330	-689
454.386	83
454.411	696
454.456	1551
454.492	2218
454.525	2841
454.574	1074
454.595	308
454.655	-219
454.665	-307
454.734	-115
454.736	-60
454.804	686
454.817	1348
454.873	3649
454.898	3776
454.943	4006
454.979	2256
455.013	703
455.060	652
455.082	706
455.141	52
455.152	-109
455.221	3502
455.222	3573
455.291	4904
455.303	4737
455.360	3804
455.384	4719
455.430	5649
455.465	4776
455.499	4113
455.546	3614
455.569	3260
455.627	2614
455.638	2534
455.707	-186
455.708	-172
455.777	-233
455.789	-132
455.846	195
455.869	334
455.916	556
455.950	182
455.985	-159
456.031	-229
456.054	-292
456.112	-133
456.124	-100
456.193	-341
456.193	-359
456.262	712
456.274	745
456.332	841
456.355	656
456.401	135
456.436	102
456.470	46
456.516	-313
456.540	-440
456.597	-146
456.609	-114
456.678	348
456.678	337
456.747	296
456.759	248
456.817	203
456.840	313
456.886	425
456.920	299
456.955	161
457.001	408
457.024	559
457.082	634
457.093	603
457.162	1580
457.163	1595
457.232	1073
457.243	1024
457.301	1111
457.324	1077
457.370	853
457.405	698
457.439	722
457.485	857
457.508	922
457.566	1831
457.577	2196
457.646	4084
457.647	4132
457.715	8884
457.727	9979
457.784	16513
457.808	21289
457.853	25702
457.889	28689
457.922	28734
457.969	21115
457.991	21687
458.050	26587
458.060	27554
458.129	45155
458.130	45668
458.198	39294
458.211	34877
458.267	21112
458.292	15115
458.336	10908
458.372	10989
458.405	15536
458.453	23891
458.474	28602
458.533	47174
458.543	48109
458.611	65355
458.614	65584
458.680	39303
458.694	30966
458.749	15068
458.775	10743
458.818	6403
458.855	4955
458.887	4066
458.936	3465
458.955	3332
459.016	2668
459.024	2634
459.093	3543
459.097	3537
459.162	2273
459.177	2151
459.230	2383
459.257	2234
459.299	1724
459.338	2157
459.368	2641
459.418	2315
459.437	1974
459.499	1979
459.505	2060
459.574	1638
459.579	1682
459.643	1660
459.659	1511
459.711	1367
459.740	1843
459.780	2570
459.820	2416
459.849	2141
459.900	2641
459.917	2725
459.981	1780
459.986	1741
460.054	2422
460.061	2421
460.123	2118
460.141	2180
460.191	2570
460.222	2649
460.260	2611
460.302	2760
460.328	2680
460.382	2530
460.397	2738
460.462	3722
460.465	3865
460.534	7052
460.543	7500
460.602	16303
460.623	19729
460.671	29495
460.703	38412
460.739	31995
460.783	20172
460.808	16873
460.864	5101
460.876	4195
460.944	2384
460.945	2356
461.013	2660
461.024	2635
461.081	2279
461.104	2252
461.150	2358
461.184	2384
461.218	2447
461.264	2215
461.286	2209
461.345	2556
461.355	2536
461.423	2848
461.425	2826
461.491	2120
461.505	2245
461.559	4566
461.585	5432
461.628	7133
461.665	9140
461.696	9369
461.745	9842
461.764	8755
461.825	3707
461.832	3685
461.901	3262
461.905	3308
461.969	2962
461.985	2762
462.037	2947
462.065	3278
462.105	3344
462.145	3237
462.173	4280
462.225	6252
462.241	6512
462.305	7976
462.310	7759
462.378	4214
462.385	3682
462.446	2612
462.465	2637
462.514	2986
462.545	2865
462.582	2914
462.625	3352
462.650	3201
462.705	2577
462.718	2581
462.785	2788
462.786	2803
462.854	3296
462.865	3455
462.922	4483
462.945	4963
462.990	4411
463.025	3457
463.058	2951
463.104	2450
463.126	2217
463.184	2048
463.194	2194
463.262	2578
463.264	2609
463.330	3187
463.344	3219
463.398	3417
463.424	3600
463.466	3613
463.504	3405
463.533	3232
463.583	3180
463.601	3361
463.663	3822
463.669	3856
463.737	4512
463.743	4538
463.805	6493
463.823	7124
463.873	10077
463.903	11891
463.940	11613
463.982	11461
464.008	9485
464.062	4547
464.076	4345
464.142	3486
464.144	3485
464.211	3119
464.221	3157
464.279	3223
464.301	3137
464.347	3455
464.381	3794
464.414	3821
464.461	3718
464.482	4045
464.540	5035
464.550	4867
464.617	3306
464.620	3261
464.685	4635
464.699	4826
464.753	4596
464.779	4654
464.820	4755
464.859	4752
464.888	4739
464.938	4802
464.956	5112
465.018	5825
465.023	5723
465.091	4556
465.098	4417
465.158	5138
465.177	5385
465.226	4826
465.257	4384
465.293	4882
465.336	5465
465.361	5555
465.416	5820
465.428	6145
465.495	7750
465.496	7790
465.563	11662
465.575	12375
465.631	13458
465.654	13869
465.698	9345
465.734	5360
465.765	4869
465.813	4065
465.833	4090
465.893	4415
465.900	4466
465.968	4798
465.972	4809
466.035	4890
466.052	4909
466.102	4482
466.131	4222
466.170	4362
466.210	4457
466.237	4602
466.290	4882
466.304	4902
466.369	4936
466.372	4947
466.439	4942
466.449	4928
466.506	5391
466.528	5578
466.573	7596
466.607	9033
466.641	11775
466.687	15631
466.708	16380
466.766	18357
466.775	17027
466.842	6730
466.845	6228
466.909	5294
466.925	5083
466.977	4988
467.004	4936
467.044	5542
467.083	6133
467.111	6544
467.163	7265
467.178	7284
467.242	7318
467.245	7306
467.312	6770
467.321	6688
467.379	6997
467.400	7088
467.446	7850
467.480	8376
467.559	8234
467.638	6958
467.717	6282
467.796	7431
467.875	7825
467.955	7243
468.034	12788
468.113	20760
468.192	26272
468.271	11935
468.350	13320
468.429	17073
468.508	15886
468.588	10969
468.667	8974
468.746	7676
468.825	7315
468.904	6172
468.983	7130
469.062	10377
469.141	10891
469.220	5823
469.299	6876
469.378	5864
469.456	7185
469.535	6899
469.614	6132
469.693	6251
469.772	8558
469.851	10909
469.930	7274
470.009	5697
470.088	6847
470.166	7117
470.245	7958
470.324	8055
470.403	7680
470.482	6686
470.560	5953
470.639	5976
470.718	6527
470.797	6118
470.875	7150
470.954	7749
471.033	8722
471.111	6455
471.190	6181
471.269	5331
471.347	5333
471.426	6192
471.505	6998
471.583	6655
471.662	6316
471.740	6527
471.819	5839
471.898	6081
471.976	5854
472.055	6320
472.133	7060
472.212	8642
472.290	7801
472.369	6012
472.447	6022
472.526	6021
472.604	5569
472.683	6290
472.761	5597
472.839	5491
472.918	5577
472.996	6417
473.075	7511
473.153	6931
473.231	6186
473.310	6446
473.388	5853
473.466	6313
473.545	6535
473.623	6181
473.701	6526
473.780	5973
473.858	4496
473.936	6920
474.014	5770
474.093	6726
474.171	9013
474.249	11608
474.327	6872
474.405	4620
474.484	5485
474.562	5912
474.640	5276
474.718	6058
474.796	4845
474.874	5936
474.952	5078
475.030	4849
475.108	5087
475.187	5717
475.265	5832
475.343	6194
475.421	5822
475.499	5374
475.577	6406
475.655	7978
475.733	13160
475.811	19470
475.889	16666
475.966	9434
476.044	5183
476.122	4713
476.200	6064
476.278	5306
476.356	5217
476.434	5923
476.512	5726
476.590	6198
476.667	6409
476.745	4398
476.823	7078
476.901	4817
476.979	5962
477.056	6781
477.134	5788
477.212	6344
477.290	5001
477.367	4900
477.445	4951
477.523	4520
477.601	4883
477.678	5998
477.756	6404
477.834	6551
477.911	5367
477.989	5429
478.066	6449
478.144	6099
478.222	5041
478.299	6083
478.377	4617
478.454	5876
478.532	5173
478.609	5136
478.687	5299
478.764	4557
478.842	5744
478.919	4556
478.997	5213
479.074	5364
479.152	5822
479.229	6767
479.307	4656
479.384	5129
479.461	4949
479.539	5074
479.616	5814
479.694	4887
479.771	5935
479.848	5780
479.926	6887
480.003	7912
480.080	5353
480.157	4871
480.235	4517
480.312	5597
480.389	5746
480.467	8362
480.544	8891
480.621	6715
480.698	6085
480.775	6016
480.853	6369
480.930	6264
481.007	5103
481.084	7225
481.161	8739
481.238	6564
481.315	4822
481.392	5216
481.470	6070
481.547	6324
481.624	4935
481.701	5589
481.778	6294
481.855	6542
481.932	8804
482.009	12082
482.086	8100
482.163	7171
482.240	6853
482.317	7359
482.393	6958
482.470	7483
482.547	6865
482.624	5771
482.701	6338
482.778	5888
482.855	5146
482.932	5559
483.009	6808
483.085	7771
483.162	8841
483.239	9394
483.316	7490
483.393	8049
483.469	6655
483.546	6895
483.623	6914
483.699	5906
483.776	5857
483.853	6173
483.930	9326
484.006	16983
484.083	26346
484.160	14676
484.236	19971
484.313	14761
484.389	12300
484.466	13281
484.543	12936
484.619	14865
484.696	15929
484.772	12629
484.849	12855
484.925	10924
485.002	10938
485.078	11014
485.155	10874
485.231	9701
485.308	8790
485.384	10373
485.461	12381
485.537	17819
485.614	18921
485.690	8814
485.766	9244
485.843	10382
485.919	10915
485.995	9839
486.072	9399
486.148	8568
486.224	8280
486.301	9315
486.377	10481
486.453	9431
486.530	10235
486.606	13067
486.682	13746
486.758	16815
486.835	17477
486.911	15063
486.987	22697
487.063	18129
487.139	19071
487.215	16885
487.292	14453
487.368	14559
487.444	15926
487.520	21269
487.596	29364
487.672	72485
487.748	180824
487.824	237589
487.900	74876
487.976	27724
488.052	17564
488.128	16321
488.204	12079
488.280	11404
488.356	13552
488.432	22190
488.508	26123
488.584	10515
488.660	9187
488.736	8870
488.812	8675
488.888	10048
488.964	11691
489.039	15046
489.115	20416
489.191	14646
489.267	9352
489.343	8659
489.418	7704
489.494	8273
489.570	6926
489.646	9314
489.722	8180
489.797	8059
489.873	13334
489.949	21170
490.024	15488
490.100	7561
490.176	7600
490.251	8143
490.327	9422
490.403	6351
490.478	6949
490.554	6033
490.629	6514
490.705	7187
490.781	7919
490.856	7103
490.932	7425
491.007	7739
491.083	7045
491.158	7581
491.234	10136
491.309	17400
491.385	13960
491.460	6441
491.536	7619
491.611	6654
491.686	6698
491.762	7731
491.837	11135
491.913	16559
491.988	20900
492.063	20721
492.139	12189
492.214	7997
492.289	5436
492.365	6310
492.440	6279
492.515	6435
492.590	6575
492.666	6352
492.741	8047
492.816	10340
492.891	6394
492.967	5955
493.042	5912
493.117	5723
493.192	6116
493.267	12236
493.342	24488
493.418	25724
493.493	6410
493.568	6071
493.643	6014
493.718	7984
493.793	8185
493.868	7815
493.943	5216
494.018	5503
494.093	5175
494.168	6079
494.243	5256
494.318	5379
494.393	5673
494.468	4737
494.543	4515
494.618	6118
494.693	5349
494.768	6273
494.842	5526
494.917	5220
494.992	4890
495.067	5130
495.142	3971
495.217	5433
495.292	4733
495.366	5762
495.441	5813
495.516	8017
495.591	8845
495.665	21042
495.740	35709
495.815	13003
495.890	6998
495.964	4596
496.039	8117
496.114	7013
496.188	8279
496.263	6631
496.338	6183
496.412	6240
496.487	7095
496.561	7063
496.636	5720
496.710	6302
496.785	6520
496.860	7677
496.934	6090
497.009	6443
497.083	5649
497.158	6104
497.232	6670
497.307	7687
497.381	5859
497.455	8408
497.530	9561
497.604	7169
497.679	8657
497.753	10437
497.827	11114
497.902	7766
497.976	12667
498.050	42009
498.125	120909
498.199	84474
498.273	10419
498.348	8155
498.422	8178
498.496	7319
498.570	7179
498.645	6119
498.719	6307
498.793	8944
498.867	13122
498.941	19772
499.016	58990
499.090	117244
499.164	27687
499.238	7010
499.312	6152
499.386	7440
499.460	7516
499.534	6927
499.609	8335
499.683	11469
499.757	11278
499.831	31605
499.905	89569
499.979	59074
500.053	13119
500.127	11596
500.201	6675
500.275	6921
500.349	7441
500.422	7953
500.496	9690
500.570	19733
500.644	53609
500.718	76858
500.792	14406
500.866	8034
500.940	9955
501.013	8185
501.087	7871
501.161	10107
501.235	13484
501.309	39001
501.382	83506
501.456	50484
501.530	16613
501.603	26270
501.677	9249
501.751	5271
501.825	8222
501.898	15588
501.972	34166
502.046	15828
502.119	7446
502.193	18324
502.266	34119
502.340	14238
502.413	19692
502.487	30285
502.561	14828
502.634	6679
502.708	5572
502.781	4658
502.855	6614
502.928	4684
503.002	5938
503.075	4286
503.149	5665
503.222	5830
503.295	6602
503.369	7290
503.442	11647
503.516	32949
503.589	61328
503.662	33606
503.736	17937
503.809	35852
503.882	28264
503.956	47826
504.029	56229
504.102	102350
504.175	123009
504.249	46227
504.322	21552
504.395	13048
504.468	9012
504.542	7658
504.615	5503
504.688	5426
504.761	4604
504.834	6774
504.907	6159
504.980	6279
505.053	5542
505.127	3655
505.200	8941
505.273	7271
505.346	5127
505.419	3676
505.492	4725
505.565	3575
505.638	3872
505.711	3774
505.784	3088
505.857	4404
505.930	5305
506.003	2993
506.076	5122
506.149	5610
506.221	5174
506.294	7700
506.367	16747
506.440	43751
506.513	16252
506.586	6159
506.659	3969
506.731	4108
506.804	4491
506.877	4497
506.950	4721
507.022	5297
507.095	4085
507.168	5216
507.241	4983
507.313	2701
507.386	2092
507.459	4750
507.531	3864
507.604	3065
507.677	3967
507.749	2583
507.822	6092
507.894	7218
507.967	7894
508.040	5199
508.112	5891
508.185	4354
508.257	4423
508.330	6438
508.402	4395
508.475	4876
508.547	5130
508.620	5702
508.692	8661
508.765	4941
508.837	4601
508.909	4862
508.982	4373
509.054	5785
509.127	4212
509.199	4051
509.271	4656
509.344	3473
509.416	4324
509.488	4477
509.560	5534
509.633	5111
509.705	4866
509.777	5652
509.849	6591
509.922	3591
509.994	5212
510.066	6143
510.138	5275
510.210	10279
510.283	7114
510.355	7323
510.427	6686
510.499	5541
510.571	5347
510.643	5318
510.715	7773
510.787	4052
510.859	6984
510.931	5535
511.003	6926
511.076	6553
511.148	4596
511.219	6027
511.291	8652
511.363	9636
511.435	5327
511.507	4707
511.579	5203
511.651	6026
511.723	4909
511.795	5189
511.867	5630
511.939	6770
512.010	9336
512.082	7365
512.154	3919
512.226	5034
512.298	7537
512.369	9023
512.441	7159
512.513	7258
512.585	4095
512.656	6671
512.728	5854
512.800	4851
512.871	6090
512.943	5322
513.015	3891
513.086	5599
513.158	5562
513.230	4901
513.301	6315
513.373	6742
513.444	4855
513.516	4689
513.588	4760
513.659	5569
513.731	5158
513.802	4174
513.874	8653
513.945	8098
514.016	4392
514.088	5321
514.159	3897
514.231	6664
514.302	7563
514.374	6578
514.445	6222
514.516	12572
514.588	6711
514.659	7307
514.730	9357
514.802	7032
514.873	3057
514.944	7222
515.016	5489
515.087	5490
515.158	8391
515.229	10302
515.301	4836
515.372	5312
515.443	3371
515.514	4234
515.585	3755
515.656	6354
515.728	5190
515.799	4668
515.870	5277
515.941	4939
516.012	5131
516.083	8635
516.154	5012
516.225	7079
516.296	7970
516.367	7061
516.438	7269
516.509	6991
516.580	12020
516.651	35019
516.722	78682
516.793	27955
516.864	10619
516.935	10651
517.006	12060
517.077	14550
517.148	33902
517.219	112757
517.289	124877
517.360	48623
517.431	16220
517.502	7245
517.573	9312
517.643	7352
517.714	8318
517.785	8262
517.856	8638
517.926	11461
517.997	11405
518.068	11617
518.138	16514
518.209	24614
518.280	89676
518.350	216589
518.421	62937
518.492	20011
518.562	19852
518.633	24029
518.703	34732
518.774	84427
518.845	179988
518.915	130449
518.986	40392
519.056	21788
519.127	18996
519.197	25096
519.268	49664
519.338	25810
519.408	10801
519.479	9481
519.549	7694
519.620	7783
519.690	6002
519.760	5777
519.831	5436
519.901	6259
519.971	6522
520.042	6527
520.112	6198
520.182	7148
520.253	6478
520.323	5809
520.393	8244
520.463	12557
520.534	8568
520.604	17224
520.674	8332
520.744	9398
520.814	17111
520.885	13244
520.955	23268
521.025	53093
521.095	14927
521.165	7056
521.235	6174
521.305	4999
521.375	6372
521.445	6269
521.515	5406
521.585	7349
521.655	4304
521.725	6596
521.795	5942
521.865	3653
521.935	9885
522.005	5315
522.075	5180
522.145	7036
522.215	6056
522.285	7714
522.355	10630
522.424	15872
522.494	11521
522.564	6746
522.634	10086
522.704	21028
522.774	6860
522.843	6306
522.913	5075
522.983	5751
523.053	4556
523.122	6163
523.192	6108
523.262	12718
523.331	8728
523.401	5333
523.471	4524
523.540	5275
523.610	3486
523.680	5585
523.749	5556
523.819	6682
523.888	5373
523.958	5136
524.027	6006
524.097	5694
524.166	4711
524.236	4185
524.305	6687
524.375	4568
524.444	3448
524.514	7127
524.583	5609
524.653	5622
524.722	7224
524.791	5086
524.861	7232
524.930	4647
524.999	5159
525.069	7415
525.138	6032
525.207	7431
525.277	6558
525.346	7286
525.415	7667
525.484	7568
525.554	8979
525.623	11171
525.692	13054
525.761	13411
525.830	16120
525.900	20697
525.969	32706
526.038	61496
526.107	151910
526.176	339454
526.245	205860
526.314	78705
526.383	192403
526.452	214119
526.522	356868
526.591	223975
526.660	44700
526.729	29440
526.797	34224
526.867	63390
526.935	217971
527.004	516322
527.073	215770
527.142	33750
527.211	16981
527.280	13762
527.349	9436
527.418	8299
527.487	8828
527.555	6298
527.624	6082
527.693	5034
527.762	6829
527.831	4257
527.899	4896
527.968	4987
528.037	4276
528.106	6388
528.174	6532
528.243	7700
528.312	8912
528.380	7708
528.449	4310
528.518	6832
528.586	2879
528.655	6011
528.723	5022
528.792	4588
528.861	4231
528.929	3736
528.998	6489
529.066	6848
529.135	10174
529.203	8954
529.272	11050
529.340	14743
529.409	14009
529.477	10544
529.545	11614
529.614	15246
529.682	15804
529.751	16938
529.819	19933
529.887	18756
529.956	15945
530.024	16418
530.092	14088
530.161	16185
530.229	15101
530.297	16467
530.365	16749
530.434	17926
530.502	17014
530.570	15959
530.638	12069
530.707	13737
530.775	13323
530.843	13165
530.911	14908
530.979	15010
531.047	16478
531.115	15813
531.183	13601
531.252	15072
531.320	12938
531.388	12772
531.456	16146
531.524	15329
531.592	17983
531.660	20308
531.728	15848
531.796	15465
531.864	16013
531.932	16175
532.000	15802
532.067	17324
532.135	19324
532.203	20579
532.271	20029
532.339	22916
532.407	24008
532.475	19603
532.542	19276
532.610	18971
532.678	20358
532.746	39366
532.814	49102
532.881	24739
532.949	19709
533.017	18951
533.084	18116
533.152	16806
533.220	17106
533.287	16618
533.355	17152
533.423	19085
533.490	19018
533.558	18059
533.625	17490
533.693	17073
533.761	17276
533.828	17396
533.896	16564
533.963	20836
534.031	21535
534.098	24221
534.166	19494
534.233	17990
534.300	20372
534.368	19433
534.435	17048
534.503	17825
534.570	20544
534.637	19593
534.705	21340
534.772	25966
534.840	50455
534.907	182285
534.974	140971
535.041	25301
535.109	18292
535.176	15781
535.243	16488
535.310	14938
535.378	14766
535.445	14950
535.512	13606
535.579	13271
535.646	11009
535.714	13197
535.781	14232
535.848	15341
535.915	16435
535.982	16291
536.049	15110
536.116	15639
536.183	12942
536.250	13028
536.317	12309
536.384	13587
536.451	12666
536.518	14490
536.585	11032
536.652	15070
536.719	14220
536.786	11612
536.853	11534
536.920	13452
536.987	13689
537.053	13091
537.120	30902
537.187	21797
537.254	12282
537.321	11632
537.388	13105
537.454	10357
537.521	12014
537.588	10174
537.654	12066
537.721	11740
537.788	11595
537.855	10991
537.921	10905
537.988	11075
538.055	11410
538.121	9890
538.188	10357
538.254	10924
538.321	11865
538.388	11222
538.454	10720
538.521	11341
538.587	10981
538.654	10686
538.720	10428
538.787	10334
538.853	11419
538.920	11051
538.986	10307
539.053	9919
539.119	10340
539.185	9660
539.252	11140
539.318	11191
539.385	12808
539.451	9624
539.517	11236
539.583	11445
539.650	14843
539.716	21106
539.782	11150
539.849	9611
539.915	10945
539.981	8896
540.047	9436
540.114	10410
540.180	11212
540.246	9271
540.312	11156
540.378	12177
540.444	12558
540.510	15228
540.576	22558
540.643	10771
540.709	9058
540.775	9803
540.841	9043
540.907	12566
540.973	12926
541.039	10813
541.105	10230
541.171	9996
541.237	10244
541.303	10584
541.369	11942
541.435	11988
541.500	11520
541.566	8597
541.632	9055
541.698	9945
541.764	10613
541.830	9007
541.896	8782
541.961	10102
542.027	8364
542.093	10165
542.159	10093
542.224	9175
542.290	11581
542.356	11224
542.421	11486
542.487	9666
542.553	9797
542.618	10638
542.684	8466
542.750	9552
542.815	10747
542.881	12600
542.947	21849
543.012	14581
543.078	9082
543.143	8719
543.209	10023
543.274	8526
543.340	10084
543.405	13517
543.471	12866
543.536	10281
543.602	10510
543.667	8653
543.732	9801
543.798	8349
543.863	10562
543.928	8743
543.994	8978
544.059	9978
544.124	10015
544.190	9097
544.255	10166
544.320	10566
544.386	8668
544.451	11116
544.516	10733
544.581	11766
544.646	18583
544.712	18756
544.777	11418
544.842	11462
544.907	11083
544.972	11447
545.037	11834
545.102	11571
545.168	10535
545.233	11727
545.298	13444
545.363	12152
545.428	12710
545.493	16922
545.558	18997
545.623	13205
545.688	11573
545.753	13699
545.818	12614
545.883	13706
545.947	12482
546.012	15012
546.077	12944
546.142	15857
546.207	14443
546.272	16365
546.337	16288
546.401	17953
546.466	17863
546.531	16628
546.596	19661
546.661	19231
546.725	20980
546.790	20427
546.855	22786
546.919	24086
546.984	27104
547.049	28859
547.113	32976
547.178	35134
547.243	41148
547.307	46697
547.372	51526
547.436	51386
547.501	52995
547.565	56379
547.630	51366
547.695	51003
547.759	52910
547.823	51772
547.888	52327
547.952	53828
548.017	55511
548.081	57266
548.146	59273
548.210	58964
548.274	62368
548.339	60220
548.403	55164
548.468	51887
548.532	51601
548.596	52964
548.660	52848
548.725	60381
548.789	62695
548.853	61950
548.917	58349
548.982	58253
549.046	52203
549.110	47302
549.174	49338
549.238	57230
549.303	61579
549.367	63520
549.431	58124
549.495	56067
549.559	56058
549.623	67055
549.687	70987
549.751	71805
549.815	84503
549.879	83457
549.943	79498
550.007	84962
550.071	82102
550.135	74826
550.199	72320
550.263	71272
550.327	67949
550.391	71704
550.455	77892
550.519	80925
550.582	88564
550.646	98725
550.710	97476
550.774	95944
550.838	99459
550.901	101062
550.965	107227
551.029	112385
551.093	122033
551.156	136277
551.220	155107
551.284	155050
551.347	122422
551.411	118913
551.475	111380
551.538	105822
551.602	98471
551.666	93180
551.729	87982
551.793	88198
551.856	86937
551.920	85824
551.983	84825
552.047	85285
552.110	87332
552.174	87158
552.237	85829
552.301	82716
552.364	80012
552.428	78012
552.491	79700
552.554	79788
552.618	80359
552.681	83221
552.745	79050
552.808	84374
552.871	87025
552.934	84566
552.998	81755
553.061	80742
553.124	79281
553.187	78511
553.251	80018
553.314	80916
553.377	82680
553.440	91490
553.503	111741
553.567	111713
553.630	89425
553.693	87420
553.756	88955
553.819	86579
553.882	85163
553.945	86296
554.008	84610
554.071	86851
554.134	87357
554.197	83293
554.260	82477
554.323	84640
554.386	83728
554.449	87025
554.512	87050
554.575	83916
554.638	82865
554.701	83503
554.764	81404
554.827	79330
554.889	76298
554.952	73029
555.015	71436
555.078	72333
555.141	74205
555.203	70982
555.266	70988
555.329	70937
555.391	67524
555.454	68456
555.517	65194
555.580	62619
555.642	61407
555.705	61177
555.768	60826
555.830	58526
555.893	55835
555.955	54470
556.018	52917
556.080	54249
556.143	54499
556.206	54355
556.268	52992
556.330	52583
556.393	50223
556.455	50277
556.518	49159
556.580	47404
556.643	45888
556.705	44298
556.767	43939
556.830	43312
556.892	43080
556.955	42145
557.017	41274
557.079	40439
557.142	38514
557.204	39271
557.266	40755
557.328	38374
557.391	34596
557.453	35342
557.515	34946
557.577	35536
557.639	34018
557.701	33998
557.764	32903
557.826	34451
557.888	36109
557.950	37279
558.012	39830
558.074	56043
558.136	131938
558.198	210534
558.260	63579
558.322	37310
558.384	39389
558.446	39089
558.508	41154
558.570	46883
558.632	54971
558.694	70238
558.756	129972
558.818	377965
558.880	534259
558.942	216802
559.003	232499
559.065	89036
559.127	47494
559.189	45891
559.251	52140
559.312	81602
559.374	217304
559.436	448862
559.498	160300
559.559	51202
559.621	45063
559.683	55280
559.744	101756
559.806	300164
559.868	277595
559.929	64336
559.991	54007
560.052	101194
560.114	221276
560.176	110396
560.237	157726
560.299	164314
560.360	35917
560.422	21797
560.483	20069
560.545	18652
560.606	17629
560.667	17730
560.729	16458
560.790	15622
560.852	15977
560.913	15068
560.974	15402
561.036	15254
561.097	14849
561.158	14523
561.220	14226
561.281	13438
561.342	14012
561.403	14609
561.465	14785
561.526	18989
561.587	17725
561.648	12438
561.709	13628
561.771	12939
561.832	12736
561.893	12219
561.954	12753
562.015	12337
562.076	12403
562.137	11989
562.198	11744
562.259	12946
562.320	12313
562.381	12175
562.442	12918
562.503	12123
562.564	11955
562.625	11383
562.686	11320
562.747	11261
562.808	11736
562.869	10891
562.930	12709
562.991	11219
563.051	11940
563.112	11572
563.173	11465
563.234	10579
563.294	10817
563.355	10743
563.416	11399
563.477	11052
563.537	10248
563.598	11563
563.659	10201
563.720	9899
563.780	10649
563.841	10980
563.901	10113
563.962	9925
564.023	10210
564.083	10640
564.144	10604
564.204	10305
564.265	10829
564.325	11815
564.386	15056
564.446	11711
564.507	9755
564.567	9923
564.628	9314
564.688	10330
564.749	8989
564.809	10691
564.869	10202
564.930	9916
564.990	10448
565.050	9241
565.111	9421
565.171	9139
565.231	9409
565.292	10458
565.352	8593
565.412	10249
565.472	9880
565.532	9547
565.593	9390
565.653	9581
565.713	9688
565.773	10578
565.833	9995
565.893	11109
565.953	10060
566.013	9685
566.074	9219
566.134	11325
566.194	12371
566.254	11563
566.314	9370
566.374	9403
566.434	9288
566.494	9543
566.554	9027
566.614	9791
566.673	8847
566.733	10564
566.793	9527
566.853	10048
566.913	10104
566.973	9497
567.033	10528
567.092	8782
567.152	9107
567.212	10335
567.272	9987
567.331	10870
567.391	9769
567.451	10365
567.511	11903
567.570	10716
567.630	8858
567.690	9230
567.749	9848
567.809	9495
567.868	10135
567.928	8357
567.988	9743
568.047	9323
568.107	9927
568.166	9453
568.226	9407
568.285	9900
568.345	9663
568.404	10222
568.464	9603
568.523	9545
568.582	10114
568.642	9269
568.701	9921
568.761	9258
568.820	9674
568.879	10293
568.939	10606
568.998	9519
569.057	9309
569.116	9059
569.176	8158
569.235	9519
569.294	9243
569.353	9676
569.413	9179
569.472	9026
569.531	9243
569.590	7393
569.649	9487
569.708	8591
569.767	9694
569.827	9154
569.886	8761
569.945	8884
570.004	9725
570.063	9266
570.122	8960
570.181	8584
570.240	10757
570.299	9393
570.358	9585
570.417	9317
570.475	8972
570.534	10010
570.593	9459
570.652	10048
570.711	9307
570.770	8967
570.829	9768
570.887	9788
570.946	9102
571.005	9136
571.064	9174
571.122	9033
571.181	9995
571.240	9430
571.299	8324
571.357	9209
571.416	9471
571.475	10337
571.533	9926
571.592	9923
571.650	9840
571.709	9854
571.768	10024
571.826	10751
571.885	9679
571.943	8596
572.002	8462
572.060	8806
572.119	8697
572.177	9299
572.236	8854
572.294	8582
572.352	9929
572.411	9593
572.469	8206
572.528	8604
572.586	8012
572.644	9838
572.703	8868
572.761	8277
572.819	7672
572.877	7840
572.936	7364
572.994	7424
573.052	8128
573.110	8101
573.169	8288
573.227	7428
573.285	8476
573.343	8875
573.401	8078
573.459	9149
573.517	8751
573.576	7143
573.634	8513
573.692	9017
573.750	8171
573.808	7721
573.866	8870
573.924	8952
573.982	8353
574.040	7591
574.098	8341
574.155	7912
574.213	7544
574.271	8110
574.329	8405
574.387	7859
574.445	6791
574.503	7434
574.560	6258
574.618	7307
574.676	7401
574.734	6721
574.792	6617
574.849	6295
574.907	6229
574.965	7318
575.022	6079
575.080	6312
575.138	6938
575.195	6717
575.253	6253
575.311	5973
575.368	6618
575.426	6747
575.483	7318
575.541	6547
575.598	6018
575.656	6661
575.713	6638
575.771	6643
575.828	6410
575.886	5734
575.943	7102
576.001	5653
576.058	5345
576.115	7566
576.173	6425
576.230	6687
576.287	6911
576.345	7511
576.402	6381
576.459	7204
576.517	5946
576.574	6437
576.631	6410
576.688	5760
576.746	6588
576.803	5791
576.860	6084
576.917	6761
576.974	6686
577.031	6229
577.089	6030
577.146	6350
577.203	5954
577.260	6119
577.317	6232
577.374	6776
577.431	6121
577.488	5634
577.545	5586
577.602	5994
577.659	6419
577.716	6883
577.773	5996
577.830	6934
577.886	5873
577.943	5874
578.000	6070
578.057	6621
578.114	7129
578.171	8773
578.227	10654
578.284	10135
578.341	8756
578.398	8122
578.454	7480
578.511	7677
578.568	7741
578.625	6966
578.681	7059
578.738	6700
578.794	6133
578.851	6757
578.908	6974
578.964	6999
579.021	8325
579.077	6069
579.134	7283
579.190	6632
579.247	6531
579.303	6086
579.360	6102
579.416	6409
579.473	6510
579.529	6662
579.586	6784
579.642	7028
579.698	7016
579.755	6327
579.811	6544
579.867	7004
579.924	7439
579.980	7735
580.036	8806
580.093	11192
580.149	15853
580.205	16618
580.261	11725
580.317	10097
580.374	10505
580.430	8971
580.486	8937
580.542	7443
580.598	8539
580.619	8120
580.654	7404
580.692	7151
580.710	7040
580.765	6769
580.767	6765
580.823	7539
580.838	7593
580.879	7753
580.911	7776
580.935	7812
580.984	7712
580.991	7708
581.047	8391
581.057	8309
581.103	7967
581.130	8710
581.159	9521
581.203	10015
581.215	10151
581.270	9201
581.276	9177
581.326	8985
581.349	8535
581.382	7879
581.422	7955
581.438	8006
581.494	7706
581.494	7710
581.550	8737
581.567	8746
581.606	8757
581.640	7952
581.661	7487
581.713	8359
581.717	8426
581.773	8584
581.786	8426
581.829	7988
581.859	8713
581.885	9376
581.932	8238
581.940	8028
581.996	8313
582.004	8378
582.052	8597
582.077	8950
582.107	9465
582.150	9164
582.163	9069
582.219	9033
582.223	9012
582.274	8845
582.296	9194
582.330	9719
582.368	9280
582.386	9161
582.441	9636
582.441	9638
582.497	8335
582.514	8592
582.552	9433
582.587	9153
582.608	8958
582.659	9043
582.663	9039
582.719	10773
582.732	10504
582.774	9725
582.805	9709
582.830	9787
582.877	11069
582.885	11248
582.941	11028
582.950	11334
582.996	12909
583.023	13197
583.052	13779
583.095	14642
583.107	14753
583.162	15199
583.168	15145
583.218	14802
583.240	14144
583.273	13068
583.313	12396
583.328	12180
583.384	11785
583.385	11745
583.439	10288
583.458	10178
583.494	10106
583.531	9922
583.549	9936
583.603	8815
583.605	8767
583.660	8707
583.676	8922
583.715	9602
583.748	9507
583.770	9489
583.820	9457
583.825	9428
583.881	9148
583.893	9189
583.936	9354
583.965	9113
583.991	9007
584.038	10080
584.046	10209
584.101	8677
584.110	8706
584.156	9243
584.183	9243
584.211	9116
584.255	9413
584.266	9505
584.321	10202
584.328	10109
584.376	9367
584.400	9740
584.431	10285
584.472	9695
584.486	9436
584.541	10857
584.545	10818
584.596	10038
584.617	10080
584.651	10581
584.689	11351
584.706	11468
584.761	11327
584.762	11327
584.816	11444
584.834	11527
584.871	11578
584.906	11547
584.926	11500
584.978	11994
584.980	12023
585.035	12558
585.051	12942
585.090	13980
585.123	14418
585.145	14612
585.195	14858
585.200	14934
585.254	16714
585.267	17180
585.309	18521
585.340	19792
585.364	20895
585.412	23228
585.419	23615
585.473	27665
585.484	29313
585.528	38075
585.556	48216
585.583	63653
585.628	102717
585.637	114898
585.692	232504
585.700	244197
585.747	281815
585.772	236879
585.801	146404
585.845	62423
585.856	51351
585.910	29034
585.917	26825
585.965	20925
585.989	19314
586.019	18236
586.061	16795
586.074	16537
586.128	15645
586.133	15534
586.183	14470
586.205	14509
586.237	14212
586.277	13331
586.292	13238
586.346	12965
586.349	12977
586.401	13051
586.421	13089
586.455	13283
586.493	13830
586.509	14190
586.564	14779
586.565	14858
586.618	19310
586.637	18979
586.672	16750
586.709	16397
586.727	16471
586.781	16993
586.781	16991
586.835	14331
586.853	13686
586.889	12762
586.925	12169
586.944	11750
586.996	10996
586.998	11013
587.052	11955
587.068	11958
587.106	11257
587.140	11161
587.161	11350
587.212	11774
587.215	11787
587.269	11417
587.284	11440
587.323	11438
587.356	11749
587.377	11975
587.427	11616
587.431	11605
587.485	12178
587.499	12131
587.539	12113
587.571	12640
587.593	13042
587.643	13613
587.648	13654
587.702	13620
587.715	13753
587.755	13776
587.786	13493
587.810	13543
587.858	13879
587.864	13916
587.917	13905
587.930	14029
587.971	14580
588.001	14882
588.025	14878
588.073	14527
588.079	14541
588.133	15192
588.145	15244
588.187	14941
588.217	14886
588.241	15213
588.288	15916
588.295	16099
588.348	17187
588.360	17500
588.402	17751
588.431	17958
588.456	18341
588.503	18979
588.510	19133
588.564	20642
588.575	20989
588.617	22571
588.646	24002
588.671	25462
588.718	28726
588.725	29637
588.778	39165
588.789	41789
588.832	63120
588.861	81630
588.886	115739
588.932	194240
588.939	202290
588.993	237236
589.004	235058
589.047	127749
589.075	69728
589.100	52759
589.147	30172
589.154	29446
589.207	25422
589.218	24749
589.261	25211
589.290	25896
589.314	26618
589.361	29240
589.368	30492
589.421	43297
589.433	46721
589.475	80344
589.504	109782
589.528	144703
589.576	207632
589.582	201509
589.635	104614
589.647	87388
589.689	48275
589.718	25446
589.742	22968
589.790	18718
589.795	18699
589.849	19164
589.861	19320
589.902	19486
589.932	19034
589.955	17898
590.004	15726
590.009	15641
590.062	15252
590.075	15037
590.115	14830
590.146	14837
590.168	14944
590.218	14954
590.222	14940
590.275	14924
590.289	14874
590.328	15492
590.360	16035
590.381	16186
590.431	16380
590.435	16398
590.488	16581
590.503	16595
590.541	16335
590.574	16055
590.594	15906
590.645	15687
590.647	15727
590.700	16692
590.716	16890
590.753	17094
590.787	17301
590.806	17285
590.859	17454
590.859	17462
590.912	17189
590.930	17045
590.965	17372
591.001	17915
591.018	17850
591.071	17399
591.072	17385
591.124	17600
591.143	17712
591.177	17882
591.214	18030
591.230	18147
591.283	18468
591.285	18464
591.336	18662
591.356	18768
591.389	18884
591.427	18842
591.442	18661
591.495	17924
591.498	17865
591.547	17849
591.569	17829
591.600	17916
591.640	17931
591.653	18064
591.706	18650
591.711	18699
591.759	19039
591.782	19249
591.811	19788
591.853	20431
591.864	20299
591.917	19582
591.924	19476
591.969	19839
591.995	19983
592.022	19914
592.066	19884
592.075	20107
592.127	21422
592.137	21653
592.180	22006
592.208	22180
592.233	21849
592.279	21222
592.285	21336
592.338	22224
592.350	22413
592.390	21987
592.421	21642
592.443	21977
592.491	22675
592.495	22736
592.548	23379
592.562	23547
592.600	23113
592.633	22710
592.653	22378
592.704	21389
592.705	21531
592.775	22541
592.846	23674
592.916	23945
592.987	23906
593.058	24954
593.128	23452
593.199	23890
593.270	24149
593.341	24592
593.411	24839
593.482	25904
593.553	27337
593.623	26588
593.694	27385
593.764	27995
593.835	28119
593.906	27752
593.976	28778
594.047	28970
594.117	31051
594.188	31811
594.258	30793
594.329	30437
594.399	31252
594.470	31634
594.540	33766
594.611	34006
594.681	32498
594.751	33048
594.822	35740
594.892	36534
594.963	37422
595.033	37729
595.103	38642
595.174	39413
595.244	43278
595.314	44848
595.384	41782
595.455	42923
595.525	43928
595.595	45555
595.665	45440
595.736	45153
595.806	44628
595.876	45532
595.946	46192
596.016	47643
596.087	48826
596.157	49502
596.227	49529
596.297	52914
596.367	55857
596.437	59898
596.507	60111
596.577	60761
596.647	60243
596.717	60625
596.787	63836
596.857	63984
596.927	63338
596.997	64181
597.067	64893
597.137	65303
597.207	66908
597.277	67275
597.347	64272
597.417	62572
597.487	64084
597.557	64923
597.626	65883
597.696	66756
597.766	67593
597.836	66102
597.906	62236
597.975	61987
598.045	61760
598.115	64558
598.185	66864
598.254	74556
598.324	79850
598.394	81349
598.464	80068
598.533	78713
598.603	74536
598.672	73115
598.742	73110
598.812	75098
598.881	76994
598.951	76352
599.020	78280
599.090	79917
599.159	81830
599.229	79088
599.299	78265
599.368	80105
599.437	78351
599.507	74206
599.576	73719
599.646	72290
599.715	72434
599.785	72220
599.854	70221
599.924	70811
599.993	70275
600.062	71197
600.132	73796
600.201	77377
600.270	87016
600.340	91274
600.409	89866
600.478	90226
600.547	90809
600.617	84927
600.686	73329
600.755	69232
600.824	67595
600.894	67617
600.963	68030
601.032	68189
601.101	67041
601.170	65641
601.239	63745
601.308	65901
601.378	66472
601.447	67039
601.516	67844
601.585	70178
601.654	71142
601.723	71300
601.792	73792
601.861	76352
601.930	79224
601.999	81434
602.068	78612
602.137	80509
602.206	81044
602.275	82059
602.343	82411
602.412	84224
602.481	83877
602.550	84922
602.619	86151
602.688	85829
602.756	88095
602.825	87146
602.894	90562
602.963	89538
603.032	91394
603.100	90556
603.169	90418
603.238	93084
603.307	90451
603.375	91490
603.444	96249
603.513	91626
603.581	92823
603.650	95323
603.719	87441
603.787	88005
603.856	88769
603.924	90168
603.993	93805
604.061	95201
604.130	99566
604.198	100850
604.267	101320
604.335	104711
604.404	105336
604.472	106503
604.541	106833
604.609	107526
604.678	111059
604.746	111172
604.815	115710
604.883	113782
604.951	112764
605.020	114185
605.088	112042
605.156	111258
605.225	111496
605.293	113774
605.361	111477
605.429	113175
605.498	116095
605.566	117696
605.634	121193
605.702	123259
605.771	125276
605.839	128073
605.907	123045
605.975	122025
606.043	118623
606.111	117368
606.180	121107
606.248	114877
606.316	114297
606.384	116603
606.452	110375
606.520	103541
606.588	107883
606.656	108412
606.724	106426
606.792	101320
606.860	93090
606.928	83845
606.996	82924
607.064	81795
607.132	81993
607.200	87388
607.267	89029
607.335	91420
607.403	93687
607.471	90019
607.539	88563
607.607	88801
607.674	79103
607.742	79854
607.810	78992
607.878	78190
607.946	80961
608.013	83236
608.081	86005
608.149	85797
608.216	87382
608.284	91677
608.352	90017
608.419	88295
608.487	91243
608.555	86533
608.622	88747
608.690	93508
608.757	101509
608.825	104253
608.893	101644
608.960	96892
609.028	92216
609.095	93850
609.163	92015
609.230	83257
609.298	76438
609.365	80015
609.432	85702
609.500	92320
609.567	104556
609.635	119002
609.702	123499
609.769	119288
609.837	95529
609.904	84837
609.971	86151
610.039	97628
610.106	119323
610.173	202119
610.241	410779
610.308	273876
610.375	124585
610.442	96039
610.509	88872
610.577	88676
610.644	88510
610.711	90105
610.778	94237
610.845	97032
610.912	101862
610.980	104718
611.047	106974
611.114	104676
611.181	100110
611.248	99466
611.315	105854
611.382	108488
611.449	112060
611.516	113297
611.583	111185
611.650	112870
611.717	113608
611.784	116099
611.851	121091
611.918	126664
611.984	144145
612.051	191489
612.118	324898
612.185	636217
612.252	461814
612.319	188296
612.386	150530
612.452	137981
612.519	129503
612.586	128426
612.653	127389
612.719	130912
612.786	125215
612.853	117926
612.919	115951
612.986	117519
613.053	111886
613.120	105402
613.186	102916
613.253	102892
613.319	103140
613.386	102586
613.453	105397
613.519	106850
613.586	103651
613.652	106128
613.719	104940
613.785	106082
613.852	107016
613.918	106151
613.985	107438
614.051	112766
614.118	115021
614.184	111505
614.250	105714
614.317	107233
614.383	106926
614.449	109234
614.516	108949
614.582	109033
614.648	108188
614.715	106318
614.781	105717
614.847	105234
614.914	104184
614.980	103012
615.046	103010
615.112	105553
615.179	105839
615.245	106753
615.311	104901
615.377	106551
615.443	106911
615.509	110784
615.575	113245
615.642	111905
615.708	115707
615.774	117906
615.840	125228
615.906	134458
615.972	155001
616.038	214415
616.104	382343
616.170	713589
616.236	631943
616.302	260726
616.368	196619
616.434	151855
616.500	137649
616.565	148583
616.631	177876
616.697	153721
616.763	154343
616.829	213060
616.895	346821
616.961	336847
617.026	175465
617.092	126090
617.158	115864
617.224	113019
617.289	105462
617.355	101105
617.421	99336
617.487	99493
617.552	95050
617.618	94718
617.684	94001
617.749	96273
617.815	91715
617.880	90432
617.946	89158
618.012	91662
618.077	93568
618.143	90630
618.208	91909
618.274	96030
618.339	96143
618.405	82836
618.470	85018
618.536	84513
618.601	82782
618.667	78884
618.732	75863
618.798	74619
618.863	74844
618.928	73603
618.994	74814
619.059	75154
619.124	75949
619.190	75565
619.255	75256
619.320	75409
619.386	76406
619.451	72939
619.516	71603
619.581	72970
619.647	75288
619.712	76020
619.777	73412
619.842	73933
619.907	75907
619.972	75634
620.038	74247
620.103	74342
620.168	73069
620.233	75241
620.298	75827
620.363	75552
620.428	77648
620.493	78340
620.558	80015
620.623	80133
620.688	80867
620.753	79424
620.818	80974
620.883	81443
620.948	81691
621.013	81144
621.078	79876
621.143	80543
621.207	81379
621.272	79925
621.337	78716
621.402	79908
621.467	79843
621.532	80869
621.596	79376
621.661	77522
621.726	75784
621.791	77071
621.855	78248
621.920	77439
621.985	77842
622.049	79853
622.114	78308
622.179	79825
622.243	80606
622.308	83582
622.373	86778
622.437	83838
622.502	79514
622.566	80580
622.631	79340
622.695	81643
622.760	81208
622.824	80845
622.889	79603
622.953	80413
623.018	86299
623.082	86631
623.147	83100
623.211	82101
623.276	81607
623.340	78995
623.404	78108
623.469	77973
623.533	78820
623.597	76075
623.662	76088
623.726	72136
623.790	69076
623.854	67724
623.919	69053
623.983	69110
624.047	69941
624.111	69617
624.176	71511
624.240	71203
624.304	72815
624.368	70919
624.432	71001
624.496	72000
624.560	76074
624.625	74838
624.689	73565
624.753	77757
624.817	73568
624.881	71034
624.945	66552
625.009	65305
625.073	65422
625.137	66244
625.201	69350
625.265	69210
625.329	68352
625.393	67154
625.456	67012
625.520	70050
625.584	69532
625.648	73316
625.712	75315
625.776	83620
625.839	83133
625.903	63623
625.967	56322
626.031	63881
626.095	73292
626.158	63371
626.222	51157
626.286	48873
626.349	49054
626.413	44623
626.477	46517
626.540	44158
626.604	44742
626.668	44966
626.731	44251
626.795	42498
626.858	43433
626.922	41512
626.986	42315
627.049	40856
627.113	43698
627.176	41270
627.240	41124
627.303	40428
627.366	39747
627.430	40584
627.493	40550
627.557	38483
627.620	40709
627.684	40861
627.747	41360
627.810	36228
627.874	35183
627.937	33054
628.000	36588
628.064	34383
628.127	30102
628.190	30868
628.253	30164
628.317	28847
628.380	28140
628.443	26577
628.506	26621
628.569	26657
628.632	25671
628.696	24686
628.759	24526
628.822	23890
628.885	22213
628.948	23070
629.011	23240
629.074	22101
629.137	22360
629.200	21279
629.263	21963
629.326	19252
629.389	19763
629.452	20278
629.515	19925
629.578	18868
629.641	20176
629.704	19471
629.767	19557
629.830	19841
629.892	18149
629.955	17811
630.018	20321
630.081	18645
630.144	19642
630.207	17489
630.269	19726
630.332	18354
630.395	18121
630.458	16942
630.520	15939
630.583	17715
630.646	17331
630.708	16634
630.771	15749
630.834	18107
630.896	17188
630.959	16809
631.021	15767
631.084	17136
631.146	17468
631.209	17715
631.272	16963
631.334	17340
631.397	17255
631.459	17056
631.522	18180
631.584	18080
631.646	18466
631.709	19994
631.771	19585
631.834	18840
631.896	18988
631.958	16626
632.021	17276
632.083	15969
632.145	16381
632.208	15816
632.270	16475
632.332	15052
632.395	15611
632.457	16124
632.519	15178
632.581	15896
632.643	14896
632.706	16024
632.768	13887
632.830	14817
632.892	15511
632.954	14451
633.016	16877
633.078	15994
633.141	15802
633.203	15532
633.265	16043
633.327	15085
633.389	14795
633.451	16233
633.513	15236
633.575	16888
633.637	16195
633.698	16181
633.760	16920
633.822	17569
633.884	17375
633.946	17147
634.008	16659
634.070	18060
634.132	19094
634.193	20415
634.255	22250
634.317	21592
634.379	22391
634.441	19829
634.502	18446
634.564	17905
634.626	16646
634.687	15723
634.749	15616
634.811	15616
634.873	14330
634.934	14539
634.996	15853
635.057	14035
635.119	14513
635.181	15472
635.242	15761
635.304	13571
635.365	17491
635.427	15243
635.488	15430
635.550	14686
635.611	15751
635.673	13108
635.734	17415
635.796	17329
635.857	19117
635.918	18656
635.980	22606
636.041	21893
636.102	23872
636.164	23726
636.225	23386
636.286	19221
636.348	19182
636.409	16781
636.470	15201
636.531	15487
636.593	14725
636.654	15172
636.715	15002
636.776	14248
636.838	13524
636.899	15253
636.960	12441
637.021	12842
637.082	12362
637.143	13540
637.204	12616
637.265	12517
637.326	13078
637.387	14454
637.448	12099
637.509	13428
637.570	13464
637.631	13311
637.692	10767
637.753	11223
637.814	11991
637.875	12197
637.936	12891
637.997	12465
638.058	11994
638.119	13161
638.179	12695
638.240	11687
638.301	12802
638.362	12352
638.423	11222
638.483	13027
638.544	10431
638.605	12043
638.666	11001
638.726	12886
638.787	12189
638.848	11886
638.908	11263
638.969	11276
639.030	10996
639.090	10921
639.151	10945
639.211	11968
639.272	12075
639.332	12662
639.393	12268
639.453	11860
639.514	12145
639.574	12407
639.635	10584
639.695	11535
639.756	9758
639.816	11201
639.877	10274
639.937	11185
639.997	11345
640.058	9733
640.118	10305
640.178	11139
640.239	11186
640.299	10507
640.359	10639
640.420	11168
640.480	12758
640.540	12984
640.600	14227
640.661	12641
640.721	10725
640.781	13501
640.841	10486
640.901	12031
640.961	10903
641.021	11902
641.082	11076
641.142	10579
641.202	11400
641.262	9467
641.322	11021
641.382	9435
641.442	10965
641.502	9910
641.562	10696
641.622	10012
641.682	11237
641.742	12064
641.802	12092
641.861	11155
641.921	9790
641.981	10391
642.041	10000
642.101	9674
642.161	8608
642.221	9324
642.280	10021
642.340	9360
642.400	9482
642.460	11060
642.519	10553
642.579	9757
642.639	11675
642.698	7867
642.758	12173
642.818	10225
642.877	9682
642.937	9677
642.997	10526
643.056	10258
643.116	9145
643.175	11370
643.235	10553
643.294	11063
643.354	11652
643.414	12474
643.473	13650
643.532	15142
643.592	20010
643.651	30748
643.711	50805
643.770	93909
643.830	210690
643.889	388775
643.948	122036
644.008	30868
644.067	18057
644.126	14064
644.186	13336
644.245	12632
644.304	9724
644.363	10934
644.423	9821
644.482	10102
644.541	11084
644.600	9926
644.659	13597
644.719	15513
644.778	22682
644.837	36066
644.896	73661
644.955	158850
645.014	56004
645.073	15613
645.132	12861
645.191	11748
645.250	10756
645.309	12546
645.368	13201
645.427	16682
645.486	24861
645.545	43327
645.604	15287
645.663	11308
645.722	9576
645.781	10628
645.840	12013
645.898	14421
645.957	19806
646.016	27571
646.075	47457
646.134	89035
646.192	217717
646.251	297674
646.310	62519
646.369	22164
646.427	17632
646.486	13306
646.545	11014
646.603	10557
646.662	9522
646.721	9696
646.779	8384
646.838	9102
646.896	12778
646.955	15407
647.014	22578
647.072	41827
647.131	110926
647.189	53153
647.248	11239
647.306	9256
647.365	8413
647.423	5671
647.481	8345
647.540	6241
647.598	7971
647.657	6605
647.715	7543
647.773	5667
647.832	7395
647.890	5225
647.948	6485
648.007	6912
648.065	4868
648.123	5952
648.181	7317
648.240	6717
648.298	5367
648.356	5155
648.414	6090
648.472	5323
648.531	5491
648.589	6448
648.647	5745
648.705	5236
648.763	5360
648.821	5792
648.879	5443
648.937	7528
648.995	8361
649.053	8608
649.111	14543
649.169	22768
649.227	39793
649.285	81301
649.343	211840
649.401	103143
649.459	19522
649.516	11981
649.574	7652
649.632	11562
649.690	12750
649.748	12086
649.806	15697
649.863	31906
649.921	80033
649.979	52879
650.037	9177
650.094	4911
650.152	5578
650.210	4006
650.268	5182
650.325	4857
650.383	4952
650.440	3999
650.498	4448
650.556	3796
650.613	3519
650.671	3968
650.728	3650
650.786	5039
650.843	5248
650.901	2954
650.958	3760
651.016	4234
651.073	3458
651.131	3810
651.188	3084
651.246	3510
651.303	1602
651.360	3436
651.418	2890
651.475	3293
651.532	2730
651.590	3535
651.647	1953
651.704	3399
651.762	3110
651.819	2574
651.876	2905
651.933	3132
651.990	3651
652.048	1040
652.105	2869
652.162	3218
652.219	2508
652.276	3314
652.333	2709
652.390	1390
652.448	2909
652.505	2776
652.562	2465
652.619	2176
652.676	2853
652.733	3813
652.790	2573
652.847	1993
652.904	2475
652.961	1069
653.017	1780
653.074	2669
653.131	2563
653.188	1714
653.245	2620
653.302	2273
653.359	1852
653.415	2533
653.472	1507
653.529	2653
653.586	1560
653.642	1800
653.699	3226
653.756	907
653.813	1872
653.869	2905
653.926	1832
653.983	2018
654.039	2154
654.096	2624
654.152	2715
654.209	2208
654.266	2692
654.322	1184
654.379	1941
654.435	2326
654.492	2162
654.548	2580
654.605	3295
654.661	2931
654.717	1301
654.774	3061
654.830	2478
654.887	1911
654.943	2408
655.000	2901
655.056	2357
655.112	2939
655.168	1130
655.225	2210
655.281	2596
655.337	2508
655.394	2714
655.450	2798
655.506	1825
655.562	2997
655.618	3442
655.675	1266
655.731	1895
655.787	1421
655.843	2310
655.899	865
655.955	2312
656.011	1716
656.067	1700
656.123	1804
656.179	2596
656.235	2701
656.291	1409
656.347	2533
656.403	1412
656.459	2475
656.515	1758
656.571	1750
656.627	2069
656.683	1616
656.739	2142
656.795	2029
656.850	1599
656.906	1913
656.962	3113
657.018	2241
657.074	3195
657.129	3070
657.185	6342
657.241	12472
657.297	6612
657.352	2018
657.408	1827
657.464	2869
657.519	1174
657.575	1381
657.630	1456
657.686	1674
657.742	1328
657.797	1712
657.853	1417
657.908	3090
657.964	271
658.019	1796
658.075	1950
658.130	1917
658.186	657
658.241	1992
658.297	1093
658.352	1257
658.407	1526
658.463	1651
658.518	2043
658.573	1628
658.629	750
658.684	1737
658.739	1863
658.795	1318
658.850	2322
658.905	1010
658.960	1956
659.016	838
659.071	1392
659.126	1676
659.181	1412
659.236	2939
659.291	2387
659.346	1536
659.401	1768
659.457	2672
659.512	1661
659.567	2506
659.622	1255
659.677	778
659.732	671
659.787	1506
659.842	1636
659.897	1652
659.952	1562
660.007	1474
660.061	1942
660.116	985
660.171	1191
660.226	980
660.281	2343
660.336	1184
660.391	2679
660.445	879
660.500	740
660.555	868
660.610	1142
660.664	1779
660.719	1256
660.774	1938
660.828	1458
660.883	951
660.938	2240
660.992	179
661.047	975
661.101	2303
661.156	773
661.211	812
661.265	1449
661.320	1585
661.374	928
661.429	680
661.483	1135
661.538	1045
661.592	1252
661.647	1840
661.701	2125
661.755	1519
661.810	2006
661.864	797
661.919	1609
661.973	1968
662.027	886
662.081	453
662.136	913
662.190	1787
662.244	1437
662.299	1305
662.353	1579
662.407	1533
662.461	673
662.515	1610
662.569	1073
662.624	1873
662.678	587
662.732	805
662.786	869
662.840	1273
662.894	813
662.948	1239
663.002	1187
663.056	1502
663.110	1161
663.164	1432
663.218	1290
663.272	660
663.326	1854
663.380	1255
663.434	1195
663.488	228
663.542	567
663.595	1016
663.649	1139
663.703	1911
663.757	1279
663.811	1152
663.864	650
663.918	1430
663.972	747
664.026	1350
664.079	1479
664.133	1596
664.187	775
664.240	1137
664.294	1195
664.348	919
664.401	1341
664.455	1355
664.508	981
664.562	437
664.615	920
664.669	1206
664.722	1285
664.776	839
664.829	618
664.883	908
664.936	328
664.990	1057
665.043	1684
665.097	843
665.150	1498
665.203	1738
665.257	1220
665.310	1395
665.363	1226
665.417	1586
665.470	704
665.523	1324
665.576	1311
665.630	1698
665.683	891
665.736	1370
665.789	692
665.842	261
665.895	1037
665.949	1201
666.002	1103
666.055	1101
666.108	2236
666.161	1485
666.214	1131
666.267	1473
666.320	1206
666.373	1292
666.426	1410
666.479	1295
666.532	1343
666.585	1166
666.638	1942
666.691	252
666.744	1514
666.796	1034
666.849	910
666.902	1197
666.955	1355
667.008	1734
667.060	218
667.113	965
667.166	1507
667.219	782
667.271	1806
667.324	1556
667.377	1615
667.430	475
667.482	1196
667.535	1031
667.587	1746
667.640	821
667.693	24
667.745	1922
667.798	1988
667.850	1689
667.903	1751
667.955	1152
668.008	1693
668.060	2075
668.113	1370
668.165	1360
668.218	2454
668.270	1744
668.322	1756
668.375	1060
668.427	1490
668.479	1221
668.532	1254
668.584	1797
668.636	499
668.689	1708
668.741	1722
668.793	717
668.845	1348
668.898	1368
668.950	1204
669.002	1585
669.054	1210
669.106	806
669.158	1681
669.211	1056
669.263	1425
669.315	1625
669.367	1268
669.419	1524
669.471	1557
669.523	1126
669.575	1893
669.627	1461
669.679	1755
669.731	1451
669.783	1263
669.835	1968
669.886	868
669.938	1678
669.990	2079
670.042	1394
670.094	1922
670.146	2313
670.197	1381
670.249	2112
670.301	2971
670.353	3858
670.404	5016
670.456	7450
670.508	10747
670.560	17725
670.611	28779
670.663	50218
670.715	113566
670.766	163904
670.818	57406
670.869	12328
670.921	5567
670.972	4843
671.024	2628
671.075	2529
671.127	1614
671.178	2222
671.230	1881
671.281	2632
671.333	2590
671.384	2824
671.436	3593
671.487	5043
671.538	6679
671.590	10991
671.641	17350
671.692	31659
671.744	56146
671.795	41397
671.846	16012
671.897	8153
671.949	4349
672.000	3612
672.051	2494
672.102	2155
672.153	1281
672.204	1892
672.256	2124
672.307	1806
672.358	1697
672.409	1010
672.460	1163
672.511	901
672.562	698
672.613	457
672.664	498
672.715	1212
672.766	774
672.817	1108
672.868	822
672.919	761
672.970	270
673.021	507
673.071	579
673.122	712
673.173	460
673.224	1074
673.275	898
673.326	920
673.376	534
673.427	335
673.478	576
673.528	1330
673.579	416
673.630	568
673.680	777
673.731	1256
673.782	260
673.832	-90
673.883	772
673.934	988
673.984	601
674.035	723
674.085	979
674.136	895
674.186	951
674.237	786
674.287	316
674.338	657
674.388	751
674.438	-146
674.489	1697
674.539	1049
674.589	729
674.640	1162
674.690	670
674.740	1024
674.791	428
674.841	384
674.891	1617
674.942	829
674.992	87
675.042	388
675.092	248
675.142	435
675.193	614
675.243	94
675.293	731
675.343	325
675.393	582
675.443	886
675.493	230
675.543	390
675.593	-253
675.643	168
675.693	548
675.743	587
675.793	572
675.843	53
675.893	879
675.943	834
675.993	666
676.043	1299
676.093	652
676.142	839
676.192	570
676.242	276
676.292	135
676.341	192
676.391	407
676.441	547
676.491	291
676.540	631
676.590	522
676.640	164
676.689	12
676.739	-560
676.789	-453
676.838	170
676.888	759
676.937	501
676.987	11
677.037	-36
677.086	-690
677.136	704
677.185	-625
677.235	-433
677.284	70
677.333	-290
677.383	-469
677.432	-122
677.482	22
677.531	444
677.580	-642
677.630	152
677.679	-318
677.728	447
677.778	-210
677.827	158
677.876	298
677.925	-208
677.975	468
678.024	-112
678.073	490
678.122	605
678.171	-280
678.220	445
678.269	1158
678.319	583
678.368	491
678.417	-381
678.466	765
678.515	390
678.564	75
678.613	-435
678.662	-73
678.711	588
678.760	-949
678.809	83
678.857	-603
678.906	110
678.955	-12
679.004	568
679.053	745
679.102	-102
679.151	109
679.199	-661
679.248	-69
679.297	77
679.346	274
679.394	357
679.443	53
679.492	-527
679.540	-189
679.589	-717
679.638	819
679.686	-424
679.735	1036
679.784	473
679.832	709
679.881	238
679.929	-1272
679.978	243
680.026	-886
680.075	465
680.123	-376
680.172	-370
680.220	-40
680.268	-278
680.317	-310
680.365	-514
680.414	-662
680.462	132
680.510	519
680.559	-301
680.607	533
680.655	-288
680.703	171
680.752	-215
680.800	-400
680.848	-644
680.896	-718
680.945	-264
680.993	-440
681.041	-330
681.089	-489
681.137	363
681.185	144
681.233	-970
681.258	-428
681.281	65
681.329	-206
681.377	-177
681.380	-131
681.425	323
681.473	409
681.502	449
681.521	442
681.569	699
681.617	620
681.624	552
681.665	-48
681.713	836
681.745	598
681.761	461
681.809	295
681.857	504
681.867	454
681.904	201
681.952	811
681.989	585
682.000	484
682.048	306
682.096	-99
682.111	273
682.143	1007
682.191	570
682.233	772
682.239	783
682.286	436
682.334	584
682.354	541
682.382	437
682.430	1178
682.476	503
682.477	472
682.525	320
682.572	870
682.598	783
682.620	657
682.667	385
682.715	1486
682.720	1419
682.763	615
682.810	1273
682.841	1131
682.857	1045
682.905	1268
682.952	1407
682.963	1336
683.000	1008
683.047	1519
683.085	2095
683.095	2226
683.142	1989
683.190	1486
683.206	1356
683.237	1070
683.284	992
683.328	1043
683.332	1028
683.379	2313
683.426	1359
683.449	1349
683.473	1377
683.521	1240
683.568	1434
683.571	1475
683.615	1639
683.662	2093
683.693	1809
683.709	1666
683.757	1836
683.804	2482
683.814	2346
683.851	1803
683.898	2397
683.936	2132
683.945	2056
683.992	1889
684.039	2089
684.057	1992
684.086	1752
684.133	2251
684.179	1616
684.180	1583
684.227	2264
684.274	2234
684.300	2619
684.321	2953
684.368	1807
684.415	2314
684.422	2355
684.462	2471
684.509	2596
684.543	2741
684.556	2791
684.603	2546
684.649	2588
684.665	2600
684.696	2580
684.743	2636
684.786	2602
684.790	2584
684.837	3185
684.883	2554
684.908	2646
684.930	2732
684.977	3374
685.023	3091
685.029	3099
685.070	2978
685.117	2872
685.150	2632
685.164	2603
685.210	2880
685.257	4315
685.272	4046
685.303	3270
685.350	3166
685.393	3852
685.396	3906
685.443	3100
685.490	3495
685.514	3509
685.536	3550
685.583	2910
685.629	3040
685.636	3111
685.675	3444
685.722	4220
685.757	3465
685.768	3179
685.815	3958
685.861	3784
685.878	3755
685.908	3832
685.954	3569
686.000	4400
686.000	4408
686.047	3940
686.093	3966
686.121	4400
686.139	4629
686.185	4060
686.232	4142
686.242	4036
686.278	3726
686.324	4500
686.363	4433
686.370	4398
686.416	4421
686.463	3626
686.484	3738
686.509	3893
686.555	3580
686.601	4173
686.606	4210
686.647	4557
686.693	4158
686.727	4219
686.739	4231
686.785	4668
686.831	4303
686.848	4309
686.877	4351
686.923	3994
686.969	4777
686.969	4781
687.015	4803
687.061	4837
687.090	5162
687.107	5194
687.153	5152
687.199	4619
687.211	4529
687.245	4498
687.291	5068
687.332	4914
687.336	4908
687.382	5280
687.428	5066
687.453	5386
687.474	5477
687.520	5076
687.565	5264
687.574	5059
687.611	4561
687.657	5470
687.695	5873
687.702	5942
687.748	5648
687.794	6559
687.816	6367
687.839	5979
687.885	5656
687.931	5541
687.937	5482
687.976	5223
688.022	4611
688.058	5315
688.067	5549
688.113	5128
688.158	5406
688.179	5582
688.204	5683
688.249	5929
688.295	5082
688.300	5143
688.340	5733
688.386	6061
688.421	5863
688.431	5804
688.477	5584
688.522	6072
688.542	6071
688.567	6064
688.613	5858
688.658	6052
688.663	6092
688.703	6432
688.749	5806
688.784	5993
688.794	6063
688.839	6005
688.884	5896
688.905	5814
688.930	5728
688.975	6155
689.020	6087
689.026	6076
689.065	6068
689.110	5638
689.146	5936
689.155	6007
689.201	6413
689.246	6419
689.267	6250
689.291	6095
689.336	6721
689.381	5988
689.388	6006
689.426	6264
689.471	6553
689.509	6719
689.516	6754
689.561	6962
689.606	6533
689.630	6623
689.651	6585
689.696	6799
689.741	6557
689.750	6517
689.785	6685
689.830	7081
689.871	6968
689.875	6943
689.920	6878
689.965	7013
689.992	6662
690.010	6473
690.054	7033
690.099	6612
690.112	6597
690.144	6631
690.189	6582
690.233	6924
690.233	6937
690.278	6931
690.323	7043
690.354	7025
690.367	7023
690.412	7397
690.457	7878
690.474	8008
690.501	8060
690.546	7345
690.590	7164
690.595	7154
690.635	7642
690.680	7832
690.716	7965
690.724	8144
690.769	9876
690.813	11142
690.836	11775
690.857	13167
690.902	15605
690.946	18970
690.957	19704
690.991	26596
691.035	35682
691.077	44755
691.080	44764
691.124	41971
691.168	38507
691.198	36743
691.213	34165
691.257	26522
691.301	18768
691.318	15744
691.346	14534
691.390	12404
691.434	10523
691.439	10237
691.478	9471
691.522	9463
691.559	9068
691.567	9065
691.611	9284
691.655	8917
691.680	8739
691.699	8701
691.743	9087
691.787	8893
691.800	8799
691.831	8538
691.875	8410
691.919	8313
691.921	8296
691.964	8392
692.008	8276
692.041	8119
692.052	8124
692.096	8206
692.139	8620
692.162	8475
692.183	8245
692.227	8135
692.271	8148
692.282	8034
692.315	7951
692.359	7972
692.402	7892
692.403	7908
692.447	7655
692.490	7849
692.523	7591
692.534	7567
692.578	7791
692.622	7690
692.643	7817
692.666	8028
692.709	8371
692.753	8281
692.763	8352
692.797	8592
692.840	8567
692.884	8600
692.884	8622
692.928	8804
692.971	9223
693.004	9454
693.015	9431
693.059	9229
693.102	8965
693.124	8816
693.146	8880
693.189	8993
693.233	9000
693.245	9066
693.276	9812
693.320	10371
693.363	11359
693.365	11362
693.407	12147
693.450	12966
693.485	13581
693.493	14046
693.537	16089
693.580	18536
693.605	19968
693.624	23060
693.667	30342
693.710	37217
693.725	39800
693.753	52769
693.797	72925
693.840	93390
693.845	95550
693.883	90131
693.926	83333
693.966	77370
693.970	75800
694.013	57999
694.056	40444
694.086	27961
694.099	26466
694.142	22086
694.185	17692
694.206	15341
694.229	14763
694.272	14109
694.315	13112
694.326	12872
694.358	12577
694.401	12083
694.444	11406
694.446	11348
694.487	10759
694.530	10263
694.566	9675
694.573	9679
694.616	9839
694.659	9723
694.686	9583
694.702	9465
694.745	9343
694.787	9063
694.806	8863
694.830	8989
694.873	9418
694.916	9690
694.926	9720
694.959	9492
695.002	9166
695.044	9036
695.046	9003
695.087	9211
695.130	9374
695.166	9430
695.172	9469
695.215	9665
695.258	9796
695.286	9828
695.301	9872
695.343	10066
695.386	10072
695.406	10158
695.428	10384
695.471	10625
695.514	10793
695.526	10830
695.556	10942
695.599	11389
695.641	11301
695.646	11303
695.684	11272
695.726	10815
695.766	10709
695.769	10771
695.811	11098
695.854	11597
695.886	11840
695.896	11797
695.938	11477
695.981	10998
696.005	10891
696.023	11210
696.065	11772
696.108	12301
696.125	12492
696.150	12509
696.192	12473
696.235	12411
696.245	12353
696.277	12382
696.319	12594
696.361	12601
696.365	12565
696.404	12563
696.446	12672
696.485	12770
696.488	12809
696.530	12709
696.572	12552
696.604	12522
696.614	12497
696.656	12268
696.698	11991
696.724	11806
696.740	11946
696.783	12093
696.825	12558
696.844	12573
696.867	12563
696.909	12605
696.951	12697
696.964	12707
696.992	12720
697.034	12417
697.076	12397
697.083	12336
697.118	12275
697.160	12177
697.202	12166
697.203	12131
697.244	12532
697.286	12911
697.323	13202
697.327	13218
697.369	13012
697.411	12789
697.442	12567
697.453	12622
697.494	12767
697.536	12904
697.562	13029
697.578	13189
697.620	13306
697.661	13403
697.682	13521
697.703	13659
697.744	13786
697.786	13912
697.801	13874
697.828	13849
697.869	13802
697.911	13809
697.921	13764
697.952	13685
697.994	13588
698.035	13458
698.040	13399
698.077	13440
698.118	13470
698.160	13535
698.160	13498
698.201	13910
698.243	14294
698.279	14648
698.284	14701
698.325	14779
698.367	14848
698.399	14849
698.408	14886
698.449	14902
698.491	14884
698.518	14828
698.532	14913
698.573	15064
698.614	15212
698.638	15250
698.656	15255
698.697	15176
698.738	15075
698.757	14991
698.779	15104
698.820	15242
698.862	15380
698.877	15384
698.903	15526
698.944	15693
698.985	15862
698.996	15865
699.026	15840
699.067	15748
699.116	15597
699.235	15347
699.354	14896
699.474	14982
699.593	15428
699.713	15334
699.832	14485
699.951	15726
700.070	14440
700.190	14212
700.309	13535
700.428	14420
700.547	13596
700.667	13866
700.786	13873
700.905	13047
701.024	13088
701.143	13469
701.262	13427
701.381	13623
701.500	13479
701.619	13308
701.738	13589
701.857	14518
701.976	13237
702.095	12481
702.214	12820
702.333	12738
702.452	13612
702.571	13580
702.690	12743
702.809	12495
702.928	12336
703.047	12000
703.165	12949
703.284	12131
703.403	11910
703.522	12273
703.640	11703
703.759	11784
703.878	12737
703.997	11641
704.115	11101
704.234	11771
704.353	11625
704.471	12009
704.590	10496
704.708	11310
704.827	11205
704.946	11011
705.064	10892
705.183	11682
705.301	11900
705.420	12713
705.538	11541
705.656	10987
705.775	10451
705.893	14599
706.012	15015
706.130	11618
706.249	12125
706.367	12154
706.485	11575
706.604	11172
706.722	11008
706.840	12296
706.958	14717
707.077	12708
707.195	10760
707.313	11011
707.431	10937
707.549	10859
707.668	10277
707.786	10949
707.904	10708
708.022	10607
708.140	9970
708.258	10243
708.376	11561
708.494	9526
708.612	11145
708.730	11657
708.848	11743
708.966	10555
709.084	10354
709.202	11509
709.320	10687
709.438	10817
709.556	11094
709.674	10750
709.791	11155
709.909	10098
710.027	10322
710.145	9463
710.263	10487
710.380	10142
710.498	9856
710.616	9818
710.733	9962
710.851	10029
710.969	9763
711.086	10104
711.204	10011
711.322	9526
711.439	9000
711.557	8856
711.674	10440
711.792	10094
711.909	9103
712.027	9155
712.144	8796
712.262	9527
712.379	9341
712.497	12180
712.614	11257
712.732	11328
712.849	10554
712.966	10064
713.084	10998
713.201	10873
713.318	10361
713.436	10403
713.553	10426
713.670	11032
713.787	10969
713.905	10953
714.022	10825
714.139	11425
714.256	11747
714.373	15714
714.490	24946
714.608	60043
714.725	227453
714.842	227664
714.959	27479
715.076	14892
715.193	11883
715.310	10967
715.427	9709
715.544	9573
715.661	9711
715.778	9639
715.895	9290
716.011	9293
716.128	9076
716.245	8813
716.362	9169
716.479	7663
716.596	8940
716.713	9112
716.829	8409
716.946	8637
717.063	7956
717.180	8238
717.296	7998
717.413	8354
717.530	8871
717.646	7433
717.763	8022
717.880	8078
717.996	7086
718.113	7158
718.229	7163
718.346	6516
718.462	8522
718.579	8006
718.695	7662
718.812	9063
718.928	7777
719.045	7855
719.161	7448
719.277	7551
719.394	7927
719.510	8535
719.626	8051
719.743	9661
719.859	12948
719.975	23118
720.092	79814
720.208	173529
720.324	26569
720.440	10103
720.557	8260
720.673	9550
720.789	10088
720.905	14484
721.021	8623
721.137	7649
721.253	7441
721.369	7035
721.486	7008
721.602	7951
721.718	7162
721.834	6232
721.950	6621
722.066	6783
722.181	5193
722.297	7004
722.413	5918
722.529	6605
722.645	5996
722.761	6425
722.877	5656
722.993	7043
723.108	7462
723.224	7079
723.340	6284
723.456	6496
723.571	6266
723.687	6259
723.803	5442
723.918	5746
724.034	6046
724.150	5848
724.265	6194
724.381	7564
724.497	8103
724.612	6097
724.728	6188
724.843	5777
724.959	6056
725.074	7918
725.190	8251
725.305	6377
725.421	5272
725.536	5649
725.651	5732
725.767	5617
725.882	5934
725.997	6278
726.113	5238
726.228	5429
726.343	5151
726.459	5218
726.574	5830
726.689	6088
726.804	5549
726.920	5362
727.035	5254
727.150	5643
727.265	4589
727.380	5144
727.495	5588
727.610	5508
727.725	5397
727.841	5393
727.956	6705
728.071	6670
728.186	4460
728.301	4757
728.416	6194
728.531	5028
728.645	4846
728.760	5097
728.875	5172
728.990	5566
729.105	4592
729.220	5373
729.335	5324
729.449	4980
729.564	3753
729.679	4284
729.794	3972
729.908	5308
730.023	4094
730.138	5153
730.253	5418
730.367	5093
730.482	4532
730.596	4911
730.711	5388
730.826	6650
730.940	7071
731.055	5986
731.169	5716
731.284	5761
731.398	5377
731.513	6308
731.627	6110
731.742	7539
731.856	7737
731.970	8142
732.085	10209
732.199	12982
732.313	21149
732.428	52325
732.542	138319
732.656	81213
732.771	18281
732.885	11803
732.999	9468
733.113	10551
733.227	10084
733.342	9300
733.456	8461
733.570	8026
733.684	9057
733.798	8160
733.912	8330
734.026	8060
734.140	7308
734.254	8826
734.368	8630
734.482	9726
734.596	8361
734.710	7425
734.824	7170
734.938	7364
735.052	7710
735.166	8346
735.280	7533
735.393	6808
735.507	7386
735.621	7372
735.735	8468
735.849	7212
735.962	7205
736.076	7660
736.190	7204
736.303	7231
736.417	7427
736.531	6873
736.644	6551
736.758	6960
736.872	6427
736.985	6554
737.099	6776
737.212	5843
737.326	6747
737.439	7269
737.553	6394
737.666	7754
737.780	5894
737.893	6924
738.007	6451
738.120	5583
738.233	5749
738.347	5974
738.460	5636
738.573	6434
738.687	5639
738.800	6178
738.913	5902
739.026	6531
739.140	6067
739.253	6267
739.366	5209
739.479	5913
739.592	5155
739.705	5154
739.818	6104
739.932	5545
740.045	5922
740.158	5709
740.271	5950
740.384	6372
740.497	4826
740.610	6607
740.723	4282
740.836	6081
740.949	5722
741.062	6311
741.174	6070
741.287	5602
741.400	5961
741.513	4598
741.626	5118
741.739	5585
741.851	5107
741.964	6294
742.077	5201
742.189	5425
742.302	4518
742.415	5874
742.527	4709
742.640	5433
742.753	4950
742.865	4822
742.978	4802
743.090	4433
743.203	4711
743.316	4773
743.428	4850
743.541	4833
743.653	4398
743.766	4814
743.878	5565
743.990	5464
744.103	6429
744.215	6072
744.327	4450
744.440	5976
744.552	5437
744.664	4212
744.777	4501
744.889	4799
745.001	5487
745.113	4343
745.226	5057
745.338	4407
745.450	4752
745.562	4947
745.674	3344
745.786	4995
745.898	5292
746.010	5002
746.122	4044
746.234	4892
746.347	4567
746.459	5446
746.570	3996
746.682	5277
746.794	4705
746.906	4567
747.018	4450
747.130	5146
747.242	4608
747.354	4862
747.466	5116
747.577	5076
747.689	4351
747.801	5102
747.913	4106
748.024	4322
748.136	4644
748.248	5387
748.359	4784
748.471	4750
748.583	4344
748.694	3966
748.806	5276
748.918	4810
749.029	4841
749.141	5130
749.252	4548
749.364	4687
749.475	3998
749.587	4289
749.698	4258
749.809	5048
749.921	4719
750.032	5108
750.144	3392
750.255	4738
750.366	4003
750.478	5241
750.589	4547
750.700	4243
750.811	4549
750.923	4924
751.034	4142
751.145	5562
751.256	4605
751.367	4192
751.479	4726
751.590	4036
751.701	5029
751.812	4206
751.923	3767
752.034	5353
752.145	5056
752.256	4196
752.367	4343
752.478	4982
752.589	5087
752.700	4203
752.811	4554
752.922	4655
753.032	3932
753.143	5214
753.254	3997
753.365	5539
753.476	4140
753.586	4995
753.697	4924
753.808	4598
753.919	4355
754.029	4555
754.140	4778
754.251	4144
754.361	4580
754.472	4658
754.582	3855
754.693	5127
754.804	5085
754.914	4936
755.025	3972
755.135	5224
755.246	4731
755.356	5538
755.466	4836
755.577	5072
755.687	4197
755.798	5449
755.908	4575
756.018	4944
756.129	4698
756.239	5466
756.349	5401
756.460	5479
756.570	5325
756.680	5283
756.790	5286
756.900	6234
757.011	5458
757.121	5517
757.231	5260
757.341	6063
757.451	4900
757.561	5961
757.671	4748
757.781	4788
757.891	6169
758.001	4937
758.111	5672
758.221	6535
758.331	6558
758.441	6145
758.551	5044
758.661	5921
758.771	6576
758.880	6847
758.990	6826
759.100	6736
759.210	6638
759.320	7565
759.429	6304
759.539	7289
759.649	7269
759.758	8615
759.868	8244
759.978	7667
760.087	8294
760.197	8366
760.307	8235
760.416	8041
760.526	6961
760.635	8622
760.745	8430
760.854	8979
760.964	9522
761.073	10657
761.182	10118
761.292	9341
761.401	9038
761.511	9976
761.620	9010
761.729	9693
761.839	9209
761.948	10859
762.057	10513
762.166	10517
762.276	10256
762.385	11798
762.494	10896
762.603	12214
762.712	12753
762.822	12661
762.931	13578
763.040	12437
763.149	13616
763.258	15422
763.367	15261
763.476	15477
763.585	16732
763.694	17541
763.803	18448
763.912	19266
764.021	20954
764.130	21657
764.238	23908
764.347	25687
764.456	26417
764.565	30034
764.674	31908
764.783	34747
764.891	38648
765.000	43988
765.109	48612
765.217	54993
765.326	64247
765.435	74696
765.543	87716
765.652	106010
765.761	128527
765.869	161939
765.978	204781
766.086	260154
766.195	327980
766.303	381232
766.412	313210
766.520	284573
766.629	356617
766.737	321427
766.846	256573
766.954	199810
767.062	158236
767.171	123600
767.279	102397
767.387	83432
767.496	70622
767.604	61197
767.712	53990
767.820	48540
767.928	44072
768.037	41251
768.145	38822
768.253	38007
768.361	34744
768.469	36311
768.577	35750
768.685	38837
768.793	40749
768.901	44817
769.009	51448
769.117	63115
769.225	76327
769.333	99327
769.441	137040
769.549	196727
769.657	282660
769.765	349916
769.873	278833
769.981	311392
770.088	275003
770.196	199970
770.304	146088
770.412	109839
770.519	86623
770.627	70077
770.735	58844
770.842	49703
770.950	43582
771.058	38751
771.165	34165
771.273	31575
771.380	28934
771.488	27164
771.595	24273
771.703	22399
771.810	22160
771.918	20988
772.025	19712
772.133	19852
772.240	17527
772.348	18554
772.455	17120
772.562	16883
772.670	14879
772.777	15330
772.884	14344
772.991	13293
773.099	13028
773.206	12384
773.313	13030
773.420	13129
773.528	11087
773.635	11669
773.742	11804
773.849	11619
773.956	11647
774.063	11135
774.170	10581
774.277	11127
774.384	10092
774.491	9702
774.598	9758
774.705	9354
774.812	8863
774.919	9622
775.026	9276
775.133	9022
775.239	8600
775.346	8316
775.453	8243
775.560	7992
775.667	8780
775.773	7085
775.880	8334
775.987	8529
776.093	8182
776.200	7514
776.307	7245
776.413	7431
776.520	6835
776.627	7736
776.733	6442
776.840	5623
776.946	8144
777.053	6764
777.159	5906
777.266	6014
777.372	7135
777.478	7251
777.585	6197
777.691	6158
777.798	5656
777.904	6750
778.010	5865
778.117	6268
778.223	5753
778.329	6157
778.435	5248
778.542	6454
778.648	5381
778.754	5743
778.860	5042
778.966	5059
779.072	4616
779.178	5066
779.284	6129
779.391	5224
779.497	5162
779.603	8250
779.708	6880
779.815	15455
779.920	46092
780.026	85855
780.132	17430
780.238	7243
780.344	5330
780.450	6206
780.556	4570
780.661	4686
780.767	4351
780.873	4421
780.979	4703
781.085	4777
781.190	4523
781.296	4916
781.402	4452
781.507	4710
781.613	3925
781.719	4098
781.824	4693
781.930	5279
782.035	4029
782.141	4687
782.246	3497
782.352	3585
782.457	3932
782.563	4417
782.668	3398
782.773	4166
782.879	3216
782.984	4242
783.090	4500
783.195	3455
783.300	4542
783.405	3930
783.511	3363
783.616	4365
783.721	2784
783.826	3203
783.932	3838
784.037	3094
784.142	3736
784.247	2806
784.352	3434
784.457	2784
784.562	3121
784.667	4074
784.772	3372
784.877	2100
784.982	3050
785.087	3806
785.192	3850
785.297	2458
785.402	2865
785.507	3065
785.611	3463
785.716	2946
785.821	3333
785.926	3217
786.031	3255
786.135	3256
786.240	3142
786.345	1834
786.450	3802
786.554	3052
786.659	2287
786.763	2190
786.868	2482
786.973	3066
787.077	2603
787.182	2133
787.286	2759
787.391	3458
787.495	1791
787.600	2360
787.704	2184
787.809	3029
787.913	2276
788.017	3533
788.122	2475
788.226	3088
788.330	1602
788.435	2317
788.539	2726
788.643	2747
788.747	1485
788.852	2088
788.956	1588
789.060	3192
789.164	2321
789.268	1603
789.372	2844
789.476	1743
789.580	1564
789.684	1801
789.788	3085
789.892	3203
789.996	3009
790.100	1850
790.204	2455
790.308	2117
790.412	1411
790.516	2220
790.620	1784
790.724	3452
790.828	2177
790.931	1095
791.035	3379
791.139	2090
791.242	1508
791.346	3359
791.450	1654
791.554	1699
791.657	1329
791.761	2376
791.864	1696
791.968	2263
792.072	2811
792.175	2039
792.279	1223
792.382	1805
792.486	2301
792.589	2336
792.693	2556
792.796	1353
792.899	3336
793.003	2681
793.106	-286
793.209	1839
793.313	2332
793.416	561
793.519	2358
793.623	2024
793.726	2001
793.829	1311
793.932	1539
794.035	1280
794.138	2278
794.242	2788
794.345	2732
794.448	4173
794.551	6301
794.654	24344
794.757	51163
794.860	10013
794.963	3144
795.066	2282
795.169	2429
795.272	1545
795.375	1424
795.477	1015
795.580	1476
795.683	317
795.786	2124
795.889	248
795.991	2105
796.094	2571
796.197	290
796.300	2527
796.402	1456
796.505	1339
796.608	925
796.710	1843
796.813	2650
796.915	2296
797.018	2061
797.120	2314
797.223	1023
797.326	2325
797.428	1069
797.530	937
797.633	1603
797.735	2174
797.838	1848
797.940	3013
798.042	1068
798.145	1202
798.247	1589
798.349	223
798.452	2631
798.554	1034
798.656	-236
798.758	3297
798.860	1075
798.962	483
799.065	986
799.167	395
799.269	1653
799.371	1958
799.473	1668
799.575	1472
799.677	616
799.779	3278
799.881	-297
799.983	2513
800.085	1726
800.187	1888
800.289	537
800.390	1260
800.492	1959
800.594	1905
800.696	346
800.798	987
800.899	880
801.001	1526
801.103	1008
801.205	1885
801.306	1004
801.408	1036
801.509	1043
801.611	1842
801.713	1298
801.814	769
801.916	413
802.017	718
802.119	-418
802.220	1275
802.322	-289
802.423	2593
802.525	-625
802.626	1838
802.727	1494
802.829	1848
802.930	-825
803.031	1898
803.133	4
803.234	1356
803.335	1532
803.436	-29
803.538	761
803.639	464
803.740	1387
803.841	674
803.942	1111
804.043	1088
804.144	620
804.245	1382
804.346	758
804.447	882
804.548	690
804.649	2253
804.750	403
804.851	949
804.952	-166
805.053	755
805.154	100
805.255	1952
805.355	605
805.456	1267
805.557	351
805.658	229
805.758	772
805.859	660
805.960	353
806.061	991
806.161	416
806.262	1289
806.362	833
806.463	405
806.564	1015
806.664	1398
806.765	921
806.865	883
806.966	448
807.066	947
807.166	1184
807.267	1474
807.367	778
807.468	1788
807.568	-903
807.668	2171
807.769	2022
807.869	1124
807.969	772
808.069	1331
808.170	1269
808.270	667
808.370	859
808.470	758
808.570	-637
808.670	863
808.770	841
808.870	563
808.970	901
809.070	856
809.170	-125
809.271	602
809.370	-138
809.470	582
809.570	444
809.670	460
809.770	486
809.870	1569
809.970	1337
810.070	667
810.169	874
810.269	-359
810.369	1812
810.469	507
810.568	741
810.668	529
810.768	517
810.867	420
810.967	148
811.066	344
811.166	275
811.265	1605
811.365	-155
811.464	241
811.564	765
811.663	929
811.763	-369
811.862	1476
811.962	875
812.061	835
812.160	-96
812.260	1275
812.359	520
812.458	698
812.557	2768
812.657	2611
812.756	1227
812.855	279
812.954	-303
813.053	927
813.153	1016
813.252	-335
813.351	1522
813.450	1323
813.549	396
813.648	1158
813.747	111
813.846	1290
813.945	611
814.044	469
814.143	157
814.242	1472
814.341	93
814.439	2100
814.538	-18
814.637	266
814.736	228
814.835	915
814.933	556
815.032	1185
815.131	895
815.229	2112
815.328	3064
815.427	2594
815.525	1612
815.624	2841
815.722	1682
815.821	2414
815.919	1841
816.018	1836
816.116	2156
816.215	2408
816.313	1838
816.412	2919
816.510	2761
816.609	4611
816.707	3383
816.805	3489
816.904	1773
817.002	3719
817.100	4009
817.198	3333
817.296	2879
817.395	2350
817.493	3718
817.591	2099
817.689	2099
817.787	1389
817.885	2741
817.983	2838
818.081	3863
818.179	3914
818.277	6639
818.375	6059
818.473	2539
818.571	2875
818.669	3230
818.767	2565
818.865	3195
818.963	2562
819.061	2129
819.158	3598
819.256	5185
819.354	5480
819.452	10931
819.549	8039
819.647	4278
819.745	1876
819.842	2788
819.940	2309
820.038	2135
820.135	2381
820.233	2725
820.330	2117
820.428	2266
820.525	2786
820.623	2090
820.720	1732
820.818	1440
820.915	2748
821.012	2559
821.110	1416
821.207	2611
821.304	1777
821.402	2336
821.499	2551
821.596	2408
821.693	2496
821.791	2331
821.888	2071
821.985	2682
822.082	1579
822.179	1936
822.276	2875
822.373	1183
822.470	1848
822.567	1692
822.664	1145
822.761	1898
822.858	1392
822.955	1865
823.052	1262
823.149	1414
823.246	1726
823.343	668
823.440	1966
823.536	1243
823.633	1444
823.730	1662
823.827	1856
823.923	1147
824.020	2355
824.117	901
824.213	1000
824.310	1992
824.407	1733
824.503	2013
824.600	2114
824.696	752
824.793	1910
824.889	1711
824.986	1850
825.082	1155
825.179	2166
825.275	745
825.371	1311
825.468	2493
825.564	32
825.660	1612
825.757	2352
825.853	1269
825.949	477
826.045	1510
826.142	1223
826.238	1684
826.334	2031
826.430	1132
826.526	1760
826.622	1104
826.718	1064
826.814	1582
826.910	1977
827.006	1208
827.102	272
827.198	1664
827.294	1165
827.390	838
827.486	1290
827.582	150
827.678	1261
827.774	1984
827.869	503
827.965	1758
828.061	-3
828.157	689
828.252	1322
828.348	484
828.444	1865
828.539	44
828.635	1108
828.731	1474
828.826	886
828.922	1249
829.017	841
829.113	1229
829.208	228
829.304	480
829.399	2399
829.495	411
829.590	1304
829.685	106
829.781	1523
829.876	837
829.971	1099
830.066	680
830.162	565
830.257	1623
830.352	1006
830.447	1358
830.543	1736
830.638	-293
830.733	1522
830.828	180
830.923	1502
831.018	760
831.113	1235
831.208	-198
831.303	285
831.398	456
831.493	738
831.588	1206
831.683	264
831.778	1704
831.873	1012
831.967	2028
832.062	793
832.157	-406
832.252	1478
832.346	391
832.441	1040
832.536	1330
832.631	1127
832.725	1518
832.820	1080
832.914	517
833.009	-17
833.104	107
833.198	717
833.293	67
833.387	1243
833.482	1076
833.576	418
833.670	1144
833.765	910
833.859	155
833.954	972
834.048	821
834.142	885
834.237	-493
834.331	106
834.425	1475
834.519	-564
834.613	703
834.708	424
834.802	753
834.896	1028
834.990	263
835.084	1421
835.178	718
835.272	974
835.366	1051
835.460	1182
835.554	694
835.648	1197
835.742	-276
835.836	542
835.930	-918
836.024	722
836.117	1298
836.211	304
836.305	1010
836.399	1571
836.493	-347
836.586	1873
836.680	-530
836.774	-665
836.867	1818
836.961	279
837.055	50
837.148	268
837.242	207
837.335	531
837.429	849
837.522	296
837.616	-257
837.709	462
837.803	-683
837.896	720
837.989	-368
838.083	1002
838.176	463
838.269	-288
838.363	1441
838.456	-695
838.549	482
838.642	-111
838.735	932
838.829	1212
838.922	152
839.015	351
839.108	-130
839.201	810
839.294	261
839.387	889
839.480	-884
839.573	1019
839.666	125
839.759	765
839.852	-136
839.945	321
840.038	189
840.131	531
840.223	224
840.316	956
840.409	808
840.502	-314
840.594	1017
840.687	-982
840.780	476
840.873	-634
840.965	-862
841.058	1167
841.150	659
841.243	356
841.336	1125
841.428	493
841.521	-839
841.613	366
841.706	205
841.798	683
841.890	842
841.983	-102
842.075	307
842.167	-35
842.260	-498
842.352	685
842.444	826
842.537	988
842.629	1654
842.721	208
842.813	-1077
842.905	-1021
842.997	79
843.090	947
843.182	264
843.274	-118
843.366	1969
843.458	2956
843.550	2624
843.642	399
843.734	437
843.826	70
843.918	505
844.009	209
844.101	-49
844.193	-271
844.285	-755
844.377	574
844.469	448
844.560	-596
844.652	-542
844.744	882
844.835	-654
844.927	207
845.019	576
845.110	742
845.202	468
845.293	739
845.385	315
845.476	214
845.568	501
845.659	110
845.751	246
845.842	-196
845.934	-273
846.025	128
846.116	-40
846.208	-832
846.299	-267
846.390	-199
846.482	-540
846.573	1285
846.664	297
846.755	-168
846.846	689
846.937	-677
847.029	17
847.120	424
847.211	-808
847.302	291
847.393	-990
847.484	518
847.575	-235
847.666	-153
847.757	-983
847.847	147
847.938	670
848.029	-484
848.120	-561
848.211	469
848.302	-906
848.392	119
848.483	373
848.574	-674
848.664	-1
848.755	828
848.846	-589
848.936	-430
849.027	226
849.118	337
849.208	-476
849.299	388
849.389	485
849.480	2266
849.570	5197
849.661	8933
849.751	14314
849.841	4842
849.932	1024
850.022	-337
850.112	431
850.203	-589
850.293	-635
850.383	-310
850.474	-429
850.564	-408
850.654	-25
850.744	-331
850.834	-398
850.924	-357
851.014	189
851.104	6
851.194	-85
851.284	306
851.374	585
851.464	-370
851.554	-502
851.644	-198
851.734	451
851.824	429
851.914	918
852.004	2697
852.094	1694
852.183	-287
852.273	-207
852.363	473
852.452	439
852.542	515
852.632	-892
852.721	736
852.811	-733
852.901	232
852.990	-405
853.080	-302
853.169	415
853.259	-151
853.348	-352
853.438	507
853.527	31
853.617	581
853.706	3134
853.795	5857
853.885	12543
853.974	23384
854.063	41752
854.152	58465
854.242	23127
854.331	5437
854.420	1905
854.509	1622
854.598	704
854.687	675
854.777	71
854.866	222
854.955	738
855.044	165
855.133	-504
855.222	364
855.311	-711
855.400	332
855.488	-167
855.577	153
855.666	-590
855.755	508
855.844	401
855.933	76
856.021	112
856.110	-662
856.199	-1038
856.288	-485
856.376	-1017
856.465	-483
856.554	-228
856.642	-50
856.731	12
856.819	476
856.908	-232
856.996	206
857.085	-965
857.173	-378
857.262	-51
857.350	-108
857.438	156
857.527	48
857.615	-649
857.703	-493
857.792	193
857.880	170
857.968	-529
858.056	29
858.145	-679
858.233	-795
858.321	-1214
858.409	351
858.497	-224
858.585	-915
858.673	-516
858.761	-270
858.849	-1135
858.937	-458
859.025	-864
859.113	-838
859.201	-984
859.289	517
859.377	-737
859.465	-101
859.552	334
859.640	-337
859.728	-38
859.816	35
859.903	-225
859.991	-856
860.079	-860
860.166	214
860.254	-516
860.342	298
860.429	-366
860.517	-149
860.604	388
860.692	38
860.779	-981
860.867	-138
860.954	-855
861.042	-407
861.129	-119
861.216	363
861.304	-550
861.391	11
861.478	-430
861.565	-484
861.653	-468
861.740	-313
861.827	-1115
861.914	-306
862.001	-472
862.089	-63
862.176	-607
862.263	-212
862.350	-867
862.437	-187
862.524	-867
862.611	-252
862.698	187
862.785	672
862.871	-28
862.958	-452
863.045	-626
863.132	166
863.219	-102
863.306	-890
863.392	-498
863.479	-190
863.566	-698
863.652	321
863.739	-502
863.826	266
863.912	-320
863.999	-100
864.086	-358
864.172	466
864.259	381
864.345	250
864.432	-154
864.518	-123
864.604	-221
864.691	-187
864.777	-317
864.863	447
864.950	199
865.036	956
865.122	2923
865.209	3252
865.295	3133
865.381	2148
865.467	1421
865.553	2695
865.639	2433
865.726	4434
865.812	7320
865.898	13990
865.984	19359
866.070	33334
866.156	35494
866.242	13030
866.328	3325
866.414	3136
866.499	2386
866.585	1959
866.671	1669
866.757	3180
866.843	2591
866.928	1567
867.014	1501
867.100	3165
867.186	1566
867.271	607
867.357	1258
867.442	2250
867.528	1366
867.614	2077
867.699	1646
867.785	2457
867.870	1130
867.956	1430
868.041	1639
868.127	1485
868.212	424
868.297	1974
868.383	1335
868.468	1732
868.553	1692
868.639	1846
868.724	1995
868.809	2252
868.894	882
868.979	1768
869.065	906
869.150	918
869.235	1732
869.320	1302
869.405	1028
869.490	927
869.575	1423
869.660	889
869.745	1006
869.830	1616
869.915	1015
870.000	923
870.085	991
870.169	1341
870.254	641
870.339	690
870.424	731
870.509	1521
870.593	1272
870.678	1700
870.763	875
870.847	-105
870.932	399
871.016	1588
871.101	1413
871.186	1582
871.270	1287
871.355	455
871.439	966
871.523	483
871.608	492
871.692	355
871.777	991
871.861	691
871.945	1184
872.030	1322
872.114	235
872.198	567
872.282	213
872.367	356
872.451	269
872.535	317
872.619	1975
872.703	877
872.787	468
872.871	385
872.955	901
873.039	-429
873.123	88
873.207	1174
873.291	-13
873.375	-210
873.459	220
873.543	1233
873.627	529
873.711	927
873.794	596
873.878	477
873.962	-43
874.045	363
874.129	818
874.137	786
874.213	464
874.245	482
874.296	518
874.352	161
874.380	-18
874.460	564
874.464	587
874.547	967
874.568	1012
874.631	1116
874.676	873
874.714	678
874.784	977
874.798	1035
874.881	2051
874.892	1800
874.965	105
874.999	506
875.048	1017
875.107	635
875.131	485
875.215	109
875.215	109
875.298	452
875.323	411
875.381	339
875.430	614
875.465	771
875.538	476
875.548	439
875.631	479
875.646	367
875.714	-202
875.753	-167
875.798	-32
875.861	742
875.881	924
875.964	254
875.968	246
876.047	375
876.076	492
876.130	585
876.183	737
876.213	872
876.291	568
876.296	535
876.379	585
876.398	599
876.462	774
876.506	944
876.545	1051
876.613	364
876.628	208
876.711	700
876.721	648
876.794	440
876.828	464
876.877	425
876.935	638
876.960	732
877.043	681
877.043	679
877.125	293
877.150	468
877.208	799
877.258	307
877.291	86
877.365	465
877.374	479
877.456	422
877.472	474
877.539	806
877.579	592
877.622	357
877.687	461
877.704	512
877.787	568
877.794	613
877.869	941
877.901	848
877.952	778
878.008	727
878.034	645
878.115	-283
878.117	-294
878.199	932
878.222	787
878.282	236
878.329	585
878.364	951
878.437	783
878.447	714
878.529	267
878.544	286
878.611	649
878.651	664
878.694	563
878.758	324
878.776	308
878.858	1125
878.865	1106
878.941	441
878.972	186
879.023	134
879.078	298
879.105	397
879.185	1081
879.187	1094
879.269	1124
879.292	1122
879.351	808
879.399	433
879.433	422
879.506	1158
879.516	1204
879.598	387
879.613	349
879.680	363
879.720	398
879.762	575
879.827	860
879.844	865
879.926	623
879.933	676
880.007	976
880.040	556
880.089	261
880.147	771
880.171	982
880.253	1562
880.254	1563
880.335	1789
880.360	1459
880.417	1165
880.467	1759
880.499	1993
880.574	2493
880.580	2497
880.662	1633
880.680	1460
880.744	918
880.787	635
880.825	445
880.893	319
880.907	376
880.989	1332
881.000	1340
881.070	1169
881.106	1118
881.152	1162
881.213	940
881.233	771
881.315	672
881.319	667
881.396	1145
881.426	1155
881.478	806
881.532	828
881.559	1086
881.639	1144
881.641	1132
881.722	962
881.745	921
881.803	1332
881.852	1315
881.885	909
881.958	436
881.966	498
882.047	1134
882.064	1233
882.129	1021
882.171	911
882.210	970
882.277	1039
882.291	1017
882.372	520
882.383	537
882.454	1442
882.489	1696
882.535	1406
882.596	1294
882.616	1374
882.697	1034
882.702	1034
882.778	983
882.808	983
882.859	822
882.914	573
882.940	548
883.020	373
883.021	381
883.102	1090
883.127	1367
883.183	1596
883.233	1412
883.264	1195
883.339	998
883.345	997
883.426	753
883.445	774
883.507	1040
883.551	1016
883.587	1039
883.657	1465
883.668	1611
883.749	1986
883.763	2081
883.830	1056
883.869	488
883.910	739
883.975	1211
883.991	1104
884.072	406
884.081	354
884.152	1414
884.187	1811
884.233	1612
884.292	1314
884.314	1250
884.394	1078
884.398	1057
884.475	738
884.504	676
884.555	968
884.610	1187
884.636	1030
884.716	773
884.716	785
884.797	1770
884.821	2133
884.877	1708
884.927	1169
884.958	1179
885.033	1297
885.038	1264
885.118	640
885.139	474
885.199	859
885.244	1227
885.279	1309
885.350	1319
885.359	1373
885.439	1699
885.456	1748
885.520	1496
885.561	1441
885.600	1329
885.667	1132
885.680	1150
885.760	1139
885.773	1116
885.840	928
885.878	954
885.920	1037
885.984	1003
886.000	1031
886.080	1082
886.089	1114
886.160	1520
886.195	1498
886.240	1197
886.300	1175
886.320	1241
886.400	1087
886.406	1084
886.480	1565
886.511	1739
886.560	1290
886.616	808
886.640	1001
886.720	1720
886.722	1728
886.800	1430
886.827	1306
886.879	1722
886.932	2317
886.959	2576
887.038	2937
887.039	2939
887.119	2341
887.143	2081
887.198	1952
887.248	1902
887.278	1865
887.354	1567
887.358	1565
887.437	1674
887.459	1585
887.517	1954
887.564	2501
887.596	2436
887.669	1900
887.676	1863
887.755	1438
887.774	1346
887.835	1018
887.880	801
887.914	1314
887.985	2147
887.994	2091
888.073	1679
888.090	1560
888.153	2083
888.195	2501
888.232	2090
888.300	1205
888.311	1290
888.391	1918
888.405	2018
888.470	1171
888.510	629
888.549	1239
888.615	2340
888.628	2269
888.708	1737
888.720	1648
888.787	2159
888.825	2407
888.866	1780
888.930	838
888.945	1108
889.024	2523
889.035	2701
889.103	2276
889.140	2036
889.182	2269
889.245	2620
889.261	2551
889.340	2171
889.349	2118
889.419	2661
889.454	2939
889.498	2369
889.559	1544
889.577	1673
889.656	2232
889.664	2282
889.735	2102
889.768	2007
889.814	1734
889.873	1361
889.978	1775
890.083	2221
890.187	1313
890.292	2492
890.397	1522
890.501	1183
890.606	949
890.710	1717
890.815	2451
890.919	2214
891.024	2591
891.128	1482
891.233	2036
891.337	2726
891.442	1710
891.546	2473
891.650	864
891.755	1171
891.859	2627
891.963	2885
892.068	148
892.172	2187
892.276	669
892.380	2029
892.484	1688
892.589	2366
892.693	1355
892.797	1267
892.901	893
893.005	2292
893.109	1280
893.213	2312
893.317	1516
893.421	1950
893.525	148
893.629	896
893.733	1606
893.837	1626
893.941	1816
894.045	2768
894.148	1756
894.252	4340
894.356	1897
894.460	3319
894.564	1488
894.667	2498
894.771	785
894.875	642
894.978	1564
895.082	2102
895.186	2605
895.289	2520
895.393	2077
895.496	1790
895.600	804
895.703	1295
895.807	1218
895.910	1501
896.014	1516
896.117	2417
896.221	1552
896.324	2275
896.427	1204
896.531	1601
896.634	965
896.737	1982
896.840	1586
896.944	1940
897.047	1730
897.150	1663
897.253	684
897.356	2042
897.460	1007
897.563	1111
897.666	1113
897.769	1936
897.872	1010
897.975	1897
898.078	842
898.181	1396
898.284	959
898.387	1146
898.490	1689
898.593	1918
898.695	955
898.798	1544
898.901	1026
899.004	1741
899.107	897
899.209	2220
899.312	1332
899.415	2030
899.518	798
899.620	1355
899.723	986
899.826	1522
899.928	907
900.031	1880
900.133	1475
900.236	2029
900.338	434
900.441	791
900.543	922
900.646	1509
900.748	253
900.851	1452
900.953	1027
901.055	976
901.158	750
901.260	1329
901.362	241
901.465	361
901.567	777
901.669	2530
901.771	1136
901.873	1186
901.976	1082
902.078	1167
902.180	316
902.282	1143
902.384	829
902.486	1505
902.588	1178
902.690	921
902.792	723
902.894	1718
902.996	708
903.098	1213
903.200	932
903.302	1286
903.404	668
903.505	1383
903.607	1051
903.709	2236
903.811	1300
903.913	2556
904.014	1257
904.116	412
904.218	518
904.319	1408
904.421	1164
904.523	1942
904.624	988
904.726	2040
904.827	411
904.929	1059
905.030	468
905.132	1931
905.233	299
905.335	1127
905.436	276
905.537	1221
905.639	645
905.740	1688
905.841	1425
905.943	987
906.044	1271
906.145	1782
906.247	387
906.348	1297
906.449	1276
906.550	1286
906.651	738
906.752	1169
906.854	-60
906.955	1027
907.056	1397
907.157	1174
907.258	1070
907.359	801
907.460	280
907.561	878
907.662	801
907.762	1235
907.863	1000
907.964	2167
908.065	1172
908.166	759
908.267	307
908.367	690
908.468	12
908.569	1691
908.670	1660
908.770	1704
908.871	1439
908.971	1850
909.072	1384
909.173	922
909.273	688
909.374	1677
909.474	807
909.575	1961
909.675	774
909.776	1999
909.876	1640
909.977	1030
910.077	998
910.177	1909
910.278	375
910.378	1380
910.478	732
910.579	741
910.679	935
910.779	1003
910.879	220
910.980	1313
911.080	578
911.180	739
911.280	230
911.380	710
911.480	524
911.580	1238
911.680	741
911.780	2182
911.880	661
911.980	1471
912.080	1537
912.180	559
912.280	475
912.380	704
912.480	527
912.580	1207
912.679	87
912.779	1267
912.879	1235
912.979	1934
913.078	-25
913.178	1031
913.278	47
913.377	1376
913.477	257
913.577	1371
913.676	1785
913.776	1375
913.875	117
913.975	1621
914.074	1031
914.174	1357
914.273	653
914.373	2213
914.472	430
914.572	1034
914.671	584
914.770	883
914.870	285
914.969	797
915.068	1298
915.167	1666
915.267	104
915.366	1563
915.465	1005
915.564	1118
915.663	500
915.763	933
915.862	1285
915.961	1839
916.060	498
916.159	1453
916.258	30
916.357	1791
916.456	746
916.555	1189
916.654	1031
916.752	1746
916.851	1233
916.950	1518
917.049	775
917.148	1290
917.247	723
917.345	1082
917.444	665
917.543	834
917.642	963
917.740	1531
917.839	1919
917.937	1745
918.036	1079
918.135	856
918.233	-285
918.332	-5
918.430	-113
918.529	1348
918.627	403
918.726	2018
918.824	1322
918.923	1067
919.021	-236
919.119	1010
919.218	599
919.316	1520
919.414	995
919.512	956
919.611	411
919.709	1450
919.807	1021
919.905	1797
920.003	1115
920.102	1411
920.200	440
920.298	2738
920.396	918
920.494	1703
920.592	1007
920.690	1512
920.788	1036
920.886	1190
920.984	1750
921.082	1913
921.180	1358
921.277	1821
921.375	2104
921.473	2901
921.571	1457
921.669	2680
921.766	2393
921.864	3108
921.962	2401
922.060	2793
922.157	1673
922.255	3727
922.352	2601
922.450	3074
922.548	3063
922.645	3470
922.743	3575
922.840	5931
922.938	6961
923.035	7338
923.133	6624
923.230	7120
923.327	7992
923.425	7590
923.522	6935
923.619	7032
923.717	5832
923.814	7185
923.911	5480
924.008	6344
924.106	6103
924.203	5883
924.300	6427
924.397	6407
924.494	5940
924.591	6064
924.688	4516
924.786	6042
924.883	6107
924.979	6193
925.077	5859
925.173	6894
925.270	6633
925.367	5626
925.464	6184
925.561	6789
925.658	6953
925.755	6327
925.852	6320
925.948	6405
926.045	5532
926.142	5487
926.239	5978
926.335	4830
926.432	4797
926.529	6083
926.625	6559
926.722	5494
926.818	4935
926.915	5977
927.011	4701
927.108	5572
927.204	5455
927.301	5088
927.397	5310
927.494	6220
927.590	4178
927.687	5573
927.783	5649
927.879	5360
927.976	3993
928.072	4563
928.168	6161
928.264	6110
928.361	4353
928.457	5747
928.553	4446
928.649	5748
928.745	4323
928.841	4526
928.937	5064
929.033	6041
929.129	4843
929.225	5348
929.321	4438
929.417	4782
929.513	4560
929.609	4530
929.705	3914
929.801	4972
929.897	4171
929.993	4837
930.089	3844
930.184	4667
930.280	4647
930.376	6018
930.471	3542
930.567	4221
930.663	4866
930.758	4168
930.854	4486
930.950	4557
931.045	3148
931.141	4525
931.236	5335
931.332	5411
931.427	3107
931.523	5216
931.618	4334
931.714	3773
931.809	3444
931.905	4573
932.000	2553
932.095	2628
932.191	5146
932.286	5015
932.381	4208
932.476	3539
932.572	3765
932.667	3747
932.762	3194
932.857	4233
932.952	4519
933.047	3826
933.142	2352
933.237	4420
933.332	4102
933.427	4494
933.522	3772
933.617	2804
933.712	3773
933.807	4959
933.902	4512
933.997	5142
934.092	3840
934.187	3365
934.282	3391
934.376	4055
934.471	4488
934.566	3910
934.661	3250
934.755	3630
934.850	4367
934.945	4341
935.039	2604
935.134	2773
935.228	2949
935.323	5380
935.417	2688
935.512	2615
935.606	2968
935.701	3321
935.795	3381
935.890	3454
935.984	3404
936.079	2648
936.173	3499
936.267	3736
936.362	1705
936.456	3380
936.550	4443
936.644	3710
936.738	2687
936.833	3071
936.927	2245
937.021	3006
937.115	3482
937.209	3951
937.303	3010
937.397	2501
937.491	2147
937.585	3475
937.679	2942
937.773	2766
937.867	2440
937.961	2489
938.055	3651
938.149	3916
938.243	2483
938.337	2213
938.430	2485
938.524	4024
938.618	1643
938.712	2792
938.805	2603
938.899	4001
938.993	3043
939.086	2846
939.180	839
939.274	2391
939.367	3418
939.461	3816
939.554	2600
939.648	2604
939.741	2067
939.835	3120
939.928	4093
940.022	3978
940.115	1691
940.208	3751
940.302	3348
940.395	5299
940.488	2811
940.582	2770
940.675	590
940.768	2504
940.861	2267
940.954	4153
941.048	2235
941.141	1896
941.234	1616
941.327	3009
941.420	2652
941.513	3838
941.606	2079
941.699	3351
941.792	2597
941.885	3253
941.978	2037
942.071	2400
942.164	1721
942.257	2471
942.349	2094
942.442	2863
942.535	2236
942.628	2491
942.721	1597
942.813	2030
942.906	2527
942.999	2534
943.091	1865
943.184	2502
943.277	1327
943.369	2269
943.462	1570
943.554	2783
943.647	914
943.739	3922
943.832	2343
943.924	1093
944.017	722
944.109	1468
944.201	1860
944.294	2163
944.386	2090
944.478	2435
944.571	1421
944.663	2740
944.755	1002
944.847	2223
944.940	1784
945.032	900
945.124	1551
945.216	2610
945.308	1241
945.400	3419
945.492	2254
945.584	3225
945.676	2701
945.768	2191
945.860	1744
945.952	3230
946.044	2098
946.136	2062
946.228	1907
946.320	2336
946.412	2152
946.503	2448
946.595	2566
946.687	1879
946.779	987
946.870	2143
946.962	1462
947.054	1715
947.145	2048
947.237	1129
947.329	1913
947.420	2889
947.512	2016
947.603	871
947.695	828
947.786	1742
947.878	1283
947.969	2710
948.061	1719
948.152	2183
948.243	777
948.335	1797
948.426	676
948.517	2022
948.609	1794
948.700	2138
948.791	1413
948.882	1514
948.973	1093
949.065	1585
949.156	1803
949.247	632
949.338	2006
949.429	1356
949.520	745
949.611	2209
949.702	1687
949.793	1999
949.884	1770
949.975	1241
950.066	233
950.157	1877
950.247	757
950.338	1761
950.429	1459
950.520	2708
950.611	1141
950.701	1881
950.792	2171
950.883	1961
950.973	1281
951.064	1435
951.155	2099
951.245	2072
951.336	1993
951.427	1950
951.517	2243
951.608	1686
951.698	297
951.788	1307
951.879	363
951.969	1507
952.060	1034
952.150	1634
952.240	2878
952.331	1009
952.421	1724
952.511	990
952.602	458
952.692	545
952.782	851
952.872	1899
952.962	1350
953.052	1477
953.143	-112
953.233	1460
953.323	1384
953.413	1048
953.503	1553
953.593	2010
953.683	1381
953.773	647
953.863	363
953.953	555
954.042	1415
954.132	1460
954.222	1619
954.312	1590
954.402	1184
954.492	1209
954.581	981
954.671	1656
954.761	695
954.850	2026
954.940	791
955.030	841
955.119	1005
955.209	1851
955.298	1121
955.388	1449
955.477	1779
955.567	729
955.656	695
955.746	1369
955.835	579
955.925	925
956.014	842
956.103	1686
956.193	2154
956.282	2124
956.371	1876
956.461	1375
956.550	901
956.639	1189
956.728	602
956.817	2620
956.906	1023
956.995	1705
957.085	235
957.174	1021
957.263	1816
957.352	1449
957.441	978
957.530	1925
957.619	-96
957.708	1205
957.796	184
957.885	1763
957.974	635
958.063	1622
958.152	485
958.241	1887
958.329	752
958.418	2100
958.507	1087
958.596	2420
958.684	923
958.773	2054
958.861	428
958.950	1190
959.039	1525
959.127	1957
959.216	2127
959.304	1993
959.393	929
959.481	2460
959.570	1017
959.658	1360
959.746	805
959.835	1482
959.923	1568
960.011	997
960.100	1296
960.188	1933
960.276	1328
960.365	1760
960.453	636
960.541	1753
960.629	609
960.717	1034
960.805	-834
960.893	1364
960.981	1029
961.069	3524
961.158	1293
961.245	2159
961.333	990
961.421	1072
961.509	334
961.597	1834
961.685	451
961.773	594
961.861	186
961.949	2219
962.036	658
962.124	1918
962.212	619
962.299	1169
962.387	-371
962.475	1444
962.562	267
962.650	1001
962.738	611
962.825	364
962.913	673
963.000	763
963.088	673
963.175	1691
963.263	1092
963.350	790
963.438	-3
963.525	933
963.612	853
963.700	1535
963.787	3768
963.874	1739
963.962	1182
964.049	1141
964.136	-224
964.223	632
964.310	383
964.398	1184
964.485	372
964.572	1317
964.659	1231
964.746	1820
964.833	330
964.920	673
965.007	149
965.094	819
965.181	185
965.268	970
965.355	196
965.441	780
965.528	271
965.615	1613
965.702	689
965.789	341
965.875	219
965.962	1482
966.049	959
966.136	1641
966.222	386
966.309	1463
966.395	-124
966.482	2179
966.569	-1
966.655	1251
966.742	289
966.828	1023
966.915	-153
967.001	108
967.087	-426
967.174	414
967.260	581
967.347	680
967.433	953
967.519	2904
967.605	615
967.692	899
967.778	126
967.864	604
967.950	204
968.036	743
968.123	246
968.209	635
968.295	207
968.381	1824
968.467	494
968.553	136
968.639	782
968.725	-139
968.811	568
968.897	1836
968.983	-365
969.069	446
969.154	87
969.240	1265
969.326	-475
969.412	314
969.497	343
969.583	931
969.669	1152
969.755	1112
969.840	241
969.926	808
970.012	2130
970.097	3544
970.183	784
970.268	1549
970.354	965
970.439	1016
970.525	1086
970.610	-46
970.696	1434
970.781	1549
970.866	-320
970.952	2039
971.037	-65
971.122	-117
971.208	709
971.293	786
971.378	-920
971.463	851
971.549	292
971.634	934
971.719	480
971.804	365
971.889	422
971.974	576
972.059	88
972.144	736
972.229	-715
972.314	303
972.399	249
972.484	508
972.569	562
972.654	598
972.739	1674
972.824	1286
972.908	14
972.993	346
973.078	206
973.163	358
973.247	401
973.332	-973
973.417	1052
973.501	355
973.586	443
973.671	486
973.755	-370
973.840	1087
973.924	945
974.009	1367
974.093	673
974.178	2346
974.262	1569
974.346	1252
974.431	1115
974.515	1746
974.600	382
974.684	1155
974.768	182
974.852	2069
974.937	-748
975.021	1627
975.105	115
975.189	304
975.273	1322
975.358	211
975.442	18
975.526	947
975.610	11
975.694	643
975.778	695
975.862	1674
975.946	-1396
976.030	2206
976.114	-136
976.198	1048
976.281	765
976.365	1976
976.449	-266
976.533	449
976.617	50
976.700	-312
976.784	601
976.868	826
976.951	186
977.035	85
977.119	665
977.202	579
977.286	610
977.369	1288
977.453	1474
977.536	1980
977.620	300
977.703	1340
977.787	45
977.870	1726
977.953	932
978.037	69
978.120	1157
978.203	297
978.287	638
978.370	831
978.453	228
978.536	255
978.620	1012
978.703	867
978.786	78
978.869	903
978.952	-121
979.035	1800
979.118	365
979.201	1088
979.284	1027
979.367	669
979.450	44
979.533	-119
979.616	-199
979.699	477
979.782	-252
979.865	591
979.948	145
980.030	694
980.113	93
980.196	429
980.279	571
980.361	310
980.444	-327
980.526	1836
980.609	-111
980.692	1730
980.774	1670
980.857	749
980.939	1352
981.022	662
981.104	305
981.187	1459
981.269	1052
981.352	975
981.434	66
981.516	438
981.599	1521
981.681	1489
981.763	98
981.846	133
981.928	698
982.010	451
982.092	-13
982.174	1206
982.256	-442
982.339	870
982.421	1167
982.503	1594
982.585	-220
982.667	989
982.749	1150
982.831	411
982.913	-68
982.995	1706
983.077	-384
983.158	1927
983.240	-525
983.322	2103
983.404	1450
983.486	1758
983.568	1468
983.649	1395
983.731	1205
983.813	1114
983.894	426
983.976	1123
984.058	211
984.139	918
984.221	-169
984.302	2679
984.384	-280
984.465	1045
984.547	642
984.628	732
984.710	919
984.791	971
984.872	-507
984.954	286
985.035	951
985.116	778
985.198	-55
985.279	2076
985.360	315
985.441	1010
985.522	885
985.604	769
985.685	-1181
985.766	1861
985.847	1205
985.928	557
986.009	302
986.090	1355
986.171	402
986.252	453
986.333	903
986.414	1435
986.495	-174
986.576	562
986.656	305
986.737	1948
986.818	660
986.899	1094
986.980	453
987.060	1990
987.141	349
987.222	1960
987.302	1561
987.383	1833
987.464	685
987.544	1797
987.625	1640
987.705	1251
987.786	1271
987.866	1871
987.947	737
988.027	1332
988.108	634
988.188	1542
988.268	1019
988.349	2170
988.429	1456
988.509	667
988.589	842
988.670	136
988.750	2183
988.830	429
988.910	1443
988.990	996
989.070	889
989.151	1389
989.231	651
989.311	1931
989.391	471
989.471	437
989.551	610
989.631	1148
989.711	1128
989.791	1230
989.870	125
989.950	1684
990.030	-135
990.110	1439
990.190	-670
990.269	777
990.349	-538
990.429	1685
990.509	654
990.588	776
990.668	25
990.747	1736
990.827	578
990.907	1653
990.986	11
991.066	1755
991.145	480
991.225	1903
991.304	665
991.383	1122
991.463	119
991.542	1299
991.622	-85
991.701	443
991.780	75
991.859	355
991.939	436
992.018	567
992.097	963
992.176	930
992.256	229
992.335	755
992.414	986
992.493	423
992.572	968
992.651	1759
992.730	-313
992.809	952
992.888	-653
992.967	1057
993.046	394
993.125	-575
993.203	20
993.282	705
993.361	-993
993.440	595
993.519	-424
993.597	301
993.676	97
993.755	1753
993.834	76
993.912	-39
993.991	178
994.069	71
994.148	-420
994.226	727
994.305	361
994.384	-136
994.462	1384
994.540	-203
994.619	-120
994.697	953
994.776	362
994.854	1635
994.932	-371
995.011	726
995.089	-116
995.167	56
995.245	333
995.324	-303
995.402	48
995.480	26
995.558	239
995.636	-367
995.714	15
995.792	302
995.870	-1001
995.948	226
996.026	-40
996.104	53
996.182	237
996.260	-269
996.338	-456
996.416	-532
996.494	-519
996.572	1528
996.649	8
996.727	231
996.805	-687
996.883	-92
996.960	-567
997.038	1054
997.116	96
997.193	-600
997.271	-228
997.348	-242
997.426	-363
997.504	-908
997.581	-182
997.658	482
997.736	-1694
997.813	-437
997.891	-441
997.968	490
998.046	45
998.123	218
998.200	-570
998.277	35
998.355	-256
998.432	-981
998.509	-273
998.586	569
998.663	344
998.741	354
998.818	-954
998.895	-956
998.972	-546
999.049	487
999.126	-299
999.203	553
999.280	-1148
999.357	-116
999.434	-554
999.511	-200
999.587	105
999.664	-909
999.741	-460
999.818	1188
999.895	-1284
999.971	53
1000.048	-1670
1000.125	460
1000.202	-720
1000.278	100
1000.355	-547
1000.431	-714
1000.508	-1297
1000.584	237
1000.661	-902
1000.738	-1586
1000.814	-1219
1000.890	66
1000.967	-695
1001.043	-50
1001.120	-1179
1001.196	-359
1001.272	-1153
1001.349	410
1001.425	-946
1001.501	80
1001.577	-1827
1001.654	1312
1001.730	-1218
1001.806	-617
1001.882	-1791
1001.958	-605
1002.034	-45
1002.110	-153
1002.186	-1421
1002.262	-633
1002.338	-1266
1002.414	438
1002.490	-530
1002.566	-713
1002.642	-1307
1002.718	-18
1002.794	-1633
1002.870	-437
1002.945	-1287
1003.021	-520
1003.097	-621
1003.173	-46
1003.248	-973
1003.324	-503
1003.400	-1056
1003.475	-937
1003.551	-729
1003.626	-478
1003.702	-950
1003.777	113
1003.853	-1282
1003.928	89
1004.004	-1459
1004.079	264
1004.155	-649
1004.230	-1860
1004.305	219
1004.381	-335
1004.456	-770
1004.531	-707
1004.607	-1741
1004.682	-1290
1004.757	-1486
1004.832	-966
1004.907	-1009
1004.982	-479
1005.057	-922
1005.133	-941
1005.208	-1284
1005.283	-103
1005.358	-815
1005.433	-247
1005.508	-1348
1005.583	-1072
1005.657	-1492
1005.732	-215
1005.807	-350
1005.882	-608
1005.957	-1211
1006.032	-597
1006.106	-1498
1006.181	-545
1006.256	-848
1006.331	-1013
1006.405	-1145
1006.480	-422
1006.554	-703
1006.629	-1202
1006.704	-1622
1006.778	-769
1006.853	-1051
1006.927	-614
1007.002	-1814
1007.076	-1032
1007.150	-1447
1007.225	-666
1007.299	-831
1007.373	-1586
1007.448	-786
1007.522	495
1007.596	-966
1007.671	-610
1007.745	-844
1007.819	-811
1007.893	-1369
1007.967	526
1008.041	-1382
1008.115	-41
1008.190	-1154
1008.264	690
1008.338	-2024
1008.412	-745
1008.486	-1487
1008.560	-367
1008.633	-1125
1008.707	-120
1008.781	-867
1008.855	-859
1008.929	-331
1009.003	-1502
1009.076	-1756
1009.150	-1141
1009.224	-1904
1009.298	-15
1009.371	-2031
1009.445	-1180
1009.519	-1635
1009.592	-1811
1009.666	-741
1009.739	-803
1009.813	-1888
1009.886	-81
1009.960	-1983
1010.033	76
1010.107	-387
1010.180	-1824
1010.253	-978
1010.327	-708
1010.400	-1384
1010.473	-685
1010.547	-547
1010.620	108
1010.693	-785
1010.766	-1091
1010.840	-922
1010.913	-126
1010.986	-1472
1011.059	-461
1011.132	-1722
1011.205	-9
1011.278	-1229
1011.351	-1389
1011.424	-1655
1011.497	-1039
1011.570	-1462
1011.643	-865
1011.716	-1040
1011.789	-786
1011.862	-1244
1011.934	502
1012.007	-2126
1012.080	-320
1012.153	-555
1012.225	339
1012.298	-1524
1012.371	-1161
1012.443	-702
1012.516	-1886
1012.588	-787
1012.661	-462
1012.733	-1754
1012.806	-550
1012.879	-1816
1012.951	-926
1013.023	-1778
1013.096	-689
1013.168	-1579
1013.241	-377
1013.313	-1131
1013.385	-383
1013.458	-453
1013.530	-447
1013.602	-2074
1013.674	-897
1013.746	-2177
1013.819	-902
1013.891	-1652
1013.963	-1369
1014.035	-633
1014.107	-439
1014.179	-910
1014.251	-773
1014.323	-1000
1014.395	-162
1014.467	-1324
1014.539	-389
1014.611	-1940
1014.683	-732
1014.754	-1961
1014.826	-820
1014.898	-1410
1014.970	-1647
1015.042	-692
1015.113	-351
1015.185	-1045
1015.257	-1537
1015.328	-1048
1015.400	-729
1015.471	-653
1015.543	-1247
1015.615	-821
1015.686	-714
1015.757	-1529
1015.829	-1083
1015.901	-1379
1015.972	-1249
1016.043	-997
1016.115	-392
1016.186	-446
1016.257	-719
1016.328	-1120
1016.400	-711
1016.471	-1818
1016.542	-887
1016.613	-1506
1016.685	-384
1016.756	-1182
1016.827	-924
1016.898	-2111
1016.969	-221
1017.040	-1540
1017.111	-1270
1017.182	-2020
1017.253	-240
1017.324	-1410
1017.395	-1121
1017.466	-1595
1017.537	-763
1017.608	-2078
1017.678	-782
1017.749	-1981
1017.820	-957
1017.891	-1284
1017.961	-676
1018.032	-1431
1018.103	-60
1018.173	-793
1018.244	-369
1018.315	-1861
1018.385	-225
1018.456	-1727
1018.526	-1546
1018.597	-1410
1018.667	-1074
1018.738	-1375
1018.808	-449
1018.878	-2126
1018.949	-1008
1019.019	-1689
1019.089	-480
1019.160	-1515
1019.230	-2112
1019.300	-1478
1019.371	-1534
1019.441	-1228
1019.511	-944
1019.581	-1052
1019.651	-367
1019.721	-1331
1019.791	-1161
1019.861	-1597
1019.931	-331
1020.001	-1496
1020.071	-462
1020.141	-2061
1020.211	-972
1020.281	-1729
1020.351	-1168
1020.421	-1758
1020.491	-818
1020.560	-1360
1020.630	-1127
1020.700	-1651
1020.770	-786
1020.839	-1660
1020.909	-1414
1020.979	-1624
1021.048	-873
1021.118	-1784
1021.187	-884
1021.257	-1559
1021.326	-1578
1021.396	-1480
1021.465	25
1021.535	-1637
1021.604	-1272
1021.674	-1712
1021.743	-1029
1021.812	-903
1021.882	-770
1021.951	-758
1022.020	-330
1022.089	-1018
1022.159	-1708
1022.228	-1279
1022.297	-349
1022.366	-1867
1022.435	-1070
1022.504	-1680
1022.573	-1172
1022.642	-1336
1022.711	-753
1022.781	-1420
1022.849	-1093
1022.918	-1142
1022.987	-811
1023.056	-1533
1023.125	-1147
1023.194	-1415
1023.263	-1953
1023.331	-1385
1023.400	-1607
1023.469	-1409
1023.538	-1146
1023.606	-1462
1023.675	-1279
1023.744	-1047
1023.812	-1214
1023.881	-1211
1023.949	-608
1024.018	-1705
1024.086	-1218
1024.155	-1724
1024.223	-1350
1024.292	-1320
1024.360	-578
1024.429	-1803
1024.497	-1474
1024.565	-2386
1024.634	-1452
1024.702	-2014
1024.770	-305
1024.838	-1826
1024.907	-855
1024.975	-1576
1025.043	-468
1025.111	-2415
1025.179	-531
1025.247	-1081
1025.315	-1231
1025.383	-1600
1025.451	-802
1025.519	-1571
1025.587	-838
1025.655	-2224
1025.723	-1044
1025.791	-814
1025.859	-385
1025.927	-1655
1025.995	-861
1026.062	-1484
1026.130	-1468
1026.198	-1666
1026.266	-1070
1026.333	-2372
1026.401	-1000
1026.469	-1217
1026.536	-1005
1026.604	-1936
1026.671	-794
1026.739	-2405
1026.806	-1049
1026.874	-1897
1026.941	-972
1027.009	-1926
1027.076	-653
1027.144	-1042
1027.211	-1602
1027.278	-1804
1027.345	-782
1027.413	-1363
1027.480	-1738
1027.547	-1505
1027.614	-962
1027.682	-917
1027.749	-969
1027.816	-1102
1027.883	-653
1027.950	-1441
1028.017	-808
1028.084	-1574
1028.151	-828
1028.218	-1624
1028.285	-380
1028.352	-2209
1028.419	-610
1028.486	-1387
1028.553	-1007
1028.619	-1384
1028.686	-1133
1028.753	-1327
1028.820	-1359
1028.886	-609
1028.953	-983
1029.020	-1715
1029.086	-1444
1029.153	-3121
1029.220	-1741
1029.286	-1442
1029.353	-929
1029.419	-1784
1029.486	-869
1029.552	-1837
1029.619	-900
1029.685	-1830
1029.751	-827
1029.818	-907
1029.884	-1559
1029.951	-781
1030.017	-1557
1030.083	-2184
1030.149	-1459
1030.216	-1756
1030.282	-794
1030.348	-1334
1030.414	-1209
1030.480	-2602
1030.546	-1666
1030.612	-890
1030.678	-1233
1030.744	-1598
1030.810	-1147
1030.876	-1499
1030.942	-1246
1031.008	-2214
1031.074	-327
1031.140	-2605
1031.206	-37
1031.272	-2059
1031.337	-962
1031.403	-1028
1031.469	-1249
1031.534	-2099
1031.600	-437
1031.666	-1657
1031.731	-891
1031.797	-1117
1031.863	-1722
1031.928	-1796
1031.994	-1811
1032.059	-1861
1032.125	-1024
1032.190	-2260
1032.256	-1466
1032.321	-1976
1032.386	-1309
1032.452	-1027
1032.517	-2259
1032.582	-1759
1032.647	-982
1032.713	-1870
1032.778	-1718
1032.843	-1213
1032.908	-1105
1032.974	-907
1033.039	-454
1033.104	-1224
1033.169	-1263
1033.234	-1890
1033.299	-1626
1033.364	-1743
1033.429	-1943
1033.494	-1389
1033.559	-1717
1033.624	-1303
1033.688	-540
1033.753	-2238
1033.818	-640
1033.883	-1665
1033.948	-850
1034.013	-990
1034.077	-844
1034.142	-781
1034.207	10
1034.271	553
1034.336	2026
1034.400	29
1034.465	-414
1034.530	-695
1034.594	-247
1034.658	-1982
1034.723	-951
1034.787	-1712
1034.852	-1020
1034.916	-2153
1034.981	-1289
1035.045	-980
1035.109	-1814
1035.173	-827
1035.238	-1726
1035.302	-2015
1035.366	-1373
1035.430	-1970
1035.495	-706
1035.559	-1551
1035.623	-1535
1035.687	-1799
1035.751	-1438
1035.815	-2009
1035.879	-1630
1035.943	-2019
1036.007	-2413
1036.071	-1418
1036.135	-1957
1036.198	-1539
1036.262	-1273
1036.326	-1202
1036.390	-782
1036.454	-2250
1036.517	-1494
1036.581	-2076
1036.645	-1241
1036.709	-1821
1036.772	-1393
1036.836	-1298
1036.900	-1176
1036.963	-1900
1037.026	-1424
1037.090	-2179
1037.154	-1192
1037.217	-1920
1037.280	-1344
1037.344	-2029
1037.407	-755
1037.471	-1366
1037.534	-2049
1037.597	-1962
1037.661	-1178
1037.724	-1695
1037.787	-1190
1037.850	-2091
1037.913	-1391
1037.977	-990
1038.040	-1102
1038.103	-1795
1038.166	-1200
1038.229	-1773
1038.292	-1516
1038.355	-1285
1038.418	-419
1038.481	-859
1038.544	-585
1038.607	-1864
1038.670	-596
1038.732	-1659
1038.795	-1498
1038.858	-1598
1038.921	-675
1038.984	-1439
1039.046	-1801
1039.109	-1540
1039.172	-989
1039.234	-2593
1039.297	-893
1039.360	-1182
1039.422	-1138
1039.485	-1868
1039.547	-2511
1039.610	-2441
1039.672	-2046
1039.734	-2149
1039.797	-661
1039.859	-1249
1039.922	-1309
1039.984	-1631
1040.046	-1268
1040.109	-2022
1040.171	-1345
1040.233	-1214
1040.295	-947
1040.358	-1597
1040.420	-2516
1040.482	-957
1040.544	-1817
1040.606	-2058
1040.668	-1328
1040.730	-1873
1040.792	-1522
1040.854	-2429
1040.916	-1980
1040.978	-2087
1041.040	-1099
1041.102	-1906
1041.164	-1165
1041.225	-1545
1041.287	-1683
1041.349	-2744
1041.411	-1404
1041.472	-2013
1041.534	-2197
1041.596	-1932
1041.657	-1604
1041.719	-1798
1041.781	-1517
1041.842	-1848
1041.904	-927
1041.965	-1962
1042.027	-1588
1042.088	-1674
1042.150	-1911
1042.211	-1781
1042.272	-1462
1042.334	-1765
1042.395	-1487
1042.456	-1996
1042.518	-1555
1042.579	-1912
1042.640	-1318
1042.701	-1831
1042.763	-1032
1042.824	-2712
1042.885	-1832
1042.946	-1338
1043.007	-1332
1043.068	-1577
1043.129	-1732
1043.190	-1440
1043.251	-1014
1043.312	-1665
1043.373	-1743
1043.434	-2229
1043.495	-1978
1043.556	-1555
1043.616	-1297
1043.677	-1636
1043.738	-975
1043.799	-2310
1043.859	-1805
1043.920	-1541
1043.981	-2349
1044.041	-2080
1044.102	-1671
1044.162	-1030
1044.223	-1964
1044.284	-1932
1044.344	-827
1044.405	-1859
1044.465	-1841
1044.525	-1704
1044.586	-1154
1044.646	-1081
1044.707	-1322
1044.767	-1865
1044.827	-1034
1044.887	-1570
1044.948	-837
1045.008	-1290
1045.068	-1331
1045.128	-1969
1045.188	-1284
1045.249	-1024
1045.309	-1664
1045.369	-1257
1045.429	-1679
1045.489	-2871
1045.549	-1181
1045.609	-1661
1045.669	-1266
1045.729	-1489
1045.789	-856
1045.848	-1699
1045.908	-1336
1045.968	-1390
1046.028	-1479
1046.088	-857
1046.147	-1036
1046.207	-1360
1046.267	-1047
1046.326	-1710
1046.386	-1088
1046.446	-1366
1046.505	-873
1046.565	-677
1046.624	-618
1046.684	-1273
1046.743	-1020
1046.803	-175
1046.862	651
1046.922	0
