'Start Wavelength	183.907
'End Wavelength	1046.922
'Gate Delay	5.000
'Gate Width (ms)	1.050
'Laser Output Level	0.000
'X Position	0.000
'Y Position	0.000
'Z Position	0.000
'Grid Point Number	1.000
'Shot Number	100.000
183.907	652.000
183.977	-3.000
184.047	522
184.116	414
184.186	1044
184.256	1025
184.325	-391
184.395	-918
184.465	643
184.534	300
184.604	-736
184.674	1066
184.743	-849
184.813	561
184.883	-650
184.952	105
185.022	-524
185.092	730
185.161	47
185.231	43
185.301	-113
185.370	656
185.440	-505
185.509	-1030
185.579	-38
185.649	-116
185.718	-240
185.788	339
185.857	-110
185.927	246
185.996	285
186.066	187
186.136	117
186.205	13
186.275	26
186.344	-75
186.414	-811
186.483	70
186.553	612
186.622	612
186.692	437
186.761	81
186.831	324
186.900	175
186.970	-97
187.039	553
187.109	199
187.178	653
187.248	-631
187.317	445
187.387	-461
187.456	900
187.526	313
187.595	-43
187.664	228
187.734	368
187.803	286
187.873	172
187.942	-245
188.012	380
188.081	-128
188.150	61
188.220	940
188.289	849
188.358	-99
188.428	510
188.497	39
188.567	745
188.636	151
188.705	622
188.775	-293
188.844	408
188.913	-19
188.983	271
189.052	127
189.121	296
189.191	11
189.260	279
189.329	506
189.399	586
189.468	-176
189.537	414
189.606	-149
189.676	1282
189.745	325
189.814	1119
189.883	335
189.953	502
190.022	-103
190.091	880
190.161	1044
190.230	1555
190.299	-107
190.368	435
190.437	-468
190.507	558
190.576	-224
190.645	315
190.714	289
190.783	54
190.853	739
190.922	129
190.991	616
191.060	756
191.129	-166
191.198	792
191.268	98
191.337	646
191.406	778
191.475	169
191.544	435
191.613	-43
191.682	-163
191.752	894
191.821	-88
191.890	-277
191.959	278
192.028	385
192.097	-100
192.166	335
192.235	-118
192.304	550
192.373	99
192.442	642
192.511	389
192.580	801
192.650	292
192.719	702
192.788	91
192.857	318
192.926	-233
192.995	431
193.064	454
193.133	525
193.202	329
193.271	1181
193.340	176
193.409	40
193.478	841
193.547	949
193.615	1062
193.684	661
193.753	258
193.822	876
193.891	519
193.960	1034
194.029	-596
194.098	438
194.167	-573
194.236	805
194.305	37
194.374	412
194.443	-28
194.512	972
194.580	245
194.649	942
194.718	937
194.787	703
194.856	-1282
194.925	797
194.994	-141
195.062	461
195.131	353
195.200	186
195.269	274
195.338	888
195.407	689
195.475	-342
195.544	523
195.613	179
195.682	262
195.751	1001
195.819	-816
195.888	63
195.957	898
196.026	349
196.094	-20
196.163	294
196.232	-412
196.301	304
196.369	583
196.438	472
196.507	71
196.576	65
196.644	391
196.713	635
196.782	244
196.850	55
196.919	906
196.988	664
197.056	-184
197.125	-180
197.194	183
197.262	398
197.331	-370
197.400	195
197.468	-24
197.537	385
197.606	-350
197.674	938
197.743	1040
197.812	164
197.880	536
197.949	462
198.017	270
198.086	322
198.155	374
198.223	422
198.292	20
198.360	1426
198.429	-314
198.497	784
198.566	696
198.635	1182
198.703	1220
198.772	1366
198.840	537
198.909	560
198.977	407
199.046	-149
199.114	210
199.183	334
199.251	714
199.320	-332
199.388	237
199.457	-350
199.525	215
199.594	500
199.662	183
199.731	214
199.799	-73
199.867	918
199.936	-549
200.004	1104
200.073	-251
200.141	932
200.210	227
200.278	394
200.346	400
200.415	790
200.483	618
200.552	750
200.620	341
200.688	405
200.757	356
200.825	318
200.893	100
200.962	1262
201.030	252
201.098	-95
201.167	134
201.235	441
201.303	-124
201.372	1303
201.440	320
201.508	1157
201.577	492
201.645	565
201.713	236
201.781	941
201.850	1667
201.918	1257
201.986	67
202.055	754
202.123	260
202.191	337
202.259	221
202.327	481
202.396	544
202.464	600
202.532	-189
202.600	1179
202.669	861
202.737	83
202.805	530
202.873	887
202.941	374
203.009	889
203.078	892
203.146	393
203.214	204
203.282	335
203.350	1007
203.418	765
203.487	315
203.555	463
203.623	394
203.691	496
203.759	-178
203.827	625
203.895	-596
203.963	133
204.031	-401
204.099	149
204.168	126
204.236	324
204.304	678
204.372	402
204.440	710
204.508	1093
204.576	-240
204.644	1109
204.712	210
204.780	349
204.848	271
204.916	1181
204.984	207
205.052	882
205.120	448
205.188	497
205.256	-72
205.324	841
205.392	75
205.460	833
205.528	-163
205.596	1203
205.664	572
205.732	1083
205.799	908
205.867	1828
205.935	47
206.003	1317
206.071	229
206.139	77
206.207	98
206.275	1241
206.343	125
206.411	611
206.478	611
206.546	785
206.614	362
206.682	338
206.750	337
206.818	1353
206.885	1007
206.953	-397
207.021	1725
207.089	204
207.157	196
207.225	1062
207.292	74
207.360	738
207.428	-171
207.496	1303
207.563	596
207.631	934
207.699	-204
207.767	526
207.834	23
207.902	877
207.970	157
208.038	882
208.105	-28
208.173	73
208.241	109
208.309	1225
208.376	890
208.444	1974
208.512	433
208.579	121
208.647	898
208.715	795
208.782	153
208.850	660
208.918	90
208.985	1385
209.053	995
209.120	627
209.188	-2
209.256	962
209.323	308
209.391	335
209.459	1618
209.526	881
209.594	224
209.661	260
209.729	1068
209.796	783
209.864	484
209.932	-323
209.999	1943
210.067	355
210.134	-711
210.202	408
210.269	1343
210.337	1652
210.404	500
210.472	898
210.539	176
210.607	1017
210.674	890
210.742	923
210.809	752
210.877	957
210.944	907
211.012	-229
211.079	2168
211.146	908
211.214	136
211.281	947
211.349	639
211.416	979
211.484	605
211.551	125
211.618	1139
211.686	1283
211.753	-141
211.821	1899
211.888	489
211.955	621
212.023	781
212.090	797
212.157	-413
212.225	1543
212.292	1290
212.359	2467
212.427	4203
212.494	2991
212.561	1632
212.629	1255
212.696	662
212.763	1509
212.831	-160
212.898	1633
212.965	-27
213.032	1532
213.100	733
213.167	778
213.234	843
213.301	1272
213.369	699
213.436	288
213.503	-145
213.570	1292
213.638	449
213.705	754
213.772	-252
213.839	892
213.906	673
213.973	1301
214.041	816
214.108	1176
214.175	228
214.242	421
214.309	772
214.376	1245
214.444	1055
214.511	1260
214.578	1143
214.645	1801
214.712	676
214.779	1267
214.846	-334
214.913	1611
214.980	832
215.048	1281
215.115	1236
215.182	793
215.249	1369
215.316	1265
215.383	994
215.450	1647
215.517	515
215.584	1233
215.651	550
215.718	1363
215.785	479
215.852	627
215.919	847
215.986	1534
216.053	751
216.120	-1214
216.187	705
216.254	1210
216.321	562
216.388	1235
216.455	1112
216.522	979
216.589	762
216.656	1087
216.722	1629
216.789	1131
216.856	1104
216.923	672
216.990	1409
217.057	679
217.124	914
217.191	862
217.258	1473
217.324	1561
217.391	2071
217.458	1517
217.525	1347
217.592	1241
217.659	108
217.725	1761
217.792	773
217.859	1648
217.926	723
217.993	895
218.059	1882
218.126	1465
218.193	943
218.260	623
218.327	648
218.393	533
218.460	-355
218.527	877
218.594	737
218.660	293
218.727	1725
218.794	757
218.860	960
218.927	796
218.994	577
219.061	836
219.127	30
219.194	372
219.261	337
219.327	658
219.394	745
219.461	158
219.527	1277
219.594	184
219.661	-291
219.727	629
219.794	594
219.860	-252
219.927	1147
219.994	1499
220.060	1739
220.127	3148
220.193	1705
220.260	1704
220.326	2032
220.393	2601
220.460	2279
220.526	1530
220.593	1587
220.659	2489
220.726	1022
220.792	3000
220.859	3118
220.925	3785
220.992	4660
221.058	4269
221.125	3662
221.191	2926
221.258	1197
221.324	2139
221.391	641
221.457	881
221.524	836
221.590	2383
221.657	1955
221.723	2129
221.789	791
221.856	2146
221.922	1018
221.989	1856
222.055	1409
222.121	-140
222.188	2007
222.254	1221
222.321	730
222.387	601
222.453	495
222.520	1703
222.586	254
222.652	1434
222.719	273
222.785	1187
222.851	998
222.918	1356
222.984	184
223.050	922
223.116	-501
223.183	2063
223.249	-593
223.315	131
223.382	712
223.448	923
223.514	-728
223.580	282
223.647	-26
223.713	-276
223.779	-23
223.845	1080
223.911	661
223.978	39
224.044	896
224.110	385
224.176	989
224.242	611
224.309	-887
224.375	1213
224.441	316
224.507	2
224.573	-434
224.639	1205
224.705	-172
224.772	852
224.838	-92
224.904	674
224.970	212
225.036	1136
225.102	-94
225.168	410
225.234	450
225.300	952
225.366	546
225.432	1028
225.499	319
225.565	580
225.631	229
225.697	1215
225.763	1561
225.829	902
225.895	1088
225.961	1451
226.027	976
226.093	1215
226.159	2077
226.225	3538
226.291	5172
226.357	6792
226.423	4237
226.489	3362
226.554	2195
226.620	1984
226.686	2491
226.752	4122
226.818	5517
226.884	8130
226.950	7456
227.016	5082
227.082	3518
227.148	2472
227.214	1640
227.279	1831
227.345	792
227.411	2002
227.477	535
227.543	2869
227.609	3017
227.674	2550
227.740	948
227.806	1501
227.872	686
227.938	1422
228.003	2010
228.069	1607
228.135	298
228.201	1321
228.267	390
228.332	799
228.398	-507
228.464	557
228.530	405
228.595	1198
228.661	-487
228.727	1201
228.792	1359
228.858	902
228.924	-1129
228.990	2753
229.055	-582
229.121	1133
229.187	404
229.252	252
229.318	-59
229.384	488
229.449	316
229.515	-1137
229.581	-749
229.646	2327
229.712	638
229.777	1011
229.843	889
229.909	1579
229.974	1743
230.040	1581
230.105	479
230.171	930
230.236	1534
230.302	1619
230.368	107
230.433	436
230.499	1187
230.564	2774
230.630	542
230.695	508
230.761	789
230.826	222
230.892	1949
230.957	452
231.023	378
231.088	523
231.154	322
231.219	2082
231.284	485
231.350	1269
231.415	-269
231.481	1046
231.546	347
231.612	1177
231.677	114
231.742	-84
231.808	1156
231.873	698
231.939	-499
232.004	2159
232.069	1075
232.135	769
232.200	-200
232.265	1638
232.331	-40
232.396	551
232.461	995
232.527	760
232.592	-1091
232.657	1138
232.723	281
232.788	655
232.853	336
232.918	719
232.984	-11
233.049	460
233.114	-13
233.179	1353
233.245	1230
233.310	1838
233.375	-554
233.440	839
233.506	-120
233.571	378
233.636	936
233.701	337
233.766	630
233.832	1837
233.897	-20
233.962	-218
234.027	1837
234.092	561
234.157	158
234.222	568
234.288	221
234.353	2346
234.418	2063
234.483	2720
234.548	1323
234.613	1534
234.678	1319
234.743	1143
234.808	3154
234.873	1347
234.938	2039
235.004	1412
235.069	876
235.134	-65
235.199	815
235.264	1375
235.329	-300
235.394	770
235.459	1435
235.524	283
235.589	1237
235.654	439
235.719	-291
235.784	1230
235.849	616
235.913	1403
235.978	1810
236.043	1981
236.108	994
236.173	850
236.238	1423
236.303	1020
236.368	529
236.433	2174
236.498	1974
236.563	2674
236.627	5162
236.692	11951
236.757	10896
236.822	6441
236.887	3377
236.952	3601
237.017	1568
237.081	4402
237.146	3349
237.211	9161
237.276	12424
237.341	15384
237.405	9365
237.470	5159
237.535	4082
237.600	2636
237.664	2691
237.729	1062
237.794	1764
237.859	5249
237.923	2763
237.988	1753
238.053	2479
238.118	1703
238.182	2857
238.247	4205
238.312	617
238.376	2267
238.441	-696
238.506	2643
238.570	-379
238.635	2233
238.700	1225
238.764	1459
238.829	1157
238.893	1781
238.958	1977
239.023	2097
239.087	629
239.152	1480
239.216	509
239.281	1630
239.346	1058
239.410	1399
239.475	811
239.539	4426
239.604	2023
239.668	2266
239.733	2031
239.797	3240
239.862	6134
239.926	5496
239.991	2989
240.055	1439
240.120	487
240.184	1654
240.249	207
240.313	1212
240.378	679
240.442	2124
240.507	3101
240.571	1489
240.635	1225
240.700	2167
240.764	999
240.829	1480
240.893	-558
240.957	1248
241.022	1483
241.086	3329
241.151	860
241.215	225
241.279	1651
241.344	1465
241.408	1622
241.472	1057
241.537	3042
241.601	2115
241.665	735
241.730	383
241.794	2054
241.858	1639
241.922	1400
241.987	1490
242.051	734
242.115	1206
242.179	767
242.244	1157
242.308	2622
242.372	1061
242.436	1282
242.501	1581
242.565	653
242.629	858
242.693	2151
242.757	-175
242.822	618
242.886	1600
242.950	1634
243.014	977
243.078	1655
243.142	1691
243.206	-238
243.271	1460
243.335	1392
243.399	3630
243.463	7022
243.527	15310
243.591	4662
243.655	3313
243.719	689
243.783	2448
243.847	2882
243.911	3053
243.975	2945
244.040	1576
244.104	2665
244.168	1586
244.232	1197
244.296	3111
244.360	2492
244.424	939
244.488	1364
244.552	1695
244.615	-316
244.679	1609
244.743	1078
244.807	1490
244.871	1509
244.935	1490
244.999	35
245.063	1679
245.127	1490
245.191	2020
245.255	1628
245.319	1966
245.383	28
245.446	3042
245.510	-99
245.574	1197
245.638	1296
245.702	840
245.766	2779
245.829	2610
245.893	972
245.957	1435
246.021	2074
246.085	1159
246.149	1412
246.212	3824
246.276	3885
246.340	2622
246.404	2134
246.467	2670
246.531	519
246.595	2835
246.659	2654
246.722	998
246.786	2069
246.850	2810
246.913	2162
246.977	293
247.041	1217
247.104	1295
247.168	1759
247.232	3670
247.295	6155
247.359	3074
247.423	1233
247.486	2411
247.550	2826
247.614	1504
247.677	1885
247.741	1848
247.804	763
247.868	2077
247.932	2454
247.995	6341
248.059	2277
248.122	727
248.186	2057
248.249	3888
248.313	9783
248.376	10872
248.440	5604
248.503	1981
248.567	4133
248.630	3485
248.694	4477
248.757	6691
248.821	10466
248.884	8360
248.948	5775
249.011	9235
249.075	11759
249.138	11062
249.202	4620
249.265	3164
249.328	3723
249.392	2264
249.455	2757
249.519	3227
249.582	2141
249.645	4805
249.709	4015
249.772	3377
249.835	3009
249.899	2288
249.962	3032
250.025	2379
250.089	5087
250.152	6708
250.215	3100
250.279	2003
250.342	3007
250.405	2933
250.468	2410
250.532	3217
250.595	5396
250.658	14271
250.721	24072
250.785	10422
250.848	6184
250.911	3074
250.974	3266
251.038	4286
251.101	7099
251.164	4816
251.227	4727
251.290	4655
251.354	6902
251.417	21110
251.480	21814
251.543	17654
251.606	34046
251.669	28396
251.732	12564
251.795	11419
251.859	12560
251.922	23578
251.985	14564
252.048	8705
252.111	5438
252.174	4274
252.237	6940
252.300	13670
252.363	14721
252.426	28890
252.489	13076
252.552	7228
252.615	4398
252.678	6322
252.741	11691
252.804	14863
252.867	29480
252.930	18476
252.993	10043
253.056	6680
253.119	3795
253.182	3171
253.245	5515
253.308	4890
253.371	4104
253.434	3653
253.497	3835
253.559	6714
253.622	4440
253.685	5550
253.748	4926
253.811	3164
253.874	3679
253.937	3599
254.000	2775
254.062	4622
254.125	6892
254.188	7285
254.251	5123
254.314	2761
254.376	3841
254.439	5468
254.502	3876
254.565	4386
254.628	7464
254.690	3751
254.753	2022
254.816	2054
254.878	2268
254.941	5624
255.004	4918
255.067	2999
255.129	1421
255.192	2058
255.255	620
255.317	2027
255.380	1424
255.443	1169
255.505	68
255.568	1236
255.631	816
255.693	1761
255.756	1173
255.819	2003
255.881	816
255.944	1217
256.006	1005
256.069	975
256.132	957
256.194	800
256.257	2504
256.319	3200
256.382	2467
256.444	3301
256.507	2126
256.569	2168
256.632	2310
256.694	3162
256.757	9335
256.819	23757
256.882	11180
256.944	4958
257.007	4366
257.069	3527
257.132	1966
257.194	3389
257.257	2674
257.319	2672
257.381	2743
257.444	8507
257.506	23597
257.569	28015
257.631	10600
257.693	6799
257.756	3566
257.818	2605
257.880	1933
257.943	2775
258.005	680
258.067	1676
258.130	2148
258.192	1707
258.254	2749
258.317	1975
258.379	2406
258.441	3799
258.503	4055
258.566	4125
258.628	5010
258.690	1640
258.753	2413
258.815	3297
258.877	1972
258.939	2016
259.001	1684
259.064	1810
259.126	1632
259.188	1699
259.250	1635
259.312	1949
259.375	2600
259.437	2893
259.499	1820
259.561	1841
259.623	1880
259.685	1873
259.747	2214
259.809	4684
259.872	6007
259.934	10683
259.996	11432
260.058	4399
260.120	1069
260.182	1905
260.244	999
260.306	1241
260.368	1238
260.430	1756
260.492	4655
260.554	5907
260.616	1754
260.678	5921
260.740	6478
260.802	1926
260.864	1738
260.926	1357
260.988	2300
261.050	2081
261.112	5432
261.174	11834
261.236	5875
261.298	3363
261.359	2421
261.421	4912
261.483	991
261.545	3157
261.607	871
261.669	2238
261.731	2018
261.793	4803
261.854	1247
261.916	3027
261.978	2251
262.040	3474
262.102	1838
262.164	1996
262.225	2086
262.287	1963
262.349	2373
262.411	2829
262.472	1784
262.534	1856
262.596	3069
262.658	2869
262.719	990
262.781	2153
262.843	3087
262.904	2862
262.966	2248
263.028	2395
263.090	8722
263.151	22908
263.213	9036
263.275	4757
263.336	1849
263.398	2091
263.459	214
263.521	1079
263.583	2711
263.644	2943
263.706	1532
263.767	669
263.829	974
263.891	1005
263.952	1449
264.014	735
264.075	2981
264.137	8810
264.198	2753
264.260	2300
264.321	1590
264.383	4266
264.444	10511
264.506	3698
264.567	2026
264.629	5571
264.690	8802
264.752	4707
264.813	1512
264.875	2252
264.936	2693
264.998	1749
265.059	1730
265.120	1474
265.182	2984
265.243	14755
265.305	15679
265.366	4887
265.427	2695
265.489	2285
265.550	317
265.611	2157
265.673	1205
265.734	1243
265.795	2082
265.857	1372
265.918	1749
265.979	5248
266.040	21391
266.102	18783
266.163	6920
266.224	4618
266.286	1371
266.347	1053
266.408	1673
266.469	2337
266.530	1308
266.592	1141
266.653	1384
266.714	3661
266.775	1341
266.836	1602
266.898	603
266.959	2652
267.020	1757
267.081	2006
267.142	534
267.203	1325
267.264	767
267.326	2392
267.387	1056
267.448	1226
267.509	1279
267.570	1533
267.631	-27
267.692	1015
267.753	1400
267.814	520
267.875	1506
267.936	4278
267.997	3538
268.058	1919
268.119	881
268.180	1032
268.241	745
268.302	1621
268.363	202
268.424	1123
268.485	1361
268.546	468
268.607	616
268.668	516
268.729	724
268.790	1475
268.851	1040
268.912	2987
268.972	2440
269.033	1604
269.094	-186
269.155	1459
269.216	250
269.277	756
269.338	245
269.398	1559
269.459	372
269.520	1416
269.581	999
269.642	2424
269.702	1881
269.763	562
269.824	371
269.885	1402
269.945	2200
270.006	1173
270.067	41
270.128	813
270.188	209
270.249	707
270.310	16
270.370	1414
270.431	516
270.492	791
270.553	889
270.613	2010
270.674	3991
270.734	1595
270.795	1033
270.856	1641
270.916	585
270.977	1322
271.038	1752
271.098	1915
271.159	1842
271.219	1853
271.280	1157
271.340	1152
271.401	134
271.462	2321
271.522	1391
271.583	1162
271.643	1252
271.704	1515
271.764	2140
271.825	3345
271.885	10270
271.946	13622
272.006	4365
272.066	6826
272.127	10256
272.187	5028
272.248	2279
272.308	1921
272.369	7140
272.429	4132
272.489	3265
272.550	3435
272.610	3549
272.671	3076
272.731	2166
272.791	3496
272.852	1642
272.912	2884
272.972	834
273.033	1746
273.093	1415
273.153	3275
273.214	2184
273.274	2548
273.334	7061
273.394	11060
273.455	4381
273.515	5405
273.575	8894
273.635	4635
273.696	4985
273.756	9467
273.816	4123
273.876	3237
273.936	4160
273.997	7597
274.057	2564
274.117	2175
274.177	2207
274.237	13408
274.297	9735
274.358	5786
274.418	7082
274.478	6055
274.538	2711
274.598	2411
274.658	4465
274.718	5966
274.778	2912
274.838	2122
274.898	3243
274.958	8330
275.018	8879
275.078	6665
275.138	2297
275.198	1686
275.258	1332
275.318	2312
275.378	2394
275.438	3433
275.498	1535
275.558	4920
275.618	8347
275.678	7229
275.738	3975
275.798	3814
275.858	2388
275.918	1109
275.978	2197
276.038	1505
276.098	1234
276.157	2527
276.217	6994
276.277	2828
276.337	2078
276.397	1494
276.457	1452
276.517	1377
276.576	918
276.636	1145
276.696	1849
276.756	4177
276.815	3248
276.875	2478
276.935	999
276.995	1612
277.055	898
277.114	2013
277.174	1546
277.234	6408
277.293	2788
277.353	1183
277.413	1318
277.472	1100
277.532	1562
277.592	1500
277.651	6292
277.711	11644
277.771	4297
277.830	14287
277.890	10323
277.950	8225
278.009	20581
278.069	8783
278.128	8442
278.188	12411
278.248	5441
278.307	13372
278.367	8173
278.426	3306
278.486	1563
278.545	1890
278.605	586
278.664	1397
278.724	1127
278.783	4490
278.843	9396
278.902	3856
278.962	2125
279.021	2222
279.081	3022
279.140	3081
279.199	2252
279.259	2682
279.318	3427
279.378	4402
279.437	4886
279.496	14516
279.556	50661
279.615	41806
279.675	11413
279.734	6925
279.793	7074
279.853	9599
279.912	4287
279.971	2994
280.031	2418
280.090	4596
280.149	6244
280.208	7279
280.268	37234
280.327	38008
280.386	8603
280.445	7040
280.505	4799
280.564	4088
280.623	2361
280.682	3714
280.742	4955
280.801	1651
280.860	1806
280.919	1826
280.978	1336
281.037	1426
281.097	1095
281.156	1876
281.215	1533
281.274	1662
281.333	6130
281.392	4771
281.451	1549
281.510	1473
281.569	959
281.628	1056
281.688	137
281.747	1888
281.806	600
281.865	1287
281.924	88
281.983	1011
282.042	480
282.101	426
282.160	793
282.219	573
282.278	610
282.337	4140
282.396	1744
282.454	1726
282.513	1070
282.572	6975
282.631	2717
282.690	1548
282.749	372
282.808	1685
282.867	565
282.926	1545
282.985	25
283.043	1321
283.102	1069
283.161	1252
283.220	2917
283.279	6555
283.338	2664
283.396	2054
283.455	1369
283.514	1815
283.573	2535
283.631	2505
283.690	1364
283.749	2686
283.808	2479
283.866	4299
283.925	1418
283.984	2282
284.043	1404
284.101	2270
284.160	470
284.219	2761
284.277	2497
284.336	4008
284.395	8953
284.453	7615
284.512	4093
284.570	5502
284.629	4109
284.688	4569
284.746	5063
284.805	7215
284.863	8252
284.922	11250
284.981	13066
285.039	19267
285.098	30793
285.156	49665
285.215	54769
285.273	59527
285.332	53378
285.390	36218
285.449	21505
285.507	17015
285.566	11996
285.624	9156
285.683	7879
285.741	5780
285.799	5690
285.858	4805
285.916	4633
285.975	4116
286.033	2068
286.091	2604
286.150	2316
286.208	2897
286.267	2566
286.325	2305
286.383	3630
286.442	2909
286.500	1927
286.558	1806
286.616	1912
286.675	2625
286.733	2457
286.791	1723
286.850	1675
286.908	2297
286.966	2665
287.024	2362
287.083	1521
287.141	2084
287.199	2280
287.257	2858
287.315	1902
287.374	2131
287.432	5327
287.490	3755
287.548	2029
287.606	2395
287.664	1396
287.723	2665
287.781	2751
287.839	2158
287.897	2380
287.955	3950
288.013	5552
288.071	10043
288.129	31443
288.187	79426
288.245	40595
288.303	14969
288.361	7267
288.419	5333
288.477	3539
288.535	3071
288.593	2551
288.651	2429
288.709	1506
288.767	2131
288.825	809
288.883	1836
288.941	1122
288.999	770
289.057	633
289.115	1794
289.173	1544
289.231	905
289.289	1515
289.346	1097
289.404	1370
289.462	2512
289.520	2115
289.578	704
289.636	772
289.694	1136
289.751	835
289.809	1252
289.867	993
289.925	2418
289.983	1344
290.040	1574
290.098	779
290.156	1406
290.214	936
290.271	335
290.329	1626
290.387	1818
290.444	977
290.502	662
290.560	1498
290.617	651
290.675	402
290.733	1231
290.790	2099
290.848	1350
290.906	963
290.963	1053
291.021	800
291.078	1910
291.136	1050
291.194	4747
291.251	8727
291.309	3021
291.366	1162
291.424	1050
291.481	649
291.539	1390
291.596	455
291.654	782
291.711	243
291.769	1588
291.826	1463
291.884	1688
291.941	563
291.999	977
292.056	1129
292.114	1730
292.171	1357
292.228	1578
292.286	1659
292.343	2825
292.401	2168
292.458	2013
292.515	2190
292.573	1581
292.630	1990
292.687	2099
292.745	583
292.802	2558
292.859	6136
292.917	8549
292.974	4376
293.031	1867
293.089	884
293.146	1781
293.203	840
293.260	1142
293.318	1074
293.375	2911
293.432	1803
293.489	1187
293.546	1294
293.604	2306
293.661	4759
293.718	13720
293.775	7776
293.832	3189
293.889	2636
293.947	2267
294.004	1723
294.061	1968
294.118	3800
294.175	9810
294.232	15121
294.289	6955
294.346	2560
294.403	3893
294.460	2346
294.517	1306
294.574	1194
294.631	2053
294.688	2214
294.745	4129
294.802	15716
294.859	21933
294.916	7487
294.973	3372
295.030	2111
295.087	2494
295.144	2219
295.201	1977
295.258	1471
295.315	2440
295.372	4946
295.429	9731
295.486	4982
295.542	3497
295.599	9853
295.656	18138
295.713	9970
295.770	10152
295.827	4898
295.883	2551
295.940	2399
295.997	3627
296.054	2798
296.111	2131
296.167	2367
296.224	1572
296.281	1263
296.338	1925
296.394	1228
296.451	1420
296.508	5208
296.564	8987
296.621	6518
296.678	12146
296.734	17301
296.791	7707
296.848	4555
296.904	4484
296.961	7080
297.018	10939
297.074	9059
297.131	4461
297.187	3430
297.244	3371
297.301	10444
297.357	18034
297.414	7055
297.470	3690
297.527	2543
297.583	2962
297.640	2585
297.696	1511
297.753	1210
297.809	1871
297.866	2383
297.922	2242
297.979	539
298.035	2151
298.092	2140
298.148	5949
298.204	6086
298.261	3258
298.317	6762
298.374	15223
298.430	8620
298.486	4594
298.543	2614
298.599	3476
298.656	3979
298.712	5736
298.768	11462
298.824	8721
298.881	3720
298.937	2432
298.993	1279
299.050	1716
299.106	2067
299.162	2232
299.218	2531
299.275	1956
299.331	1943
299.387	3754
299.443	12252
299.500	16676
299.556	9188
299.612	3801
299.668	4049
299.724	7478
299.780	7800
299.837	4082
299.893	4170
299.949	12060
300.005	14877
300.061	12500
300.117	20209
300.173	10106
300.229	4581
300.285	4990
300.341	5678
300.397	3633
300.453	2252
300.510	2793
300.566	2610
300.622	4201
300.678	11707
300.734	17851
300.790	12541
300.845	13065
300.901	9926
300.957	14582
301.013	8778
301.069	4221
301.125	2911
301.181	3060
301.237	1542
301.293	2104
301.349	1974
301.405	1039
301.461	2392
301.516	4025
301.572	3091
301.628	3724
301.684	2651
301.740	5479
301.796	8336
301.851	5871
301.907	8173
301.963	8811
302.019	11907
302.074	31168
302.130	31810
302.186	17257
302.242	7920
302.297	4883
302.353	3968
302.409	7428
302.464	7438
302.520	6281
302.576	11825
302.631	14189
302.687	8327
302.743	4163
302.798	2745
302.854	3088
302.910	3207
302.965	3394
303.021	5379
303.076	5184
303.132	5251
303.187	6331
303.243	3987
303.299	2685
303.354	2334
303.410	2928
303.465	2567
303.521	2309
303.576	2648
303.632	2412
303.687	4268
303.743	11625
303.798	10788
303.853	5643
303.909	2519
303.964	3076
304.020	4195
304.075	5499
304.130	3923
304.186	7693
304.241	7852
304.297	6157
304.352	3992
304.358	3924
304.407	3368
304.449	2617
304.463	2366
304.518	2456
304.539	2486
304.573	2522
304.629	2967
304.630	2987
304.684	4019
304.720	7679
304.739	9443
304.794	13470
304.811	11871
304.850	8034
304.902	3495
304.905	3205
304.960	3878
304.992	3570
305.015	3326
305.071	3502
305.083	3402
305.126	3022
305.173	2228
305.181	2117
305.236	2166
305.264	2271
305.292	2403
305.347	2674
305.354	2805
305.402	3582
305.445	3911
305.457	3963
305.512	4635
305.535	4229
305.567	3844
305.622	3551
305.626	3681
305.678	7085
305.716	12271
305.733	13703
305.788	13797
305.807	12202
305.843	10202
305.897	13040
305.898	13060
305.953	12842
305.988	9049
306.008	7130
306.063	5132
306.078	4753
306.118	4021
306.168	2860
306.173	2752
306.228	2480
306.259	2558
306.283	2744
306.338	2619
306.349	2861
306.393	3858
306.440	3957
306.448	3941
306.503	4826
306.530	4522
306.558	5365
306.613	10349
306.620	10973
306.668	13665
306.711	15164
306.723	14899
306.778	11163
306.801	9089
306.833	7304
306.888	3830
306.892	3744
306.943	3382
306.982	2992
306.997	2892
307.052	3517
307.072	3513
307.107	4024
307.162	4838
307.163	4856
307.217	7296
307.253	8627
307.272	8810
307.327	8393
307.343	7960
307.381	7414
307.434	6185
307.436	6320
307.491	12895
307.524	16790
307.546	16770
307.600	15010
307.614	13350
307.655	9144
307.704	6554
307.710	6656
307.765	8088
307.795	10386
307.819	12158
307.874	17156
307.885	17331
307.929	15963
307.975	14023
307.984	14820
308.038	22469
308.065	27062
308.093	39796
308.148	71270
308.156	76953
308.202	95345
308.246	106507
308.257	104169
308.312	70154
308.336	55396
308.366	43662
308.421	26421
308.426	24933
308.475	18083
308.517	13690
308.530	13009
308.585	11465
308.607	10839
308.639	11121
308.694	12259
308.697	12331
308.748	17928
308.787	23613
308.803	23284
308.857	18903
308.877	16932
308.912	17382
308.967	19218
308.967	19225
309.021	26305
309.058	31446
309.076	38831
309.130	63867
309.148	72723
309.185	95619
309.238	133059
309.239	133459
309.293	137798
309.328	132048
309.348	120930
309.402	80406
309.418	69472
309.457	52827
309.508	34074
309.511	33732
309.566	29562
309.598	27623
309.620	28961
309.674	33764
309.688	35078
309.729	33189
309.778	28617
309.783	28170
309.837	21931
309.868	18763
309.892	21061
309.946	26857
309.959	28602
310.001	32461
310.049	35450
310.055	34233
310.109	21672
310.139	14369
310.163	12506
310.218	9517
310.229	8906
310.272	8331
310.319	8336
310.326	8170
310.381	6206
310.409	5477
310.435	5758
310.489	6033
310.499	6101
310.543	6582
310.589	6957
310.598	6992
310.652	7297
310.679	7306
310.706	6670
310.760	5421
310.769	5190
310.814	4980
310.859	5072
310.868	5209
310.923	5447
310.948	5765
310.977	6285
311.031	6894
311.038	7005
311.085	6325
311.128	5327
311.139	5421
311.193	6055
311.218	6280
311.247	6094
311.301	5814
311.308	5731
311.356	6209
311.398	6872
311.410	6754
311.464	5904
311.488	5510
311.518	5546
311.572	5548
311.578	5540
311.626	6844
311.668	7917
311.680	8227
311.734	9523
311.758	10037
311.788	9569
311.842	8743
311.847	8622
311.896	11792
311.937	14553
311.950	14190
312.004	12335
312.027	11479
312.058	9769
312.112	6663
312.117	6337
312.165	6771
312.207	7114
312.297	11960
312.386	8432
312.476	7522
312.566	11326
312.656	7507
312.745	6140
312.835	7828
312.925	8205
313.015	6935
313.104	8247
313.194	7051
313.284	7325
313.374	8875
313.463	7177
313.553	6319
313.643	5608
313.732	6120
313.822	5986
313.912	7115
314.001	7629
314.091	9372
314.180	12527
314.270	9751
314.360	9456
314.449	8095
314.539	6458
314.628	7290
314.718	8554
314.808	8779
314.897	6810
314.987	7796
315.076	7343
315.166	8717
315.255	8202
315.345	8933
315.434	8936
315.524	8387
315.613	7879
315.703	9174
315.792	12803
315.881	19500
315.971	9675
316.060	13075
316.150	17058
316.239	16747
316.328	7862
316.418	7077
316.507	6655
316.597	8245
316.686	7543
316.775	10800
316.865	16566
316.954	7953
317.043	6800
317.133	6604
317.222	5304
317.311	6183
317.400	4283
317.490	8244
317.579	7646
317.668	6631
317.757	8458
317.847	16248
317.936	30463
318.025	16187
318.114	11086
318.203	9765
318.293	14793
318.382	25776
318.471	18926
318.560	31698
318.649	54950
318.738	11976
318.828	9529
318.917	7979
319.006	11656
319.095	24261
319.184	67001
319.273	30040
319.362	14593
319.451	8073
319.540	6659
319.629	14161
319.718	17206
319.807	12419
319.896	26040
319.985	76686
320.074	23626
320.163	11333
320.252	13150
320.341	16485
320.430	13769
320.519	12760
320.608	9066
320.697	9289
320.786	8317
320.875	10204
320.964	10596
321.053	14421
321.142	19046
321.230	19341
321.319	19786
321.408	38675
321.497	16857
321.586	16771
321.675	20419
321.764	21153
321.852	16007
321.941	23297
322.030	14199
322.119	19882
322.207	33864
322.296	27116
322.385	17970
322.474	17007
322.562	39917
322.651	22085
322.740	15885
322.829	20225
322.917	21755
323.006	13655
323.095	12182
323.183	11490
323.272	17393
323.361	26480
323.449	53616
323.538	19508
323.626	43200
323.715	21195
323.804	14634
323.892	38885
323.981	18520
324.069	10122
324.158	25083
324.246	18590
324.335	10842
324.424	12748
324.512	7873
324.601	9270
324.689	15168
324.778	22581
324.866	15740
324.954	7071
325.043	7127
325.131	12640
325.220	18968
325.308	18921
325.397	16446
325.485	9440
325.574	5540
325.662	5794
325.750	6974
325.839	5252
325.927	6281
326.015	7303
326.104	9988
326.192	11053
326.280	6444
326.369	7020
326.457	8477
326.545	12165
326.634	6638
326.722	5489
326.810	5314
326.898	6150
326.987	7092
327.075	11059
327.163	10761
327.251	7065
327.340	11432
327.428	13515
327.516	6259
327.604	5941
327.692	5834
327.781	7657
327.869	9749
327.957	7056
328.045	6938
328.133	6263
328.221	6547
328.309	5067
328.397	5924
328.485	7472
328.574	8764
328.662	21355
328.750	12557
328.838	7967
328.926	5573
329.014	6320
329.102	8599
329.190	23290
329.278	11333
329.366	5671
329.454	5824
329.542	5876
329.630	5071
329.718	5523
329.806	6852
329.893	7839
329.981	6263
330.069	5447
330.157	9493
330.245	18008
330.333	9803
330.421	6554
330.509	9329
330.597	25402
330.684	16485
330.772	9950
330.860	16342
330.948	22540
331.036	8798
331.123	4962
331.211	6239
331.299	8821
331.387	21602
331.475	28880
331.562	8390
331.650	5650
331.738	6384
331.825	8729
331.913	4880
332.001	5516
332.089	7714
332.176	14080
332.264	24838
332.352	17048
332.439	8391
332.527	8136
332.614	5783
332.702	7010
332.790	5752
332.877	13452
332.965	20050
333.052	8505
333.140	9333
333.228	16024
333.315	7112
333.403	8094
333.490	15291
333.578	12107
333.665	19416
333.753	11366
333.840	6224
333.928	8383
334.015	16549
334.103	28389
334.190	73300
334.278	20373
334.365	12063
334.452	9619
334.540	8121
334.627	9212
334.715	11874
334.802	21376
334.889	75994
334.977	55568
335.064	13079
335.151	9385
335.239	10321
335.326	13630
335.413	47461
335.501	46846
335.588	10616
335.675	9796
335.762	15057
335.850	21194
335.937	15733
336.024	33190
336.111	89383
336.199	36409
336.286	12832
336.373	8644
336.460	7254
336.547	6586
336.635	7717
336.722	7108
336.809	6938
336.896	10255
336.983	32151
337.070	66044
337.157	75303
337.245	49640
337.332	26880
337.419	8054
337.506	6722
337.593	8590
337.680	29851
337.767	67911
337.854	20083
337.941	24596
338.028	19411
338.115	9581
338.202	13446
338.289	19552
338.376	43675
338.463	17763
338.550	46351
338.637	37427
338.724	14802
338.811	15657
338.898	6355
338.984	5713
339.071	9456
339.158	8298
339.245	16718
339.332	10442
339.419	13102
339.506	10907
339.593	4109
339.679	5682
339.766	4879
339.853	8260
339.940	11132
340.027	5823
340.113	6364
340.200	7006
340.287	5914
340.374	7588
340.460	10117
340.547	6069
340.634	8771
340.720	23317
340.807	12374
340.894	5616
340.980	5641
341.067	4750
341.154	6179
341.240	8601
341.327	12462
341.414	7566
341.500	8001
341.587	6453
341.674	5130
341.760	9962
341.847	9900
341.933	5159
342.020	3308
342.106	4913
342.193	5957
342.279	7923
342.366	6967
342.452	9550
342.539	5993
342.625	11905
342.712	22823
342.798	11300
342.885	6152
342.971	3535
343.058	3685
343.144	4347
343.230	5108
343.317	5412
343.403	4816
343.490	4738
343.576	4990
343.662	5278
343.749	5065
343.835	7142
343.921	10736
344.008	47966
344.094	78196
344.180	18604
344.267	10746
344.353	29780
344.439	26932
344.525	17339
344.612	27463
344.698	33616
344.784	20281
344.870	9935
344.957	6751
345.043	7892
345.129	6525
345.215	9610
345.301	7711
345.387	5717
345.474	4330
345.560	4861
345.646	5189
345.732	6271
345.818	6768
345.904	6006
345.990	5170
346.076	6361
346.162	9246
346.249	5965
346.335	4282
346.421	4982
346.507	15089
346.593	33481
346.679	9366
346.765	6927
346.851	4685
346.937	5520
347.023	5894
347.108	5436
347.194	4439
347.280	5651
347.366	6656
347.452	16151
347.538	40970
347.624	33826
347.710	24637
347.796	6190
347.882	6191
347.967	5852
348.053	8462
348.139	6026
348.225	4649
348.311	4887
348.397	4164
348.482	6142
348.568	6776
348.654	4959
348.740	7444
348.825	7695
348.911	8913
348.997	23586
349.083	35425
349.168	7976
349.254	6356
349.340	6975
349.425	4535
349.511	5635
349.597	6776
349.682	10397
349.768	27245
349.854	12478
349.939	5370
350.025	5288
350.110	4507
350.196	4990
350.282	3478
350.367	4318
350.453	7089
350.538	6010
350.624	6888
350.709	6982
350.795	4342
350.880	4751
350.966	5630
351.051	6718
351.137	4926
351.222	5193
351.308	10839
351.393	24292
351.479	8127
351.564	4477
351.649	4844
351.735	4303
351.820	3953
351.906	5108
351.991	6455
352.076	17893
352.162	21536
352.247	6954
352.332	5323
352.418	10441
352.503	13452
352.588	37460
352.673	24718
352.759	8242
352.844	4678
352.929	6189
353.014	5989
353.100	5252
353.185	5245
353.270	8927
353.355	8830
353.441	5055
353.526	5004
353.611	9297
353.696	9124
353.781	7457
353.866	4668
353.952	5747
354.037	8636
354.122	17480
354.207	15544
354.292	7954
354.377	5032
354.462	4820
354.547	5205
354.632	6203
354.717	8370
354.802	4698
354.887	4287
354.972	4669
355.057	4434
355.142	3697
355.227	5768
355.312	7235
355.397	13467
355.482	24686
355.567	13375
355.652	12554
355.737	12037
355.822	31864
355.907	21941
355.991	6853
356.076	4163
356.161	5493
356.246	4746
356.331	5619
356.416	10921
356.501	47374
356.585	38332
356.670	10280
356.755	8678
356.840	9992
356.924	35882
357.009	93887
357.094	35279
357.179	11760
357.263	9912
357.348	10655
357.433	10290
357.517	9904
357.602	8605
357.687	7230
357.771	14647
357.856	41687
357.941	22881
358.025	35761
358.110	98659
358.195	45721
358.279	11614
358.364	10851
358.448	25597
358.533	57502
358.617	39598
358.702	38311
358.787	15590
358.871	11386
358.956	10101
359.040	5745
359.125	4669
359.209	7337
359.294	24564
359.378	33463
359.462	11070
359.547	5713
359.631	5141
359.716	4515
359.800	5707
359.885	10129
359.969	5338
360.053	4987
360.138	5637
360.222	6761
360.306	9562
360.391	9539
360.475	24053
360.559	40449
360.644	24128
360.728	15165
360.812	29530
360.896	61052
360.981	34361
361.065	19743
361.149	7783
361.233	7007
361.318	5013
361.402	6744
361.486	6190
361.570	5268
361.654	6236
361.739	13171
361.823	46939
361.907	59391
361.991	14398
362.075	11136
362.159	17497
362.243	18127
362.327	22962
362.411	24496
362.495	11741
362.580	8987
362.664	8113
362.748	7939
362.832	11750
362.916	22412
363.000	51253
363.084	82355
363.168	76584
363.252	23178
363.336	12265
363.420	18110
363.503	61842
363.587	59792
363.671	12457
363.755	10684
363.839	13689
363.923	9070
364.007	14208
364.091	17856
364.175	33794
364.258	99756
364.342	86410
364.426	85124
364.510	42031
364.594	24245
364.677	25357
364.761	59408
364.845	39316
364.929	17550
365.013	13496
365.096	13418
365.180	14076
365.264	30945
365.347	85046
365.431	38870
365.515	13115
365.598	6921
365.682	8179
365.766	15760
365.849	17488
365.933	8248
366.017	12984
366.100	11053
366.184	4618
366.267	5341
366.351	5247
366.435	4300
366.518	4143
366.602	4044
366.685	5407
366.769	6474
366.852	13582
366.936	17639
367.019	8804
367.103	12120
367.186	21540
367.270	6775
367.353	3442
367.436	5564
367.520	5039
367.603	5494
367.687	7399
367.770	11260
367.853	8826
367.937	22164
368.020	29500
368.104	8214
368.187	9906
368.270	14053
368.353	12668
368.437	16850
368.520	29945
368.603	19410
368.687	25974
368.770	37671
368.853	12078
368.936	16785
369.020	18197
369.103	6624
369.186	4820
369.269	5251
369.352	9256
369.436	12763
369.519	8729
369.602	4766
369.685	6742
369.768	6180
369.851	5558
369.934	4629
370.018	6170
370.101	9458
370.184	10044
370.267	9657
370.350	13198
370.433	19147
370.516	37280
370.599	37049
370.682	13322
370.765	28042
370.848	31676
370.931	48207
371.014	22953
371.097	6437
371.180	5654
371.263	5700
371.346	4182
371.429	5645
371.511	5443
371.594	8534
371.677	16458
371.760	22132
371.843	14890
371.926	51247
372.009	89165
372.091	34546
372.174	26866
372.257	46198
372.340	21689
372.423	27488
372.505	32711
372.588	13483
372.671	20055
372.754	45750
372.836	24795
372.919	34904
373.002	56017
373.085	16552
373.167	12631
373.250	26114
373.332	46045
373.415	68665
373.498	107487
373.580	46596
373.663	65466
373.746	71492
373.828	20443
373.911	13073
373.993	16497
374.076	56570
374.159	46611
374.241	19517
374.324	43055
374.406	29457
374.489	43661
374.571	92786
374.654	37788
374.736	25278
374.819	63973
374.901	85338
374.983	75985
375.066	17400
375.148	12949
375.231	48683
375.313	79355
375.395	32462
375.478	8889
375.560	6946
375.643	8041
375.725	24884
375.807	71775
375.890	57736
375.972	26348
376.054	18995
376.136	24595
376.219	12789
376.301	26988
376.383	57758
376.465	22861
376.548	16106
376.630	22901
376.712	52045
376.794	22851
376.877	5662
376.959	3655
377.041	7177
377.123	18865
377.205	19680
377.287	4408
377.369	4814
377.452	3811
377.534	4620
377.616	5147
377.698	4580
377.780	3074
377.862	4705
377.944	4701
378.026	3600
378.108	4815
378.190	4024
378.272	5214
378.354	4067
378.436	4493
378.518	10363
378.600	30581
378.682	21560
378.764	30126
378.846	22537
378.928	10505
379.010	11636
379.091	6967
379.173	4850
379.255	4597
379.337	6079
379.419	16561
379.501	41112
379.583	17946
379.664	7187
379.746	12107
379.828	34919
379.910	40558
379.991	32684
380.073	8124
380.155	6335
380.237	4861
380.318	4914
380.400	5026
380.482	9400
380.564	10369
380.645	9679
380.727	9613
380.809	8049
380.890	6074
380.972	3736
381.053	5457
381.135	7069
381.217	13551
381.298	32488
381.380	16005
381.461	18025
381.543	55283
381.624	58134
381.706	14571
381.787	11554
381.869	12957
381.951	32890
382.032	83327
382.113	53473
382.195	15667
382.276	14212
382.358	22761
382.439	50668
382.521	59749
382.602	78803
382.684	45585
382.765	80946
382.846	104560
382.928	135028
383.009	79745
383.090	80780
383.172	214814
383.253	246651
383.334	99869
383.416	83424
383.497	48636
383.578	37282
383.659	74799
383.741	215292
383.822	354773
383.903	179635
383.984	77033
384.066	97582
384.147	59108
384.228	19140
384.309	15291
384.390	12275
384.471	10157
384.553	11608
384.634	13599
384.715	13134
384.796	8801
384.877	11841
384.958	30198
385.039	33011
385.120	14079
385.201	10931
385.282	14007
385.363	13960
385.444	12951
385.525	19519
385.606	43837
385.687	35171
385.768	15293
385.849	19432
385.930	53809
386.011	74404
386.092	23735
386.173	9498
386.254	9051
386.335	10548
386.416	11496
386.496	24016
386.577	32971
386.658	17491
386.739	12314
386.820	13913
386.901	11050
386.981	10364
387.062	7186
387.143	11520
387.224	31838
387.304	29847
387.385	14177
387.466	12733
387.547	15830
387.627	10666
387.708	17934
387.789	53934
387.869	56225
387.950	18294
388.031	7837
388.111	9834
388.192	25180
388.273	30686
388.353	16357
388.434	9484
388.514	16072
388.595	50525
388.676	58153
388.756	31985
388.837	29519
388.917	18437
388.998	6660
389.078	7106
389.159	5567
389.239	4700
389.320	9811
389.400	7098
389.480	18315
389.561	33177
389.641	17173
389.722	9539
389.802	11373
389.883	19894
389.963	38542
390.043	26422
390.124	13243
390.204	16579
390.284	34612
390.365	25601
390.445	45687
390.525	77902
390.605	53972
390.686	20079
390.766	8035
390.846	7562
390.927	4126
391.007	5697
391.087	6769
391.167	6412
391.247	5111
391.328	11297
391.408	18861
391.488	14383
391.568	4750
391.648	7492
391.728	9247
391.808	9280
391.888	9699
391.969	21920
392.049	30722
392.129	20587
392.209	21968
392.289	37245
392.369	26215
392.449	32583
392.529	19887
392.609	13687
392.689	17239
392.769	36325
392.849	32221
392.929	37129
393.009	66376
393.089	47773
393.169	56153
393.248	156439
393.328	373575
393.408	342098
393.488	115202
393.568	41331
393.648	23903
393.728	17444
393.807	12714
393.887	13857
393.967	13876
394.047	15862
394.127	20454
394.206	37246
394.286	111626
394.366	277629
394.446	273866
394.525	110873
394.605	40366
394.685	29733
394.764	51209
394.844	71797
394.924	46030
395.003	15326
395.083	10674
395.163	10216
395.242	9801
395.322	10347
395.402	8621
395.481	14179
395.561	34367
395.640	73367
395.720	64784
395.799	81347
395.879	68523
395.958	62097
396.038	165548
396.117	336240
396.197	335864
396.276	184964
396.356	84207
396.435	57952
396.515	35730
396.594	33368
396.673	55897
396.753	159216
396.832	334391
396.912	230913
396.991	66947
397.070	25614
397.150	16009
397.229	14439
397.308	20620
397.388	32947
397.467	17701
397.546	9537
397.625	6022
397.705	9342
397.784	8319
397.863	5880
397.942	4929
398.022	7733
398.101	28101
398.180	65801
398.259	36630
398.338	12278
398.417	6543
398.497	6437
398.576	6969
398.655	4377
398.734	3981
398.813	6336
398.892	25406
398.971	65903
399.050	31106
399.129	6715
399.208	4488
399.287	5064
399.366	4071
399.445	3894
399.524	4832
399.603	3187
399.682	8031
399.761	24013
399.840	67447
399.919	49053
399.998	8583
400.077	3216
400.156	2942
400.235	6436
400.313	4429
400.392	6161
400.471	18984
400.550	25894
400.629	8241
400.708	6567
400.786	8368
400.865	22168
400.944	21579
401.023	10277
401.102	3430
401.180	3859
401.259	3822
401.338	6001
401.416	6755
401.495	5606
401.574	5398
401.652	5235
401.731	5800
401.810	4336
401.888	2967
401.967	2606
402.046	3613
402.124	6356
402.203	6166
402.281	5944
402.360	9400
402.438	26384
402.517	17588
402.596	6854
402.674	6778
402.753	4890
402.831	3826
402.910	5633
402.988	7931
403.066	14284
403.145	9778
403.223	9431
403.302	12281
403.380	9755
403.459	7364
403.537	5923
403.615	5354
403.694	3255
403.772	4509
403.850	4238
403.929	3908
404.007	4252
404.085	7384
404.164	8653
404.242	16464
404.320	50885
404.398	110866
404.477	116763
404.555	107038
404.633	89110
404.711	91265
404.789	71829
404.868	24287
404.946	10509
405.024	7311
405.102	5988
405.180	3897
405.258	3771
405.336	5301
405.415	5084
405.493	8608
405.571	7303
405.649	3807
405.727	3546
405.805	7148
405.883	5746
405.961	6764
406.039	8342
406.117	3445
406.195	6214
406.273	20397
406.351	58581
406.429	35500
406.507	11132
406.585	4269
406.663	4765
406.740	4224
406.818	3624
406.896	3690
406.974	4777
407.052	7233
407.130	37352
407.208	44069
407.285	10471
407.363	2949
407.441	2921
407.519	3275
407.596	4548
407.674	9606
407.752	22535
407.830	26483
407.907	12521
407.985	3445
408.063	3501
408.141	3366
408.218	7908
408.296	4732
408.373	2920
408.451	3506
408.529	2896
408.606	1975
408.684	2882
408.762	1487
408.839	2521
408.917	2226
408.994	2407
409.072	2157
409.149	3281
409.227	5792
409.304	6792
409.382	5915
409.459	7205
409.537	8703
409.614	8704
409.692	6524
409.769	6539
409.846	8745
409.924	12172
410.001	8289
410.079	7873
410.156	6628
410.233	5943
410.311	3669
410.388	3375
410.465	4871
410.543	4121
410.620	3122
410.697	4119
410.775	3772
410.852	1558
410.929	5225
411.006	6300
411.083	3470
411.161	9268
411.238	11223
411.315	6816
411.392	3517
411.469	5293
411.547	5937
411.624	3065
411.701	2314
411.778	4331
411.855	5638
411.932	3751
412.009	2370
412.086	2736
412.163	3694
412.240	4407
412.317	6325
412.394	5707
412.471	2705
412.548	2433
412.625	1660
412.702	4465
412.779	7364
412.856	5154
412.933	2621
413.010	2473
413.087	5037
413.164	17321
413.241	21369
413.318	4979
413.395	5309
413.471	6343
413.548	2953
413.625	4070
413.702	3567
413.779	3593
413.855	1391
413.932	2122
414.009	1619
414.086	2254
414.162	2724
414.239	5455
414.316	17241
414.393	32503
414.469	10041
414.546	2059
414.623	2122
414.699	2316
414.776	2563
414.853	1899
414.929	2624
415.006	2843
415.082	4264
415.159	3025
415.236	2642
415.312	2534
415.389	4630
415.465	4537
415.542	2955
415.618	2202
415.695	4022
415.771	3084
415.848	2624
415.924	3475
416.000	3125
416.077	2948
416.153	894
416.230	747
416.306	1783
416.383	2242
416.459	1162
416.535	866
416.612	1772
416.688	2101
416.764	1467
416.841	1624
416.917	1919
416.993	2401
417.069	3387
417.146	6306
417.222	8153
417.298	4497
417.374	1847
417.451	3182
417.527	2950
417.603	2840
417.679	1505
417.755	2659
417.831	1057
417.908	2049
417.984	1357
418.060	1951
418.136	4481
418.212	5438
418.288	2864
418.364	2426
418.440	1911
418.516	5411
418.592	7898
418.668	10741
418.744	10189
418.820	6722
418.896	3404
418.972	1623
419.048	2361
419.124	5710
419.200	2951
419.276	2070
419.352	775
419.428	1796
419.504	2691
419.579	2847
419.655	2018
419.731	2219
419.807	7532
419.883	11452
419.959	8239
420.034	4256
420.110	8247
420.186	23340
420.262	15894
420.337	4767
420.413	3284
420.489	2567
420.565	3423
420.640	2631
420.716	3571
420.792	2535
420.867	2898
420.943	3660
421.019	4805
421.094	4230
421.170	3003
421.245	3327
421.321	3788
421.397	4403
421.472	8395
421.548	14337
421.623	11508
421.699	7791
421.774	6741
421.850	7690
421.925	9928
422.001	10543
422.076	11840
422.152	14442
422.227	19928
422.302	29088
422.378	41728
422.453	76637
422.529	154821
422.604	271148
422.679	314296
422.755	261775
422.830	140117
422.905	72203
422.981	41546
423.056	27915
423.131	20556
423.207	16080
423.282	13895
423.357	14559
423.432	10390
423.508	10231
423.583	13953
423.658	11661
423.733	7624
423.808	7691
423.883	7373
423.959	6205
424.034	6056
424.109	7044
424.184	3693
424.259	3435
424.334	3165
424.409	2347
424.484	2965
424.559	4168
424.634	2323
424.709	3333
424.784	3243
424.859	3421
424.934	5102
425.009	15334
425.084	23072
425.159	9089
425.234	3254
425.309	3292
425.384	16841
425.459	24905
425.534	8350
425.609	3846
425.683	2773
425.758	2330
425.833	2830
425.908	3592
425.983	10505
426.058	24051
426.132	10314
426.207	3616
426.282	8850
426.357	7911
426.431	2285
426.506	3607
426.581	2709
426.655	2666
426.730	1659
426.805	2184
426.879	2942
426.954	2657
427.029	5698
427.103	24680
427.178	50216
427.253	22094
427.327	4990
427.402	13037
427.476	30506
427.551	14624
427.625	5277
427.700	3690
427.774	2906
427.849	3976
427.923	2327
427.998	2246
428.072	4149
428.147	10486
428.221	37390
428.296	82466
428.370	37862
428.444	8056
428.519	11956
428.593	22179
428.667	18288
428.742	23029
428.816	25123
428.890	72123
428.965	92696
429.039	35318
429.113	23160
429.188	8749
429.262	3230
429.336	5241
429.410	12512
429.485	11138
429.559	17633
429.633	13015
429.707	5057
429.781	19170
429.855	75092
429.930	90686
430.004	56146
430.078	84191
430.152	79234
430.226	112928
430.300	92490
430.374	17326
430.448	9304
430.522	31690
430.596	70421
430.670	47324
430.744	83537
430.818	88568
430.892	17492
430.966	4138
431.040	3275
431.114	2201
431.188	2274
431.262	2366
431.336	2227
431.410	11172
431.484	23639
431.557	12216
431.631	3036
431.705	5012
431.779	24374
431.853	74763
431.927	43669
432.000	5845
432.074	3112
432.148	4393
432.222	3735
432.295	1781
432.369	1751
432.443	4456
432.516	25476
432.590	50792
432.664	18863
432.737	2982
432.811	884
432.885	1280
432.958	1438
433.032	869
433.106	507
433.179	1084
433.253	906
433.326	908
433.400	380
433.473	1416
433.547	247
433.620	1346
433.694	3481
433.767	2785
433.841	816
433.914	1686
433.988	1718
434.061	1250
434.134	1213
434.208	1464
434.281	481
434.355	1121
434.428	2324
434.501	2130
434.575	1154
434.648	1946
434.721	423
434.795	1097
434.868	1363
434.941	880
435.014	-610
435.088	1397
435.161	2559
435.234	4225
435.307	3771
435.381	2671
435.454	2734
435.527	3252
435.600	3657
435.673	3673
435.746	2535
435.819	2535
435.892	1657
435.966	2365
436.039	2096
436.112	2332
436.185	1865
436.258	1259
436.331	33
436.404	1066
436.477	925
436.550	414
436.623	699
436.696	1003
436.769	1187
436.842	1074
436.915	1902
436.987	2743
437.060	1395
437.133	1154
437.206	564
437.279	2048
437.352	1493
437.425	1127
437.498	1310
437.570	5215
437.643	3543
437.716	2170
437.789	514
437.861	4594
437.934	9315
438.007	4382
438.080	1280
438.152	2100
438.225	4431
438.298	29967
438.370	62867
438.443	26274
438.516	7471
438.588	2299
438.661	615
438.734	667
438.806	2063
438.879	2104
438.951	2597
439.024	5444
439.096	1258
439.169	27
439.241	400
439.314	883
439.386	3257
439.459	5074
439.531	5369
439.604	2153
439.676	524
439.749	234
439.821	559
439.893	1168
439.966	1341
440.038	1914
440.110	1534
440.183	1209
440.255	725
440.327	3361
440.400	15798
440.472	45752
440.544	25302
440.617	4298
440.689	4224
440.761	6075
440.833	7240
440.905	4496
440.978	1060
441.050	823
441.122	1548
441.194	581
441.266	1058
441.338	968
441.411	3144
441.483	16743
441.555	19551
441.627	5436
441.699	5214
441.771	5267
441.843	2035
441.915	706
441.987	1027
442.059	1248
442.131	2939
442.203	5479
442.275	5344
442.347	6420
442.419	12156
442.491	52245
442.563	88257
442.635	35302
442.706	23498
442.778	14850
442.850	3635
442.922	2505
442.994	3599
443.066	5410
443.137	4067
443.209	5399
443.281	6905
443.353	19137
443.425	68613
443.496	165815
443.568	137266
443.640	46436
443.711	10597
443.783	4849
443.855	3194
443.926	2636
443.998	3891
444.070	5018
444.141	3681
444.213	3783
444.285	4611
444.356	3526
444.428	3635
444.499	2366
444.571	973
444.642	2504
444.714	2060
444.785	4835
444.857	7697
444.928	17531
445.000	9894
445.071	12423
445.143	12611
445.214	8828
445.285	18832
445.357	52390
445.428	131894
445.500	209342
445.571	139902
445.642	71783
445.714	33795
445.785	28847
445.856	8305
445.928	5842
445.999	4800
446.070	3388
446.141	3649
446.213	4154
446.284	2300
446.355	4801
446.426	2729
446.497	2764
446.569	5983
446.640	6339
446.711	3338
446.782	1937
446.853	2501
446.924	3242
446.995	1624
447.066	3213
447.138	6512
447.209	3650
447.280	329
447.351	788
447.422	802
447.493	2910
447.564	2751
447.635	2756
447.706	1567
447.777	795
447.847	1150
447.918	1477
447.989	3559
448.060	5585
448.131	11880
448.202	8235
448.273	4426
448.344	1911
448.414	1234
448.485	1203
448.556	877
448.627	995
448.698	1490
448.768	697
448.839	2506
448.910	5601
448.981	4908
449.051	1200
449.122	853
449.193	1529
449.263	1259
449.334	1381
449.405	2944
449.475	4337
449.546	4308
449.616	7042
449.687	5433
449.758	1855
449.828	2011
449.899	1448
449.969	655
450.040	846
450.110	1626
450.181	1818
450.251	703
450.322	1573
450.392	1501
450.463	1624
450.533	1353
450.604	1557
450.674	1050
450.744	2046
450.815	923
450.885	1895
450.955	1559
451.026	1839
451.096	1457
451.166	2717
451.237	9056
451.307	19120
451.377	6257
451.447	2084
451.518	1240
451.588	1412
451.658	2536
451.728	5304
451.799	21205
451.869	20214
451.939	4123
452.009	2412
452.079	1310
452.149	3577
452.219	7220
452.289	23994
452.360	13894
452.430	3236
452.500	1827
452.570	4067
452.640	6608
452.710	17591
452.780	22365
452.850	11340
452.920	7858
452.990	3933
453.060	2980
453.129	3650
453.199	6136
453.269	28157
453.339	44622
453.409	61147
453.479	73831
453.549	103784
453.619	105272
453.688	33887
453.758	6514
453.828	3999
453.898	2615
453.968	1329
454.037	2145
454.087	2018
454.107	1958
454.168	2023
454.177	2022
454.247	2042
454.249	2019
454.316	961
454.330	1414
454.386	2999
454.411	6326
454.456	11807
454.492	13578
454.525	15239
454.574	7769
454.595	4514
454.655	2738
454.665	2473
454.734	2707
454.736	2858
454.804	6942
454.817	9564
454.873	20174
454.898	19868
454.943	19249
454.979	11880
455.013	5307
455.060	3950
455.082	3443
455.141	4369
455.152	4435
455.221	15822
455.222	15982
455.291	25125
455.303	23250
455.360	14915
455.384	17408
455.430	21135
455.465	17466
455.499	14153
455.546	16852
455.569	17925
455.627	11021
455.638	9834
455.707	2294
455.708	2313
455.777	2104
455.789	2227
455.846	2812
455.869	2496
455.916	1847
455.950	2305
455.985	2737
456.031	2911
456.054	2981
456.112	2248
456.124	2125
456.193	1925
456.193	1902
456.262	2915
456.274	3063
456.332	3932
456.355	3808
456.401	3094
456.436	2505
456.470	2149
456.516	2207
456.540	2174
456.597	1647
456.609	1516
456.678	2141
456.678	2130
456.747	1915
456.759	1863
456.817	1768
456.840	1789
456.886	1674
456.920	1695
456.955	1790
457.001	2362
457.024	2587
457.082	2643
457.093	2696
457.162	3439
457.163	3464
457.232	3485
457.243	3388
457.301	3407
457.324	3134
457.370	2406
457.405	2255
457.439	2379
457.485	2588
457.508	2580
457.566	3378
457.577	3653
457.646	4409
457.647	4452
457.715	8104
457.727	8742
457.784	12523
457.808	15224
457.853	17808
457.889	19381
457.922	19133
457.969	14409
457.991	14603
458.050	18524
458.060	19294
458.129	30491
458.130	30786
458.198	26117
458.211	23140
458.267	13398
458.292	10162
458.336	8212
458.372	8234
458.405	11450
458.453	17176
458.474	19985
458.533	31591
458.543	32229
458.611	44602
458.614	44651
458.680	25799
458.694	20559
458.749	10742
458.775	8404
458.818	6097
458.855	5235
458.887	4661
458.936	4503
458.955	4502
459.016	3921
459.024	3846
459.093	4544
459.097	4540
459.162	3988
459.177	3936
459.230	4215
459.257	4493
459.299	4584
459.338	4725
459.368	4982
459.418	5427
459.437	5393
459.499	4726
459.505	4702
459.574	4372
459.579	4356
459.643	3776
459.659	3742
459.711	3847
459.740	4266
459.780	4837
459.820	4789
459.849	4720
459.900	4944
459.917	4947
459.981	5033
459.986	5035
460.054	4795
460.061	4800
460.123	5223
460.141	5348
460.191	5548
460.222	5701
460.260	5856
460.302	6145
460.328	6069
460.382	5740
460.397	5819
460.462	5910
460.465	6037
460.534	9577
460.543	10031
460.602	18625
460.623	22182
460.671	31448
460.703	41850
460.739	38516
460.783	26265
460.808	22371
460.864	7835
460.876	6179
460.944	4967
460.945	4951
461.013	5213
461.024	5128
461.081	4589
461.104	4689
461.150	4653
461.184	4551
461.218	4710
461.264	4405
461.286	4251
461.345	4365
461.355	4359
461.423	5055
461.425	5036
461.491	5090
461.505	5346
461.559	8986
461.585	10711
461.628	14309
461.665	18444
461.696	19603
461.745	23695
461.764	22448
461.825	8983
461.832	8340
461.901	5142
461.905	5088
461.969	4874
461.985	4794
462.037	5178
462.065	5560
462.105	6305
462.145	6981
462.173	8297
462.225	11023
462.241	11868
462.305	16751
462.310	16419
462.378	10117
462.385	8982
462.446	5962
462.465	5767
462.514	5573
462.545	5603
462.582	5846
462.625	6000
462.650	5633
462.705	5123
462.718	5422
462.785	6508
462.786	6514
462.854	6845
462.865	7015
462.922	8919
462.945	9738
462.990	8412
463.025	6438
463.058	5950
463.104	5722
463.126	5515
463.184	5241
463.194	5335
463.262	5537
463.264	5565
463.330	5851
463.344	5817
463.398	6302
463.424	6641
463.466	6613
463.504	6522
463.533	6464
463.583	6253
463.601	6524
463.663	7431
463.669	7530
463.737	8886
463.743	8988
463.805	13200
463.823	14547
463.873	19992
463.903	23612
463.940	23411
463.982	23801
464.008	20454
464.062	9782
464.076	9134
464.142	6619
464.144	6587
464.211	6460
464.221	6493
464.279	6523
464.301	6540
464.347	7085
464.381	7341
464.414	7676
464.461	8413
464.482	8898
464.540	10372
464.550	10137
464.617	7365
464.620	7282
464.685	8220
464.699	8397
464.753	9515
464.779	10091
464.820	11655
464.859	13239
464.888	12508
464.938	10969
464.956	11291
465.018	12279
465.023	12161
465.091	10530
465.098	10335
465.158	10329
465.177	10388
465.226	10337
465.257	10206
465.293	9721
465.336	9089
465.361	9836
465.416	11618
465.428	12394
465.495	16377
465.496	16444
465.563	22879
465.575	24117
465.631	26850
465.654	28044
465.698	19480
465.734	11088
465.765	9689
465.813	8023
465.833	7985
465.893	8560
465.900	8540
465.968	8104
465.972	8062
466.035	8728
466.052	8896
466.102	9387
466.131	9664
466.170	9125
466.210	8511
466.237	8801
466.290	9304
466.304	9167
466.369	8460
466.372	8489
466.439	8929
466.449	8980
466.506	10182
466.528	10654
466.573	15549
466.607	19112
466.641	23416
466.687	29458
466.708	31579
466.766	37689
466.775	34908
466.842	13044
466.845	11989
466.909	11351
466.925	11306
466.977	10421
467.004	9945
467.044	10875
467.083	11812
467.111	12767
467.163	14454
467.178	14769
467.242	16004
467.245	15975
467.312	14816
467.321	14639
467.379	14667
467.400	14639
467.446	15322
467.480	15769
467.559	14258
467.638	13618
467.717	12946
467.796	14187
467.875	14652
467.955	14236
468.034	24913
468.113	38365
468.192	51460
468.271	16844
468.350	15989
468.429	18344
468.508	17635
468.588	14600
468.667	13812
468.746	13891
468.825	14364
468.904	12373
468.983	15571
469.062	18821
469.141	20995
469.220	11849
469.299	13628
469.378	13043
469.456	16516
469.535	14540
469.614	15109
469.693	14467
469.772	19165
469.851	21718
469.930	14481
470.009	13256
470.088	12695
470.166	15163
470.245	16654
470.324	18522
470.403	14827
470.482	13827
470.560	13037
470.639	13262
470.718	14865
470.797	13132
470.875	15737
470.954	16823
471.033	18572
471.111	11837
471.190	12164
471.269	10985
471.347	11547
471.426	11960
471.505	13872
471.583	14252
471.662	13689
471.740	12812
471.819	12770
471.898	12515
471.976	12893
472.055	12446
472.133	13931
472.212	16840
472.290	16856
472.369	12194
472.447	12581
472.526	10810
472.604	12426
472.683	11681
472.761	11149
472.839	11295
472.918	12198
472.996	12044
473.075	13389
473.153	12961
473.231	12070
473.310	12852
473.388	12854
473.466	12757
473.545	14025
473.623	13789
473.701	13552
473.780	11183
473.858	11705
473.936	13356
474.014	12645
474.093	13458
474.171	17594
474.249	22383
474.327	14377
474.405	10143
474.484	11128
474.562	11068
474.640	10570
474.718	11624
474.796	11383
474.874	11024
474.952	10761
475.030	10946
475.108	9856
475.187	11330
475.265	11210
475.343	11780
475.421	13308
475.499	11335
475.577	12931
475.655	16799
475.733	25609
475.811	39942
475.889	34543
475.966	21343
476.044	11696
476.122	11514
476.200	12536
476.278	11182
476.356	12058
476.434	12139
476.512	11764
476.590	12121
476.667	13684
476.745	10892
476.823	12475
476.901	12004
476.979	12583
477.056	11927
477.134	12303
477.212	12792
477.290	11970
477.367	11436
477.445	11791
477.523	11122
477.601	11587
477.678	11607
477.756	13427
477.834	14426
477.911	10918
477.989	10939
478.066	10985
478.144	12232
478.222	10927
478.299	10836
478.377	11262
478.454	11687
478.532	11495
478.609	11199
478.687	11626
478.764	10053
478.842	11332
478.919	11400
478.997	12038
479.074	10702
479.152	13026
479.229	14421
479.307	11160
479.384	9227
479.461	11562
479.539	10832
479.616	12372
479.694	10703
479.771	12750
479.848	12711
479.926	15007
480.003	15120
480.080	11333
480.157	10419
480.235	10496
480.312	10926
480.389	12962
480.467	16609
480.544	19228
480.621	12053
480.698	12476
480.775	13253
480.853	13363
480.930	11606
481.007	13451
481.084	13898
481.161	14984
481.238	13479
481.315	11104
481.392	9596
481.470	11987
481.547	10708
481.624	11877
481.701	11115
481.778	12041
481.855	13155
481.932	17997
482.009	24212
482.086	16378
482.163	11044
482.240	13237
482.317	11744
482.393	11544
482.470	12322
482.547	12677
482.624	10473
482.701	12773
482.778	12032
482.855	11367
482.932	11279
483.009	10951
483.085	12023
483.162	13811
483.239	13059
483.316	11294
483.393	11995
483.469	11828
483.546	13087
483.623	12997
483.699	10624
483.776	11992
483.853	13198
483.930	19276
484.006	36567
484.083	56347
484.160	34958
484.236	50664
484.313	38056
484.389	30990
484.466	28598
484.543	28025
484.619	27987
484.696	29694
484.772	28753
484.849	29811
484.925	25361
485.002	25776
485.078	26321
485.155	26686
485.231	23846
485.308	23755
485.384	24461
485.461	30558
485.537	41292
485.614	44299
485.690	23916
485.766	22828
485.843	24347
485.919	25892
485.995	25006
486.072	21627
486.148	22245
486.224	21904
486.301	22600
486.377	24911
486.453	23707
486.530	25893
486.606	32574
486.682	36266
486.758	38567
486.835	41146
486.911	34887
486.987	48745
487.063	40310
487.139	40663
487.215	35268
487.292	27599
487.368	26279
487.444	29317
487.520	32215
487.596	36037
487.672	63553
487.748	136751
487.824	175676
487.900	69687
487.976	34334
488.052	29633
488.128	30294
488.204	24836
488.280	24126
488.356	30090
488.432	46585
488.508	61543
488.584	24272
488.660	20925
488.736	20983
488.812	21617
488.888	24364
488.964	28372
489.039	37555
489.115	46324
489.191	32999
489.267	22573
489.343	21259
489.418	21305
489.494	18942
489.570	17755
489.646	20666
489.722	19322
489.797	20354
489.873	31285
489.949	49486
490.024	39001
490.100	18706
490.176	19524
490.251	19559
490.327	22167
490.403	17841
490.478	18154
490.554	16094
490.629	17630
490.705	16219
490.781	17855
490.856	16938
490.932	19003
491.007	17512
491.083	17807
491.158	17708
491.234	23977
491.309	39536
491.385	36445
491.460	16898
491.536	18370
491.611	16223
491.686	17388
491.762	19506
491.837	26337
491.913	39349
491.988	49224
492.063	50574
492.139	28416
492.214	21008
492.289	15304
492.365	13978
492.440	16506
492.515	16581
492.590	16593
492.666	14832
492.741	19062
492.816	24344
492.891	16596
492.967	15014
493.042	14566
493.117	13624
493.192	15067
493.267	21841
493.342	41991
493.418	45039
493.493	16055
493.568	12796
493.643	13801
493.718	16870
493.793	20398
493.868	18987
493.943	14595
494.018	14397
494.093	13913
494.168	15282
494.243	13544
494.318	12749
494.393	13166
494.468	12802
494.543	13131
494.618	13283
494.693	13729
494.768	12275
494.842	13754
494.917	12138
494.992	13668
495.067	11957
495.142	12929
495.217	13010
495.292	13643
495.366	15580
495.441	15661
495.516	18617
495.591	23370
495.665	47638
495.740	80777
495.815	36592
495.890	18304
495.964	14965
496.039	19299
496.114	16367
496.188	17791
496.263	18160
496.338	15500
496.412	17503
496.487	20596
496.561	17152
496.636	18166
496.710	16736
496.785	18014
496.860	19061
496.934	15839
497.009	14724
497.083	16520
497.158	17401
497.232	19137
497.307	20358
497.381	18863
497.455	21009
497.530	24695
497.604	17689
497.679	19296
497.753	25916
497.827	27867
497.902	21536
497.976	30448
498.050	88145
498.125	248539
498.199	197879
498.273	28228
498.348	19269
498.422	18081
498.496	19100
498.570	19476
498.645	16741
498.719	16714
498.793	20385
498.867	29824
498.941	46053
499.016	127291
499.090	252919
499.164	73038
499.238	18153
499.312	16374
499.386	18158
499.460	18947
499.534	17277
499.609	22433
499.683	26261
499.757	27864
499.831	67098
499.905	191922
499.979	145049
500.053	31743
500.127	30593
500.201	20164
500.275	17611
500.349	17999
500.422	18472
500.496	22846
500.570	44080
500.644	119635
500.718	180672
500.792	38244
500.866	18935
500.940	22116
501.013	18871
501.087	18637
501.161	23692
501.235	34568
501.309	84517
501.382	184682
501.456	132802
501.530	42328
501.603	61610
501.677	25988
501.751	15070
501.825	19224
501.898	36419
501.972	77557
502.046	44205
502.119	20366
502.193	41768
502.266	80928
502.340	40411
502.413	46867
502.487	73361
502.561	41083
502.634	16814
502.708	14827
502.781	11657
502.855	13156
502.928	12179
503.002	14071
503.075	12703
503.149	14000
503.222	12915
503.295	15001
503.369	16749
503.442	24991
503.516	70948
503.589	142576
503.662	86698
503.736	36786
503.809	71130
503.882	60510
503.956	85458
504.029	81844
504.102	80988
504.175	93367
504.249	41384
504.322	26803
504.395	19467
504.468	16305
504.542	14635
504.615	12277
504.688	12216
504.761	9756
504.834	14113
504.907	14487
504.980	16148
505.053	13099
505.127	12716
505.200	19280
505.273	17578
505.346	13195
505.419	10967
505.492	12463
505.565	10045
505.638	11465
505.711	9747
505.784	9888
505.857	10109
505.930	12248
506.003	9941
506.076	13314
506.149	13679
506.221	14167
506.294	17690
506.367	40354
506.440	97977
506.513	47292
506.586	16529
506.659	12573
506.731	10868
506.804	12143
506.877	13346
506.950	12022
507.022	11426
507.095	12332
507.168	14237
507.241	11009
507.313	9885
507.386	9848
507.459	11537
507.531	9356
507.604	9332
507.677	10770
507.749	8390
507.822	14121
507.894	19715
507.967	24804
508.040	16257
508.112	15939
508.185	15326
508.257	13953
508.330	16975
508.402	15399
508.475	14462
508.547	16953
508.620	16028
508.692	20771
508.765	15632
508.837	13160
508.909	13272
508.982	13270
509.054	13405
509.127	12978
509.199	12015
509.271	11932
509.344	12335
509.416	12602
509.488	12750
509.560	13475
509.633	12955
509.705	14587
509.777	14789
509.849	17689
509.922	15213
509.994	15498
510.066	17042
510.138	16747
510.210	27310
510.283	24282
510.355	21064
510.427	18769
510.499	17080
510.571	17117
510.643	15432
510.715	20621
510.787	16048
510.859	18340
510.931	18212
511.003	20520
511.076	19321
511.148	16387
511.219	17450
511.291	26162
511.363	24823
511.435	18175
511.507	14873
511.579	15560
511.651	15926
511.723	15893
511.795	15011
511.867	15219
511.939	18196
512.010	27134
512.082	21315
512.154	13428
512.226	15200
512.298	22166
512.369	25526
512.441	21611
512.513	18764
512.585	15633
512.656	17028
512.728	17602
512.800	15353
512.871	16124
512.943	15411
513.015	14170
513.086	15412
513.158	15318
513.230	15230
513.301	17547
513.373	16804
513.444	14598
513.516	13944
513.588	14452
513.659	14567
513.731	14875
513.802	13359
513.874	20684
513.945	23847
514.016	14686
514.088	13795
514.159	13954
514.231	17550
514.302	23751
514.374	20027
514.445	19093
514.516	29998
514.588	22294
514.659	19575
514.730	27246
514.802	18871
514.873	13780
514.944	16759
515.016	15431
515.087	15446
515.158	21853
515.229	26606
515.301	13694
515.372	14518
515.443	13912
515.514	14041
515.585	12312
515.656	13760
515.728	14108
515.799	13841
515.870	15973
515.941	15230
516.012	15736
516.083	19950
516.154	19020
516.225	20231
516.296	20629
516.367	18350
516.438	19034
516.509	21788
516.580	32961
516.651	95955
516.722	225117
516.793	91412
516.864	31141
516.935	30236
517.006	33585
517.077	41618
517.148	96077
517.219	315709
517.289	373460
517.360	138446
517.431	49622
517.502	23265
517.573	24086
517.643	23278
517.714	25143
517.785	25498
517.856	25506
517.926	29051
517.997	30010
518.068	31962
518.138	40442
518.209	67332
518.280	246296
518.350	601802
518.421	199669
518.492	44712
518.562	34964
518.633	34972
518.703	39508
518.774	72231
518.845	141871
518.915	109482
518.986	45716
519.056	33064
519.127	36271
519.197	54821
519.268	115159
519.338	68859
519.408	25873
519.479	23899
519.549	19967
519.620	18431
519.690	16158
519.760	16349
519.831	16815
519.901	16051
519.971	17140
520.042	17131
520.112	18729
520.182	18672
520.253	19735
520.323	18886
520.393	28390
520.463	36765
520.534	28740
520.604	49302
520.674	24760
520.744	27070
520.814	55354
520.885	43615
520.955	54773
521.025	131419
521.095	46421
521.165	18709
521.235	16942
521.305	15055
521.375	15357
521.445	16624
521.515	16366
521.585	18051
521.655	16271
521.725	15959
521.795	16489
521.865	14018
521.935	23077
522.005	17399
522.075	14991
522.145	17433
522.215	17118
522.285	21037
522.355	26915
522.424	42668
522.494	33804
522.564	19766
522.634	27683
522.704	50557
522.774	22874
522.843	14469
522.913	14115
522.983	15695
523.053	14224
523.122	15423
523.192	16650
523.262	28858
523.331	25291
523.401	14752
523.471	13435
523.540	13891
523.610	12272
523.680	13465
523.749	14396
523.819	16783
523.888	15995
523.958	13225
524.027	15220
524.097	15240
524.166	14164
524.236	12296
524.305	15707
524.375	12741
524.444	12511
524.514	16654
524.583	14644
524.653	17265
524.722	18340
524.791	14085
524.861	15303
524.930	12597
524.999	13408
525.069	16323
525.138	16093
525.207	17003
525.277	15840
525.346	15332
525.415	15591
525.484	16150
525.554	17854
525.623	18824
525.692	18630
525.761	19935
525.830	21406
525.900	24034
525.969	35222
526.038	56120
526.107	124206
526.176	286045
526.245	191989
526.314	75918
526.383	163323
526.452	193138
526.522	329044
526.591	239711
526.660	57649
526.729	35730
526.797	40980
526.867	79720
526.935	272193
527.004	553073
527.073	249211
527.142	39996
527.211	23347
527.280	19186
527.349	17871
527.418	14735
527.487	15498
527.555	13289
527.624	13155
527.693	11384
527.762	14716
527.831	11531
527.899	12773
527.968	12796
528.037	11249
528.106	14071
528.174	17374
528.243	16493
528.312	20902
528.380	21730
528.449	11906
528.518	13654
528.586	10720
528.655	12562
528.723	12981
528.792	11842
528.861	12694
528.929	10971
528.998	14755
529.066	18273
529.135	26919
529.203	24631
529.272	33044
529.340	38299
529.409	36692
529.477	32543
529.545	34823
529.614	38695
529.682	45169
529.751	49283
529.819	53194
529.887	54717
529.956	48186
530.024	45905
530.092	43077
530.161	42997
530.229	45502
530.297	47451
530.365	46721
530.434	50087
530.502	50370
530.570	44730
530.638	39323
530.707	38925
530.775	37126
530.843	37925
530.911	42678
530.979	42454
531.047	48643
531.115	45892
531.183	42431
531.252	40927
531.320	39614
531.388	39803
531.456	44644
531.524	46474
531.592	50343
531.660	54954
531.728	48988
531.796	45605
531.864	45743
531.932	45872
532.000	46632
532.067	50532
532.135	53753
532.203	56442
532.271	59267
532.339	63445
532.407	68358
532.475	59657
532.542	54255
532.610	53565
532.678	61066
532.746	97821
532.814	135779
532.881	71075
532.949	57442
533.017	52821
533.084	50549
533.152	49113
533.220	49237
533.287	49001
533.355	52672
533.423	52987
533.490	54254
533.558	50442
533.625	49634
533.693	48977
533.761	48506
533.828	46835
533.896	48493
533.963	59115
534.031	62479
534.098	64610
534.166	56030
534.233	49519
534.300	53095
534.368	49586
534.435	48490
534.503	47487
534.570	51211
534.637	48674
534.705	49779
534.772	51425
534.840	69584
534.907	175533
534.974	154944
535.041	47313
535.109	41552
535.176	36358
535.243	39185
535.310	37934
535.378	37219
535.445	35640
535.512	35087
535.579	32822
535.646	32716
535.714	33797
535.781	37350
535.848	37383
535.915	41598
535.982	43747
536.049	42184
536.116	39845
536.183	35837
536.250	33371
536.317	33247
536.384	33381
536.451	35132
536.518	33974
536.585	31020
536.652	35893
536.719	35409
536.786	29631
536.853	29150
536.920	33110
536.987	34464
537.053	35050
537.120	74331
537.187	55645
537.254	28801
537.321	27840
537.388	27530
537.454	25170
537.521	24022
537.588	23870
537.654	25839
537.721	26216
537.788	26419
537.855	24509
537.921	25510
537.988	23760
538.055	25068
538.121	22554
538.188	22932
538.254	24350
538.321	26994
538.388	24470
538.454	23546
538.521	23187
538.587	23604
538.654	23354
538.720	22236
538.787	22244
538.853	22238
538.920	23136
538.986	22733
539.053	20563
539.119	22146
539.185	20791
539.252	24138
539.318	23967
539.385	26497
539.451	24232
539.517	23854
539.583	23671
539.650	35795
539.716	51493
539.782	25149
539.849	19463
539.915	21937
539.981	19940
540.047	21403
540.114	20783
540.180	21554
540.246	19485
540.312	23865
540.378	27047
540.444	26188
540.510	33806
540.576	53949
540.643	25513
540.709	19728
540.775	19682
540.841	20185
540.907	24571
540.973	32926
541.039	23943
541.105	22092
541.171	20722
541.237	20533
541.303	20803
541.369	22405
541.435	22440
541.500	25073
541.566	18791
541.632	18829
541.698	17917
541.764	20379
541.830	18164
541.896	18342
541.961	19552
542.027	17801
542.093	18182
542.159	19491
542.224	19222
542.290	24895
542.356	24750
542.421	24289
542.487	20567
542.553	19582
542.618	20203
542.684	19359
542.750	18132
542.815	20884
542.881	27176
542.947	52779
543.012	36087
543.078	18932
543.143	17103
543.209	19969
543.274	18894
543.340	20160
543.405	30196
543.471	32936
543.536	19009
543.602	18946
543.667	18218
543.732	19634
543.798	18360
543.863	20162
543.928	17971
543.994	18099
544.059	18079
544.124	19255
544.190	18771
544.255	19306
544.320	19160
544.386	19600
544.451	21046
544.516	21773
544.581	22773
544.646	41777
544.712	47287
544.777	23860
544.842	23866
544.907	23763
544.972	22776
545.037	23101
545.102	23685
545.168	24662
545.233	24083
545.298	26111
545.363	26220
545.428	26556
545.493	34024
545.558	45553
545.623	28547
545.688	24314
545.753	24654
545.818	23616
545.883	25841
545.947	24964
546.012	26736
546.077	27010
546.142	27843
546.207	27090
546.272	29572
546.337	29433
546.401	29269
546.466	30702
546.531	28907
546.596	32443
546.661	30459
546.725	32195
546.790	31471
546.855	34936
546.919	35278
546.984	38118
547.049	40730
547.113	46043
547.178	46822
547.243	53826
547.307	59946
547.372	65673
547.436	66735
547.501	66416
547.565	68898
547.630	66695
547.695	65079
547.759	66833
547.823	64720
547.888	66103
547.952	66157
548.017	69889
548.081	70884
548.146	74831
548.210	74521
548.274	75340
548.339	72806
548.403	68496
548.468	64415
548.532	64364
548.596	65281
548.660	65931
548.725	70756
548.789	78358
548.853	77614
548.917	73703
548.982	75576
549.046	69379
549.110	58290
549.174	61784
549.238	69742
549.303	74585
549.367	76489
549.431	72364
549.495	68720
549.559	69613
549.623	79555
549.687	87289
549.751	89820
549.815	101022
549.879	99530
549.943	94933
550.007	102154
550.071	98477
550.135	93439
550.199	90014
550.263	86832
550.327	84178
550.391	90949
550.455	95120
550.519	96798
550.582	105965
550.646	118426
550.710	117156
550.774	113546
550.838	114673
550.901	117178
550.965	125053
551.029	128234
551.093	137054
551.156	151264
551.220	179112
551.284	172500
551.347	138738
551.411	159081
551.475	150200
551.538	125577
551.602	116811
551.666	111564
551.729	105302
551.793	104978
551.856	103801
551.920	102401
551.983	102805
552.047	100623
552.110	102375
552.174	103314
552.237	104734
552.301	97047
552.364	95262
552.428	94392
552.491	96499
552.554	96650
552.618	97393
552.681	99387
552.745	98175
552.808	106014
552.871	112913
552.934	104380
552.998	98747
553.061	97257
553.124	94104
553.187	94458
553.251	98192
553.314	99234
553.377	100016
553.440	113569
553.503	153169
553.567	168154
553.630	110196
553.693	106089
553.756	107865
553.819	104771
553.882	103701
553.945	103245
554.008	102526
554.071	102869
554.134	103004
554.197	99542
554.260	97665
554.323	101218
554.386	101600
554.449	104783
554.512	103291
554.575	101486
554.638	100980
554.701	98347
554.764	99157
554.827	94520
554.889	92248
554.952	87617
555.015	86764
555.078	87825
555.141	88592
555.203	85374
555.266	87559
555.329	86175
555.391	84030
555.454	81491
555.517	80102
555.580	76905
555.642	74977
555.705	74451
555.768	74445
555.830	71713
555.893	69432
555.955	68801
556.018	66238
556.080	66449
556.143	67562
556.206	66787
556.268	66854
556.330	65247
556.393	63089
556.455	63180
556.518	67148
556.580	63003
556.643	58609
556.705	55388
556.767	56467
556.830	56075
556.892	55570
556.955	55756
557.017	54713
557.079	51882
557.142	51265
557.204	52115
557.266	56224
557.328	50789
557.391	46082
557.453	45590
557.515	45580
557.577	47260
557.639	46796
557.701	44848
557.764	43761
557.826	44747
557.888	46612
557.950	45965
558.012	49034
558.074	60589
558.136	128541
558.198	210705
558.260	77513
558.322	48412
558.384	49395
558.446	50781
558.508	52192
558.570	57869
558.632	67715
558.694	86185
558.756	142306
558.818	420787
558.880	660082
558.942	234595
559.003	227681
559.065	99381
559.127	55788
559.189	54780
559.251	61211
559.312	88765
559.374	228002
559.436	511492
559.498	193423
559.559	60604
559.621	52609
559.683	61950
559.744	111071
559.806	315589
559.868	317433
559.929	76265
559.991	61523
560.052	100328
560.114	215594
560.176	116485
560.237	146718
560.299	169066
560.360	47593
560.422	34676
560.483	31992
560.545	30604
560.606	31513
560.667	28660
560.729	28201
560.790	27098
560.852	27997
560.913	27365
560.974	27916
561.036	26686
561.097	27446
561.158	27571
561.220	27372
561.281	25557
561.342	25665
561.403	27546
561.465	28464
561.526	37233
561.587	38811
561.648	26501
561.709	26297
561.771	24977
561.832	25007
561.893	24322
561.954	24824
562.015	24169
562.076	24852
562.137	24328
562.198	24514
562.259	25491
562.320	24753
562.381	24640
562.442	27292
562.503	25682
562.564	24045
562.625	24158
562.686	23977
562.747	24797
562.808	23230
562.869	24419
562.930	28590
562.991	26676
563.051	25337
563.112	24557
563.173	23833
563.234	23298
563.294	24380
563.355	23191
563.416	23369
563.477	22763
563.537	21918
563.598	24324
563.659	23982
563.720	22557
563.780	24172
563.841	23440
563.901	24026
563.962	24251
564.023	23502
564.083	22455
564.144	23869
564.204	23003
564.265	23924
564.325	26389
564.386	38291
564.446	30100
564.507	21936
564.567	22902
564.628	22248
564.688	21907
564.749	23036
564.809	23734
564.869	26070
564.930	22408
564.990	22112
565.050	21540
565.111	21947
565.171	21825
565.231	21162
565.292	21288
565.352	21463
565.412	21160
565.472	22269
565.532	22298
565.593	21038
565.653	19883
565.713	22247
565.773	22461
565.833	23186
565.893	23614
565.953	20559
566.013	21324
566.074	21965
566.134	26215
566.194	32780
566.254	30787
566.314	25227
566.374	21599
566.434	22006
566.494	22186
566.554	22399
566.614	22296
566.673	22265
566.733	22441
566.793	22458
566.853	21898
566.913	21463
566.973	21559
567.033	23198
567.092	21892
567.152	22660
567.212	22702
567.272	23781
567.331	23653
567.391	22642
567.451	24299
567.511	28485
567.570	26635
567.630	22793
567.690	20738
567.749	21506
567.809	21306
567.868	21779
567.928	21677
567.988	22616
568.047	21869
568.107	22175
568.166	22080
568.226	21871
568.285	22752
568.345	22377
568.404	22796
568.464	22122
568.523	21691
568.582	21998
568.642	21408
568.701	22613
568.761	22839
568.820	25003
568.879	25010
568.939	27905
568.998	24618
569.057	22834
569.116	21294
569.176	21204
569.235	20326
569.294	20189
569.353	20229
569.413	21773
569.472	20121
569.531	20051
569.590	19460
569.649	20862
569.708	19234
569.767	21517
569.827	21513
569.886	19873
569.945	19191
570.004	20915
570.063	20416
570.122	20662
570.181	21952
570.240	22817
570.299	22664
570.358	21573
570.417	19700
570.475	19455
570.534	20197
570.593	20236
570.652	20904
570.711	21748
570.770	20249
570.829	21861
570.887	20744
570.946	20654
571.005	20784
571.064	19900
571.122	21074
571.181	21202
571.240	20059
571.299	19365
571.357	19922
571.416	21146
571.475	22152
571.533	21986
571.592	21127
571.650	20186
571.709	19250
571.768	20850
571.826	19443
571.885	19661
571.943	19682
572.002	19520
572.060	19258
572.119	18990
572.177	18781
572.236	19372
572.294	18410
572.352	18855
572.411	18679
572.469	18205
572.528	17546
572.586	18736
572.644	19107
572.703	21716
572.761	18612
572.819	17655
572.877	18246
572.936	17695
572.994	17195
573.052	17766
573.110	17962
573.169	18822
573.227	17095
573.285	17532
573.343	17394
573.401	17175
573.459	17376
573.517	17153
573.576	17907
573.634	18027
573.692	17386
573.750	18054
573.808	17214
573.866	18610
573.924	20561
573.982	18935
574.040	17455
574.098	17197
574.155	15575
574.213	16900
574.271	16077
574.329	17259
574.387	16460
574.445	16048
574.503	15106
574.560	16205
574.618	15103
574.676	15649
574.734	14879
574.792	16252
574.849	15461
574.907	15410
574.965	14728
575.022	14528
575.080	14324
575.138	15179
575.195	14564
575.253	15452
575.311	14104
575.368	16177
575.426	14699
575.483	16432
575.541	14595
575.598	14831
575.656	15095
575.713	14892
575.771	14064
575.828	15472
575.886	14402
575.943	16266
576.001	15111
576.058	15368
576.115	15405
576.173	17772
576.230	18325
576.287	17662
576.345	16395
576.402	16376
576.459	16353
576.517	16649
576.574	16878
576.631	17020
576.688	15528
576.746	16653
576.803	14753
576.860	14617
576.917	15770
576.974	16432
577.031	15252
577.089	16002
577.146	15071
577.203	16271
577.260	16104
577.317	16525
577.374	17210
577.431	16612
577.488	15910
577.545	16236
577.602	15896
577.659	17128
577.716	16422
577.773	17935
577.830	16707
577.886	16120
577.943	16146
578.000	17988
578.057	18992
578.114	21106
578.171	25736
578.227	34418
578.284	34728
578.341	28909
578.398	24360
578.454	22234
578.511	21813
578.568	21065
578.625	17974
578.681	18265
578.738	17048
578.794	17329
578.851	16795
578.908	17235
578.964	17235
579.021	18110
579.077	16290
579.134	17135
579.190	16506
579.247	16536
579.303	15853
579.360	16187
579.416	16327
579.473	16033
579.529	15623
579.586	17874
579.642	17205
579.698	17763
579.755	17677
579.811	19342
579.867	20201
579.924	19539
579.980	22422
580.036	27392
580.093	34599
580.149	50240
580.205	53573
580.261	43696
580.317	36398
580.374	31267
580.430	29033
580.486	26823
580.542	23221
580.598	24072
580.619	23318
580.654	22030
580.692	21726
580.710	21605
580.765	21644
580.767	21666
580.823	21731
580.838	21316
580.879	20281
580.911	20369
580.935	20468
580.984	20556
580.991	20588
581.047	21726
581.057	21696
581.103	21707
581.130	24087
581.159	26590
581.203	27255
581.215	27451
581.270	26306
581.276	26138
581.326	24655
581.349	24309
581.382	23828
581.422	22882
581.438	22501
581.494	22952
581.494	22923
581.550	21225
581.567	21672
581.606	22656
581.640	21525
581.661	20844
581.713	22003
581.717	22115
581.773	20915
581.786	21379
581.829	22891
581.859	22347
581.885	21920
581.932	21921
581.940	21934
581.996	22573
582.004	22526
582.052	22257
582.077	22014
582.107	21803
582.150	22229
582.163	22335
582.219	22820
582.223	22813
582.274	23067
582.296	23103
582.330	23091
582.368	23803
582.386	24114
582.441	23228
582.441	23232
582.497	24068
582.514	24079
582.552	24328
582.587	25147
582.608	25442
582.659	24553
582.663	24506
582.719	25217
582.732	25205
582.774	25323
582.805	25987
582.830	26513
582.877	27852
582.885	28098
582.941	30021
582.950	30754
582.996	34695
583.023	36141
583.052	37781
583.095	40411
583.107	41208
583.162	44408
583.168	44498
583.218	44528
583.240	43041
583.273	40410
583.313	37646
583.328	36697
583.384	33339
583.385	33235
583.439	29773
583.458	29567
583.494	29525
583.531	28310
583.549	27660
583.603	27333
583.605	27324
583.660	25834
583.676	25763
583.715	25679
583.748	25209
583.770	24998
583.820	25994
583.825	26040
583.881	24908
583.893	24761
583.936	24649
583.965	24878
583.991	24939
584.038	25045
584.046	25067
584.101	24145
584.110	24247
584.156	24961
584.183	25074
584.211	25141
584.255	24305
584.266	24060
584.321	25147
584.328	25164
584.376	25363
584.400	24999
584.431	24718
584.472	25313
584.486	25352
584.541	25903
584.545	25916
584.596	26447
584.617	26308
584.651	26220
584.689	26780
584.706	27009
584.761	27788
584.762	27793
584.816	27660
584.834	27361
584.871	27020
584.906	27354
584.926	27412
584.978	27868
584.980	27893
585.035	28408
585.051	28533
585.090	28852
585.123	28905
585.145	28813
585.195	29042
585.200	29137
585.254	29938
585.267	30415
585.309	31771
585.340	32453
585.364	32819
585.412	33499
585.419	33579
585.473	36609
585.484	37510
585.528	42509
585.556	49232
585.583	57121
585.628	79787
585.637	85803
585.692	158655
585.700	166084
585.747	198460
585.772	161384
585.801	104876
585.845	58990
585.856	50661
585.910	38590
585.917	37491
585.965	33966
585.989	33304
586.019	33195
586.061	32302
586.074	31951
586.128	32160
586.133	32050
586.183	30802
586.205	30907
586.237	31137
586.277	30056
586.292	29755
586.346	29706
586.349	29720
586.401	29470
586.421	29217
586.455	30034
586.493	32144
586.509	34146
586.564	40852
586.565	41069
586.618	55743
586.637	57111
586.672	46238
586.709	35680
586.727	33048
586.781	29864
586.781	29873
586.835	28198
586.853	27863
586.889	27490
586.925	26686
586.944	26240
586.996	26395
586.998	26436
587.052	27286
587.068	27425
587.106	27273
587.140	27181
587.161	27315
587.212	27609
587.215	27654
587.269	27836
587.284	28153
587.323	28484
587.356	28062
587.377	27950
587.427	28797
587.431	28855
587.485	28397
587.499	28351
587.539	28756
587.571	28998
587.593	29371
587.643	30759
587.648	30861
587.702	30593
587.715	30766
587.755	31348
587.786	31330
587.810	31421
587.858	32034
587.864	32199
587.917	33512
587.930	33825
587.971	35541
588.001	36356
588.025	36291
588.073	36671
588.079	36856
588.133	37980
588.145	38247
588.187	39830
588.217	40948
588.241	42254
588.288	44830
588.295	45288
588.348	49319
588.360	50007
588.402	53667
588.431	56255
588.456	58553
588.503	63757
588.510	64856
588.564	73427
588.575	75319
588.617	83830
588.646	90007
588.671	98702
588.718	118694
588.725	124278
588.778	175054
588.789	187801
588.832	298810
588.861	385840
588.886	523560
588.932	809382
588.939	831410
588.993	914197
589.004	910074
589.047	586246
589.075	386157
589.100	294333
589.147	153489
589.154	148338
589.207	115475
589.218	109394
589.261	107194
589.290	106833
589.314	111733
589.361	125272
589.368	131760
589.421	191072
589.433	206358
589.475	357663
589.504	478140
589.528	604249
589.576	823599
589.582	800376
589.635	483778
589.647	420562
589.689	235829
589.718	119961
589.742	102680
589.790	72520
589.795	72006
589.849	67837
589.861	67229
589.902	68426
589.932	67511
589.955	60155
590.004	45133
590.009	44803
590.062	41083
590.075	40217
590.115	39107
590.146	38238
590.168	38196
590.218	37794
590.222	37857
590.275	37832
590.289	37896
590.328	37931
590.360	37613
590.381	37061
590.431	35654
590.435	35702
590.488	35742
590.503	35718
590.541	35853
590.574	35898
590.594	35778
590.645	35248
590.647	35276
590.700	34830
590.716	34630
590.753	34724
590.787	34780
590.806	34777
590.859	34569
590.859	34604
590.912	34034
590.930	33888
590.965	34150
591.001	34405
591.018	34530
591.071	34614
591.072	34570
591.124	35107
591.143	35312
591.177	35349
591.214	35244
591.230	35499
591.283	36264
591.285	36239
591.336	35861
591.356	35654
591.389	35972
591.427	36213
591.442	36148
591.495	35826
591.498	35739
591.547	35354
591.569	35208
591.600	34795
591.640	33939
591.653	34297
591.706	35898
591.711	36011
591.759	37376
591.782	38048
591.811	40117
591.853	42940
591.864	42124
591.917	37467
591.924	36756
591.969	37269
591.995	37492
592.022	37992
592.066	38755
592.075	39442
592.127	43281
592.137	43934
592.180	46739
592.208	48358
592.233	45584
592.279	40088
592.285	39916
592.338	38067
592.350	37586
592.390	37544
592.421	37478
592.443	37372
592.491	36959
592.495	37048
592.548	37724
592.562	37863
592.600	37474
592.633	37084
592.653	37081
592.704	36784
592.705	36983
592.775	36404
592.846	37389
592.916	38618
592.987	37636
593.058	37545
593.128	36362
593.199	36456
593.270	36116
593.341	36598
593.411	36705
593.482	36008
593.553	36912
593.623	37445
593.694	38371
593.764	41283
593.835	38090
593.906	38027
593.976	37764
594.047	39649
594.117	45899
594.188	46244
594.258	37935
594.329	37932
594.399	37612
594.470	38425
594.540	37419
594.611	38039
594.681	37503
594.751	38423
594.822	41308
594.892	40853
594.963	42952
595.033	42887
595.103	43365
595.174	46911
595.244	59544
595.314	70992
595.384	44764
595.455	43361
595.525	45780
595.595	45116
595.665	45865
595.736	44447
595.806	44457
595.876	44402
595.946	44487
596.016	44311
596.087	45496
596.157	47032
596.227	46229
596.297	49025
596.367	49992
596.437	54649
596.507	64450
596.577	75602
596.647	53791
596.717	51674
596.787	51406
596.857	51734
596.927	52316
596.997	51962
597.067	53897
597.137	56453
597.207	55391
597.277	53928
597.347	52990
597.417	53260
597.487	54003
597.557	54337
597.626	55869
597.696	58632
597.766	65235
597.836	76394
597.906	57715
597.975	53829
598.045	53986
598.115	55297
598.185	55931
598.254	59425
598.324	61795
598.394	62668
598.464	60973
598.533	60489
598.603	59068
598.672	59712
598.742	60560
598.812	60334
598.881	61220
598.951	62690
599.020	62208
599.090	63154
599.159	63004
599.229	63392
599.299	61735
599.368	63670
599.437	63148
599.507	64505
599.576	65125
599.646	65263
599.715	67195
599.785	65844
599.854	67173
599.924	71244
599.993	67357
600.062	68577
600.132	68721
600.201	71538
600.270	75522
600.340	76949
600.409	75577
600.478	75235
600.547	76793
600.617	77289
600.686	74121
600.755	73447
600.824	72636
600.894	73519
600.963	73701
601.032	74181
601.101	76226
601.170	75250
601.239	76073
601.308	79494
601.378	79111
601.447	80730
601.516	81256
601.585	83321
601.654	84334
601.723	86574
601.792	88812
601.861	92319
601.930	99518
601.999	98110
602.068	97323
602.137	95993
602.206	96381
602.275	99833
602.343	100660
602.412	100727
602.481	100281
602.550	100924
602.619	101328
602.688	101142
602.756	104369
602.825	102593
602.894	104512
602.963	103188
603.032	103193
603.100	104025
603.169	102819
603.238	107245
603.307	103204
603.375	101632
603.444	106939
603.513	99303
603.581	100881
603.650	105852
603.719	90206
603.787	84091
603.856	86516
603.924	87735
603.993	89687
604.061	91209
604.130	93494
604.198	94782
604.267	96262
604.335	96470
604.404	96437
604.472	100182
604.541	100491
604.609	103862
604.678	106074
604.746	106639
604.815	111842
604.883	106824
604.951	104117
605.020	106894
605.088	99132
605.156	94110
605.225	94324
605.293	91949
605.361	92649
605.429	92230
605.498	95143
605.566	91650
605.634	97162
605.702	96714
605.771	96518
605.839	99865
605.907	92446
605.975	97299
606.043	91836
606.111	89724
606.180	99211
606.248	90885
606.316	92091
606.384	94985
606.452	79497
606.520	64913
606.588	61175
606.656	59964
606.724	59131
606.792	55944
606.860	52618
606.928	49799
606.996	50253
607.064	48966
607.132	49695
607.200	52092
607.267	53541
607.335	52996
607.403	53203
607.471	52226
607.539	52070
607.607	51903
607.674	46845
607.742	49076
607.810	48176
607.878	47417
607.946	47951
608.013	49113
608.081	49537
608.149	49946
608.216	50863
608.284	52588
608.352	51583
608.419	52899
608.487	63316
608.555	53513
608.622	50425
608.690	49966
608.757	52314
608.825	54438
608.893	53202
608.960	54592
609.028	57787
609.095	64645
609.163	52878
609.230	49041
609.298	46426
609.365	45429
609.432	48116
609.500	51648
609.567	56777
609.635	63254
609.702	64241
609.769	63790
609.837	59084
609.904	54449
609.971	57189
610.039	68153
610.106	89197
610.173	148941
610.241	293398
610.308	318282
610.375	181349
610.442	85205
610.509	62532
610.577	55446
610.644	53029
610.711	51711
610.778	51558
610.845	52892
610.912	55720
610.980	58329
611.047	66449
611.114	59969
611.181	52348
611.248	51202
611.315	55029
611.382	55241
611.449	54870
611.516	56884
611.583	56371
611.650	55427
611.717	56742
611.784	58944
611.851	61451
611.918	67664
611.984	76001
612.051	100540
612.118	176787
612.185	371096
612.252	279243
612.319	93954
612.386	73146
612.452	68418
612.519	67276
612.586	77952
612.653	68328
612.719	64652
612.786	60735
612.853	57726
612.919	56383
612.986	57884
613.053	54659
613.120	52210
613.186	50083
613.253	53018
613.319	50225
613.386	51191
613.453	53224
613.519	54210
613.586	56056
613.652	61170
613.719	57196
613.785	56210
613.852	53989
613.918	52586
613.985	55691
614.051	60511
614.118	73439
614.184	73333
614.250	54530
614.317	53431
614.383	51156
614.449	52162
614.516	52752
614.582	54464
614.648	52328
614.715	51364
614.781	52662
614.847	53819
614.914	53553
614.980	52840
615.046	52292
615.112	51609
615.179	51711
615.245	52379
615.311	52706
615.377	53919
615.443	53624
615.509	55365
615.575	57076
615.642	55701
615.708	59110
615.774	62325
615.840	67870
615.906	75181
615.972	84704
616.038	120057
616.104	216189
616.170	461437
616.236	436383
616.302	140642
616.368	91436
616.434	77067
616.500	71484
616.565	72513
616.631	79854
616.697	74432
616.763	74328
616.829	91115
616.895	129952
616.961	134206
617.026	87246
617.092	66044
617.158	60972
617.224	59942
617.289	58762
617.355	55944
617.421	57232
617.487	57916
617.552	54093
617.618	53914
617.684	52241
617.749	54944
617.815	51250
617.880	51051
617.946	51565
618.012	51446
618.077	51778
618.143	52547
618.208	51722
618.274	54736
618.339	55475
618.405	49873
618.470	50544
618.536	52225
618.601	56603
618.667	52967
618.732	50643
618.798	49415
618.863	48933
618.928	49027
618.994	51886
619.059	53027
619.124	56680
619.190	53318
619.255	49317
619.320	50735
619.386	49802
619.451	48933
619.516	48216
619.581	49127
619.647	49659
619.712	50001
619.777	48909
619.842	49442
619.907	50035
619.972	49551
620.038	49261
620.103	49290
620.168	47757
620.233	49785
620.298	47751
620.363	49363
620.428	49390
620.493	50871
620.558	51810
620.623	50669
620.688	49825
620.753	50558
620.818	50303
620.883	51089
620.948	51956
621.013	50474
621.078	51765
621.143	52112
621.207	55479
621.272	53876
621.337	54797
621.402	57235
621.467	65882
621.532	67274
621.596	59417
621.661	55541
621.726	53734
621.791	54459
621.855	56324
621.920	57445
621.985	58756
622.049	63346
622.114	61649
622.179	60541
622.243	60667
622.308	60143
622.373	61901
622.437	60906
622.502	57179
622.566	58313
622.631	58234
622.695	60896
622.760	58904
622.824	57363
622.889	58243
622.953	59860
623.018	66771
623.082	66684
623.147	58609
623.211	58403
623.276	57910
623.340	54530
623.404	54596
623.469	55493
623.533	56143
623.597	55104
623.662	54752
623.726	54189
623.790	52011
623.854	51934
623.919	52439
623.983	52033
624.047	52735
624.111	50532
624.176	53192
624.240	54420
624.304	56932
624.368	51261
624.432	53207
624.496	53416
624.560	53908
624.625	54051
624.689	51953
624.753	53416
624.817	52138
624.881	50522
624.945	49802
625.009	49341
625.073	50196
625.137	49747
625.201	53514
625.265	53969
625.329	49223
625.393	49379
625.456	49628
625.520	52466
625.584	54038
625.648	63774
625.712	82287
625.776	153008
625.839	168604
625.903	78021
625.967	52982
626.031	76309
626.095	105086
626.158	53483
626.222	40966
626.286	39870
626.349	39803
626.413	37658
626.477	40029
626.540	36176
626.604	37210
626.668	38032
626.731	37547
626.795	39998
626.858	39492
626.922	36264
626.986	36616
627.049	34239
627.113	36986
627.176	35455
627.240	34355
627.303	34421
627.366	34909
627.430	35144
627.493	36236
627.557	35550
627.620	36342
627.684	34285
627.747	34619
627.810	31601
627.874	32576
627.937	30996
628.000	34537
628.064	32598
628.127	28018
628.190	30547
628.253	30357
628.317	28700
628.380	28749
628.443	28816
628.506	28985
628.569	28632
628.632	27135
628.696	26750
628.759	26529
628.822	26616
628.885	26318
628.948	25630
629.011	26597
629.074	25230
629.137	24786
629.200	25212
629.263	27816
629.326	24108
629.389	24861
629.452	24655
629.515	26837
629.578	24897
629.641	27432
629.704	25815
629.767	25413
629.830	24414
629.892	23656
629.955	23318
630.018	25300
630.081	23868
630.144	26152
630.207	24254
630.269	26461
630.332	27100
630.395	23912
630.458	22951
630.520	21261
630.583	22936
630.646	21253
630.708	21693
630.771	21766
630.834	22720
630.896	21484
630.959	21489
631.021	21296
631.084	22105
631.146	24535
631.209	26669
631.272	21826
631.334	21232
631.397	20595
631.459	20041
631.522	21611
631.584	21587
631.646	22162
631.709	21983
631.771	24543
631.834	21881
631.896	20754
631.958	18983
632.021	20925
632.083	20173
632.145	21093
632.208	19954
632.270	21224
632.332	20076
632.395	18673
632.457	20628
632.519	19327
632.581	20708
632.643	18136
632.706	19972
632.768	18495
632.830	19798
632.892	19226
632.954	18743
633.016	19140
633.078	18795
633.141	18433
633.203	19474
633.265	19338
633.327	20245
633.389	18565
633.451	20822
633.513	21253
633.575	22300
633.637	20522
633.698	19606
633.760	19814
633.822	19261
633.884	17836
633.946	19606
634.008	19821
634.070	20592
634.132	22148
634.193	20295
634.255	19163
634.317	19537
634.379	20157
634.441	19244
634.502	18955
634.564	18767
634.626	17934
634.687	18471
634.749	18102
634.811	18293
634.873	17427
634.934	17876
634.996	18905
635.057	16692
635.119	17313
635.181	17808
635.242	18129
635.304	16241
635.365	18955
635.427	17911
635.488	17989
635.550	16715
635.611	18116
635.673	15692
635.734	19319
635.796	18814
635.857	20169
635.918	17749
635.980	19929
636.041	18173
636.102	19906
636.164	19280
636.225	19865
636.286	16431
636.348	18703
636.409	17916
636.470	17158
636.531	17682
636.593	19524
636.654	18759
636.715	16366
636.776	15459
636.838	14891
636.899	16969
636.960	15840
637.021	14738
637.082	15849
637.143	15219
637.204	14900
637.265	15243
637.326	16146
637.387	15583
637.448	14576
637.509	15996
637.570	15535
637.631	16794
637.692	14216
637.753	13718
637.814	15354
637.875	14848
637.936	16515
637.997	14756
638.058	15151
638.119	16870
638.179	14585
638.240	14566
638.301	15044
638.362	14838
638.423	15273
638.483	15838
638.544	14283
638.605	16263
638.666	13754
638.726	15636
638.787	14946
638.848	14745
638.908	13953
638.969	14641
639.030	14843
639.090	12614
639.151	14147
639.211	14865
639.272	16694
639.332	20509
639.393	15564
639.453	14066
639.514	14884
639.574	14748
639.635	13609
639.695	14502
639.756	13032
639.816	14465
639.877	14196
639.937	17609
639.997	20281
640.058	13164
640.118	12546
640.178	14470
640.239	13938
640.299	12512
640.359	12753
640.420	13118
640.480	14455
640.540	13909
640.600	13299
640.661	14937
640.721	13576
640.781	16613
640.841	14470
640.901	14229
640.961	13812
641.021	14419
641.082	12873
641.142	15977
641.202	14399
641.262	11392
641.322	13859
641.382	12683
641.442	13594
641.502	13970
641.562	13071
641.622	13495
641.682	13842
641.742	14057
641.802	13434
641.861	14059
641.921	14164
641.981	14281
642.041	15218
642.101	14863
642.161	12052
642.221	11980
642.280	12518
642.340	12278
642.400	11159
642.460	13310
642.519	12393
642.579	12590
642.639	14329
642.698	10087
642.758	14279
642.818	12530
642.877	12661
642.937	12860
642.997	14303
643.056	15805
643.116	11860
643.175	14272
643.235	12534
643.294	13544
643.354	14424
643.414	13470
643.473	15042
643.532	16547
643.592	18852
643.651	25579
643.711	38106
643.770	65017
643.830	139332
643.889	270902
643.948	78140
644.008	21481
644.067	16148
644.126	13482
644.186	12569
644.245	13384
644.304	10842
644.363	14663
644.423	10943
644.482	12440
644.541	12356
644.600	10183
644.659	14245
644.719	14103
644.778	17831
644.837	22828
644.896	38465
644.955	70836
645.014	32384
645.073	16904
645.132	12848
645.191	13547
645.250	12234
645.309	13680
645.368	12673
645.427	14253
645.486	15249
645.545	21635
645.604	13165
645.663	12423
645.722	12052
645.781	13397
645.840	12960
645.898	14209
645.957	18638
646.016	21298
646.075	34861
646.134	57516
646.192	136133
646.251	192168
646.310	39979
646.369	16252
646.427	14719
646.486	11300
646.545	12415
646.603	11265
646.662	11367
646.721	11190
646.779	10470
646.838	9097
646.896	12227
646.955	13601
647.014	17196
647.072	23821
647.131	47484
647.189	27378
647.248	10778
647.306	10943
647.365	11189
647.423	8705
647.481	12030
647.540	8748
647.598	9656
647.657	9430
647.715	10574
647.773	9238
647.832	10262
647.890	8699
647.948	9266
648.007	10474
648.065	8658
648.123	8851
648.181	11748
648.240	12360
648.298	10464
648.356	9791
648.414	10868
648.472	9557
648.531	9642
648.589	9300
648.647	9142
648.705	8674
648.763	9820
648.821	9434
648.879	9910
648.937	10583
648.995	10531
649.053	12039
649.111	14733
649.169	19410
649.227	27897
649.285	48145
649.343	115418
649.401	64746
649.459	24237
649.516	17775
649.574	13896
649.632	20388
649.690	23991
649.748	17238
649.806	19522
649.863	29423
649.921	36216
649.979	26391
650.037	11273
650.094	8451
650.152	9495
650.210	7694
650.268	9976
650.325	8938
650.383	9553
650.440	8344
650.498	8279
650.556	7669
650.613	7739
650.671	8630
650.728	8277
650.786	9312
650.843	8617
650.901	6570
650.958	8529
651.016	7359
651.073	8263
651.131	7019
651.188	7795
651.246	7862
651.303	7035
651.360	7388
651.418	7345
651.475	8266
651.532	6930
651.590	7672
651.647	6416
651.704	7805
651.762	7128
651.819	7823
651.876	6954
651.933	6434
651.990	8225
652.048	5650
652.105	7490
652.162	8136
652.219	6492
652.276	7453
652.333	8058
652.390	6877
652.448	7135
652.505	7976
652.562	7621
652.619	7938
652.676	11872
652.733	11486
652.790	7559
652.847	5490
652.904	6943
652.961	6016
653.017	6117
653.074	7832
653.131	6604
653.188	5983
653.245	6487
653.302	6443
653.359	6107
653.415	6856
653.472	6671
653.529	6356
653.586	5999
653.642	6012
653.699	7327
653.756	5833
653.813	6517
653.869	7364
653.926	5737
653.983	5632
654.039	7000
654.096	6447
654.152	7990
654.209	5288
654.266	7004
654.322	6176
654.379	7903
654.435	8159
654.492	8642
654.548	10696
654.605	14103
654.661	9268
654.717	6369
654.774	7782
654.830	7556
654.887	7364
654.943	7746
655.000	7451
655.056	7538
655.112	7358
655.168	6385
655.225	7566
655.281	8145
655.337	10217
655.394	15731
655.450	11099
655.506	10246
655.562	15891
655.618	14100
655.675	6594
655.731	6783
655.787	6182
655.843	7643
655.899	6209
655.955	6850
656.011	6480
656.067	5951
656.123	7358
656.179	7013
656.235	8170
656.291	5163
656.347	8041
656.403	6583
656.459	7115
656.515	7412
656.571	7817
656.627	8104
656.683	7211
656.739	7122
656.795	6821
656.850	6760
656.906	8161
656.962	7197
657.018	5895
657.074	7010
657.129	7069
657.185	7965
657.241	9060
657.297	8303
657.352	7085
657.408	6210
657.464	7616
657.519	7766
657.575	6145
657.630	6874
657.686	6385
657.742	6162
657.797	6503
657.853	6288
657.908	7854
657.964	6202
658.019	6552
658.075	7198
658.130	7190
658.186	5609
658.241	7044
658.297	6086
658.352	6315
658.407	7031
658.463	5551
658.518	6905
658.573	6283
658.629	5855
658.684	6558
658.739	6544
658.795	4556
658.850	7035
658.905	5992
658.960	6294
659.016	4936
659.071	6220
659.126	6395
659.181	6274
659.236	8087
659.291	9283
659.346	6907
659.401	7654
659.457	8243
659.512	8865
659.567	7999
659.622	6590
659.677	6658
659.732	5167
659.787	6817
659.842	7801
659.897	9468
659.952	7304
660.007	6616
660.061	7210
660.116	4703
660.171	5787
660.226	6004
660.281	7125
660.336	5266
660.391	7051
660.445	5916
660.500	6447
660.555	5916
660.610	5816
660.664	6307
660.719	6123
660.774	6448
660.828	6486
660.883	6574
660.938	6483
660.992	5882
661.047	5276
661.101	5716
661.156	5776
661.211	5746
661.265	6047
661.320	5592
661.374	5526
661.429	5837
661.483	6677
661.538	5594
661.592	6360
661.647	6040
661.701	7244
661.755	6280
661.810	6461
661.864	6057
661.919	5478
661.973	6323
662.027	5906
662.081	6204
662.136	5648
662.190	6603
662.244	7159
662.299	6616
662.353	6571
662.407	5515
662.461	6378
662.515	6469
662.569	6097
662.624	7191
662.678	6082
662.732	5943
662.786	6602
662.840	6780
662.894	6759
662.948	6019
663.002	6194
663.056	6034
663.110	5421
663.164	5545
663.218	6684
663.272	5661
663.326	6294
663.380	6304
663.434	7002
663.488	6599
663.542	6573
663.595	6349
663.649	6223
663.703	6523
663.757	6501
663.811	5694
663.864	5154
663.918	6641
663.972	6128
664.026	6523
664.079	5401
664.133	6108
664.187	5945
664.240	5740
664.294	5907
664.348	6442
664.401	5871
664.455	5995
664.508	5612
664.562	5919
664.615	5334
664.669	5188
664.722	6186
664.776	6218
664.829	6799
664.883	5835
664.936	6221
664.990	6826
665.043	6458
665.097	7289
665.150	8365
665.203	6800
665.257	6585
665.310	6871
665.363	7069
665.417	7296
665.470	6326
665.523	6920
665.576	7208
665.630	6459
665.683	6131
665.736	7063
665.789	7252
665.842	6237
665.895	7274
665.949	7269
666.002	6076
666.055	7190
666.108	6742
666.161	6426
666.214	7120
666.267	6825
666.320	7688
666.373	6933
666.426	5881
666.479	6821
666.532	8148
666.585	7540
666.638	8450
666.691	7982
666.744	7705
666.796	8414
666.849	7960
666.902	7668
666.955	6318
667.008	5645
667.060	6116
667.113	6166
667.166	6682
667.219	6809
667.271	6724
667.324	7051
667.377	6875
667.430	6412
667.482	8205
667.535	6792
667.587	7557
667.640	7468
667.693	7498
667.745	9266
667.798	9028
667.850	7509
667.903	6904
667.955	6485
668.008	7427
668.060	8210
668.113	8359
668.165	8288
668.218	6925
668.270	7113
668.322	7632
668.375	6820
668.427	7611
668.479	7604
668.532	7617
668.584	8389
668.636	7639
668.689	6922
668.741	6658
668.793	7258
668.845	7533
668.898	7796
668.950	7439
669.002	7384
669.054	6773
669.106	7204
669.158	7573
669.211	8191
669.263	8013
669.315	8870
669.367	9220
669.419	7727
669.471	9117
669.523	9178
669.575	9569
669.627	8957
669.679	8050
669.731	8507
669.783	8794
669.835	9194
669.886	9174
669.938	9744
669.990	9488
670.042	9175
670.094	11798
670.146	11502
670.197	13964
670.249	16114
670.301	19226
670.353	26629
670.404	34798
670.456	47700
670.508	69924
670.560	104429
670.611	160328
670.663	261773
670.715	483687
670.766	612587
670.818	342333
670.869	105323
670.921	51084
670.972	33411
671.024	24736
671.075	18783
671.127	16113
671.178	14728
671.230	13225
671.281	11659
671.333	10976
671.384	10571
671.436	11797
671.487	11956
671.538	11775
671.590	12429
671.641	14762
671.692	17130
671.744	24087
671.795	23036
671.846	14927
671.897	11108
671.949	9505
672.000	8471
672.051	8238
672.102	8977
672.153	7492
672.204	8822
672.256	7729
672.307	8091
672.358	8351
672.409	7311
672.460	6763
672.511	6943
672.562	7075
672.613	7525
672.664	7189
672.715	7477
672.766	7505
672.817	6658
672.868	6833
672.919	6887
672.970	6712
673.021	6360
673.071	6322
673.122	5911
673.173	6637
673.224	6499
673.275	6262
673.326	6621
673.376	5889
673.427	7042
673.478	6544
673.528	7295
673.579	6483
673.630	6823
673.680	7083
673.731	4965
673.782	5819
673.832	6243
673.883	7097
673.934	5524
673.984	6275
674.035	5421
674.085	6407
674.136	7082
674.186	7542
674.237	7982
674.287	9976
674.338	7322
674.388	5720
674.438	5795
674.489	5803
674.539	6933
674.589	5812
674.640	6659
674.690	5924
674.740	6754
674.791	6969
674.841	6753
674.891	5735
674.942	5791
674.992	6261
675.042	5582
675.092	6267
675.142	5225
675.193	5438
675.243	4556
675.293	5858
675.343	6646
675.393	6591
675.443	5801
675.493	5409
675.543	4900
675.593	5452
675.643	5606
675.693	5776
675.743	5499
675.793	6134
675.843	4943
675.893	5745
675.943	5858
675.993	6120
676.043	5557
676.093	5633
676.142	4730
676.192	5183
676.242	5487
676.292	4761
676.341	4954
676.391	5424
676.441	4741
676.491	4974
676.540	5192
676.590	5738
676.640	5380
676.689	5630
676.739	4548
676.789	4831
676.838	4948
676.888	4703
676.937	4452
676.987	4025
677.037	4547
677.086	3952
677.136	5583
677.185	4252
677.235	4471
677.284	4883
677.333	5221
677.383	4366
677.432	4470
677.482	4476
677.531	4599
677.580	4527
677.630	4055
677.679	4326
677.728	4425
677.778	4833
677.827	4397
677.876	5136
677.925	4023
677.975	4796
678.024	4066
678.073	4860
678.122	4871
678.171	4815
678.220	5109
678.269	5650
678.319	5764
678.368	4687
678.417	5146
678.466	5328
678.515	5934
678.564	5470
678.613	5068
678.662	4398
678.711	4364
678.760	4704
678.809	4317
678.857	3993
678.906	4588
678.955	4906
679.004	5841
679.053	5762
679.102	5091
679.151	4508
679.199	4592
679.248	4880
679.297	5042
679.346	5148
679.394	4276
679.443	4837
679.492	5415
679.540	4803
679.589	5002
679.638	4815
679.686	3779
679.735	4325
679.784	4211
679.832	4851
679.881	3946
679.929	4296
679.978	2951
680.026	4894
680.075	3823
680.123	3961
680.172	4250
680.220	4326
680.268	3739
680.317	3954
680.365	4043
680.414	3333
680.462	3995
680.510	4668
680.559	4244
680.607	4048
680.655	4072
680.703	3649
680.752	4079
680.800	3720
680.848	4435
680.896	4569
680.945	4166
680.993	4038
681.041	4201
681.089	4319
681.137	3772
681.185	3741
681.233	3539
681.258	3545
681.281	3530
681.329	3325
681.377	3445
681.380	3526
681.425	4642
681.473	4035
681.502	4416
681.521	4637
681.569	4818
681.617	4890
681.624	4901
681.665	4824
681.713	5086
681.745	4468
681.761	4141
681.809	4541
681.857	4390
681.867	4558
681.904	5038
681.952	5263
681.989	4507
682.000	4257
682.048	5825
682.096	4270
682.111	4268
682.143	4195
682.191	4111
682.233	4940
682.239	5045
682.286	4759
682.334	4809
682.354	4830
682.382	4782
682.430	5290
682.476	5210
682.477	5191
682.525	4563
682.572	4582
682.598	4330
682.620	4062
682.667	4638
682.715	5339
682.720	5351
682.763	5262
682.810	4387
682.841	5017
682.857	5309
682.905	4435
682.952	4901
682.963	5079
683.000	5656
683.047	5216
683.085	5750
683.095	5869
683.142	4549
683.190	5505
683.206	5241
683.237	4754
683.284	5088
683.328	5162
683.332	5148
683.379	5401
683.426	4678
683.449	4817
683.473	4912
683.521	4950
683.568	4792
683.571	4858
683.615	5496
683.662	5555
683.693	5498
683.709	5445
683.757	4699
683.804	4957
683.814	4963
683.851	4964
683.898	5381
683.936	5511
683.945	5521
683.992	5311
684.039	5902
684.057	5658
684.086	5226
684.133	5148
684.179	5946
684.180	5957
684.227	6114
684.274	5510
684.300	5511
684.321	5496
684.368	5476
684.415	6847
684.422	6634
684.462	5238
684.509	5297
684.543	5620
684.556	5765
684.603	6763
684.649	5720
684.665	5854
684.696	6036
684.743	5503
684.786	6502
684.790	6577
684.837	6849
684.883	6865
684.908	6995
684.930	7096
684.977	7153
685.023	7753
685.029	7682
685.070	6877
685.117	7072
685.150	7358
685.164	7542
685.210	8232
685.257	8300
685.272	8271
685.303	7923
685.350	6839
685.393	7299
685.396	7344
685.443	7153
685.490	7418
685.514	7881
685.536	8248
685.583	7495
685.629	7380
685.636	7321
685.675	6996
685.722	7879
685.757	8080
685.768	8103
685.815	7991
685.861	7967
685.878	7991
685.908	8114
685.954	8666
686.000	8265
686.000	8255
686.047	8829
686.093	9587
686.121	9730
686.139	9549
686.185	8279
686.232	7712
686.242	7699
686.278	8025
686.324	8434
686.363	7914
686.370	7786
686.416	8294
686.463	8417
686.484	8187
686.509	7977
686.555	7648
686.601	7919
686.606	7908
686.647	7843
686.693	8167
686.727	8261
686.739	8278
686.785	7781
686.831	8314
686.848	8161
686.877	7866
686.923	8344
686.969	8261
686.969	8259
687.015	8078
687.061	7966
687.090	8228
687.107	8456
687.153	8076
687.199	8480
687.211	8512
687.245	8488
687.291	8070
687.332	8675
687.336	8743
687.382	8960
687.428	8810
687.453	8724
687.474	8531
687.520	8250
687.565	9002
687.574	8801
687.611	8305
687.657	9022
687.695	8859
687.702	8841
687.748	9167
687.794	9733
687.816	9710
687.839	9382
687.885	9164
687.931	8285
687.937	8259
687.976	8440
688.022	8589
688.058	8879
688.067	8988
688.113	8462
688.158	8917
688.179	8859
688.204	8801
688.249	9479
688.295	9401
688.300	9416
688.340	9556
688.386	9893
688.421	9974
688.431	9900
688.477	9270
688.522	9415
688.542	9143
688.567	9109
688.613	9605
688.658	9856
688.663	9860
688.703	9835
688.749	9954
688.784	9842
688.794	9774
688.839	9423
688.884	9612
688.905	9417
688.930	9265
688.975	9731
689.020	9340
689.026	9380
689.065	9973
689.110	10697
689.146	10492
689.155	10324
689.201	10220
689.246	9984
689.267	9747
689.291	9929
689.336	10574
689.381	10399
689.388	10564
689.426	10779
689.471	10124
689.509	9827
689.516	9867
689.561	9829
689.606	10483
689.630	10320
689.651	10146
689.696	10294
689.741	10259
689.750	10308
689.785	10610
689.830	10449
689.871	10638
689.875	10633
689.920	10128
689.965	10283
689.992	10055
690.010	10198
690.054	10351
690.099	11197
690.112	11371
690.144	11455
690.189	10877
690.233	10748
690.233	10762
690.278	11117
690.323	11539
690.354	11648
690.367	11831
690.412	12119
690.457	12708
690.474	13136
690.501	13798
690.546	13686
690.590	14521
690.595	14612
690.635	15968
690.680	16711
690.716	17587
690.724	18107
690.769	21378
690.813	24943
690.836	26166
690.857	29604
690.902	38420
690.946	47292
690.957	49647
690.991	68281
691.035	94785
691.077	121689
691.080	121996
691.124	117179
691.168	107899
691.198	102312
691.213	94518
691.257	73166
691.301	51661
691.318	43535
691.346	38753
691.390	31765
691.434	24539
691.439	23768
691.478	22131
691.522	20385
691.559	18437
691.567	18239
691.611	17309
691.655	16120
691.680	15661
691.699	15518
691.743	14599
691.787	14349
691.800	14095
691.831	13957
691.875	13909
691.919	14098
691.921	14079
691.964	14028
692.008	13929
692.041	13630
692.052	13627
692.096	13792
692.139	14164
692.162	14027
692.183	13750
692.227	13435
692.271	13392
692.282	13223
692.315	13079
692.359	13303
692.402	13512
692.403	13537
692.447	13543
692.490	13926
692.523	14066
692.534	14159
692.578	14179
692.622	14228
692.643	14314
692.666	14337
692.709	14208
692.753	14482
692.763	14445
692.797	14635
692.840	14722
692.884	14707
692.884	14736
692.928	15407
692.971	15711
693.004	15952
693.015	15997
693.059	15814
693.102	16113
693.124	16138
693.146	16603
693.189	17670
693.233	18272
693.245	18567
693.276	19783
693.320	21224
693.363	22406
693.365	22425
693.407	25479
693.450	28834
693.485	31012
693.493	32336
693.537	39815
693.580	46967
693.605	51278
693.624	59890
693.667	80531
693.710	101462
693.725	109070
693.753	142694
693.797	197126
693.840	253255
693.845	258950
693.883	249818
693.926	233281
693.966	219272
693.970	214874
694.013	166199
694.056	118659
694.086	85961
694.099	81102
694.142	66119
694.185	50759
694.206	43666
694.229	40983
694.272	35721
694.315	30447
694.326	29068
694.358	27328
694.401	24752
694.444	22461
694.446	22292
694.487	21249
694.530	20099
694.566	19314
694.573	19228
694.616	18255
694.659	17489
694.686	16895
694.702	16686
694.745	16010
694.787	15419
694.806	15049
694.830	15094
694.873	15312
694.916	15358
694.926	15348
694.959	14983
695.002	14594
695.044	14048
695.046	13996
695.087	14400
695.130	14840
695.166	15298
695.172	15317
695.215	14923
695.258	14752
695.286	14477
695.301	14522
695.343	14749
695.386	14968
695.406	14954
695.428	14938
695.471	14960
695.514	14860
695.526	14852
695.556	14900
695.599	15007
695.641	14713
695.646	14697
695.684	14501
695.726	14017
695.766	13530
695.769	13580
695.811	13801
695.854	14001
695.886	14268
695.896	14267
695.938	13838
695.981	13664
696.005	13606
696.023	13909
696.065	14152
696.108	14865
696.125	14982
696.150	14867
696.192	14680
696.235	14483
696.245	14422
696.277	14870
696.319	15325
696.361	15921
696.365	15932
696.404	16263
696.446	16384
696.485	16674
696.488	16707
696.530	16328
696.572	16351
696.604	16127
696.614	16034
696.656	15463
696.698	15049
696.724	14614
696.740	14586
696.783	14697
696.825	14513
696.844	14514
696.867	14538
696.909	14366
696.951	14213
696.964	14149
696.992	14263
697.034	14295
697.076	14321
697.083	14315
697.118	14497
697.160	14611
697.202	14564
697.203	14530
697.244	14529
697.286	14421
697.323	14274
697.327	14317
697.369	14419
697.411	14557
697.442	14508
697.453	14533
697.494	14646
697.536	14680
697.562	14698
697.578	14679
697.620	14473
697.661	14229
697.682	14098
697.703	14140
697.744	14171
697.786	14227
697.801	14170
697.828	14347
697.869	14569
697.911	14910
697.921	14948
697.952	14869
697.994	14673
698.035	14534
698.040	14469
698.077	14522
698.118	14574
698.160	14679
698.160	14642
698.201	14432
698.243	14131
698.279	13901
698.284	13985
698.325	14418
698.367	14822
698.399	15071
698.408	15079
698.449	14957
698.491	14835
698.518	14717
698.532	14668
698.573	14412
698.614	14129
698.638	13941
698.656	14134
698.697	14485
698.738	14851
698.757	14984
698.779	15072
698.820	15156
698.862	15245
698.877	15243
698.903	15504
698.944	15846
698.985	16195
698.996	16251
699.026	16033
699.067	15674
699.116	15209
699.235	15079
699.354	15509
699.474	15681
699.593	15403
699.713	16564
699.832	14892
699.951	15026
700.070	15345
700.190	14201
700.309	14495
700.428	14790
700.547	15310
700.667	15053
700.786	14599
700.905	13795
701.024	14834
701.143	14231
701.262	12798
701.381	13862
701.500	13900
701.619	13840
701.738	13425
701.857	14368
701.976	12889
702.095	13467
702.214	13809
702.333	14050
702.452	13118
702.571	13920
702.690	13834
702.809	13638
702.928	13576
703.047	13628
703.165	13972
703.284	14387
703.403	12202
703.522	13874
703.640	14182
703.759	14937
703.878	17438
703.997	14109
704.115	12946
704.234	12941
704.353	12864
704.471	13137
704.590	12278
704.708	13167
704.827	13366
704.946	13272
705.064	13178
705.183	13572
705.301	16021
705.420	22863
705.538	20507
705.656	17687
705.775	18119
705.893	25052
706.012	26771
706.130	17489
706.249	17396
706.367	17782
706.485	17937
706.604	17720
706.722	17918
706.840	18934
706.958	20210
707.077	17744
707.195	16864
707.313	16656
707.431	15940
707.549	16985
707.668	15284
707.786	17461
707.904	16656
708.022	16044
708.140	15730
708.258	16673
708.376	15387
708.494	16322
708.612	17837
708.730	25519
708.848	23731
708.966	20638
709.084	18517
709.202	19177
709.320	19941
709.438	20096
709.556	20031
709.674	19949
709.791	19901
709.909	19117
710.027	19959
710.145	20184
710.263	19827
710.380	19770
710.498	18670
710.616	19561
710.733	18612
710.851	19204
710.969	19598
711.086	19073
711.204	17913
711.322	19087
711.439	18170
711.557	18052
711.674	18283
711.792	18161
711.909	18718
712.027	18706
712.144	17919
712.262	18567
712.379	19404
712.497	27771
712.614	27307
712.732	23456
712.849	21793
712.966	22340
713.084	23805
713.201	22993
713.318	22789
713.436	23157
713.553	23386
713.670	23202
713.787	23672
713.905	24772
714.022	22204
714.139	21922
714.256	22685
714.373	23846
714.490	25551
714.608	39000
714.725	110227
714.842	107684
714.959	24829
715.076	21469
715.193	19861
715.310	21089
715.427	19897
715.544	19344
715.661	19872
715.778	20045
715.895	21946
716.011	21621
716.128	19370
716.245	20448
716.362	19568
716.479	19603
716.596	19273
716.713	20547
716.829	18450
716.946	20291
717.063	17950
717.180	19690
717.296	18524
717.413	18708
717.530	17586
717.646	17809
717.763	17966
717.880	17383
717.996	16761
718.113	16852
718.229	17450
718.346	16853
718.462	17593
718.579	18084
718.695	18352
718.812	20121
718.928	19716
719.045	17866
719.161	15712
719.277	16028
719.394	16806
719.510	17933
719.626	17520
719.743	20291
719.859	19228
719.975	21609
720.092	40083
720.208	67970
720.324	23125
720.440	18032
720.557	18039
720.673	19809
720.789	25328
720.905	44029
721.021	22768
721.137	17087
721.253	17360
721.369	17319
721.486	17523
721.602	20951
721.718	16370
721.834	15617
721.950	15787
722.066	15278
722.181	15455
722.297	16624
722.413	15366
722.529	16096
722.645	15999
722.761	15151
722.877	15257
722.993	15924
723.108	15048
723.224	15427
723.340	15363
723.456	14535
723.571	15330
723.687	14604
723.803	15038
723.918	14320
724.034	14893
724.150	15224
724.265	14754
724.381	23113
724.497	25457
724.612	14871
724.728	12905
724.843	13784
724.959	15105
725.074	22668
725.190	22076
725.305	15154
725.421	14128
725.536	13658
725.651	14180
725.767	13097
725.882	13496
725.997	12668
726.113	13650
726.228	12636
726.343	13002
726.459	12967
726.574	14084
726.689	12969
726.804	12259
726.920	13029
727.035	13410
727.150	12912
727.265	12279
727.380	13854
727.495	12785
727.610	12600
727.725	13191
727.841	14048
727.956	18697
728.071	16283
728.186	12533
728.301	11624
728.416	12995
728.531	12377
728.645	11826
728.760	12211
728.875	11563
728.990	12180
729.105	12177
729.220	11680
729.335	11207
729.449	12514
729.564	12372
729.679	11990
729.794	11561
729.908	12769
730.023	12594
730.138	11494
730.253	11580
730.367	11902
730.482	11634
730.596	11823
730.711	11414
730.826	12096
730.940	11833
731.055	11765
731.169	11043
731.284	12067
731.398	12119
731.513	12323
731.627	11705
731.742	13350
731.856	13226
731.970	11036
732.085	11993
732.199	12842
732.313	14406
732.428	21106
732.542	36885
732.656	25140
732.771	12684
732.885	12327
732.999	12947
733.113	12660
733.227	12603
733.342	12289
733.456	11555
733.570	11574
733.684	11444
733.798	11893
733.912	11787
734.026	11515
734.140	11609
734.254	12478
734.368	15430
734.482	16972
734.596	10518
734.710	12471
734.824	11209
734.938	10790
735.052	11520
735.166	13081
735.280	12583
735.393	11893
735.507	12426
735.621	14293
735.735	17535
735.849	13253
735.962	11366
736.076	12664
736.190	11832
736.303	13739
736.417	15184
736.531	11286
736.644	12573
736.758	10620
736.872	10410
736.985	12254
737.099	11169
737.212	10374
737.326	12496
737.439	11865
737.553	11038
737.666	11743
737.780	9900
737.893	11050
738.007	10440
738.120	10673
738.233	10883
738.347	11316
738.460	11524
738.573	12124
738.687	10424
738.800	11290
738.913	12095
739.026	11061
739.140	11647
739.253	10805
739.366	10669
739.479	10296
739.592	10358
739.705	11149
739.818	11441
739.932	11555
740.045	10715
740.158	11548
740.271	11704
740.384	11529
740.497	11778
740.610	11774
740.723	10880
740.836	11979
740.949	11278
741.062	12206
741.174	11191
741.287	10833
741.400	11236
741.513	11482
741.626	11532
741.739	11435
741.851	11037
741.964	10996
742.077	11236
742.189	10745
742.302	12016
742.415	11832
742.527	10775
742.640	12252
742.753	11092
742.865	10519
742.978	11051
743.090	11341
743.203	11944
743.316	11526
743.428	10427
743.541	11765
743.653	11219
743.766	11576
743.878	11205
743.990	12256
744.103	12998
744.215	10910
744.327	11838
744.440	12521
744.552	12498
744.664	11805
744.777	11379
744.889	10745
745.001	11635
745.113	12227
745.226	12347
745.338	12299
745.450	11934
745.562	12184
745.674	12044
745.786	10716
745.898	11115
746.010	11318
746.122	11594
746.234	12260
746.347	12177
746.459	11084
746.570	11359
746.682	12602
746.794	12681
746.906	11666
747.018	12159
747.130	12788
747.242	10859
747.354	12774
747.466	13035
747.577	12049
747.689	12139
747.801	12677
747.913	12256
748.024	12666
748.136	12230
748.248	12509
748.359	11114
748.471	12237
748.583	12849
748.694	12860
748.806	13500
748.918	14737
749.029	13156
749.141	13180
749.252	13302
749.364	13382
749.475	13718
749.587	13918
749.698	12656
749.809	13266
749.921	12558
750.032	13847
750.144	13246
750.255	13691
750.366	12514
750.478	13676
750.589	13410
750.700	13306
750.811	14293
750.923	14554
751.034	14547
751.145	16233
751.256	13204
751.367	13749
751.479	13743
751.590	13009
751.701	13384
751.812	13811
751.923	14451
752.034	14345
752.145	13747
752.256	13959
752.367	14635
752.478	14508
752.589	14853
752.700	15340
752.811	14588
752.922	15323
753.032	14436
753.143	15367
753.254	15154
753.365	16347
753.476	14934
753.586	15831
753.697	15895
753.808	15889
753.919	16103
754.029	15516
754.140	16012
754.251	16703
754.361	16489
754.472	16598
754.582	16667
754.693	16779
754.804	16863
754.914	18034
755.025	16909
755.135	18258
755.246	17499
755.356	18103
755.466	18795
755.577	18698
755.687	17908
755.798	19012
755.908	18920
756.018	18876
756.129	19357
756.239	19486
756.349	19997
756.460	19796
756.570	20244
756.680	20417
756.790	20928
756.900	20849
757.011	21299
757.121	22005
757.231	22242
757.341	22082
757.451	22607
757.561	23438
757.671	22940
757.781	23197
757.891	23824
758.001	24014
758.111	24656
758.221	25120
758.331	24697
758.441	26023
758.551	25770
758.661	27903
758.771	27296
758.880	27660
758.990	28813
759.100	29375
759.210	30181
759.320	30020
759.429	29889
759.539	32006
759.649	31716
759.758	32792
759.868	33423
759.978	34243
760.087	35479
760.197	36299
760.307	36713
760.416	37567
760.526	37616
760.635	39185
760.745	39554
760.854	41556
760.964	43057
761.073	44169
761.182	45356
761.292	46033
761.401	47083
761.511	48632
761.620	49442
761.729	52796
761.839	53483
761.948	55594
762.057	57195
762.166	58152
762.276	59706
762.385	63150
762.494	65398
762.603	67817
762.712	71589
762.822	73709
762.931	76308
763.040	79131
763.149	82814
763.258	88611
763.367	93763
763.476	98600
763.585	101999
763.694	109375
763.803	114867
763.912	121803
764.021	129272
764.130	137716
764.238	148840
764.347	159383
764.456	171940
764.565	186786
764.674	202785
764.783	221584
764.891	244791
765.000	272444
765.109	305490
765.217	346358
765.326	391992
765.435	454425
765.543	524698
765.652	614152
765.761	725575
765.869	851797
765.978	993563
766.086	1125305
766.195	1194282
766.303	1060151
766.412	674946
766.520	856182
766.629	1217462
766.737	1224110
766.846	1094053
766.954	925473
767.062	768363
767.171	636039
767.279	526928
767.387	445856
767.496	382181
767.604	333546
767.712	298809
767.820	267056
767.928	247357
768.037	231193
768.145	217793
768.253	210010
768.361	205470
768.469	206789
768.577	210718
768.685	223115
768.793	237844
768.901	262907
769.009	303344
769.117	360015
769.225	440150
769.333	560784
769.441	725722
769.549	926115
769.657	1082612
769.765	970954
769.873	754977
769.981	1106259
770.088	1100140
770.196	897950
770.304	711326
770.412	570243
770.519	465730
770.627	388928
770.735	327898
770.842	281345
770.950	247525
771.058	219696
771.165	195290
771.273	175530
771.380	160590
771.488	146674
771.595	135892
771.703	125015
771.810	116846
771.918	108166
772.025	102303
772.133	96919
772.240	91063
772.348	86444
772.455	82041
772.562	78170
772.670	73770
772.777	71986
772.884	67559
772.991	65127
773.099	61652
773.206	59268
773.313	57266
773.420	55621
773.528	52130
773.635	51824
773.742	51173
773.849	49451
773.956	46117
774.063	46810
774.170	43993
774.277	43567
774.384	41869
774.491	41372
774.598	39502
774.705	38612
774.812	38999
774.919	38250
775.026	36617
775.133	35262
775.239	33940
775.346	34412
775.453	32807
775.560	32514
775.667	31628
775.773	30794
775.880	30529
775.987	29511
776.093	28803
776.200	28094
776.307	27624
776.413	27674
776.520	26541
776.627	25857
776.733	25718
776.840	24952
776.946	25686
777.053	24928
777.159	24048
777.266	21419
777.372	24768
777.478	24036
777.585	21857
777.691	21862
777.798	20768
777.904	21859
778.010	20655
778.117	21502
778.223	20028
778.329	20124
778.435	19550
778.542	19870
778.648	18256
778.754	18872
778.860	18144
778.966	19578
779.072	17977
779.178	17826
779.284	19434
779.391	19759
779.497	19981
779.603	29408
779.708	40843
779.815	86037
779.920	263001
780.026	317681
780.132	66361
780.238	27621
780.344	20748
780.450	19771
780.556	17376
780.661	15840
780.767	15269
780.873	15291
780.979	14741
781.085	13847
781.190	13963
781.296	14075
781.402	13594
781.507	13051
781.613	12847
781.719	13105
781.824	13326
781.930	13573
782.035	13429
782.141	12901
782.246	11392
782.352	12687
782.457	12395
782.563	11525
782.668	11880
782.773	11709
782.879	10764
782.984	12727
783.090	11433
783.195	11802
783.300	11440
783.405	11895
783.511	10809
783.616	11707
783.721	10738
783.826	10799
783.932	10417
784.037	11030
784.142	10164
784.247	10771
784.352	11157
784.457	11462
784.562	10296
784.667	10263
784.772	9675
784.877	8946
784.982	9586
785.087	9871
785.192	9890
785.297	9026
785.402	9149
785.507	9609
785.611	8314
785.716	9267
785.821	10318
785.926	8872
786.031	8256
786.135	8849
786.240	8245
786.345	7503
786.450	8538
786.554	8093
786.659	7806
786.763	7523
786.868	8492
786.973	8561
787.077	7822
787.182	7679
787.286	7460
787.391	8201
787.495	7349
787.600	7773
787.704	7911
787.809	8728
787.913	7413
788.017	8023
788.122	7664
788.226	6941
788.330	7364
788.435	7404
788.539	7138
788.643	6926
788.747	6860
788.852	6811
788.956	7028
789.060	7850
789.164	6492
789.268	6742
789.372	6856
789.476	6514
789.580	6220
789.684	6800
789.788	6733
789.892	6668
789.996	6991
790.100	6614
790.204	6261
790.308	6889
790.412	6479
790.516	6961
790.620	6188
790.724	7347
790.828	6020
790.931	5423
791.035	7483
791.139	6810
791.242	5129
791.346	6117
791.450	5068
791.554	5753
791.657	5461
791.761	7015
791.864	6927
791.968	6631
792.072	6042
792.175	6109
792.279	4828
792.382	6484
792.486	5764
792.589	5673
792.693	4906
792.796	4479
792.899	6666
793.003	6951
793.106	3690
793.209	5764
793.313	6797
793.416	4197
793.519	6563
793.623	6561
793.726	5765
793.829	5791
793.932	5253
794.035	5536
794.138	7995
794.242	8213
794.345	11088
794.448	18861
794.551	44760
794.654	150727
794.757	196574
794.860	33776
794.963	10501
795.066	8004
795.169	7684
795.272	6542
795.375	6682
795.477	5455
795.580	5951
795.683	4932
795.786	4818
795.889	4761
795.991	6093
796.094	5739
796.197	3933
796.300	5802
796.402	4729
796.505	4467
796.608	4109
796.710	4993
796.813	3852
796.915	4376
797.018	4134
797.120	3927
797.223	3201
797.326	4937
797.428	2717
797.530	4668
797.633	3743
797.735	5316
797.838	5818
797.940	5559
798.042	3832
798.145	3365
798.247	4580
798.349	3050
798.452	3875
798.554	4038
798.656	2899
798.758	4325
798.860	3730
798.962	3863
799.065	2662
799.167	3330
799.269	4230
799.371	4430
799.473	4590
799.575	3550
799.677	3859
799.779	5056
799.881	2197
799.983	4020
800.085	3527
800.187	3869
800.289	2709
800.390	4244
800.492	3986
800.594	4619
800.696	2617
800.798	3335
800.899	3796
801.001	3259
801.103	3909
801.205	3543
801.306	2796
801.408	3175
801.509	2974
801.611	4039
801.713	3495
801.814	2997
801.916	2630
802.017	3215
802.119	2314
802.220	3790
802.322	1748
802.423	5573
802.525	2596
802.626	3726
802.727	3924
802.829	3115
802.930	1816
803.031	4484
803.133	2600
803.234	3661
803.335	3345
803.436	2470
803.538	3112
803.639	1593
803.740	2368
803.841	2716
803.942	2075
804.043	3520
804.144	2040
804.245	3259
804.346	2422
804.447	2709
804.548	2538
804.649	3866
804.750	2615
804.851	2055
804.952	2070
805.053	3410
805.154	1741
805.255	3769
805.355	2170
805.456	2682
805.557	2150
805.658	1825
805.758	3098
805.859	2699
805.960	2105
806.061	2467
806.161	1367
806.262	2673
806.362	2539
806.463	2749
806.564	2307
806.664	2720
806.765	2738
806.865	3157
806.966	2381
807.066	1572
807.166	2103
807.267	3348
807.367	1729
807.468	3158
807.568	989
807.668	3766
807.769	2402
807.869	1624
807.969	1765
808.069	2364
808.170	3225
808.270	2224
808.370	3049
808.470	2511
808.570	1283
808.670	2099
808.770	1865
808.870	1596
808.970	2538
809.070	1893
809.170	1204
809.271	2977
809.370	2435
809.470	2116
809.570	648
809.670	1756
809.770	1916
809.870	2050
809.970	2945
810.070	1752
810.169	2096
810.269	1071
810.369	1612
810.469	2114
810.568	1002
810.668	2127
810.768	1236
810.867	2493
810.967	1647
811.066	2698
811.166	1496
811.265	2667
811.365	873
811.464	2024
811.564	2103
811.663	2199
811.763	380
811.862	2060
811.962	1787
812.061	1967
812.160	1694
812.260	2393
812.359	2111
812.458	3295
812.557	7567
812.657	9603
812.756	4550
812.855	1990
812.954	1353
813.053	2522
813.153	1753
813.252	897
813.351	2294
813.450	1837
813.549	1068
813.648	2345
813.747	1269
813.846	2359
813.945	1287
814.044	1588
814.143	1645
814.242	2084
814.341	771
814.439	1187
814.538	1405
814.637	1672
814.736	2139
814.835	2487
814.933	984
815.032	2230
815.131	1687
815.229	2043
815.328	2760
815.427	1957
815.525	2121
815.624	2019
815.722	1270
815.821	2636
815.919	679
816.018	2044
816.116	2779
816.215	1528
816.313	2083
816.412	1828
816.510	1856
816.609	3505
816.707	2716
816.805	1660
816.904	753
817.002	1675
817.100	2765
817.198	2608
817.296	1609
817.395	2038
817.493	2307
817.591	1251
817.689	2027
817.787	1904
817.885	2208
817.983	3214
818.081	3475
818.179	6971
818.277	15990
818.375	14076
818.473	4222
818.571	3256
818.669	2677
818.767	2813
818.865	2365
818.963	3051
819.061	2701
819.158	4042
819.256	7686
819.354	13428
819.452	30785
819.549	19684
819.647	6710
819.745	3983
819.842	3140
819.940	1844
820.038	1568
820.135	2120
820.233	2342
820.330	2092
820.428	1431
820.525	3152
820.623	1900
820.720	1825
820.818	1114
820.915	1640
821.012	1736
821.110	679
821.207	1917
821.304	1908
821.402	1446
821.499	3062
821.596	2056
821.693	1641
821.791	2055
821.888	1985
821.985	2005
822.082	957
822.179	1904
822.276	2127
822.373	1041
822.470	1605
822.567	1900
822.664	1129
822.761	2429
822.858	1529
822.955	1081
823.052	1475
823.149	1308
823.246	1522
823.343	684
823.440	1465
823.536	1236
823.633	552
823.730	165
823.827	1896
823.923	692
824.020	2520
824.117	1099
824.213	901
824.310	2250
824.407	1203
824.503	1555
824.600	1560
824.696	1436
824.793	2077
824.889	1219
824.986	1452
825.082	785
825.179	1185
825.275	1318
825.371	764
825.468	1842
825.564	1116
825.660	1245
825.757	1289
825.853	1847
825.949	593
826.045	1269
826.142	494
826.238	1822
826.334	1510
826.430	-103
826.526	1347
826.622	1301
826.718	1025
826.814	478
826.910	2053
827.006	612
827.102	1149
827.198	1617
827.294	987
827.390	591
827.486	1278
827.582	194
827.678	693
827.774	1760
827.869	398
827.965	1754
828.061	-473
828.157	1229
828.252	1560
828.348	866
828.444	2668
828.539	156
828.635	1570
828.731	1490
828.826	369
828.922	810
829.017	1191
829.113	804
829.208	182
829.304	583
829.399	2150
829.495	725
829.590	1966
829.685	1074
829.781	475
829.876	123
829.971	887
830.066	186
830.162	514
830.257	934
830.352	733
830.447	1312
830.543	378
830.638	-889
830.733	1787
830.828	397
830.923	2162
831.018	1313
831.113	726
831.208	574
831.303	813
831.398	1271
831.493	359
831.588	570
831.683	-16
831.778	995
831.873	811
831.967	1138
832.062	-118
832.157	-898
832.252	1536
832.346	350
832.441	1008
832.536	873
832.631	2993
832.725	1185
832.820	524
832.914	308
833.009	276
833.104	473
833.198	1032
833.293	79
833.387	1083
833.482	634
833.576	418
833.670	1416
833.765	778
833.859	-319
833.954	1254
834.048	455
834.142	1020
834.237	422
834.331	851
834.425	1299
834.519	-251
834.613	1834
834.708	902
834.802	1756
834.896	706
834.990	282
835.084	1016
835.178	1222
835.272	789
835.366	-34
835.460	1305
835.554	1105
835.648	1206
835.742	108
835.836	-317
835.930	178
836.024	1095
836.117	1428
836.211	218
836.305	1629
836.399	2119
836.493	32
836.586	1462
836.680	-254
836.774	-82
836.867	1056
836.961	389
837.055	643
837.148	205
837.242	633
837.335	348
837.429	-147
837.522	406
837.616	339
837.709	2559
837.803	1050
837.896	923
837.989	981
838.083	1356
838.176	3018
838.269	1845
838.363	1539
838.456	470
838.549	337
838.642	438
838.735	2032
838.829	2249
838.922	105
839.015	558
839.108	170
839.201	538
839.294	1129
839.387	522
839.480	-13
839.573	1308
839.666	1062
839.759	345
839.852	-595
839.945	1137
840.038	83
840.131	23
840.223	-440
840.316	765
840.409	-370
840.502	-179
840.594	519
840.687	202
840.780	891
840.873	11
840.965	760
841.058	1111
841.150	2440
841.243	1054
841.336	820
841.428	501
841.521	-288
841.613	154
841.706	353
841.798	451
841.890	1422
841.983	-956
842.075	1351
842.167	1697
842.260	332
842.352	1397
842.444	830
842.537	2610
842.629	4003
842.721	907
842.813	353
842.905	13
842.997	71
843.090	51
843.182	964
843.274	2113
843.366	6608
843.458	11874
843.550	7439
843.642	663
843.734	1271
843.826	986
843.918	1049
844.009	878
844.101	-1021
844.193	226
844.285	-223
844.377	287
844.469	590
844.560	13
844.652	-645
844.744	808
844.835	230
844.927	369
845.019	435
845.110	561
845.202	756
845.293	-291
845.385	-168
845.476	415
845.568	1113
845.659	74
845.751	1108
845.842	644
845.934	-307
846.025	694
846.116	976
846.208	246
846.299	-906
846.390	1191
846.482	737
846.573	1095
846.664	621
846.755	321
846.846	610
846.937	193
847.029	416
847.120	176
847.211	152
847.302	1077
847.393	-396
847.484	102
847.575	-513
847.666	527
847.757	434
847.847	936
847.938	514
848.029	531
848.120	365
848.211	936
848.302	337
848.392	776
848.483	198
848.574	-514
848.664	-1041
848.755	5
848.846	362
848.936	-455
849.027	6
849.118	-103
849.208	-550
849.299	944
849.389	345
849.480	1141
849.570	1917
849.661	3510
849.751	4643
849.841	1768
849.932	508
850.022	-18
850.112	152
850.203	371
850.293	-177
850.383	484
850.474	-85
850.564	332
850.654	180
850.744	-306
850.834	-1151
850.924	733
851.014	86
851.104	62
851.194	424
851.284	451
851.374	1163
851.464	1064
851.554	350
851.644	1010
851.734	2181
851.824	3744
851.914	3885
852.004	9692
852.094	5415
852.183	908
852.273	966
852.363	441
852.452	121
852.542	438
852.632	121
852.721	58
852.811	82
852.901	626
852.990	-153
853.080	406
853.169	-768
853.259	264
853.348	-74
853.438	-543
853.527	278
853.617	508
853.706	1716
853.795	2439
853.885	5278
853.974	11298
854.063	21848
854.152	29324
854.242	7827
854.331	2059
854.420	240
854.509	949
854.598	395
854.687	1104
854.777	183
854.866	-238
854.955	372
855.044	-425
855.133	-129
855.222	362
855.311	-753
855.400	-224
855.488	705
855.577	-33
855.666	498
855.755	582
855.844	379
855.933	539
856.021	262
856.110	759
856.199	-1362
856.288	-722
856.376	-79
856.465	-679
856.554	-217
856.642	211
856.731	-175
856.819	336
856.908	-201
856.996	273
857.085	-242
857.173	-115
857.262	-253
857.350	482
857.438	-728
857.527	421
857.615	-519
857.703	-412
857.792	-711
857.880	58
857.968	-683
858.056	-375
858.145	-192
858.233	-347
858.321	-495
858.409	360
858.497	-698
858.585	-335
858.673	-29
858.761	-168
858.849	-1073
858.937	-415
859.025	-503
859.113	621
859.201	-725
859.289	597
859.377	-36
859.465	399
859.552	-314
859.640	-929
859.728	409
859.816	-528
859.903	-56
859.991	237
860.079	-253
860.166	-55
860.254	-303
860.342	111
860.429	-666
860.517	-177
860.604	8
860.692	339
860.779	-1469
860.867	-225
860.954	-266
861.042	-75
861.129	-203
861.216	39
861.304	-1016
861.391	-175
861.478	424
861.565	586
861.653	465
861.740	-687
861.827	-1006
861.914	661
862.001	-618
862.089	-66
862.176	-863
862.263	89
862.350	-14
862.437	-603
862.524	-240
862.611	126
862.698	-451
862.785	-54
862.871	90
862.958	-377
863.045	-515
863.132	-364
863.219	-1854
863.306	-357
863.392	-326
863.479	-213
863.566	-389
863.652	476
863.739	-443
863.826	-451
863.912	50
863.999	-1211
864.086	-435
864.172	-488
864.259	-611
864.345	-767
864.432	232
864.518	287
864.604	-821
864.691	139
864.777	-357
864.863	643
864.950	136
865.036	-395
865.122	-122
865.209	599
865.295	165
865.381	174
865.467	803
865.553	817
865.639	769
865.726	1097
865.812	3185
865.898	5785
865.984	7885
866.070	17571
866.156	14809
866.242	3671
866.328	887
866.414	-173
866.499	283
866.585	1446
866.671	133
866.757	563
866.843	-284
866.928	281
867.014	-694
867.100	-258
867.186	-271
867.271	1079
867.357	475
867.442	989
867.528	-202
867.614	1063
867.699	339
867.785	1203
867.870	263
867.956	449
868.041	851
868.127	533
868.212	-243
868.297	69
868.383	693
868.468	102
868.553	467
868.639	373
868.724	975
868.809	1253
868.894	-194
868.979	31
869.065	-349
869.150	296
869.235	-54
869.320	225
869.405	-860
869.490	561
869.575	-665
869.660	398
869.745	-19
869.830	101
869.915	-25
870.000	35
870.085	-269
870.169	-607
870.254	-145
870.339	16
870.424	-199
870.509	753
870.593	104
870.678	-77
870.763	-380
870.847	575
870.932	-607
871.016	621
871.101	-658
871.186	-93
871.270	521
871.355	-532
871.439	-331
871.523	-117
871.608	-309
871.692	297
871.777	100
871.861	-245
871.945	-21
872.030	-343
872.114	151
872.198	-1132
872.282	-291
872.367	163
872.451	-621
872.535	-141
872.619	-866
872.703	-928
872.787	-1077
872.871	-830
872.955	-526
873.039	-251
873.123	-915
873.207	135
873.291	-299
873.375	-477
873.459	-38
873.543	-455
873.627	-154
873.711	-739
873.794	-509
873.878	-152
873.962	-985
874.045	-502
874.129	-729
874.137	-700
874.213	-407
874.245	-195
874.296	148
874.352	-335
874.380	-572
874.460	-392
874.464	-385
874.547	-689
874.568	-648
874.631	-528
874.676	-147
874.714	173
874.784	-822
874.798	-1016
874.881	1051
874.892	891
874.965	-233
874.999	-44
875.048	217
875.107	-262
875.131	-473
875.215	294
875.215	293
875.298	-386
875.323	-388
875.381	-436
875.430	-310
875.465	-206
875.538	-616
875.548	-670
875.631	-205
875.646	-198
875.714	-200
875.753	-304
875.798	-413
875.861	409
875.881	649
875.964	-377
875.968	-373
876.047	-109
876.076	39
876.130	209
876.183	48
876.213	-43
876.291	43
876.296	50
876.379	266
876.398	173
876.462	-159
876.506	-87
876.545	12
876.613	-156
876.628	-195
876.711	-92
876.721	-71
876.794	212
876.828	284
876.877	210
876.935	201
876.960	275
877.043	207
877.043	205
877.125	-201
877.150	1
877.208	372
877.258	287
877.291	277
877.365	-14
877.374	-43
877.456	756
877.472	710
877.539	555
877.579	537
877.622	394
877.687	424
877.704	462
877.787	323
877.794	279
877.869	-105
877.901	106
877.952	397
878.008	152
878.034	10
878.115	-389
878.117	-387
878.199	552
878.222	559
878.282	296
878.329	586
878.364	838
878.437	404
878.447	348
878.529	40
878.544	53
878.611	-16
878.651	172
878.694	646
878.758	810
878.776	767
878.858	319
878.865	284
878.941	-150
878.972	92
879.023	685
879.078	182
879.105	-30
879.185	523
879.187	532
879.269	980
879.292	839
879.351	448
879.399	27
879.433	-69
879.506	861
879.516	942
879.598	151
879.613	257
879.680	923
879.720	1219
879.762	1504
879.827	828
879.844	590
879.926	326
879.933	345
880.007	901
880.040	750
880.089	418
880.147	370
880.171	439
880.253	1937
880.254	1933
880.335	1592
880.360	1764
880.417	2416
880.467	3251
880.499	3914
880.574	4603
880.580	4480
880.662	2239
880.680	1773
880.744	1115
880.787	1012
880.825	922
880.893	324
880.907	242
880.989	1208
881.000	1137
881.070	1045
881.106	997
881.152	629
881.213	889
881.233	1016
881.315	615
881.319	593
881.396	967
881.426	1186
881.478	969
881.532	883
881.559	1026
881.639	862
881.641	861
881.722	983
881.745	934
881.803	1087
881.852	1382
881.885	1286
881.958	1105
881.966	1147
882.047	1233
882.064	1209
882.129	919
882.171	763
882.210	916
882.277	1583
882.291	1647
882.372	1331
882.383	1344
882.454	1437
882.489	1301
882.535	1288
882.596	1388
882.616	1320
882.697	1324
882.702	1277
882.778	1021
882.808	1195
882.859	1446
882.914	1528
882.940	1505
883.020	725
883.021	732
883.102	1306
883.127	1547
883.183	1730
883.233	1784
883.264	1741
883.339	1410
883.345	1388
883.426	956
883.445	902
883.507	1500
883.551	1731
883.587	1659
883.657	1805
883.668	1858
883.749	2020
883.763	2043
883.830	1614
883.869	1318
883.910	1349
883.975	1304
883.991	1261
884.072	1508
884.081	1484
884.152	1555
884.187	1528
884.233	1627
884.292	1885
884.314	1733
884.394	1219
884.398	1165
884.475	939
884.504	1007
884.555	1171
884.610	1227
884.636	1385
884.716	2120
884.716	2131
884.797	2019
884.821	2182
884.877	2027
884.927	1620
884.958	1468
885.033	1520
885.038	1538
885.118	1292
885.139	1200
885.199	1095
885.244	1101
885.279	1286
885.350	1967
885.359	2042
885.439	2143
885.456	2192
885.520	2089
885.561	1986
885.600	1757
885.667	1375
885.680	1477
885.760	2079
885.773	2146
885.840	1727
885.878	1577
885.920	1804
885.984	1982
886.000	1986
886.080	2030
886.089	2021
886.160	2363
886.195	2395
886.240	2197
886.300	2201
886.320	2207
886.400	2377
886.406	2350
886.480	1846
886.511	1697
886.560	1694
886.616	1607
886.640	1687
886.720	2056
886.722	2055
886.800	1903
886.827	1793
886.879	1766
886.932	1871
886.959	2201
887.038	2994
887.039	3002
887.119	2835
887.143	2633
887.198	2384
887.248	2356
887.278	2474
887.354	2514
887.358	2512
887.437	2275
887.459	2239
887.517	2544
887.564	2701
887.596	2548
887.669	2187
887.676	2203
887.755	2306
887.774	2309
887.835	2140
887.880	1998
887.914	1990
887.985	1903
887.994	1927
888.073	2175
888.090	2188
888.153	3069
888.195	3695
888.232	3239
888.300	2320
888.311	2360
888.391	2609
888.405	2647
888.470	2499
888.510	2309
888.549	2205
888.615	2131
888.628	2266
888.708	2983
888.720	3090
888.787	2873
888.825	2678
888.866	2602
888.930	2532
888.945	2606
889.024	2903
889.035	2937
889.103	2842
889.140	2768
889.182	2534
889.245	2141
889.261	2262
889.340	2846
889.349	2900
889.419	2719
889.454	2624
889.498	2344
889.559	1946
889.577	2187
889.656	3217
889.664	3311
889.735	3130
889.768	3030
889.814	2988
889.873	2911
889.978	2197
890.083	2540
890.187	3551
890.292	3275
890.397	2991
890.501	3147
890.606	2470
890.710	3490
890.815	3290
890.919	3112
891.024	2988
891.128	3352
891.233	3061
891.337	4160
891.442	3218
891.546	4172
891.650	2379
891.755	2313
891.859	3865
891.963	3505
892.068	2670
892.172	3185
892.276	2236
892.380	3167
892.484	4089
892.589	3346
892.693	2672
892.797	2332
892.901	2754
893.005	2737
893.109	3084
893.213	3264
893.317	2515
893.421	2794
893.525	1964
893.629	1992
893.733	3165
893.837	2869
893.941	1832
894.045	2591
894.148	3698
894.252	6176
894.356	5006
894.460	2982
894.564	3108
894.667	2367
894.771	1873
894.875	2126
894.978	3068
895.082	2775
895.186	3005
895.289	3765
895.393	2715
895.496	3026
895.600	2349
895.703	2438
895.807	2937
895.910	2999
896.014	2882
896.117	2231
896.221	2555
896.324	3058
896.427	2450
896.531	2158
896.634	2184
896.737	2758
896.840	2807
896.944	2849
897.047	2766
897.150	2548
897.253	1748
897.356	1986
897.460	1384
897.563	2129
897.666	3147
897.769	1759
897.872	1805
897.975	2657
898.078	2356
898.181	1716
898.284	1681
898.387	2696
898.490	2695
898.593	2458
898.695	2114
898.798	2233
898.901	2105
899.004	2244
899.107	2872
899.209	2757
899.312	2673
899.415	2145
899.518	2352
899.620	1992
899.723	1647
899.826	1697
899.928	2514
900.031	2321
900.133	2447
900.236	2192
900.338	1424
900.441	2205
900.543	2569
900.646	2488
900.748	1966
900.851	2577
900.953	2245
901.055	1172
901.158	1706
901.260	1750
901.362	2444
901.465	2290
901.567	2574
901.669	2145
901.771	2010
901.873	2003
901.976	2047
902.078	1895
902.180	1795
902.282	1634
902.384	2067
902.486	2900
902.588	2152
902.690	2332
902.792	2086
902.894	2416
902.996	3340
903.098	2180
903.200	2008
903.302	2214
903.404	2172
903.505	2455
903.607	2553
903.709	2512
903.811	2943
903.913	1497
904.014	1297
904.116	1321
904.218	2871
904.319	2527
904.421	3241
904.523	2725
904.624	2345
904.726	1681
904.827	1347
904.929	1661
905.030	2085
905.132	2384
905.233	2557
905.335	2106
905.436	1169
905.537	1316
905.639	1859
905.740	2595
905.841	2334
905.943	2306
906.044	1531
906.145	1354
906.247	988
906.348	2430
906.449	1881
906.550	2984
906.651	2049
906.752	1528
906.854	961
906.955	1440
907.056	1885
907.157	2344
907.258	1945
907.359	1871
907.460	1885
907.561	2321
907.662	1460
907.762	1597
907.863	1454
907.964	2048
908.065	2119
908.166	2031
908.267	1965
908.367	2076
908.468	2119
908.569	2771
908.670	3064
908.770	2306
908.871	1902
908.971	2963
909.072	2576
909.173	1313
909.273	1402
909.374	1851
909.474	2168
909.575	1994
909.675	2046
909.776	1990
909.876	1634
909.977	2138
910.077	1904
910.177	2658
910.278	2431
910.378	1735
910.478	1196
910.579	1827
910.679	2401
910.779	2660
910.879	1567
910.980	1643
911.080	1618
911.180	1297
911.280	1777
911.380	2163
911.480	1710
911.580	1761
911.680	1618
911.780	2384
911.880	1566
911.980	1358
912.080	2621
912.180	2390
912.280	2041
912.380	1904
912.480	1256
912.580	1995
912.679	1605
912.779	2468
912.879	1847
912.979	1534
913.078	2379
913.178	2052
913.278	1503
913.377	1870
913.477	1515
913.577	2223
913.676	3084
913.776	2312
913.875	1706
913.975	2146
914.074	1910
914.174	1540
914.273	1372
914.373	1294
914.472	776
914.572	2035
914.671	1615
914.770	2890
914.870	1632
914.969	2004
915.068	1833
915.167	2897
915.267	1966
915.366	1749
915.465	2196
915.564	1479
915.663	2134
915.763	2464
915.862	1875
915.961	1429
916.060	1740
916.159	1380
916.258	1877
916.357	1830
916.456	2611
916.555	2568
916.654	1859
916.752	2471
916.851	2032
916.950	1856
917.049	1868
917.148	1889
917.247	2202
917.345	1111
917.444	1779
917.543	1590
917.642	2840
917.740	2249
917.839	3018
917.937	2540
918.036	1903
918.135	1523
918.233	1893
918.332	2015
918.430	1863
918.529	2164
918.627	1588
918.726	1889
918.824	1796
918.923	2078
919.021	1891
919.119	1999
919.218	1786
919.316	1447
919.414	2075
919.512	2291
919.611	1533
919.709	2468
919.807	1850
919.905	3078
920.003	2627
920.102	2098
920.200	2581
920.298	2787
920.396	800
920.494	2500
920.592	1987
920.690	1979
920.788	1746
920.886	1804
920.984	3019
921.082	2322
921.180	3385
921.277	2555
921.375	3815
921.473	2984
921.571	3589
921.669	3201
921.766	2813
921.864	3361
921.962	3182
922.060	3273
922.157	3548
922.255	3286
922.352	3390
922.450	4642
922.548	2653
922.645	3723
922.743	5485
922.840	6513
922.938	7217
923.035	6647
923.133	6235
923.230	7340
923.327	9236
923.425	8314
923.522	8352
923.619	7631
923.717	7247
923.814	6722
923.911	6944
924.008	7232
924.106	6516
924.203	6462
924.300	5756
924.397	6906
924.494	6454
924.591	6784
924.688	6472
924.786	6729
924.883	6956
924.979	6728
925.077	5975
925.173	6386
925.270	6777
925.367	6749
925.464	7066
925.561	7025
925.658	7055
925.755	5867
925.852	6494
925.948	6398
926.045	6048
926.142	7011
926.239	6701
926.335	6304
926.432	6179
926.529	6284
926.625	6533
926.722	6436
926.818	6059
926.915	6753
927.011	6573
927.108	6794
927.204	6519
927.301	4850
927.397	6910
927.494	6546
927.590	4787
927.687	4740
927.783	6817
927.879	6087
927.976	5232
928.072	5317
928.168	5870
928.264	5373
928.361	5162
928.457	6782
928.553	5075
928.649	5875
928.745	5588
928.841	5053
928.937	5274
929.033	4782
929.129	5948
929.225	6085
929.321	4921
929.417	4655
929.513	6047
929.609	4197
929.705	4664
929.801	5580
929.897	4924
929.993	4872
930.089	5097
930.184	4336
930.280	6170
930.376	6083
930.471	4558
930.567	3924
930.663	5019
930.758	4589
930.854	3981
930.950	4688
931.045	4502
931.141	4386
931.236	5266
931.332	4101
931.427	3854
931.523	5015
931.618	4979
931.714	3956
931.809	4802
931.905	5401
932.000	3762
932.095	3106
932.191	5192
932.286	5994
932.381	4649
932.476	4510
932.572	3877
932.667	3882
932.762	4247
932.857	5113
932.952	5566
933.047	4469
933.142	3282
933.237	3751
933.332	4701
933.427	5439
933.522	3441
933.617	3841
933.712	4031
933.807	5198
933.902	4430
933.997	5692
934.092	4021
934.187	4502
934.282	5046
934.376	4882
934.471	4068
934.566	3646
934.661	4008
934.755	4077
934.850	5078
934.945	4564
935.039	3083
935.134	2836
935.228	4586
935.323	4935
935.417	3367
935.512	3841
935.606	3111
935.701	4096
935.795	4487
935.890	3189
935.984	3842
936.079	3549
936.173	3120
936.267	4160
936.362	3455
936.456	3925
936.550	4859
936.644	3592
936.738	3271
936.833	3181
936.927	3521
937.021	3880
937.115	3765
937.209	3468
937.303	3879
937.397	4036
937.491	3656
937.585	4355
937.679	2985
937.773	2535
937.867	2865
937.961	3698
938.055	4327
938.149	4388
938.243	3178
938.337	3238
938.430	3095
938.524	4269
938.618	2876
938.712	3769
938.805	3089
938.899	3726
938.993	4306
939.086	2647
939.180	2283
939.274	3581
939.367	3856
939.461	3933
939.554	3961
939.648	3552
939.741	2988
939.835	3225
939.928	4253
940.022	3761
940.115	2901
940.208	4413
940.302	4103
940.395	4135
940.488	2354
940.582	3123
940.675	2741
940.768	2452
940.861	3725
940.954	3798
941.048	1990
941.141	2306
941.234	2180
941.327	3077
941.420	4158
941.513	3678
941.606	2021
941.699	3476
941.792	3954
941.885	2812
941.978	3790
942.071	3157
942.164	2533
942.257	2840
942.349	2711
942.442	3174
942.535	1904
942.628	2336
942.721	2385
942.813	2688
942.906	3933
942.999	2957
943.091	1861
943.184	2851
943.277	1953
943.369	2027
943.462	2181
943.554	2944
943.647	2159
943.739	3778
943.832	2937
943.924	1339
944.017	2871
944.109	2325
944.201	3114
944.294	3034
944.386	3207
944.478	2075
944.571	2875
944.663	3143
944.755	1878
944.847	2644
944.940	2416
945.032	1106
945.124	2048
945.216	3336
945.308	1859
945.400	2472
945.492	2395
945.584	3853
945.676	2833
945.768	3089
945.860	3482
945.952	2172
946.044	2610
946.136	2680
946.228	1486
946.320	1843
946.412	1981
946.503	2621
946.595	2634
946.687	2032
946.779	1290
946.870	2233
946.962	1560
947.054	2516
947.145	2615
947.237	2914
947.329	2764
947.420	1836
947.512	1144
947.603	1652
947.695	1698
947.786	1884
947.878	1698
947.969	2131
948.061	2076
948.152	1540
948.243	1759
948.335	1485
948.426	2202
948.517	2073
948.609	2630
948.700	1795
948.791	2072
948.882	1195
948.973	2425
949.065	3042
949.156	2245
949.247	1216
949.338	1995
949.429	1021
949.520	1751
949.611	1578
949.702	1891
949.793	1696
949.884	2341
949.975	1363
950.066	1407
950.157	1810
950.247	1691
950.338	1535
950.429	2231
950.520	2310
950.611	1760
950.701	2119
950.792	2450
950.883	3271
950.973	1605
951.064	1896
951.155	1661
951.245	2763
951.336	2444
951.427	2074
951.517	2464
951.608	1981
951.698	1391
951.788	1897
951.879	1780
951.969	1576
952.060	818
952.150	1245
952.240	2443
952.331	790
952.421	2348
952.511	1241
952.602	992
952.692	450
952.782	1901
952.872	1537
952.962	961
953.052	1560
953.143	1887
953.233	1740
953.323	1831
953.413	2127
953.503	2800
953.593	1547
953.683	1258
953.773	1147
953.863	1536
953.953	1029
954.042	1518
954.132	2287
954.222	1884
954.312	1820
954.402	1722
954.492	2266
954.581	2067
954.671	2040
954.761	999
954.850	2391
954.940	1016
955.030	2549
955.119	1271
955.209	1089
955.298	1894
955.388	1886
955.477	2973
955.567	508
955.656	1478
955.746	2199
955.835	990
955.925	1291
956.014	2904
956.103	1683
956.193	3010
956.282	2002
956.371	1008
956.461	2066
956.550	1312
956.639	1922
956.728	1108
956.817	1970
956.906	1841
956.995	2398
957.085	1599
957.174	2405
957.263	1754
957.352	2181
957.441	1493
957.530	1806
957.619	2443
957.708	2360
957.796	1845
957.885	2029
957.974	2048
958.063	2187
958.152	448
958.241	2346
958.329	2070
958.418	1852
958.507	2367
958.596	2688
958.684	1907
958.773	3068
958.861	1628
958.950	2120
959.039	2700
959.127	1538
959.216	2933
959.304	2470
959.393	2571
959.481	2354
959.570	3481
959.658	1983
959.746	1902
959.835	3324
959.923	3103
960.011	1786
960.100	2658
960.188	2100
960.276	1934
960.365	2438
960.453	846
960.541	1752
960.629	2056
960.717	795
960.805	1225
960.893	1973
960.981	1833
961.069	3586
961.158	2036
961.245	3672
961.333	1596
961.421	1899
961.509	1812
961.597	2112
961.685	1415
961.773	2053
961.861	1753
961.949	2176
962.036	659
962.124	1541
962.212	2097
962.299	778
962.387	813
962.475	924
962.562	1175
962.650	1859
962.738	2228
962.825	901
962.913	2253
963.000	1675
963.088	1648
963.175	1695
963.263	1119
963.350	1163
963.438	1687
963.525	2180
963.612	2105
963.700	4769
963.787	5732
963.874	2429
963.962	1451
964.049	1910
964.136	2010
964.223	955
964.310	1353
964.398	1417
964.485	1360
964.572	1690
964.659	2855
964.746	2094
964.833	1323
964.920	1237
965.007	1840
965.094	1898
965.181	695
965.268	1995
965.355	1563
965.441	851
965.528	1121
965.615	2536
965.702	1173
965.789	1048
965.875	1387
965.962	1284
966.049	1454
966.136	2030
966.222	108
966.309	1757
966.395	1218
966.482	1845
966.569	1397
966.655	1074
966.742	1660
966.828	1498
966.915	1021
967.001	981
967.087	403
967.174	1257
967.260	1302
967.347	2476
967.433	3591
967.519	3849
967.605	1379
967.692	1581
967.778	1494
967.864	1237
967.950	311
968.036	1213
968.123	1687
968.209	1251
968.295	1009
968.381	1743
968.467	1635
968.553	348
968.639	1608
968.725	1733
968.811	2184
968.897	1637
968.983	596
969.069	1418
969.154	1902
969.240	1671
969.326	485
969.412	671
969.497	886
969.583	824
969.669	1926
969.755	1890
969.840	1285
969.926	2045
970.012	2575
970.097	2660
970.183	2293
970.268	1886
970.354	2209
970.439	1231
970.525	3020
970.610	654
970.696	1781
970.781	1599
970.866	412
970.952	794
971.037	788
971.122	1155
971.208	994
971.293	1769
971.378	1044
971.463	899
971.549	1970
971.634	394
971.719	1076
971.804	1465
971.889	1260
971.974	697
972.059	1209
972.144	1049
972.229	574
972.314	656
972.399	1539
972.484	725
972.569	783
972.654	619
972.739	2761
972.824	1839
972.908	598
972.993	765
973.078	1165
973.163	751
973.247	1060
973.332	111
973.417	1358
973.501	326
973.586	1526
973.671	1423
973.755	621
973.840	1759
973.924	1407
974.009	1749
974.093	1108
974.178	2475
974.262	2005
974.346	1471
974.431	1200
974.515	1034
974.600	1561
974.684	1434
974.768	948
974.852	2366
974.937	125
975.021	2011
975.105	1244
975.189	1190
975.273	1344
975.358	662
975.442	700
975.526	1799
975.610	256
975.694	793
975.778	971
975.862	1666
975.946	-532
976.030	2304
976.114	159
976.198	963
976.281	618
976.365	803
976.449	997
976.533	1532
976.617	761
976.700	211
976.784	1826
976.868	1047
976.951	1313
977.035	1357
977.119	722
977.202	1006
977.286	1925
977.369	2039
977.453	1421
977.536	1537
977.620	931
977.703	986
977.787	1054
977.870	1713
977.953	1844
978.037	551
978.120	2763
978.203	1714
978.287	2383
978.370	1840
978.453	1465
978.536	1372
978.620	1967
978.703	1526
978.786	1103
978.869	1309
978.952	820
979.035	2463
979.118	1941
979.201	529
979.284	1064
979.367	1238
979.450	1305
979.533	29
979.616	902
979.699	968
979.782	1149
979.865	985
979.948	-307
980.030	894
980.113	1393
980.196	467
980.279	1664
980.361	1007
980.444	56
980.526	1729
980.609	1746
980.692	1814
980.774	2073
980.857	20
980.939	2669
981.022	713
981.104	994
981.187	1169
981.269	1961
981.352	1293
981.434	635
981.516	527
981.599	2127
981.681	1449
981.763	964
981.846	1629
981.928	1297
982.010	894
982.092	487
982.174	1468
982.256	968
982.339	823
982.421	1520
982.503	910
982.585	-21
982.667	1116
982.749	1102
982.831	1012
982.913	493
982.995	1194
983.077	513
983.158	2015
983.240	989
983.322	1946
983.404	2519
983.486	1326
983.568	1432
983.649	1244
983.731	1933
983.813	350
983.894	1443
983.976	1173
984.058	533
984.139	2620
984.221	133
984.302	2380
984.384	573
984.465	1608
984.547	1447
984.628	1497
984.710	1800
984.791	1976
984.872	928
984.954	346
985.035	1196
985.116	897
985.198	433
985.279	2729
985.360	1917
985.441	997
985.522	1628
985.604	852
985.685	-1010
985.766	2640
985.847	2318
985.928	251
986.009	1001
986.090	1601
986.171	1736
986.252	1541
986.333	1712
986.414	948
986.495	1393
986.576	1095
986.656	844
986.737	1410
986.818	1373
986.899	1095
986.980	1580
987.060	3161
987.141	1573
987.222	1494
987.302	2018
987.383	2599
987.464	744
987.544	2614
987.625	1359
987.705	2215
987.786	1460
987.866	2067
987.947	1226
988.027	1830
988.108	652
988.188	1752
988.268	969
988.349	1995
988.429	1199
988.509	2285
988.589	1791
988.670	-57
988.750	3075
988.830	1242
988.910	1467
988.990	1666
989.070	1352
989.151	1416
989.231	631
989.311	980
989.391	1293
989.471	731
989.551	1071
989.631	458
989.711	2100
989.791	158
989.870	256
989.950	2382
990.030	1064
990.110	1475
990.190	594
990.269	1104
990.349	1061
990.429	474
990.509	1655
990.588	377
990.668	1415
990.747	835
990.827	787
990.907	1257
990.986	1096
991.066	1726
991.145	118
991.225	1172
991.304	884
991.383	843
991.463	552
991.542	1371
991.622	689
991.701	578
991.780	-97
991.859	719
991.939	303
992.018	1812
992.097	901
992.176	2256
992.256	414
992.335	588
992.414	1328
992.493	814
992.572	519
992.651	1728
992.730	420
992.809	693
992.888	468
992.967	386
993.046	165
993.125	241
993.203	423
993.282	797
993.361	1237
993.440	1152
993.519	477
993.597	802
993.676	-234
993.755	1471
993.834	1005
993.912	425
993.991	2175
994.069	275
994.148	581
994.226	564
994.305	1224
994.384	1242
994.462	955
994.540	-176
994.619	-11
994.697	1024
994.776	421
994.854	1237
994.932	594
995.011	868
995.089	433
995.167	1103
995.245	547
995.324	25
995.402	1197
995.480	-128
995.558	290
995.636	-635
995.714	421
995.792	964
995.870	-531
995.948	387
996.026	718
996.104	-883
996.182	-118
996.260	-576
996.338	510
996.416	-409
996.494	42
996.572	596
996.649	-335
996.727	-801
996.805	351
996.883	-175
996.960	-718
997.038	1034
997.116	-487
997.193	159
997.271	536
997.348	-6
997.426	170
997.504	-350
997.581	937
997.658	494
997.736	-309
997.813	-770
997.891	678
997.968	-124
998.046	-442
998.123	473
998.200	197
998.277	-348
998.355	977
998.432	-1109
998.509	186
998.586	634
998.663	-210
998.741	-9
998.818	-361
998.895	-805
998.972	17
999.049	-283
999.126	164
999.203	484
999.280	736
999.357	230
999.434	216
999.511	-1131
999.587	-61
999.664	-593
999.741	409
999.818	69
999.895	-434
999.971	-776
1000.048	101
1000.125	2032
1000.202	-655
1000.278	-31
1000.355	-128
1000.431	-167
1000.508	-596
1000.584	-809
1000.661	399
1000.738	-1654
1000.814	-410
1000.890	477
1000.967	-620
1001.043	28
1001.120	-507
1001.196	-45
1001.272	-994
1001.349	97
1001.425	-43
1001.501	-644
1001.577	-1376
1001.654	407
1001.730	-595
1001.806	-204
1001.882	-1646
1001.958	378
1002.034	-579
1002.110	-626
1002.186	-864
1002.262	-1333
1002.338	-815
1002.414	-4
1002.490	-96
1002.566	-596
1002.642	-679
1002.718	-372
1002.794	-681
1002.870	-205
1002.945	-315
1003.021	-644
1003.097	-371
1003.173	390
1003.248	-638
1003.324	-686
1003.400	-78
1003.475	-582
1003.551	-1222
1003.626	-487
1003.702	-422
1003.777	-870
1003.853	-973
1003.928	-1102
1004.004	-1136
1004.079	-344
1004.155	-664
1004.230	-1611
1004.305	290
1004.381	-806
1004.456	-630
1004.531	138
1004.607	-1156
1004.682	-439
1004.757	-487
1004.832	-677
1004.907	-867
1004.982	-285
1005.057	-433
1005.133	-994
1005.208	-1015
1005.283	-471
1005.358	37
1005.433	-828
1005.508	-347
1005.583	-1506
1005.657	-835
1005.732	-763
1005.807	-1885
1005.882	-429
1005.957	-775
1006.032	-138
1006.106	-1482
1006.181	-408
1006.256	63
1006.331	-1355
1006.405	-1272
1006.480	-665
1006.554	-511
1006.629	-850
1006.704	-983
1006.778	-297
1006.853	-173
1006.927	-508
1007.002	-1880
1007.076	-441
1007.150	-631
1007.225	-1151
1007.299	-316
1007.373	-722
1007.448	-850
1007.522	-556
1007.596	-1049
1007.671	-965
1007.745	180
1007.819	-1265
1007.893	-948
1007.967	-945
1008.041	-1565
1008.115	-210
1008.190	-1261
1008.264	176
1008.338	-2897
1008.412	-1770
1008.486	-1928
1008.560	-985
1008.633	-1676
1008.707	-708
1008.781	230
1008.855	-429
1008.929	-788
1009.003	-1275
1009.076	-1278
1009.150	-858
1009.224	-786
1009.298	-389
1009.371	-1305
1009.445	-794
1009.519	-800
1009.592	-1867
1009.666	-1237
1009.739	-834
1009.813	-1337
1009.886	499
1009.960	-848
1010.033	-527
1010.107	-1075
1010.180	-1324
1010.253	-1049
1010.327	-1554
1010.400	-1312
1010.473	-1651
1010.547	501
1010.620	-965
1010.693	-1330
1010.766	-1032
1010.840	-772
1010.913	-589
1010.986	-1904
1011.059	-952
1011.132	-990
1011.205	-350
1011.278	-1260
1011.351	-1424
1011.424	-1021
1011.497	-1180
1011.570	-1033
1011.643	-1752
1011.716	-2227
1011.789	-1136
1011.862	-1065
1011.934	-917
1012.007	-1687
1012.080	-1100
1012.153	-2512
1012.225	-799
1012.298	-962
1012.371	-777
1012.443	-382
1012.516	-1781
1012.588	-919
1012.661	-360
1012.733	-1846
1012.806	-918
1012.879	-1045
1012.951	-1416
1013.023	-1598
1013.096	-480
1013.168	-1654
1013.241	-663
1013.313	-624
1013.385	-1295
1013.458	-1262
1013.530	-352
1013.602	-1798
1013.674	-1121
1013.746	-1956
1013.819	-1918
1013.891	323
1013.963	-1127
1014.035	-844
1014.107	-1117
1014.179	-1315
1014.251	-1248
1014.323	-1182
1014.395	-569
1014.467	-1710
1014.539	52
1014.611	-1565
1014.683	-959
1014.754	-53
1014.826	-2073
1014.898	-779
1014.970	-1303
1015.042	-114
1015.113	-1154
1015.185	-1060
1015.257	-1115
1015.328	-689
1015.400	-1722
1015.471	-1873
1015.543	-1263
1015.615	-1101
1015.686	-1448
1015.757	-1235
1015.829	-1120
1015.901	-1848
1015.972	-1058
1016.043	-1555
1016.115	-800
1016.186	-1337
1016.257	-1991
1016.328	-1450
1016.400	-1800
1016.471	-1543
1016.542	-1518
1016.613	-1308
1016.685	-1137
1016.756	-440
1016.827	-1193
1016.898	-1770
1016.969	-464
1017.040	-1389
1017.111	-1580
1017.182	-1852
1017.253	-1037
1017.324	-961
1017.395	-1871
1017.466	-1135
1017.537	-1531
1017.608	-1116
1017.678	-1112
1017.749	-1814
1017.820	-1478
1017.891	-1365
1017.961	-711
1018.032	-1189
1018.103	-942
1018.173	-991
1018.244	-1608
1018.315	-1023
1018.385	-1273
1018.456	-1754
1018.526	-962
1018.597	-1113
1018.667	-844
1018.738	-1051
1018.808	-2542
1018.878	-2190
1018.949	-1291
1019.019	-1267
1019.089	-870
1019.160	-1308
1019.230	-1211
1019.300	-2178
1019.371	-2120
1019.441	-384
1019.511	-805
1019.581	-2032
1019.651	-1631
1019.721	-1699
1019.791	-373
1019.861	-1238
1019.931	-1008
1020.001	-1465
1020.071	-1015
1020.141	-1585
1020.211	-1628
1020.281	-1320
1020.351	-1437
1020.421	-1189
1020.491	-1158
1020.560	-2568
1020.630	-1538
1020.700	-1150
1020.770	-2020
1020.839	-1897
1020.909	-1190
1020.979	-2114
1021.048	-1065
1021.118	-1699
1021.187	-1513
1021.257	-985
1021.326	-843
1021.396	-1636
1021.465	-1069
1021.535	-1557
1021.604	-2211
1021.674	-1724
1021.743	-1183
1021.812	-2018
1021.882	-1256
1021.951	-1038
1022.020	-1170
1022.089	-934
1022.159	-449
1022.228	-961
1022.297	-932
1022.366	-1520
1022.435	-1728
1022.504	-1565
1022.573	-1662
1022.642	-1672
1022.711	-2361
1022.781	-1337
1022.849	-1476
1022.918	-1492
1022.987	-1708
1023.056	-2013
1023.125	-559
1023.194	-1756
1023.263	-1896
1023.331	-620
1023.400	-1444
1023.469	-1268
1023.538	-1298
1023.606	-1483
1023.675	-1091
1023.744	-1174
1023.812	-1362
1023.881	-1268
1023.949	-947
1024.018	-1108
1024.086	-1962
1024.155	-1715
1024.223	-1724
1024.292	-2032
1024.360	-1166
1024.429	-934
1024.497	-1737
1024.565	-1096
1024.634	-1367
1024.702	-1183
1024.770	-1339
1024.838	-1300
1024.907	-1150
1024.975	-1093
1025.043	-1486
1025.111	-2236
1025.179	-1351
1025.247	-1417
1025.315	-1301
1025.383	-1142
1025.451	-1385
1025.519	-761
1025.587	-2054
1025.655	-1415
1025.723	-1790
1025.791	-1567
1025.859	-1187
1025.927	-895
1025.995	-989
1026.062	-1169
1026.130	-1689
1026.198	-1301
1026.266	-1951
1026.333	-1376
1026.401	-1347
1026.469	-1269
1026.536	-1728
1026.604	-1575
1026.671	-1196
1026.739	-1274
1026.806	-1251
1026.874	-1936
1026.941	-2058
1027.009	-1697
1027.076	-1544
1027.144	-1559
1027.211	-1347
1027.278	-2136
1027.345	-1858
1027.413	-1962
1027.480	-1902
1027.547	-1611
1027.614	-1308
1027.682	-937
1027.749	-1578
1027.816	-1306
1027.883	-1082
1027.950	-1787
1028.017	-1436
1028.084	-827
1028.151	-1439
1028.218	-1715
1028.285	-682
1028.352	-1211
1028.419	-1632
1028.486	-1899
1028.553	-1582
1028.619	-1796
1028.686	-646
1028.753	-1425
1028.820	-2051
1028.886	-1600
1028.953	-714
1029.020	-1770
1029.086	-1408
1029.153	-1762
1029.220	-1949
1029.286	-1383
1029.353	-1853
1029.419	-2044
1029.486	-1520
1029.552	-1778
1029.619	-1446
1029.685	-1640
1029.751	-1747
1029.818	-845
1029.884	-1887
1029.951	-1088
1030.017	-1855
1030.083	-1495
1030.149	-1555
1030.216	-862
1030.282	-895
1030.348	-2383
1030.414	-1955
1030.480	-1800
1030.546	-2372
1030.612	-1561
1030.678	-1763
1030.744	-1612
1030.810	-1831
1030.876	-1920
1030.942	-1061
1031.008	-1024
1031.074	-2114
1031.140	-1573
1031.206	-1837
1031.272	-2268
1031.337	-1671
1031.403	-1528
1031.469	-1708
1031.534	-2051
1031.600	-441
1031.666	-2212
1031.731	-1560
1031.797	-1549
1031.863	-1753
1031.928	-1668
1031.994	-1635
1032.059	-1547
1032.125	-1067
1032.190	-1357
1032.256	-1200
1032.321	-2254
1032.386	-1647
1032.452	-662
1032.517	-1626
1032.582	-1641
1032.647	-919
1032.713	-2013
1032.778	-1666
1032.843	-1198
1032.908	-1244
1032.974	-1485
1033.039	-1969
1033.104	-2087
1033.169	-1963
1033.234	-2043
1033.299	-1863
1033.364	-2065
1033.429	-1642
1033.494	-837
1033.559	-2221
1033.624	-1425
1033.688	-1619
1033.753	-2116
1033.818	-1266
1033.883	-1425
1033.948	-1168
1034.013	-1663
1034.077	-1341
1034.142	-204
1034.207	-887
1034.271	-80
1034.336	565
1034.400	180
1034.465	-897
1034.530	-1568
1034.594	-1314
1034.658	-1283
1034.723	-1344
1034.787	-665
1034.852	-1111
1034.916	-2073
1034.981	-2002
1035.045	-1954
1035.109	-2032
1035.173	-1126
1035.238	-1815
1035.302	-1465
1035.366	-1244
1035.430	-1968
1035.495	-1384
1035.559	-1683
1035.623	-1312
1035.687	-1620
1035.751	-2077
1035.815	-1986
1035.879	-1241
1035.943	-2042
1036.007	-794
1036.071	-1583
1036.135	-908
1036.198	-2116
1036.262	-1308
1036.326	-1480
1036.390	-1263
1036.454	-1698
1036.517	-1435
1036.581	-1895
1036.645	-763
1036.709	-904
1036.772	-2432
1036.836	-1446
1036.900	-641
1036.963	-1384
1037.026	-1962
1037.090	-1617
1037.154	-1370
1037.217	-2629
1037.280	-1867
1037.344	-1678
1037.407	-1974
1037.471	-1437
1037.534	-2050
1037.597	-1931
1037.661	-2295
1037.724	-1541
1037.787	-2149
1037.850	-1759
1037.913	-1387
1037.977	-1745
1038.040	-1265
1038.103	-1748
1038.166	-1881
1038.229	-2960
1038.292	-1823
1038.355	-1839
1038.418	-2456
1038.481	-1393
1038.544	-1072
1038.607	-2092
1038.670	-1946
1038.732	-1695
1038.795	-1737
1038.858	-2181
1038.921	-840
1038.984	-1538
1039.046	-1738
1039.109	-2278
1039.172	-2020
1039.234	-2037
1039.297	-1930
1039.360	-1751
1039.422	-2170
1039.485	-2138
1039.547	-2504
1039.610	-2168
1039.672	-1951
1039.734	-1117
1039.797	-2280
1039.859	-2149
1039.922	-1529
1039.984	-2215
1040.046	-1931
1040.109	-1728
1040.171	-1513
1040.233	-1874
1040.295	-1657
1040.358	-1912
1040.420	-2203
1040.482	-1777
1040.544	-2362
1040.606	-1626
1040.668	-1546
1040.730	-1990
1040.792	-2287
1040.854	-2065
1040.916	-2357
1040.978	-2141
1041.040	-787
1041.102	-1302
1041.164	-1852
1041.225	-1797
1041.287	-2342
1041.349	-2184
1041.411	-2072
1041.472	-1704
1041.534	-2188
1041.596	-2240
1041.657	-1053
1041.719	-1574
1041.781	-1517
1041.842	-2229
1041.904	-1812
1041.965	-1538
1042.027	-1993
1042.088	-1757
1042.150	-1731
1042.211	-1830
1042.272	-993
1042.334	-1883
1042.395	-1818
1042.456	-2154
1042.518	-2205
1042.579	-1129
1042.640	-1864
1042.701	-2647
1042.763	-1827
1042.824	-1815
1042.885	-2192
1042.946	-2413
1043.007	-1697
1043.068	-1885
1043.129	-1899
1043.190	-1753
1043.251	-816
1043.312	-2000
1043.373	-1770
1043.434	-1632
1043.495	-1639
1043.556	-494
1043.616	-1646
1043.677	-2081
1043.738	-2046
1043.799	-2096
1043.859	-2290
1043.920	-1990
1043.981	-1916
1044.041	-1411
1044.102	-1444
1044.162	-908
1044.223	-1373
1044.284	-1579
1044.344	-1122
1044.405	-2054
1044.465	-1926
1044.525	-2407
1044.586	-1033
1044.646	-948
1044.707	-659
1044.767	-1731
1044.827	-1855
1044.887	-2133
1044.948	-1686
1045.008	-1453
1045.068	-1826
1045.128	-1329
1045.188	-1869
1045.249	-1639
1045.309	-936
1045.369	-1752
1045.429	-2276
1045.489	-1907
1045.549	-1432
1045.609	-1684
1045.669	-1102
1045.729	-2124
1045.789	-1361
1045.848	-1878
1045.908	-473
1045.968	-1115
1046.028	-1060
1046.088	-1709
1046.147	-1357
1046.207	-923
1046.267	-1223
1046.326	-739
1046.386	-899
1046.446	-1086
1046.505	-264
1046.565	-1086
1046.624	-735
1046.684	-978
1046.743	-1037
1046.803	-172
1046.862	212
1046.922	0
