'Start Wavelength	183.907
'End Wavelength	1046.922
'Gate Delay	5.000
'Gate Width (ms)	1.050
'Laser Output Level	0.000
'X Position	0.000
'Y Position	0.000
'Z Position	0.000
'Grid Point Number	1.000
'Shot Number	100.000
183.907	248.000
183.977	-82.000
184.047	-938
184.116	684
184.186	466
184.256	922
184.325	143
184.395	-818
184.465	107
184.534	311
184.604	-289
184.674	224
184.743	409
184.813	777
184.883	700
184.952	259
185.022	14
185.092	-278
185.161	36
185.231	245
185.301	-349
185.370	1007
185.440	181
185.509	-276
185.579	-609
185.649	362
185.718	-431
185.788	764
185.857	-844
185.927	342
185.996	-502
186.066	224
186.136	340
186.205	203
186.275	-493
186.344	738
186.414	289
186.483	362
186.553	880
186.622	792
186.692	550
186.761	349
186.831	-786
186.900	381
186.970	-239
187.039	511
187.109	257
187.178	775
187.248	142
187.317	539
187.387	-535
187.456	193
187.526	-165
187.595	518
187.664	-191
187.734	853
187.803	-466
187.873	788
187.942	-391
188.012	233
188.081	-411
188.150	371
188.220	-129
188.289	717
188.358	721
188.428	1017
188.497	-41
188.567	1047
188.636	-519
188.705	740
188.775	-530
188.844	-260
188.913	385
188.983	61
189.052	987
189.121	527
189.191	-395
189.260	540
189.329	-581
189.399	-79
189.468	329
189.537	-165
189.606	268
189.676	496
189.745	165
189.814	610
189.883	-715
189.953	184
190.022	-31
190.091	268
190.161	-19
190.230	589
190.299	-326
190.368	19
190.437	-234
190.507	17
190.576	-10
190.645	850
190.714	-751
190.783	-93
190.853	911
190.922	938
190.991	-344
191.060	144
191.129	-78
191.198	169
191.268	-413
191.337	34
191.406	448
191.475	779
191.544	68
191.613	231
191.682	-320
191.752	-314
191.821	-163
191.890	312
191.959	-284
192.028	581
192.097	10
192.166	-178
192.235	-325
192.304	441
192.373	-426
192.442	741
192.511	766
192.580	525
192.650	-603
192.719	419
192.788	-96
192.857	366
192.926	-822
192.995	146
193.064	355
193.133	81
193.202	-220
193.271	174
193.340	-449
193.409	50
193.478	251
193.547	38
193.615	105
193.684	1020
193.753	-531
193.822	681
193.891	-1003
193.960	250
194.029	560
194.098	3
194.167	-699
194.236	681
194.305	-44
194.374	-23
194.443	244
194.512	808
194.580	-26
194.649	289
194.718	-223
194.787	327
194.856	271
194.925	830
194.994	-820
195.062	495
195.131	100
195.200	-71
195.269	80
195.338	884
195.407	-562
195.475	-193
195.544	622
195.613	278
195.682	-500
195.751	215
195.819	-536
195.888	480
195.957	518
196.026	342
196.094	-164
196.163	351
196.232	-530
196.301	157
196.369	-157
196.438	-203
196.507	-22
196.576	124
196.644	-263
196.713	27
196.782	-166
196.850	122
196.919	-484
196.988	-11
197.056	-567
197.125	314
197.194	-662
197.262	-413
197.331	25
197.400	116
197.468	-892
197.537	306
197.606	233
197.674	691
197.743	175
197.812	387
197.880	-65
197.949	261
198.017	480
198.086	13
198.155	-403
198.223	403
198.292	-397
198.360	573
198.429	-684
198.497	273
198.566	-78
198.635	514
198.703	44
198.772	418
198.840	98
198.909	-46
198.977	-492
199.046	7
199.114	-92
199.183	-117
199.251	-460
199.320	0
199.388	-181
199.457	250
199.525	-428
199.594	458
199.662	621
199.731	207
199.799	57
199.867	-238
199.936	136
200.004	1128
200.073	-444
200.141	204
200.210	-154
200.278	424
200.346	837
200.415	184
200.483	525
200.552	697
200.620	221
200.688	139
200.757	94
200.825	266
200.893	-841
200.962	168
201.030	-69
201.098	-171
201.167	4
201.235	-309
201.303	-228
201.372	275
201.440	-104
201.508	237
201.577	-947
201.645	86
201.713	-327
201.781	-140
201.850	992
201.918	74
201.986	-284
202.055	576
202.123	-360
202.191	360
202.259	-466
202.327	35
202.396	-207
202.464	106
202.532	-626
202.600	1012
202.669	-547
202.737	440
202.805	198
202.873	379
202.941	-272
203.009	481
203.078	-539
203.146	-206
203.214	-429
203.282	-217
203.350	145
203.418	237
203.487	-73
203.555	644
203.623	-67
203.691	468
203.759	-367
203.827	385
203.895	-94
203.963	96
204.031	26
204.099	-55
204.168	112
204.236	-336
204.304	-345
204.372	580
204.440	-739
204.508	-509
204.576	-573
204.644	-16
204.712	-519
204.780	-460
204.848	-26
204.916	-76
204.984	-297
205.052	-257
205.120	-359
205.188	637
205.256	-722
205.324	602
205.392	-53
205.460	257
205.528	-416
205.596	557
205.664	-417
205.732	-62
205.799	-343
205.867	1010
205.935	-1322
206.003	34
206.071	-188
206.139	-107
206.207	-645
206.275	61
206.343	-535
206.411	-109
206.478	-376
206.546	-499
206.614	-240
206.682	448
206.750	312
206.818	1245
206.885	139
206.953	-485
207.021	1107
207.089	124
207.157	-345
207.225	802
207.292	105
207.360	-1
207.428	-1111
207.496	-43
207.563	-47
207.631	309
207.699	-882
207.767	921
207.834	-1153
207.902	50
207.970	-794
208.038	-66
208.105	-450
208.173	418
208.241	-352
208.309	659
208.376	8
208.444	761
208.512	35
208.579	-387
208.647	823
208.715	1919
208.782	-48
208.850	516
208.918	-822
208.985	116
209.053	237
209.120	564
209.188	88
209.256	78
209.323	-893
209.391	-96
209.459	490
209.526	209
209.594	119
209.661	196
209.729	1079
209.796	455
209.864	-367
209.932	-755
209.999	511
210.067	453
210.134	-533
210.202	-238
210.269	1386
210.337	2295
210.404	358
210.472	760
210.539	96
210.607	-110
210.674	-143
210.742	323
210.809	156
210.877	524
210.944	239
211.012	-200
211.079	1298
211.146	644
211.214	-369
211.281	1712
211.349	1934
211.416	810
211.484	759
211.551	434
211.618	779
211.686	393
211.753	-96
211.821	286
211.888	81
211.955	64
212.023	280
212.090	730
212.157	-442
212.225	589
212.292	401
212.359	733
212.427	2449
212.494	664
212.561	-527
212.629	469
212.696	12
212.763	518
212.831	-245
212.898	771
212.965	150
213.032	90
213.100	-352
213.167	-28
213.234	807
213.301	809
213.369	-895
213.436	194
213.503	573
213.570	1289
213.638	-821
213.705	-259
213.772	-666
213.839	-57
213.906	293
213.973	181
214.041	-671
214.108	390
214.175	-209
214.242	443
214.309	-439
214.376	473
214.444	461
214.511	1181
214.578	32
214.645	1150
214.712	512
214.779	1225
214.846	-496
214.913	751
214.980	505
215.048	1116
215.115	1674
215.182	1532
215.249	284
215.316	294
215.383	157
215.450	271
215.517	-261
215.584	247
215.651	57
215.718	328
215.785	402
215.852	212
215.919	-121
215.986	120
216.053	-48
216.120	-243
216.187	408
216.254	417
216.321	21
216.388	691
216.455	-307
216.522	892
216.589	-244
216.656	593
216.722	85
216.789	578
216.856	-552
216.923	543
216.990	-2
217.057	434
217.124	157
217.191	-233
217.258	796
217.324	255
217.391	82
217.458	-60
217.525	187
217.592	586
217.659	-1767
217.725	925
217.792	-239
217.859	1165
217.926	-281
217.993	427
218.059	446
218.126	350
218.193	-608
218.260	946
218.327	180
218.393	948
218.460	-241
218.527	204
218.594	-493
218.660	209
218.727	431
218.794	86
218.860	666
218.927	608
218.994	7
219.061	64
219.127	-84
219.194	1320
219.261	-676
219.327	268
219.394	823
219.461	-828
219.527	234
219.594	1035
219.661	64
219.727	-300
219.794	949
219.860	1098
219.927	758
219.994	2732
220.060	4362
220.127	3646
220.193	2456
220.260	1405
220.326	530
220.393	537
220.460	844
220.526	-24
220.593	75
220.659	2025
220.726	-415
220.792	1742
220.859	782
220.925	980
220.992	251
221.058	1654
221.125	1281
221.191	1306
221.258	-915
221.324	860
221.391	-227
221.457	-377
221.524	271
221.590	1260
221.657	1371
221.723	1027
221.789	753
221.856	831
221.922	-314
221.989	1136
222.055	139
222.121	-61
222.188	1248
222.254	987
222.321	1066
222.387	369
222.453	-210
222.520	482
222.586	106
222.652	819
222.719	-1052
222.785	489
222.851	114
222.918	424
222.984	-100
223.050	323
223.116	-1833
223.183	730
223.249	-514
223.315	238
223.382	-186
223.448	537
223.514	-329
223.580	1117
223.647	-455
223.713	-160
223.779	-154
223.845	101
223.911	520
223.978	-502
224.044	460
224.110	135
224.176	-309
224.242	629
224.309	-898
224.375	140
224.441	-162
224.507	685
224.573	-602
224.639	738
224.705	-910
224.772	647
224.838	-769
224.904	325
224.970	460
225.036	-269
225.102	-1271
225.168	1219
225.234	86
225.300	470
225.366	355
225.432	-64
225.499	-382
225.565	587
225.631	-324
225.697	277
225.763	330
225.829	-145
225.895	114
225.961	479
226.027	471
226.093	-54
226.159	920
226.225	1601
226.291	1332
226.357	1431
226.423	848
226.489	580
226.554	-415
226.620	861
226.686	776
226.752	1341
226.818	639
226.884	2204
226.950	517
227.016	1518
227.082	769
227.148	1013
227.214	460
227.279	1297
227.345	1304
227.411	3259
227.477	5717
227.543	6762
227.609	8732
227.674	6958
227.740	3261
227.806	1959
227.872	888
227.938	1180
228.003	227
228.069	783
228.135	-279
228.201	652
228.267	227
228.332	496
228.398	-807
228.464	1233
228.530	-70
228.595	350
228.661	-459
228.727	82
228.792	1132
228.858	507
228.924	-1221
228.990	2122
229.055	-326
229.121	633
229.187	-802
229.252	-619
229.318	151
229.384	63
229.449	565
229.515	-735
229.581	-816
229.646	1231
229.712	-35
229.777	679
229.843	134
229.909	850
229.974	25
230.040	679
230.105	17
230.171	-2
230.236	-243
230.302	760
230.368	-448
230.433	-126
230.499	668
230.564	1112
230.630	227
230.695	549
230.761	859
230.826	-559
230.892	1683
230.957	-470
231.023	-512
231.088	646
231.154	-299
231.219	1471
231.284	200
231.350	727
231.415	-783
231.481	631
231.546	-2
231.612	937
231.677	-341
231.742	-899
231.808	589
231.873	-749
231.939	-1487
232.004	1180
232.069	260
232.135	387
232.200	-1060
232.265	1024
232.331	-865
232.396	-67
232.461	-582
232.527	241
232.592	-542
232.657	1135
232.723	243
232.788	502
232.853	203
232.918	767
232.984	-232
233.049	-158
233.114	-143
233.179	1335
233.245	1359
233.310	528
233.375	-79
233.440	1121
233.506	80
233.571	0
233.636	399
233.701	758
233.766	-433
233.832	689
233.897	7
233.962	274
234.027	850
234.092	531
234.157	471
234.222	1096
234.288	25
234.353	104
234.418	1139
234.483	1125
234.548	543
234.613	545
234.678	-14
234.743	493
234.808	1027
234.873	-328
234.938	533
235.004	-47
235.069	435
235.134	-248
235.199	96
235.264	912
235.329	-376
235.394	595
235.459	800
235.524	-360
235.589	1486
235.654	772
235.719	-913
235.784	925
235.849	-516
235.913	522
235.978	34
236.043	160
236.108	-238
236.173	550
236.238	153
236.303	114
236.368	-97
236.433	1064
236.498	-510
236.563	593
236.627	1066
236.692	3313
236.757	1535
236.822	1255
236.887	-13
236.952	1996
237.017	-906
237.081	888
237.146	-610
237.211	1743
237.276	1793
237.341	5947
237.405	1788
237.470	554
237.535	803
237.600	996
237.664	1166
237.729	24
237.794	-524
237.859	1187
237.923	-757
237.988	462
238.053	289
238.118	-93
238.182	841
238.247	1729
238.312	-111
238.376	2055
238.441	-1736
238.506	1555
238.570	-1287
238.635	1547
238.700	-240
238.764	83
238.829	348
238.893	273
238.958	389
239.023	888
239.087	205
239.152	925
239.216	247
239.281	1059
239.346	432
239.410	346
239.475	537
239.539	2146
239.604	992
239.668	3132
239.733	3707
239.797	9184
239.862	14924
239.926	13954
239.991	6087
240.055	4417
240.120	1494
240.184	2182
240.249	156
240.313	623
240.378	509
240.442	700
240.507	783
240.571	910
240.635	-326
240.700	612
240.764	806
240.829	385
240.893	-389
240.957	734
241.022	175
241.086	1937
241.151	-528
241.215	150
241.279	1095
241.344	-283
241.408	680
241.472	-99
241.537	1209
241.601	1071
241.665	-558
241.730	-127
241.794	1398
241.858	-240
241.922	-203
241.987	1067
242.051	-23
242.115	-153
242.179	775
242.244	171
242.308	644
242.372	4
242.436	-279
242.501	298
242.565	-709
242.629	479
242.693	735
242.757	-197
242.822	793
242.886	1300
242.950	435
243.014	-321
243.078	-518
243.142	554
243.206	-524
243.271	508
243.335	-699
243.399	1063
243.463	1402
243.527	6192
243.591	1209
243.655	642
243.719	-772
243.783	1169
243.847	857
243.911	1644
243.975	-184
244.040	-256
244.104	1464
244.168	262
244.232	-239
244.296	531
244.360	-241
244.424	-1498
244.488	257
244.552	537
244.615	-546
244.679	330
244.743	-570
244.807	-445
244.871	667
244.935	865
244.999	-733
245.063	420
245.127	1309
245.191	838
245.255	276
245.319	594
245.383	-1088
245.446	2391
245.510	-265
245.574	522
245.638	418
245.702	-315
245.766	976
245.829	1159
245.893	-1293
245.957	-60
246.021	1115
246.085	415
246.149	76
246.212	2265
246.276	1632
246.340	1135
246.404	1001
246.467	1253
246.531	-1335
246.595	733
246.659	809
246.722	-219
246.786	-53
246.850	1235
246.913	164
246.977	-442
247.041	402
247.104	1302
247.168	-1005
247.232	901
247.295	2855
247.359	1986
247.423	-323
247.486	434
247.550	-9
247.614	608
247.677	-42
247.741	17
247.804	417
247.868	2433
247.932	279
247.995	3928
248.059	407
248.122	-768
248.186	435
248.249	1496
248.313	4078
248.376	4779
248.440	1734
248.503	-176
248.567	1438
248.630	165
248.694	902
248.757	2009
248.821	5465
248.884	3267
248.948	1644
249.011	3685
249.075	5575
249.138	4960
249.202	558
249.265	231
249.328	529
249.392	393
249.455	1019
249.519	1183
249.582	268
249.645	1097
249.709	275
249.772	332
249.835	513
249.899	1008
249.962	1210
250.025	171
250.089	1299
250.152	2353
250.215	715
250.279	223
250.342	676
250.405	1698
250.468	363
250.532	1208
250.595	1616
250.658	7698
250.721	13554
250.785	2737
250.848	2007
250.911	116
250.974	1290
251.038	546
251.101	2699
251.164	484
251.227	745
251.290	1439
251.354	2561
251.417	10674
251.480	9802
251.543	5797
251.606	21507
251.669	14378
251.732	4016
251.795	4013
251.859	4373
251.922	12856
251.985	5747
252.048	1905
252.111	1195
252.174	741
252.237	2118
252.300	6400
252.363	5512
252.426	18297
252.489	4020
252.552	1778
252.615	294
252.678	1832
252.741	4698
252.804	6197
252.867	17392
252.930	7590
252.993	3132
253.056	2666
253.119	576
253.182	24
253.245	678
253.308	2276
253.371	3
253.434	1194
253.497	860
253.559	1844
253.622	1008
253.685	1243
253.748	1334
253.811	243
253.874	893
253.937	210
254.000	538
254.062	1544
254.125	1827
254.188	2561
254.251	823
254.314	374
254.376	-456
254.439	1222
254.502	617
254.565	1494
254.628	3619
254.690	1240
254.753	-74
254.816	850
254.878	-269
254.941	2153
255.004	1141
255.067	-183
255.129	-235
255.192	891
255.255	-497
255.317	962
255.380	-112
255.443	431
255.505	714
255.568	-297
255.631	-140
255.693	1165
255.756	418
255.819	1901
255.881	1040
255.944	1236
256.006	-70
256.069	251
256.132	91
256.194	553
256.257	220
256.319	485
256.382	1352
256.444	4348
256.507	1803
256.569	1430
256.632	111
256.694	693
256.757	1298
256.819	5226
256.882	647
256.944	1489
257.007	1312
257.069	271
257.132	414
257.194	1949
257.257	-88
257.319	-112
257.381	-1122
257.444	1875
257.506	5302
257.569	4961
257.631	1812
257.693	1216
257.756	-56
257.818	402
257.880	1007
257.943	768
258.005	68
258.067	1236
258.130	-63
258.192	841
258.254	525
258.317	-307
258.379	287
258.441	1396
258.503	1510
258.566	771
258.628	1546
258.690	296
258.753	350
258.815	793
258.877	-197
258.939	1261
259.001	940
259.064	836
259.126	146
259.188	520
259.250	772
259.312	1058
259.375	761
259.437	1103
259.499	286
259.561	103
259.623	498
259.685	188
259.747	279
259.809	1595
259.872	1036
259.934	3454
259.996	2473
260.058	2604
260.120	124
260.182	797
260.244	184
260.306	341
260.368	578
260.430	-61
260.492	928
260.554	1410
260.616	197
260.678	1158
260.740	982
260.802	1459
260.864	927
260.926	248
260.988	1208
261.050	586
261.112	263
261.174	1919
261.236	1421
261.298	1347
261.359	427
261.421	1292
261.483	243
261.545	1620
261.607	-187
261.669	879
261.731	860
261.793	1853
261.854	-1156
261.916	922
261.978	75
262.040	308
262.102	459
262.164	410
262.225	272
262.287	642
262.349	-36
262.411	961
262.472	1872
262.534	153
262.596	974
262.658	1000
262.719	273
262.781	1689
262.843	173
262.904	1077
262.966	1100
263.028	860
263.090	1667
263.151	6308
263.213	2080
263.275	906
263.336	405
263.398	1634
263.459	444
263.521	211
263.583	783
263.644	1081
263.706	863
263.767	759
263.829	445
263.891	1039
263.952	342
264.014	594
264.075	129
264.137	1757
264.198	646
264.260	-188
264.321	698
264.383	923
264.444	893
264.506	-188
264.567	175
264.629	1687
264.690	-366
264.752	650
264.813	409
264.875	64
264.936	790
264.998	1059
265.059	305
265.120	1368
265.182	349
265.243	1840
265.305	1642
265.366	1031
265.427	677
265.489	1867
265.550	-87
265.611	781
265.673	-136
265.734	1321
265.795	562
265.857	416
265.918	-891
265.979	1346
266.040	2757
266.102	2417
266.163	1591
266.224	512
266.286	371
266.347	388
266.408	-554
266.469	1074
266.530	-141
266.592	1239
266.653	1105
266.714	1596
266.775	252
266.836	1147
266.898	743
266.959	554
267.020	-236
267.081	2304
267.142	794
267.203	550
267.264	-489
267.326	1394
267.387	170
267.448	162
267.509	384
267.570	1115
267.631	1055
267.692	221
267.753	1075
267.814	513
267.875	216
267.936	1135
267.997	-418
268.058	1303
268.119	502
268.180	-190
268.241	210
268.302	1028
268.363	-62
268.424	445
268.485	697
268.546	408
268.607	198
268.668	540
268.729	-305
268.790	1229
268.851	1207
268.912	771
268.972	984
269.033	1237
269.094	-439
269.155	1420
269.216	320
269.277	550
269.338	-348
269.398	1323
269.459	-56
269.520	460
269.581	-64
269.642	702
269.702	-227
269.763	929
269.824	256
269.885	872
269.945	724
270.006	1021
270.067	660
270.128	979
270.188	206
270.249	1048
270.310	48
270.370	990
270.431	507
270.492	514
270.553	762
270.613	1075
270.674	1071
270.734	1323
270.795	581
270.856	1298
270.916	-6
270.977	472
271.038	970
271.098	1097
271.159	137
271.219	649
271.280	786
271.340	841
271.401	275
271.462	1209
271.522	1080
271.583	1034
271.643	618
271.704	1468
271.764	1250
271.825	1476
271.885	4691
271.946	7314
272.006	2198
272.066	4235
272.127	6811
272.187	11079
272.248	4252
272.308	1839
272.369	4431
272.429	2011
272.489	1478
272.550	1915
272.610	1906
272.671	754
272.731	1543
272.791	2133
272.852	464
272.912	1687
272.972	564
273.033	1228
273.093	117
273.153	1898
273.214	412
273.274	586
273.334	2201
273.394	2910
273.455	1044
273.515	1575
273.575	2620
273.635	1702
273.696	1525
273.756	4079
273.816	1504
273.876	1506
273.936	1476
273.997	2316
274.057	-103
274.117	1425
274.177	493
274.237	4438
274.297	3130
274.358	2310
274.418	3035
274.478	1704
274.538	963
274.598	541
274.658	1814
274.718	1460
274.778	1067
274.838	1754
274.898	709
274.958	3330
275.018	4325
275.078	3153
275.138	1261
275.198	1123
275.258	1074
275.318	1362
275.378	696
275.438	1331
275.498	1788
275.558	2111
275.618	2040
275.678	2407
275.738	2218
275.798	2096
275.858	986
275.918	1288
275.978	1497
276.038	2461
276.098	1029
276.157	1930
276.217	1552
276.277	1989
276.337	1488
276.397	1364
276.457	1376
276.517	2362
276.576	1316
276.636	1119
276.696	2340
276.756	2239
276.815	1609
276.875	1941
276.935	1042
276.995	2043
277.055	2172
277.114	2922
277.174	1002
277.234	1628
277.293	1742
277.353	853
277.413	522
277.472	923
277.532	898
277.592	2016
277.651	2219
277.711	4836
277.771	1740
277.830	6084
277.890	4081
277.950	3383
278.009	11543
278.069	5647
278.128	4475
278.188	5647
278.248	3040
278.307	5960
278.367	3378
278.426	2340
278.486	1324
278.545	1122
278.605	1429
278.664	1555
278.724	837
278.783	2647
278.843	5594
278.902	1360
278.962	605
279.021	872
279.081	1299
279.140	1755
279.199	1274
279.259	1255
279.318	1870
279.378	2494
279.437	3109
279.496	12230
279.556	39678
279.615	28225
279.675	6852
279.734	4336
279.793	3395
279.853	8912
279.912	2864
279.971	3247
280.031	2730
280.090	4144
280.149	6040
280.208	5569
280.268	25317
280.327	25232
280.386	4918
280.445	4164
280.505	2583
280.564	2806
280.623	1640
280.682	1770
280.742	1787
280.801	2070
280.860	2017
280.919	912
280.978	1395
281.037	586
281.097	655
281.156	1716
281.215	1277
281.274	1156
281.333	2571
281.392	1994
281.451	1548
281.510	1705
281.569	446
281.628	1614
281.688	1488
281.747	1945
281.806	1684
281.865	1476
281.924	995
281.983	1129
282.042	698
282.101	1556
282.160	1168
282.219	871
282.278	1332
282.337	1899
282.396	960
282.454	1723
282.513	586
282.572	2043
282.631	1618
282.690	987
282.749	1067
282.808	2148
282.867	923
282.926	1374
282.985	696
283.043	1849
283.102	741
283.161	1664
283.220	1667
283.279	2767
283.338	1047
283.396	1161
283.455	1904
283.514	1627
283.573	1891
283.631	2241
283.690	1076
283.749	1747
283.808	1398
283.866	2093
283.925	1870
283.984	2311
284.043	2007
284.101	2808
284.160	1077
284.219	1785
284.277	1071
284.336	2386
284.395	2654
284.453	3444
284.512	1521
284.570	2368
284.629	1614
284.688	2530
284.746	2396
284.805	2560
284.863	2583
284.922	2451
284.981	3374
285.039	5408
285.098	7540
285.156	18963
285.215	58312
285.273	54091
285.332	20621
285.390	10566
285.449	6119
285.507	5198
285.566	3506
285.624	3141
285.683	2982
285.741	2475
285.799	1742
285.858	2428
285.916	2157
285.975	1793
286.033	1367
286.091	1776
286.150	1410
286.208	2075
286.267	1465
286.325	2019
286.383	2074
286.442	1817
286.500	1677
286.558	1697
286.616	1667
286.675	2130
286.733	1485
286.791	1543
286.850	1679
286.908	1278
286.966	1575
287.024	2125
287.083	1662
287.141	1796
287.199	1903
287.257	1995
287.315	554
287.374	1951
287.432	1952
287.490	2280
287.548	860
287.606	2631
287.664	1306
287.723	1846
287.781	1955
287.839	2235
287.897	1483
287.955	2001
288.013	2029
288.071	4560
288.129	14558
288.187	45217
288.245	17073
288.303	6098
288.361	3889
288.419	3489
288.477	2293
288.535	1893
288.593	2115
288.651	2096
288.709	1198
288.767	1822
288.825	1776
288.883	1421
288.941	1379
288.999	2230
289.057	1397
289.115	2369
289.173	1400
289.231	2334
289.289	1641
289.346	1353
289.404	1934
289.462	2348
289.520	1786
289.578	2074
289.636	1759
289.694	2210
289.751	1596
289.809	2074
289.867	2027
289.925	2171
289.983	1772
290.040	2519
290.098	2159
290.156	1719
290.214	1844
290.271	2428
290.329	2509
290.387	2912
290.444	1353
290.502	1369
290.560	2389
290.617	1493
290.675	1539
290.733	2607
290.790	1602
290.848	2292
290.906	1228
290.963	1792
291.021	1175
291.078	1229
291.136	1770
291.194	2763
291.251	2347
291.309	2152
291.366	1489
291.424	2219
291.481	1422
291.539	1541
291.596	1815
291.654	1508
291.711	1498
291.769	1914
291.826	1452
291.884	1616
291.941	731
291.999	1752
292.056	1768
292.114	2035
292.171	1336
292.228	2784
292.286	2142
292.343	1965
292.401	1859
292.458	2532
292.515	1811
292.573	2518
292.630	2095
292.687	1718
292.745	1749
292.802	1304
292.859	2235
292.917	3152
292.974	2278
293.031	1823
293.089	2169
293.146	1922
293.203	1048
293.260	1930
293.318	1359
293.375	1546
293.432	1401
293.489	1846
293.546	1600
293.604	2127
293.661	3162
293.718	5524
293.775	2791
293.832	2547
293.889	2782
293.947	2927
294.004	1790
294.061	2217
294.118	2242
294.175	2961
294.232	3235
294.289	2450
294.346	2150
294.403	2250
294.460	1786
294.517	2229
294.574	1852
294.631	2880
294.688	1820
294.745	2933
294.802	5169
294.859	4318
294.916	2017
294.973	1584
295.030	1965
295.087	2305
295.144	1169
295.201	2716
295.258	2198
295.315	1571
295.372	3230
295.429	4313
295.486	2927
295.542	1446
295.599	2072
295.656	3417
295.713	2275
295.770	3457
295.827	2465
295.883	2198
295.940	1818
295.997	1831
296.054	1802
296.111	2036
296.167	1829
296.224	1889
296.281	1148
296.338	2352
296.394	1366
296.451	2071
296.508	1760
296.564	3278
296.621	2651
296.678	5115
296.734	7849
296.791	3400
296.848	1860
296.904	2204
296.961	2868
297.018	4163
297.074	3427
297.131	2927
297.187	2392
297.244	2068
297.301	4847
297.357	8408
297.414	3711
297.470	2771
297.527	2117
297.583	3157
297.640	1608
297.696	2365
297.753	1769
297.809	1674
297.866	683
297.922	2089
297.979	1292
298.035	1617
298.092	1642
298.148	3185
298.204	2769
298.261	2521
298.317	3578
298.374	7377
298.430	4938
298.486	2673
298.543	2521
298.599	2112
298.656	1932
298.712	2566
298.768	3556
298.824	3494
298.881	2142
298.937	3014
298.993	1711
299.050	2978
299.106	2073
299.162	2542
299.218	2373
299.275	2602
299.331	2412
299.387	5159
299.443	10067
299.500	22541
299.556	17404
299.612	7720
299.668	7136
299.724	18981
299.780	23013
299.837	9520
299.893	6546
299.949	15969
300.005	22121
300.061	18382
300.117	26853
300.173	13422
300.229	5798
300.285	4542
300.341	3354
300.397	3619
300.453	3082
300.510	4025
300.566	5167
300.622	9538
300.678	28996
300.734	35225
300.790	15584
300.845	12021
300.901	17504
300.957	26235
301.013	10894
301.069	6382
301.125	4094
301.181	3292
301.237	2492
301.293	2184
301.349	3259
301.405	2571
301.461	1467
301.516	2021
301.572	1175
301.628	1937
301.684	1941
301.740	2833
301.796	3127
301.851	3138
301.907	3054
301.963	3306
302.019	5625
302.074	15777
302.130	14924
302.186	7253
302.242	3272
302.297	3140
302.353	2002
302.409	2672
302.464	2847
302.520	2712
302.576	3652
302.631	5509
302.687	2618
302.743	2076
302.798	1715
302.854	2144
302.910	2087
302.965	2314
303.021	1921
303.076	2655
303.132	2370
303.187	2295
303.243	2046
303.299	1721
303.354	1677
303.410	2716
303.465	1386
303.521	1814
303.576	1568
303.632	1802
303.687	2594
303.743	4862
303.798	4717
303.853	2658
303.909	1579
303.964	1218
304.020	1747
304.075	1864
304.130	1452
304.186	2199
304.241	3786
304.297	1964
304.352	1149
304.358	1210
304.407	1702
304.449	1762
304.463	1780
304.518	1294
304.539	1089
304.573	755
304.629	2227
304.630	2216
304.684	1788
304.720	3409
304.739	4213
304.794	5687
304.811	5154
304.850	3816
304.902	2160
304.905	2057
304.960	1984
304.992	1542
305.015	1188
305.071	2356
305.083	2018
305.126	876
305.173	1754
305.181	1896
305.236	596
305.264	1225
305.292	1883
305.347	1946
305.354	1978
305.402	2132
305.445	1163
305.457	894
305.512	2947
305.535	2448
305.567	1736
305.622	1983
305.626	1974
305.678	2207
305.716	3677
305.733	4104
305.788	3634
305.807	3308
305.843	3202
305.897	4943
305.898	4957
305.953	5292
305.988	3746
306.008	2987
306.063	2210
306.078	2074
306.118	1823
306.168	1318
306.173	1276
306.228	1763
306.259	2049
306.283	2237
306.338	1158
306.349	1234
306.393	1658
306.440	2124
306.448	2172
306.503	2056
306.530	1852
306.558	1902
306.613	2600
306.620	2599
306.668	2537
306.711	3554
306.723	3711
306.778	3094
306.801	2784
306.833	2493
306.888	2248
306.892	2243
306.943	2049
306.982	1415
306.997	1329
307.052	2096
307.072	1918
307.107	1570
307.162	2591
307.163	2584
307.217	2014
307.253	1927
307.272	1934
307.327	2095
307.343	2163
307.381	2280
307.434	1791
307.436	1805
307.491	2939
307.524	3215
307.546	3040
307.600	3319
307.614	3123
307.655	2423
307.704	2081
307.710	2122
307.765	1956
307.795	2340
307.819	2647
307.874	3162
307.885	3200
307.929	3231
307.975	3506
307.984	3663
308.038	4481
308.065	5148
308.093	8750
308.148	16791
308.156	18873
308.202	28244
308.246	33665
308.257	32414
308.312	15239
308.336	9170
308.366	6753
308.421	4495
308.426	4333
308.475	3425
308.517	2528
308.530	2342
308.585	2630
308.607	2477
308.639	2470
308.694	2844
308.697	2860
308.748	3124
308.787	3324
308.803	3301
308.857	2800
308.877	2792
308.912	3197
308.967	3624
308.967	3625
309.021	4677
309.058	5150
309.076	5908
309.130	9208
309.148	10357
309.185	25155
309.238	50940
309.239	51006
309.293	50342
309.328	40965
309.348	33955
309.402	14324
309.418	9594
309.457	7244
309.508	5890
309.511	5847
309.566	5198
309.598	4850
309.620	4926
309.674	5510
309.688	5739
309.729	6351
309.778	6486
309.783	6405
309.837	5205
309.868	4597
309.892	4840
309.946	5293
309.959	5520
310.001	6376
310.049	6993
310.055	6848
310.109	5475
310.139	4364
310.163	3922
310.218	3690
310.229	3552
310.272	3636
310.319	3780
310.326	3766
310.381	3719
310.409	3711
310.435	3658
310.489	3205
310.499	3190
310.543	3497
310.589	3373
310.598	3338
310.652	3538
310.679	3426
310.706	3445
310.760	3741
310.769	3756
310.814	4186
310.859	4612
310.868	4566
310.923	4119
310.948	3960
310.977	4084
311.031	4142
311.038	4164
311.085	4433
311.128	4409
311.139	4498
311.193	5251
311.218	5454
311.247	5073
311.301	4330
311.308	4229
311.356	4255
311.398	4276
311.410	4338
311.464	4479
311.488	4544
311.518	4367
311.572	4007
311.578	3963
311.626	4244
311.668	4370
311.680	4401
311.734	4509
311.758	4514
311.788	4848
311.842	5532
311.847	5579
311.896	5251
311.937	4958
311.950	5034
312.004	5291
312.027	5400
312.058	5303
312.112	5078
312.117	5040
312.165	4890
312.207	4732
312.297	5645
312.386	4974
312.476	5055
312.566	5205
312.656	6082
312.745	5234
312.835	5292
312.925	5570
313.015	6100
313.104	6340
313.194	6680
313.284	6395
313.374	6697
313.463	8246
313.553	7806
313.643	8119
313.732	8333
313.822	8424
313.912	9057
314.001	10963
314.091	10380
314.180	10356
314.270	10750
314.360	10101
314.449	9678
314.539	9530
314.628	10305
314.718	10331
314.808	10940
314.897	10986
314.987	12567
315.076	12736
315.166	12615
315.255	11591
315.345	11912
315.434	11106
315.524	10554
315.613	12956
315.703	16750
315.792	44632
315.881	136935
315.971	44996
316.060	15869
316.150	12133
316.239	10034
316.328	11627
316.418	11409
316.507	12966
316.597	14871
316.686	15305
316.775	14031
316.865	13157
316.954	10891
317.043	10832
317.133	9706
317.222	9112
317.311	8183
317.400	7489
317.490	9950
317.579	10166
317.668	13713
317.757	22422
317.847	71964
317.936	186676
318.025	62306
318.114	61204
318.203	27569
318.293	13388
318.382	20737
318.471	21322
318.560	16583
318.649	16364
318.738	10962
318.828	8424
318.917	6613
319.006	7723
319.095	7966
319.184	11805
319.273	8746
319.362	8111
319.451	6813
319.540	6897
319.629	7475
319.718	7798
319.807	8193
319.896	8835
319.985	14393
320.074	9716
320.163	8734
320.252	9340
320.341	9288
320.430	9511
320.519	10042
320.608	12981
320.697	13367
320.786	14159
320.875	16084
320.964	17249
321.053	17365
321.142	20114
321.230	21448
321.319	23631
321.408	25399
321.497	25151
321.586	22659
321.675	21093
321.764	19305
321.852	20188
321.941	20798
322.030	20833
322.119	21860
322.207	25823
322.296	27579
322.385	30787
322.474	33473
322.562	34493
322.651	26175
322.740	22271
322.829	19348
322.917	17578
323.006	15793
323.095	15544
323.183	13562
323.272	13288
323.361	12806
323.449	15435
323.538	10715
323.626	12800
323.715	11141
323.804	9219
323.892	11104
323.981	9646
324.069	9089
324.158	9701
324.246	9631
324.335	8937
324.424	9257
324.512	9090
324.601	8805
324.689	8234
324.778	8118
324.866	8415
324.954	8261
325.043	7794
325.131	7357
325.220	8031
325.308	7483
325.397	8291
325.485	6742
325.574	6692
325.662	7037
325.750	7040
325.839	8033
325.927	7111
326.015	6875
326.104	6829
326.192	7188
326.280	5904
326.369	7233
326.457	6617
326.545	6917
326.634	7107
326.722	6961
326.810	7498
326.898	9110
326.987	8998
327.075	7377
327.163	9604
327.251	7874
327.340	9130
327.428	11810
327.516	14419
327.604	11611
327.692	8882
327.781	6788
327.869	7490
327.957	6380
328.045	5970
328.133	5560
328.221	5529
328.309	6495
328.397	7009
328.485	7404
328.574	12598
328.662	18237
328.750	12369
328.838	8878
328.926	8145
329.014	7386
329.102	6328
329.190	6581
329.278	6781
329.366	6513
329.454	5261
329.542	5322
329.630	4964
329.718	6060
329.806	6063
329.893	6329
329.981	5400
330.069	5349
330.157	6427
330.245	6536
330.333	5839
330.421	6174
330.509	5495
330.597	7347
330.684	6753
330.772	5043
330.860	5962
330.948	5844
331.036	6224
331.123	5531
331.211	5533
331.299	6984
331.387	6376
331.475	6480
331.562	6089
331.650	5488
331.738	5617
331.825	6522
331.913	6332
332.001	5767
332.089	5946
332.176	6839
332.264	7154
332.352	6416
332.439	6715
332.527	6587
332.614	6393
332.702	6333
332.790	7161
332.877	7524
332.965	8329
333.052	7028
333.140	8153
333.228	8419
333.315	7763
333.403	8182
333.490	10059
333.578	8169
333.665	11351
333.753	12234
333.840	12798
333.928	13443
334.015	15798
334.103	20366
334.190	28971
334.278	32759
334.365	40766
334.452	39776
334.540	31147
334.627	32129
334.715	40420
334.802	54344
334.889	75968
334.977	89018
335.064	60039
335.151	35659
335.239	27721
335.326	23714
335.413	26426
335.501	27695
335.588	26799
335.675	30208
335.762	37027
335.850	48501
335.937	66282
336.024	93563
336.111	124490
336.199	106698
336.286	56958
336.373	36334
336.460	26836
336.547	21374
336.635	18400
336.722	15644
336.809	13289
336.896	13677
336.983	13669
337.070	16034
337.157	17273
337.245	13124
337.332	14215
337.419	11563
337.506	11549
337.593	11867
337.680	11438
337.767	13613
337.854	9322
337.941	9751
338.028	9307
338.115	9267
338.202	10753
338.289	9617
338.376	10562
338.463	9155
338.550	10036
338.637	10249
338.724	7863
338.811	8452
338.898	7757
338.984	7836
339.071	7102
339.158	6750
339.245	7459
339.332	7507
339.419	7797
339.506	7255
339.593	6617
339.679	6839
339.766	7159
339.853	7978
339.940	7168
340.027	7124
340.113	7356
340.200	7237
340.287	6537
340.374	6365
340.460	7591
340.547	5286
340.634	6938
340.720	8065
340.807	6510
340.894	6942
340.980	6716
341.067	6632
341.154	7249
341.240	7844
341.327	7945
341.414	7235
341.500	7096
341.587	7977
341.674	6744
341.760	6712
341.847	6789
341.933	6672
342.020	6124
342.106	6994
342.193	6649
342.279	6552
342.366	6768
342.452	7330
342.539	6459
342.625	6073
342.712	7842
342.798	6877
342.885	7189
342.971	5951
343.058	6963
343.144	5947
343.230	7295
343.317	7297
343.403	6144
343.490	6289
343.576	6397
343.662	6605
343.749	6618
343.835	6659
343.921	7774
344.008	17456
344.094	27937
344.180	8917
344.267	7394
344.353	8094
344.439	8097
344.525	6476
344.612	7320
344.698	6543
344.784	5462
344.870	6166
344.957	5484
345.043	6843
345.129	5740
345.215	6885
345.301	6281
345.387	5915
345.474	5676
345.560	6130
345.646	5907
345.732	6069
345.818	6951
345.904	6167
345.990	6380
346.076	6368
346.162	6224
346.249	6760
346.335	6108
346.421	6413
346.507	7676
346.593	11285
346.679	6830
346.765	9661
346.851	15305
346.937	11962
347.023	9296
347.108	7292
347.194	6966
347.280	7434
347.366	11139
347.452	27816
347.538	37064
347.624	19872
347.710	11901
347.796	7957
347.882	7147
347.967	6890
348.053	6641
348.139	6331
348.225	6790
348.311	7014
348.397	6866
348.482	8050
348.568	9683
348.654	13568
348.740	37738
348.825	42953
348.911	20091
348.997	14832
349.083	16276
349.168	8449
349.254	7675
349.340	6967
349.425	7404
349.511	7202
349.597	6935
349.682	8006
349.768	9791
349.854	8780
349.939	6894
350.025	7449
350.110	7174
350.196	7618
350.282	6131
350.367	6613
350.453	7183
350.538	6141
350.624	6250
350.709	7067
350.795	6387
350.880	6497
350.966	7157
351.051	6319
351.137	6387
351.222	6516
351.308	6945
351.393	7562
351.479	6762
351.564	6017
351.649	6917
351.735	6294
351.820	6826
351.906	6235
351.991	6508
352.076	6969
352.162	7716
352.247	5922
352.332	6029
352.418	6397
352.503	6603
352.588	9383
352.673	7110
352.759	6336
352.844	5538
352.929	6895
353.014	6636
353.100	7246
353.185	6954
353.270	6746
353.355	6774
353.441	5963
353.526	5983
353.611	6745
353.696	5243
353.781	6935
353.866	5776
353.952	6984
354.037	5555
354.122	7373
354.207	7042
354.292	6408
354.377	6751
354.462	6527
354.547	6679
354.632	7236
354.717	7179
354.802	5820
354.887	6178
354.972	6455
355.057	5983
355.142	5285
355.227	7446
355.312	6386
355.397	7019
355.482	7910
355.567	5864
355.652	6849
355.737	6743
355.822	9892
355.907	7746
355.991	7542
356.076	6806
356.161	6922
356.246	6960
356.331	7078
356.416	7373
356.501	17404
356.585	14802
356.670	6754
356.755	9526
356.840	7695
356.924	15025
357.009	30124
357.094	13169
357.179	7560
357.263	7396
357.348	8279
357.433	7942
357.517	7301
357.602	6967
357.687	6553
357.771	8287
357.856	9096
357.941	9040
358.025	15089
358.110	38710
358.195	18889
358.279	7789
358.364	7985
358.448	10292
358.533	13572
358.617	11352
358.702	11096
358.787	8687
358.871	8711
358.956	7694
359.040	8150
359.125	7252
359.209	7903
359.294	9942
359.378	16814
359.462	14270
359.547	8306
359.631	7274
359.716	7208
359.800	7745
359.885	7925
359.969	7124
360.053	7768
360.138	8172
360.222	7156
360.306	7517
360.391	8840
360.475	8693
360.559	9335
360.644	9239
360.728	8356
360.812	14082
360.896	20440
360.981	11097
361.065	9178
361.149	9732
361.233	9263
361.318	8701
361.402	9219
361.486	10892
361.570	10533
361.654	11669
361.739	12454
361.823	22322
361.907	28592
361.991	19885
362.075	23845
362.159	32299
362.243	57623
362.327	115195
362.411	140379
362.495	64507
362.580	39062
362.664	37879
362.748	46664
362.832	70585
362.916	130481
363.000	255880
363.084	290067
363.168	136427
363.252	56298
363.336	36229
363.420	29067
363.503	28496
363.587	28061
363.671	23765
363.755	23794
363.839	29233
363.923	31560
364.007	40687
364.091	56585
364.175	89084
364.258	164797
364.342	302350
364.426	390914
364.510	231204
364.594	96084
364.677	52957
364.761	42115
364.845	33860
364.929	20447
365.013	17596
365.096	15777
365.180	14220
365.264	14815
365.347	20832
365.431	14497
365.515	11312
365.598	10047
365.682	12054
365.766	10156
365.849	10609
365.933	10707
366.017	12420
366.100	10561
366.184	11157
366.267	11237
366.351	11343
366.435	9417
366.518	9927
366.602	10574
366.685	10068
366.769	10639
366.852	10547
366.936	11046
367.019	10103
367.103	8738
367.186	11473
367.270	9980
367.353	10287
367.436	12350
367.520	11793
367.603	12659
367.687	11328
367.770	10758
367.853	11164
367.937	12659
368.020	13932
368.104	9758
368.187	10026
368.270	9759
368.353	8928
368.437	9196
368.520	9881
368.603	8963
368.687	10267
368.770	11933
368.853	8086
368.936	8838
369.020	9329
369.103	7310
369.186	8093
369.269	7918
369.352	8537
369.436	7709
369.519	8182
369.602	6900
369.685	9065
369.768	6342
369.851	8224
369.934	7233
370.018	6955
370.101	7100
370.184	9960
370.267	9259
370.350	8772
370.433	10164
370.516	30471
370.599	76609
370.682	38565
370.765	14466
370.848	12506
370.931	12905
371.014	10595
371.097	7570
371.180	7887
371.263	7645
371.346	6198
371.429	7336
371.511	7230
371.594	6309
371.677	8468
371.760	8631
371.843	8269
371.926	19677
372.009	33199
372.091	15705
372.174	10032
372.257	15863
372.340	10282
372.423	8386
372.505	10097
372.588	7706
372.671	10637
372.754	12073
372.836	10717
372.919	10349
373.002	12116
373.085	8405
373.167	9782
373.250	10154
373.332	15435
373.415	25018
373.498	43028
373.580	36592
373.663	108560
373.746	105836
373.828	24568
373.911	14235
373.993	11901
374.076	15041
374.159	13571
374.241	12091
374.324	15244
374.406	13993
374.489	18837
374.571	32421
374.654	17619
374.736	14245
374.819	22881
374.901	33037
374.983	32587
375.066	15215
375.148	13546
375.231	16781
375.313	19426
375.395	14626
375.478	13240
375.560	14073
375.643	14042
375.725	16568
375.807	26371
375.890	21536
375.972	11600
376.054	12009
376.136	12283
376.219	11087
376.301	14490
376.383	19548
376.465	12646
376.548	9229
376.630	11412
376.712	16865
376.794	12084
376.877	8605
376.959	7325
377.041	8447
377.123	7885
377.205	8663
377.287	7825
377.369	9324
377.452	8774
377.534	8369
377.616	8812
377.698	8491
377.780	7438
377.862	9021
377.944	9595
378.026	7526
378.108	8487
378.190	7920
378.272	8493
378.354	7570
378.436	7312
378.518	6970
378.600	9299
378.682	8240
378.764	10120
378.846	10058
378.928	8552
379.010	7607
379.091	9148
379.173	7104
379.255	7507
379.337	6821
379.419	8596
379.501	12284
379.583	9153
379.664	8496
379.746	7288
379.828	10895
379.910	10734
379.991	11160
380.073	7131
380.155	8692
380.237	7840
380.318	7470
380.400	7791
380.482	8625
380.564	8466
380.645	8266
380.727	8436
380.809	8828
380.890	8260
380.972	6733
381.053	7926
381.135	8716
381.217	7828
381.298	10462
381.380	9716
381.461	9217
381.543	16842
381.624	17683
381.706	9322
381.787	9257
381.869	8806
381.951	13961
382.032	30268
382.113	23042
382.195	9115
382.276	10760
382.358	10892
382.439	15044
382.521	20295
382.602	27101
382.684	16164
382.765	18558
382.846	21734
382.928	28759
383.009	20439
383.090	21009
383.172	43432
383.253	53224
383.334	24840
383.416	23562
383.497	17331
383.578	14368
383.659	19503
383.741	45206
383.822	84283
383.903	45233
383.984	21588
384.066	25077
384.147	18846
384.228	16902
384.309	17715
384.390	18606
384.471	18062
384.553	16084
384.634	14715
384.715	13896
384.796	12777
384.877	13142
384.958	16109
385.039	14162
385.120	14081
385.201	13761
385.282	13893
385.363	15439
385.444	15643
385.525	18048
385.606	22267
385.687	21777
385.768	17634
385.849	17601
385.930	28863
386.011	36645
386.092	20962
386.173	18727
386.254	16936
386.335	16808
386.416	16039
386.496	17155
386.577	18847
386.658	17338
386.739	16563
386.820	17820
386.901	17361
386.981	20747
387.062	23125
387.143	24335
387.224	25556
387.304	29578
387.385	28562
387.466	25399
387.547	29434
387.627	28985
387.708	30960
387.789	33262
387.869	32949
387.950	27133
388.031	23695
388.111	20809
388.192	23460
388.273	24400
388.353	21449
388.434	16780
388.514	17320
388.595	25068
388.676	24647
388.756	17665
388.837	17349
388.917	14937
388.998	12847
389.078	15066
389.159	14587
389.239	12776
389.320	15796
389.400	12014
389.480	14409
389.561	15553
389.641	15846
389.722	13794
389.802	13647
389.883	15211
389.963	18959
390.043	15150
390.124	12204
390.204	14587
390.284	15870
390.365	15032
390.445	16649
390.525	21708
390.605	20807
390.686	15005
390.766	16672
390.846	15690
390.927	15060
391.007	15238
391.087	16626
391.167	16868
391.247	15367
391.328	17826
391.408	18370
391.488	18930
391.568	17400
391.648	19044
391.728	21899
391.808	23594
391.888	22897
391.969	25411
392.049	26088
392.129	28769
392.209	29966
392.289	36753
392.369	36011
392.449	39057
392.529	42900
392.609	48406
392.689	56923
392.769	67537
392.849	82552
392.929	105623
393.009	141287
393.089	201853
393.169	316002
393.248	500697
393.328	646912
393.408	626557
393.488	479401
393.568	294861
393.648	185139
393.728	124179
393.807	89564
393.887	71353
393.967	58017
394.047	47488
394.127	40282
394.206	38326
394.286	43647
394.366	90040
394.446	91250
394.525	36652
394.605	26946
394.685	25797
394.764	29518
394.844	48118
394.924	61239
395.003	34460
395.083	23255
395.163	22008
395.242	21001
395.322	22026
395.402	20488
395.481	24753
395.561	29639
395.640	70349
395.720	128636
395.799	77441
395.879	38483
395.958	32142
396.038	47047
396.117	116375
396.197	124568
396.276	59388
396.356	52782
396.435	68860
396.515	91648
396.594	138931
396.673	247214
396.753	445655
396.832	602099
396.912	520902
396.991	296845
397.070	159674
397.150	99318
397.229	81489
397.308	119115
397.388	188786
397.467	110131
397.546	47495
397.625	31708
397.705	29561
397.784	24956
397.863	22459
397.942	21214
398.022	19028
398.101	18007
398.180	20419
398.259	17162
398.338	16864
398.417	14776
398.497	13728
398.576	14428
398.655	13293
398.734	12378
398.813	11618
398.892	13700
398.971	15895
399.050	12417
399.129	10989
399.208	11250
399.287	12199
399.366	10686
399.445	10101
399.524	10395
399.603	8468
399.682	9927
399.761	10863
399.840	14900
399.919	13276
399.998	9244
400.077	8620
400.156	7757
400.235	10947
400.313	7688
400.392	7432
400.471	9834
400.550	10471
400.629	8609
400.708	8466
400.786	6841
400.865	8262
400.944	6985
401.023	8859
401.102	7297
401.180	7774
401.259	7552
401.338	6441
401.416	7298
401.495	6011
401.574	7750
401.652	6630
401.731	8067
401.810	5983
401.888	6693
401.967	6514
402.046	6230
402.124	6346
402.203	6175
402.281	6986
402.360	5515
402.438	7391
402.517	6282
402.596	6826
402.674	6893
402.753	6471
402.831	7367
402.910	8310
402.988	8595
403.066	12081
403.145	11012
403.223	9932
403.302	11899
403.380	12233
403.459	12262
403.537	9116
403.615	9731
403.694	7698
403.772	9479
403.850	8578
403.929	8047
404.007	7293
404.085	8981
404.164	7679
404.242	8092
404.320	9898
404.398	12892
404.477	12680
404.555	20243
404.633	17772
404.711	11304
404.789	9477
404.868	7858
404.946	6510
405.024	7326
405.102	5746
405.180	5428
405.258	4770
405.336	6752
405.415	5359
405.493	5671
405.571	7186
405.649	6277
405.727	5707
405.805	8067
405.883	8299
405.961	8233
406.039	6452
406.117	5459
406.195	6351
406.273	6413
406.351	13635
406.429	11136
406.507	6117
406.585	5846
406.663	5907
406.740	5903
406.818	4453
406.896	4986
406.974	6735
407.052	5548
407.130	10096
407.208	11933
407.285	7525
407.363	6072
407.441	6813
407.519	7043
407.596	9269
407.674	23208
407.752	71310
407.830	51822
407.907	11847
407.985	6395
408.063	7001
408.141	6343
408.218	6787
408.296	5687
408.373	6754
408.451	8270
408.529	8510
408.606	7765
408.684	9597
408.762	9229
408.839	9807
408.917	10856
408.994	12004
409.072	12486
409.149	16541
409.227	25758
409.304	35764
409.382	38925
409.459	44702
409.537	56547
409.614	52964
409.692	45255
409.769	44676
409.846	57226
409.924	67143
410.001	54158
410.079	42416
410.156	33001
410.233	26506
410.311	20921
410.388	20024
410.465	18427
410.543	15653
410.620	15233
410.697	14772
410.775	14467
410.852	13356
410.929	15430
411.006	14543
411.083	13022
411.161	12297
411.238	12445
411.315	11224
411.392	10947
411.469	10250
411.547	9620
411.624	7239
411.701	8544
411.778	9361
411.855	8322
411.932	7189
412.009	8659
412.086	7800
412.163	7663
412.240	7679
412.317	7593
412.394	7162
412.471	7020
412.548	6670
412.625	6644
412.702	6163
412.779	6630
412.856	7180
412.933	5892
413.010	6575
413.087	5932
413.164	6840
413.241	6872
413.318	5053
413.395	6306
413.471	5372
413.548	6443
413.625	5654
413.702	4490
413.779	5227
413.855	5058
413.932	4951
414.009	4843
414.086	4892
414.162	4967
414.239	5358
414.316	6862
414.393	8290
414.469	4482
414.546	4675
414.623	5141
414.699	4672
414.776	4656
414.853	5035
414.929	4769
415.006	3878
415.082	5382
415.159	4455
415.236	4638
415.312	5333
415.389	4520
415.465	4323
415.542	3806
415.618	4400
415.695	5110
415.771	3453
415.848	4716
415.924	4526
416.000	4896
416.077	5390
416.153	3432
416.230	3616
416.306	4419
416.383	4655
416.459	5629
416.535	4147
416.612	4527
416.688	3851
416.764	4473
416.841	3805
416.917	4840
416.993	3698
417.069	4875
417.146	4586
417.222	4849
417.298	3873
417.374	4167
417.451	4784
417.527	4744
417.603	3987
417.679	4753
417.755	5595
417.831	3720
417.908	4865
417.984	4821
418.060	4518
418.136	5835
418.212	5345
418.288	5312
418.364	5763
418.440	4714
418.516	5497
418.592	5151
418.668	5216
418.744	5494
418.820	5813
418.896	5347
418.972	5385
419.048	6041
419.124	7274
419.200	6259
419.276	6671
419.352	5531
419.428	7904
419.504	6067
419.579	7773
419.655	7010
419.731	7701
419.807	7948
419.883	8737
419.959	7742
420.034	9259
420.110	9071
420.186	9354
420.262	10858
420.337	10047
420.413	10087
420.489	11111
420.565	12951
420.640	11528
420.716	13856
420.792	13464
420.867	14644
420.943	15161
421.019	16533
421.094	16306
421.170	18516
421.245	20433
421.321	22758
421.397	24741
421.472	39381
421.548	65576
421.623	52363
421.699	37936
421.774	42086
421.850	46309
421.925	56603
422.001	66283
422.076	80783
422.152	99064
422.227	126204
422.302	165340
422.378	219325
422.453	285358
422.529	319112
422.604	241928
422.679	161569
422.755	243875
422.830	324667
422.905	290201
422.981	227356
423.056	173312
423.131	136756
423.207	107333
423.282	86782
423.357	71092
423.432	59692
423.508	53257
423.583	44817
423.658	39806
423.733	35862
423.808	33200
423.883	31965
423.959	34082
424.034	36159
424.109	34933
424.184	26320
424.259	22582
424.334	19565
424.409	17994
424.484	16367
424.559	15201
424.634	14483
424.709	13206
424.784	13119
424.859	11536
424.934	11298
425.009	12117
425.084	12485
425.159	10296
425.234	9897
425.309	9019
425.384	10773
425.459	8658
425.534	9217
425.609	8647
425.683	8003
425.758	8545
425.833	7754
425.908	8718
425.983	8222
426.058	8567
426.132	7749
426.207	7607
426.282	9305
426.357	5596
426.431	6534
426.506	6160
426.581	6358
426.655	5585
426.730	6089
426.805	4777
426.879	6600
426.954	5445
427.029	5965
427.103	7038
427.178	10440
427.253	8257
427.327	5693
427.402	6213
427.476	7307
427.551	5830
427.625	5783
427.700	5838
427.774	5425
427.849	6642
427.923	6278
427.998	7500
428.072	10091
428.147	21150
428.221	75016
428.296	171372
428.370	103649
428.444	23604
428.519	11525
428.593	9965
428.667	9956
428.742	13313
428.816	33679
428.890	116997
428.965	155641
429.039	50660
429.113	13794
429.188	8852
429.262	7392
429.336	7626
429.410	7313
429.485	7726
429.559	8308
429.633	8768
429.707	12503
429.781	31715
429.855	109500
429.930	142574
430.004	52041
430.078	40769
430.152	97867
430.226	228395
430.300	212642
430.374	73981
430.448	26756
430.522	18764
430.596	21090
430.670	48552
430.744	139587
430.818	139662
430.892	37084
430.966	11101
431.040	7447
431.114	6409
431.188	5294
431.262	4704
431.336	4959
431.410	6226
431.484	6224
431.557	7738
431.631	8920
431.705	18784
431.779	62507
431.853	163887
431.927	114689
432.000	25957
432.074	9531
432.148	6171
432.222	4125
432.295	4655
432.369	3543
432.443	3371
432.516	5420
432.590	8673
432.664	5419
432.737	2790
432.811	2961
432.885	3120
432.958	2628
433.032	1651
433.106	2474
433.179	3218
433.253	2678
433.326	2381
433.400	2461
433.473	2474
433.547	1905
433.620	2821
433.694	2334
433.767	4029
433.841	2382
433.914	2403
433.988	3748
434.061	3595
434.134	3713
434.208	3079
434.281	3454
434.355	3299
434.428	3148
434.501	2240
434.575	3118
434.648	2891
434.721	2950
434.795	3049
434.868	2973
434.941	3364
435.014	3987
435.088	4205
435.161	5450
435.234	6353
435.307	7938
435.381	10129
435.454	14385
435.527	23322
435.600	26369
435.673	24292
435.746	18520
435.819	15552
435.892	13329
435.966	9467
436.039	8735
436.112	7505
436.185	5661
436.258	5880
436.331	4594
436.404	4692
436.477	4496
436.550	4253
436.623	4586
436.696	3309
436.769	3258
436.842	2701
436.915	3551
436.987	2994
437.060	3376
437.133	3797
437.206	2782
437.279	2648
437.352	2328
437.425	1706
437.498	2639
437.570	1932
437.643	2391
437.716	2571
437.789	1998
437.861	2608
437.934	2187
438.007	2226
438.080	1676
438.152	2282
438.225	2478
438.298	5966
438.370	12625
438.443	6348
438.516	2466
438.588	2689
438.661	1701
438.734	2393
438.806	2610
438.879	2597
438.951	2311
439.024	2783
439.096	1959
439.169	1907
439.241	1673
439.314	1245
439.386	1856
439.459	2254
439.531	2288
439.604	2683
439.676	2978
439.749	2188
439.821	1546
439.893	1953
439.966	2195
440.038	2053
440.110	1988
440.183	2083
440.255	1597
440.327	3416
440.400	4055
440.472	6433
440.544	4742
440.617	2852
440.689	3746
440.761	3355
440.833	2822
440.905	2727
440.978	2733
441.050	3444
441.122	3839
441.194	1814
441.266	2956
441.338	2731
441.411	4057
441.483	4218
441.555	4665
441.627	3992
441.699	4489
441.771	3597
441.843	4434
441.915	4447
441.987	4602
442.059	6065
442.131	7126
442.203	9234
442.275	12855
442.347	22078
442.419	52332
442.491	158458
442.563	253096
442.635	124239
442.706	36970
442.778	18796
442.850	13322
442.922	11215
442.994	13341
443.066	13489
443.137	16438
443.209	23412
443.281	38427
443.353	76201
443.425	188600
443.496	343059
443.568	346351
443.640	182414
443.711	64679
443.783	30519
443.855	20498
443.926	14377
443.998	11552
444.070	9912
444.141	8138
444.213	7336
444.285	7574
444.356	7279
444.428	6467
444.499	6658
444.571	7323
444.642	8200
444.714	8127
444.785	9344
444.857	10416
444.928	12388
445.000	13932
445.071	19549
445.143	25496
445.214	39369
445.285	66036
445.357	138799
445.428	281026
445.500	369989
445.571	353089
445.642	258873
445.714	115649
445.785	46665
445.856	25422
445.928	18290
445.999	13551
446.070	11375
446.141	9926
446.213	8144
446.284	5327
446.355	5246
446.426	5098
446.497	3844
446.569	3926
446.640	3186
446.711	3150
446.782	3474
446.853	3471
446.924	2998
446.995	2227
447.066	2902
447.138	2560
447.209	2566
447.280	2032
447.351	1515
447.422	1653
447.493	1824
447.564	1856
447.635	1942
447.706	2024
447.777	2056
447.847	1972
447.918	329
447.989	1406
448.060	1106
448.131	1444
448.202	953
448.273	1600
448.344	1881
448.414	1717
448.485	779
448.556	1027
448.627	670
448.698	2278
448.768	1200
448.839	458
448.910	1234
448.981	1241
449.051	1323
449.122	647
449.193	574
449.263	2070
449.334	1329
449.405	1598
449.475	1900
449.546	1906
449.616	2807
449.687	2609
449.758	1518
449.828	1018
449.899	1722
449.969	1158
450.040	374
450.110	1456
450.181	896
450.251	1411
450.322	984
450.392	478
450.463	1045
450.533	1531
450.604	1434
450.674	1475
450.744	2788
450.815	2251
450.885	3509
450.955	3510
451.026	3105
451.096	3293
451.166	2956
451.237	3711
451.307	5677
451.377	4547
451.447	2986
451.518	2572
451.588	1459
451.658	1532
451.728	2237
451.799	2921
451.869	2127
451.939	1738
452.009	1035
452.079	1749
452.149	2549
452.219	2670
452.289	3002
452.360	3657
452.430	3743
452.500	6094
452.570	10095
452.640	22338
452.710	49665
452.780	56786
452.850	34377
452.920	18173
452.990	10896
453.060	7669
453.129	4853
453.199	4288
453.269	3748
453.339	4518
453.409	5298
453.479	5419
453.549	5879
453.619	5566
453.688	1996
453.758	1959
453.828	818
453.898	1542
453.968	690
454.037	1504
454.087	1236
454.107	1122
454.168	1136
454.177	1125
454.247	1382
454.249	1365
454.316	634
454.330	619
454.386	540
454.411	600
454.456	642
454.492	1219
454.525	1726
454.574	1597
454.595	1535
454.655	1092
454.665	1000
454.734	2140
454.736	2146
454.804	1901
454.817	1908
454.873	1879
454.898	1950
454.943	2052
454.979	1685
455.013	1341
455.060	1228
455.082	1130
455.141	1089
455.152	1092
455.221	2342
455.222	2356
455.291	2428
455.303	2345
455.360	1668
455.384	2366
455.430	3608
455.465	3117
455.499	2602
455.546	2013
455.569	1733
455.627	2012
455.638	2069
455.707	1525
455.708	1532
455.777	879
455.789	1028
455.846	1840
455.869	1595
455.916	1043
455.950	1298
455.985	1444
456.031	1525
456.054	1610
456.112	1604
456.124	1580
456.193	1639
456.193	1625
456.262	2441
456.274	2458
456.332	2595
456.355	2454
456.401	2061
456.436	2148
456.470	2234
456.516	2075
456.540	1962
456.597	2044
456.609	2048
456.678	2492
456.678	2481
456.747	2400
456.759	2284
456.817	1828
456.840	2115
456.886	2567
456.920	2376
456.955	2219
457.001	2700
457.024	2871
457.082	2488
457.093	2421
457.162	3700
457.163	3713
457.232	3782
457.243	3749
457.301	3479
457.324	3685
457.370	4222
457.405	4501
457.439	4840
457.485	5075
457.508	5319
457.566	7429
457.577	8174
457.646	12542
457.647	12636
457.715	26925
457.727	30654
457.784	49222
457.808	65142
457.853	85998
457.889	100405
457.922	107327
457.969	79153
457.991	75075
458.050	80612
458.060	81739
458.129	134550
458.130	136033
458.198	148149
458.211	134730
458.267	84028
458.292	63315
458.336	42227
458.372	39638
458.405	47969
458.453	67426
458.474	78283
458.533	128305
458.543	131797
458.611	202225
458.614	202633
458.680	146397
458.694	122646
458.749	62937
458.775	46633
458.818	27174
458.855	20813
458.887	16675
458.936	13124
458.955	11760
459.016	9510
459.024	9292
459.093	7544
459.097	7479
459.162	6279
459.177	6038
459.230	5640
459.257	5818
459.299	5765
459.338	5189
459.368	4844
459.418	4816
459.437	4781
459.499	4471
459.505	4450
459.574	4157
459.579	4215
459.643	4495
459.659	4470
459.711	4763
459.740	4684
459.780	4344
459.820	4272
459.849	4285
459.900	4062
459.917	3949
459.981	4251
459.986	4288
460.054	4259
460.061	4298
460.123	4057
460.141	3888
460.191	3932
460.222	3866
460.260	3710
460.302	4056
460.328	4293
460.382	4345
460.397	4482
460.462	5295
460.465	5578
460.534	12312
460.543	13237
460.602	27236
460.623	33238
460.671	48799
460.703	65881
460.739	60441
460.783	42044
460.808	36927
460.864	11395
460.876	8186
460.944	4479
460.945	4440
461.013	4265
461.024	4241
461.081	3758
461.104	3794
461.150	3914
461.184	3605
461.218	3699
461.264	4293
461.286	4161
461.345	3711
461.355	3719
461.423	3322
461.425	3319
461.491	3270
461.505	3355
461.559	3719
461.585	3714
461.628	3768
461.665	4026
461.696	4078
461.745	4099
461.764	4112
461.825	3921
461.832	3926
461.901	4046
461.905	4054
461.969	3508
461.985	3366
462.037	4026
462.065	4540
462.105	4012
462.145	3379
462.173	3779
462.225	4210
462.241	4099
462.305	4283
462.310	4327
462.378	4283
462.385	4347
462.446	4591
462.465	4612
462.514	4430
462.545	4218
462.582	3995
462.625	3639
462.650	3645
462.705	4046
462.718	4033
462.785	3827
462.786	3832
462.854	3772
462.865	3803
462.922	4006
462.945	4138
462.990	4184
463.025	4017
463.058	4094
463.104	4233
463.126	4032
463.184	3652
463.194	3791
463.262	4530
463.264	4556
463.330	3934
463.344	3828
463.398	4487
463.424	4767
463.466	4246
463.504	3838
463.533	4157
463.583	4327
463.601	4165
463.663	4064
463.669	4027
463.737	3404
463.743	3334
463.805	3916
463.823	4075
463.873	4230
463.903	4417
463.940	4445
463.982	4509
464.008	4583
464.062	4590
464.076	4478
464.142	4112
464.144	4115
464.211	3653
464.221	3588
464.279	3731
464.301	3877
464.347	3723
464.381	3575
464.414	3740
464.461	4007
464.482	4069
464.540	4074
464.550	4045
464.617	3863
464.620	3850
464.685	4051
464.699	4114
464.753	4148
464.779	4087
464.820	4201
464.859	4390
464.888	4053
464.938	3398
464.956	3880
465.018	5521
465.023	5436
465.091	4420
465.098	4286
465.158	4522
465.177	4639
465.226	4235
465.257	3911
465.293	4024
465.336	4246
465.361	4384
465.416	4641
465.428	4725
465.495	4984
465.496	4986
465.563	4222
465.575	4086
465.631	4210
465.654	4282
465.698	4298
465.734	4213
465.765	4182
465.813	4176
465.833	4334
465.893	4802
465.900	4815
465.968	4908
465.972	4895
466.035	4513
466.052	4435
466.102	4590
466.131	4666
466.170	4152
466.210	3541
466.237	3777
466.290	4255
466.304	4277
466.369	4363
466.372	4377
466.439	4552
466.449	4572
466.506	4345
466.528	4237
466.573	4802
466.607	5226
466.641	5177
466.687	5075
466.708	5467
466.766	6557
466.775	6370
466.842	4861
466.845	4781
466.909	5046
466.925	5104
466.977	4967
467.004	4883
467.044	5446
467.083	6001
467.111	5992
467.163	5924
467.178	5845
467.242	5486
467.245	5510
467.312	5848
467.321	5886
467.379	5752
467.400	5687
467.446	6381
467.480	6869
467.559	6200
467.638	6036
467.717	6345
467.796	7412
467.875	7800
467.955	8384
468.034	9668
468.113	11507
468.192	14507
468.271	17573
468.350	25379
468.429	33236
468.508	31817
468.588	19650
468.667	13148
468.746	9961
468.825	8770
468.904	7981
468.983	7662
469.062	6839
469.141	7713
469.220	6174
469.299	6623
469.378	5635
469.456	7461
469.535	5904
469.614	6459
469.693	4937
469.772	6603
469.851	6187
469.930	6202
470.009	5125
470.088	5979
470.166	6661
470.245	7497
470.324	7075
470.403	7061
470.482	5548
470.560	5983
470.639	6105
470.718	6494
470.797	5813
470.875	5483
470.954	4996
471.033	6361
471.111	5564
471.190	5448
471.269	4397
471.347	5035
471.426	5490
471.505	5692
471.583	5672
471.662	6028
471.740	5604
471.819	6091
471.898	4431
471.976	6031
472.055	5252
472.133	6493
472.212	7571
472.290	5675
472.369	5606
472.447	5093
472.526	4590
472.604	6115
472.683	5676
472.761	5595
472.839	5227
472.918	5467
472.996	5638
473.075	5456
473.153	7046
473.231	6468
473.310	5997
473.388	6013
473.466	5408
473.545	6168
473.623	6783
473.701	6428
473.780	6687
473.858	5577
473.936	7728
474.014	5890
474.093	7543
474.171	8079
474.249	7491
474.327	5658
474.405	6239
474.484	5908
474.562	6090
474.640	6870
474.718	5927
474.796	5978
474.874	6381
474.952	5189
475.030	5919
475.108	5170
475.187	4840
475.265	6464
475.343	6266
475.421	6133
475.499	5861
475.577	5505
475.655	6100
475.733	6594
475.811	6716
475.889	6356
475.966	5751
476.044	5654
476.122	6082
476.200	5206
476.278	4652
476.356	5216
476.434	5327
476.512	5601
476.590	5919
476.667	6203
476.745	5197
476.823	5300
476.901	5925
476.979	5622
477.056	5516
477.134	5206
477.212	5323
477.290	5182
477.367	5515
477.445	5144
477.523	5235
477.601	5365
477.678	5403
477.756	5399
477.834	5368
477.911	5304
477.989	5792
478.066	5575
478.144	4847
478.222	5700
478.299	5641
478.377	6641
478.454	7080
478.532	5368
478.609	4642
478.687	5630
478.764	4702
478.842	6126
478.919	4955
478.997	5495
479.074	5055
479.152	5444
479.229	5189
479.307	5823
479.384	5591
479.461	6199
479.539	5697
479.616	6412
479.694	5157
479.771	6304
479.848	5553
479.926	4413
480.003	7296
480.080	6559
480.157	5932
480.235	5988
480.312	6419
480.389	6603
480.467	6244
480.544	7735
480.621	7017
480.698	7794
480.775	7039
480.853	7736
480.930	6190
481.007	7621
481.084	8823
481.161	13495
481.238	8970
481.315	7328
481.392	6192
481.470	7644
481.547	6691
481.624	7727
481.701	7226
481.778	7359
481.855	7925
481.932	9427
482.009	10010
482.086	11080
482.163	12152
482.240	13541
482.317	12708
482.393	10951
482.470	11002
482.547	10040
482.624	10032
482.701	10697
482.778	9113
482.855	9168
482.932	9569
483.009	11040
483.085	12775
483.162	16295
483.239	16405
483.316	14516
483.393	14336
483.469	11539
483.546	11298
483.623	10358
483.699	9589
483.776	7900
483.853	7447
483.930	8850
484.006	9248
484.083	10578
484.160	8921
484.236	10707
484.313	9483
484.389	9728
484.466	12867
484.543	14517
484.619	18158
484.696	18984
484.772	12727
484.849	10581
484.925	8955
485.002	9706
485.078	8627
485.155	7815
485.231	6890
485.308	7051
485.384	6600
485.461	7779
485.537	7023
485.614	7474
485.690	6486
485.766	6580
485.843	6237
485.919	6840
485.995	6639
486.072	6734
486.148	5996
486.224	6911
486.301	6376
486.377	7100
486.453	5990
486.530	8354
486.606	9293
486.682	7642
486.758	8266
486.835	8675
486.911	8888
486.987	11483
487.063	12027
487.139	14580
487.215	18168
487.292	19649
487.368	20573
487.444	26180
487.520	38063
487.596	67987
487.672	174321
487.748	434174
487.824	566072
487.900	235609
487.976	79760
488.052	41689
488.128	26625
488.204	18977
488.280	16151
488.356	14227
488.432	12826
488.508	11659
488.584	9172
488.660	9426
488.736	8398
488.812	7583
488.888	7725
488.964	7939
489.039	8361
489.115	10359
489.191	8762
489.267	8345
489.343	6707
489.418	5990
489.494	6981
489.570	6463
489.646	8038
489.722	8136
489.797	6598
489.873	8164
489.949	8268
490.024	8061
490.100	7549
490.176	6389
490.251	7041
490.327	7477
490.403	6977
490.478	7336
490.554	6929
490.629	7318
490.705	6028
490.781	6191
490.856	6065
490.932	6175
491.007	6060
491.083	5377
491.158	6712
491.234	5231
491.309	7388
491.385	5540
491.460	4949
491.536	6319
491.611	4836
491.686	5406
491.762	5213
491.837	6682
491.913	7182
491.988	8137
492.063	7774
492.139	5688
492.214	5192
492.289	6026
492.365	4194
492.440	5279
492.515	4867
492.590	5430
492.666	4407
492.741	5017
492.816	5457
492.891	4654
492.967	4863
493.042	5495
493.117	5056
493.192	5988
493.267	6408
493.342	10064
493.418	10018
493.493	5011
493.568	5214
493.643	4813
493.718	4378
493.793	5257
493.868	4715
493.943	5079
494.018	5510
494.093	3984
494.168	5053
494.243	4287
494.318	5158
494.393	4881
494.468	4399
494.543	4364
494.618	4612
494.693	4139
494.768	4258
494.842	4504
494.917	4315
494.992	4423
495.067	4592
495.142	4542
495.217	4682
495.292	4716
495.366	4645
495.441	3804
495.516	5150
495.591	5562
495.665	8015
495.740	10348
495.815	5948
495.890	5644
495.964	2776
496.039	7069
496.114	6740
496.188	12261
496.263	6995
496.338	4445
496.412	4612
496.487	5205
496.561	5814
496.636	4848
496.710	6202
496.785	5202
496.860	4309
496.934	4279
497.009	4927
497.083	4151
497.158	3940
497.232	4452
497.307	4731
497.381	4209
497.455	4808
497.530	4748
497.604	4972
497.679	4780
497.753	4124
497.827	4700
497.902	3964
497.976	5456
498.050	9143
498.125	19795
498.199	16641
498.273	5413
498.348	4297
498.422	4647
498.496	4003
498.570	5284
498.645	4721
498.719	3917
498.793	5041
498.867	5926
498.941	6332
499.016	11510
499.090	18560
499.164	8394
499.238	5825
499.312	4949
499.386	6132
499.460	6471
499.534	5070
499.609	6147
499.683	4501
499.757	6154
499.831	8055
499.905	14475
499.979	11506
500.053	6481
500.127	6048
500.201	4686
500.275	4766
500.349	4883
500.422	5589
500.496	4978
500.570	6881
500.644	11016
500.718	13302
500.792	7607
500.866	6353
500.940	6868
501.013	5868
501.087	6627
501.161	6755
501.235	5306
501.309	10608
501.382	12581
501.456	12346
501.530	7037
501.603	7030
501.677	5885
501.751	4799
501.825	6947
501.898	6505
501.972	8026
502.046	6545
502.119	4433
502.193	6726
502.266	7956
502.340	5432
502.413	6393
502.487	7449
502.561	5935
502.634	5895
502.708	6301
502.781	6033
502.855	7173
502.928	5261
503.002	6085
503.075	5168
503.149	6266
503.222	6221
503.295	6480
503.369	8018
503.442	9130
503.516	12308
503.589	15896
503.662	15392
503.736	16991
503.809	23530
503.882	30240
503.956	51393
504.029	111742
504.102	267385
504.175	336158
504.249	150166
504.322	65615
504.395	35932
504.468	23519
504.542	16726
504.615	12561
504.688	11755
504.761	8358
504.834	9944
504.907	8133
504.980	7274
505.053	6626
505.127	3580
505.200	8407
505.273	5250
505.346	5354
505.419	4456
505.492	7239
505.565	5454
505.638	4765
505.711	4141
505.784	4050
505.857	3324
505.930	4881
506.003	3570
506.076	5928
506.149	3279
506.221	2200
506.294	5916
506.367	3039
506.440	7091
506.513	5427
506.586	3696
506.659	3487
506.731	4031
506.804	3708
506.877	3630
506.950	4343
507.022	4031
507.095	2898
507.168	4462
507.241	4318
507.313	3494
507.386	1983
507.459	5173
507.531	3323
507.604	2782
507.677	3893
507.749	1800
507.822	4405
507.894	3270
507.967	4147
508.040	2469
508.112	4120
508.185	3481
508.257	2913
508.330	4882
508.402	2463
508.475	2839
508.547	3973
508.620	3537
508.692	3527
508.765	3213
508.837	3046
508.909	3358
508.982	3814
509.054	4039
509.127	2536
509.199	3529
509.271	2107
509.344	3393
509.416	3976
509.488	2735
509.560	4478
509.633	3038
509.705	2509
509.777	2912
509.849	3815
509.922	1676
509.994	3643
510.066	4176
510.138	1890
510.210	5712
510.283	2873
510.355	3464
510.427	4476
510.499	3691
510.571	4310
510.643	2317
510.715	3669
510.787	2207
510.859	4063
510.931	3407
511.003	3266
511.076	4420
511.148	2696
511.219	2994
511.291	4279
511.363	4256
511.435	3760
511.507	3017
511.579	5184
511.651	3935
511.723	3463
511.795	2455
511.867	3984
511.939	2768
512.010	2999
512.082	4512
512.154	2825
512.226	3405
512.298	4111
512.369	3045
512.441	3879
512.513	3840
512.585	1428
512.656	4705
512.728	3422
512.800	3540
512.871	4650
512.943	3566
513.015	2049
513.086	4038
513.158	3811
513.230	2849
513.301	3273
513.373	4215
513.444	3210
513.516	3773
513.588	3725
513.659	3836
513.731	4100
513.802	2930
513.874	5488
513.945	3712
514.016	2475
514.088	3887
514.159	2262
514.231	3590
514.302	3045
514.374	4232
514.445	2464
514.516	6380
514.588	2860
514.659	3838
514.730	3028
514.802	4622
514.873	2706
514.944	5472
515.016	4884
515.087	3224
515.158	3861
515.229	5108
515.301	2918
515.372	3397
515.443	3203
515.514	3914
515.585	3022
515.656	5029
515.728	4421
515.799	3579
515.870	4997
515.941	4890
516.012	3077
516.083	5049
516.154	3345
516.225	5250
516.296	5595
516.367	3292
516.438	3975
516.509	4708
516.580	6451
516.651	15280
516.722	27824
516.793	13910
516.864	5665
516.935	6122
517.006	7628
517.077	7788
517.148	14532
517.219	47082
517.289	56254
517.360	12831
517.431	8765
517.502	4449
517.573	7009
517.643	6596
517.714	7136
517.785	7523
517.856	7597
517.926	10541
517.997	11162
518.068	11431
518.138	16202
518.209	18451
518.280	52043
518.350	116121
518.421	53026
518.492	33426
518.562	42381
518.633	61437
518.703	106561
518.774	239708
518.845	482133
518.915	387217
518.986	137400
519.056	64831
519.127	39671
519.197	28513
519.268	22898
519.338	17666
519.408	12580
519.479	11115
519.549	8668
519.620	10290
519.690	7564
519.760	7509
519.831	7171
519.901	5007
519.971	7396
520.042	5133
520.112	4307
520.182	6295
520.253	5966
520.323	4499
520.393	4441
520.463	7018
520.534	3087
520.604	8274
520.674	5771
520.744	4377
520.814	4764
520.885	5681
520.955	6134
521.025	9337
521.095	5689
521.165	5634
521.235	4012
521.305	3599
521.375	5808
521.445	5769
521.515	4702
521.585	5678
521.655	3131
521.725	4709
521.795	5850
521.865	2552
521.935	7443
522.005	4048
522.075	4445
522.145	5383
522.215	4378
522.285	4658
522.355	4775
522.424	6278
522.494	5082
522.564	5839
522.634	5651
522.704	8522
522.774	4762
522.843	5676
522.913	5677
522.983	5599
523.053	4312
523.122	6014
523.192	4645
523.262	6245
523.331	5545
523.401	6669
523.471	5255
523.540	5366
523.610	5048
523.680	5590
523.749	6145
523.819	8205
523.888	7751
523.958	6502
524.027	6451
524.097	5950
524.166	7142
524.236	5440
524.305	8276
524.375	5465
524.444	5368
524.514	7721
524.583	5743
524.653	5773
524.722	6925
524.791	5315
524.861	8390
524.930	6266
524.999	7117
525.069	9151
525.138	8914
525.207	8617
525.277	10332
525.346	10549
525.415	12656
525.484	13963
525.554	15999
525.623	20571
525.692	26271
525.761	29205
525.830	35821
525.900	48051
525.969	83599
526.038	166211
526.107	373999
526.176	752933
526.245	548064
526.314	222120
526.383	462814
526.452	547022
526.522	711272
526.591	545262
526.660	130925
526.729	76214
526.797	81738
526.867	134857
526.935	392094
527.004	878045
527.073	530661
527.142	121493
527.211	51839
527.280	33906
527.349	25387
527.418	17960
527.487	16537
527.555	11706
527.624	10927
527.693	9664
527.762	11289
527.831	8403
527.899	9838
527.968	8090
528.037	6858
528.106	7685
528.174	8261
528.243	7549
528.312	8514
528.380	6430
528.449	5357
528.518	8631
528.586	6051
528.655	8487
528.723	7171
528.792	5929
528.861	5623
528.929	6137
528.998	7014
529.066	6341
529.135	6394
529.203	5049
529.272	5722
529.340	7414
529.409	7915
529.477	5859
529.545	5704
529.614	8955
529.682	5826
529.751	7053
529.819	10558
529.887	8093
529.956	6167
530.024	8011
530.092	6414
530.161	7854
530.229	6825
530.297	6992
530.365	8647
530.434	7468
530.502	7002
530.570	7634
530.638	6090
530.707	7437
530.775	8716
530.843	7338
530.911	7505
530.979	7855
531.047	7539
531.115	7714
531.183	7438
531.252	7881
531.320	6978
531.388	6929
531.456	8759
531.524	5771
531.592	9398
531.660	10839
531.728	7891
531.796	7356
531.864	7562
531.932	8493
532.000	6731
532.067	7709
532.135	8969
532.203	9683
532.271	9425
532.339	10264
532.407	10897
532.475	10977
532.542	10156
532.610	9365
532.678	8644
532.746	14230
532.814	15001
532.881	10529
532.949	10345
533.017	9895
533.084	9698
533.152	8866
533.220	8745
533.287	8436
533.355	9198
533.423	9450
533.490	9524
533.558	10199
533.625	9779
533.693	10154
533.761	10517
533.828	10545
533.896	8459
533.963	11168
534.031	13059
534.098	14568
534.166	17184
534.233	15258
534.300	18965
534.368	18077
534.435	17676
534.503	20004
534.570	22288
534.637	24371
534.705	28423
534.772	42352
534.840	106965
534.907	413187
534.974	374743
535.041	57725
535.109	25786
535.176	19348
535.243	18717
535.310	16248
535.378	15744
535.445	16439
535.512	16643
535.579	15265
535.646	15443
535.714	16887
535.781	16736
535.848	17073
535.915	17337
535.982	14487
536.049	15348
536.116	16025
536.183	14180
536.250	14412
536.317	14435
536.384	16832
536.451	16694
536.518	17028
536.585	13916
536.652	16745
536.719	16633
536.786	13838
536.853	15355
536.920	16922
536.987	15470
537.053	14481
537.120	18717
537.187	19880
537.254	17518
537.321	16946
537.388	17975
537.454	15985
537.521	16804
537.588	17022
537.654	17986
537.721	18798
537.788	19453
537.855	16678
537.921	17391
537.988	16631
538.055	17697
538.121	14991
538.188	13886
538.254	14742
538.321	15335
538.388	17023
538.454	18877
538.521	19510
538.587	18346
538.654	17226
538.720	16968
538.787	17159
538.853	18370
538.920	16701
538.986	15169
539.053	15355
539.119	17134
539.185	16194
539.252	18910
539.318	17608
539.385	20190
539.451	16996
539.517	18152
539.583	17540
539.650	18810
539.716	17925
539.782	15699
539.849	16153
539.915	16922
539.981	16843
540.047	15470
540.114	16179
540.180	18683
540.246	17919
540.312	19469
540.378	18263
540.444	18699
540.510	19197
540.576	20412
540.643	17503
540.709	16642
540.775	17650
540.841	15859
540.907	16368
540.973	17573
541.039	16546
541.105	17667
541.171	18469
541.237	18640
541.303	19377
541.369	19636
541.435	19056
541.500	18244
541.566	16361
541.632	17083
541.698	17761
541.764	19195
541.830	17012
541.896	16843
541.961	17412
542.027	17270
542.093	19830
542.159	19580
542.224	17124
542.290	18895
542.356	17698
542.421	17648
542.487	16733
542.553	16542
542.618	17644
542.684	17381
542.750	17372
542.815	19358
542.881	17172
542.947	20076
543.012	20349
543.078	16648
543.143	16741
543.209	17603
543.274	17407
543.340	18415
543.405	17859
543.471	19103
543.536	17795
543.602	19131
543.667	17044
543.732	19094
543.798	18628
543.863	19885
543.928	18052
543.994	18193
544.059	18752
544.124	20559
544.190	19684
544.255	20495
544.320	21327
544.386	20401
544.451	20925
544.516	20849
544.581	20329
544.646	21847
544.712	23051
544.777	21989
544.842	21326
544.907	20721
544.972	21042
545.037	23761
545.102	22613
545.168	23154
545.233	24767
545.298	24064
545.363	23950
545.428	25124
545.493	26421
545.558	25774
545.623	24567
545.688	24330
545.753	27744
545.818	27432
545.883	29724
545.947	30197
546.012	31802
546.077	31163
546.142	33786
546.207	34931
546.272	37283
546.337	35695
546.401	38423
546.466	39990
546.531	40592
546.596	45895
546.661	46688
546.725	49944
546.790	52074
546.855	57652
546.919	62611
546.984	70081
547.049	75917
547.113	85366
547.178	95284
547.243	107138
547.307	124604
547.372	136244
547.436	136838
547.501	146368
547.565	154443
547.630	140434
547.695	136160
547.759	137402
547.823	138306
547.888	142018
547.952	146263
548.017	152727
548.081	158150
548.146	152351
548.210	159867
548.274	171801
548.339	162843
548.403	149804
548.468	141023
548.532	140944
548.596	143747
548.660	145490
548.725	161908
548.789	170795
548.853	163664
548.917	159935
548.982	151585
549.046	136873
549.110	126030
549.174	133116
549.238	155920
549.303	168287
549.367	169025
549.431	158996
549.495	149938
549.559	151273
549.623	179486
549.687	189258
549.751	190116
549.815	225580
549.879	222526
549.943	217288
550.007	225341
550.071	220478
550.135	197860
550.199	191401
550.263	186552
550.327	177186
550.391	184716
550.455	204246
550.519	213215
550.582	230394
550.646	257685
550.710	259308
550.774	255835
550.838	262055
550.901	271183
550.965	287219
551.029	306486
551.093	331093
551.156	367893
551.220	407251
551.284	411382
551.347	329253
551.411	282635
551.475	272587
551.538	273218
551.602	251253
551.666	238660
551.729	225749
551.793	219859
551.856	214845
551.920	212913
551.983	210721
552.047	209025
552.110	211062
552.174	212375
552.237	217333
552.301	199047
552.364	190993
552.428	185755
552.491	195961
552.554	196146
552.618	195552
552.681	198797
552.745	190967
552.808	198628
552.871	206660
552.934	201905
552.998	194569
553.061	190827
553.124	183014
553.187	182872
553.251	188338
553.314	187358
553.377	191045
553.440	204968
553.503	209480
553.567	206514
553.630	203685
553.693	200787
553.756	201875
553.819	194732
553.882	187069
553.945	190013
554.008	188734
554.071	193184
554.134	191362
554.197	179956
554.260	175962
554.323	182234
554.386	185452
554.449	192799
554.512	189990
554.575	183673
554.638	180826
554.701	180484
554.764	178332
554.827	171382
554.889	163671
554.952	154585
555.015	151560
555.078	156217
555.141	158424
555.203	153685
555.266	152909
555.329	151060
555.391	146221
555.454	145237
555.517	141200
555.580	137718
555.642	131263
555.705	129032
555.768	126227
555.830	123335
555.893	117127
555.955	115143
556.018	114214
556.080	113624
556.143	118520
556.206	114282
556.268	112960
556.330	109313
556.393	106233
556.455	104926
556.518	102360
556.580	97153
556.643	94927
556.705	94274
556.767	91695
556.830	91862
556.892	88845
556.955	89305
557.017	87035
557.079	86214
557.142	84128
557.204	83952
557.266	85578
557.328	79058
557.391	73960
557.453	71327
557.515	72374
557.577	73420
557.639	75393
557.701	75211
557.764	74870
557.826	75762
557.888	78338
557.950	82770
558.012	92216
558.074	132100
558.136	322431
558.198	542681
558.260	184852
558.322	90342
558.384	87730
558.446	91015
558.508	96942
558.570	106081
558.632	128541
558.694	171732
558.756	317345
558.818	753005
558.880	1006102
558.942	585724
559.003	600511
559.065	263679
559.127	126071
559.189	115277
559.251	129508
559.312	201298
559.374	484745
559.436	868001
559.498	436660
559.559	148635
559.621	118089
559.683	138167
559.744	243604
559.806	635318
559.868	644609
559.929	193925
559.991	142289
560.052	257046
560.114	562303
560.176	323086
560.237	396434
560.299	451525
560.360	106889
560.422	52148
560.483	43504
560.545	39958
560.606	37384
560.667	36407
560.729	34495
560.790	31796
560.852	32519
560.913	29766
560.974	29672
561.036	28663
561.097	29038
561.158	28242
561.220	28123
561.281	26737
561.342	26415
561.403	26875
561.465	26065
561.526	26149
561.587	25825
561.648	22770
561.709	23642
561.771	23990
561.832	22136
561.893	23013
561.954	22023
562.015	22467
562.076	21744
562.137	21464
562.198	21353
562.259	21869
562.320	22833
562.381	21770
562.442	21237
562.503	20834
562.564	20701
562.625	20803
562.686	20160
562.747	20238
562.808	20507
562.869	20060
562.930	19909
562.991	20407
563.051	19170
563.112	18669
563.173	18869
563.234	18755
563.294	19218
563.355	18391
563.416	18062
563.477	18159
563.537	17637
563.598	17429
563.659	18240
563.720	17163
563.780	18095
563.841	17431
563.901	17432
563.962	17268
564.023	17619
564.083	17555
564.144	15675
564.204	16710
564.265	16912
564.325	16668
564.386	17149
564.446	16370
564.507	15259
564.567	15991
564.628	16116
564.688	16356
564.749	16076
564.809	15663
564.869	16183
564.930	16227
564.990	16710
565.050	14696
565.111	15483
565.171	15515
565.231	15512
565.292	16203
565.352	15935
565.412	15599
565.472	15640
565.532	16083
565.593	14792
565.653	14319
565.713	15056
565.773	15100
565.833	15396
565.893	16486
565.953	14493
566.013	14801
566.074	13790
566.134	14341
566.194	14366
566.254	14137
566.314	15084
566.374	13689
566.434	14225
566.494	14453
566.554	14087
566.614	14568
566.673	15985
566.733	15819
566.793	16320
566.853	15256
566.913	15712
566.973	15153
567.033	15830
567.092	14738
567.152	14924
567.212	15654
567.272	15766
567.331	15561
567.391	15543
567.451	16780
567.511	16546
567.570	16281
567.630	15938
567.690	14737
567.749	15311
567.809	16673
567.868	15465
567.928	14477
567.988	15435
568.047	15590
568.107	15827
568.166	14785
568.226	15222
568.285	16311
568.345	16609
568.404	15616
568.464	15500
568.523	15174
568.582	15579
568.642	14757
568.701	14344
568.761	15174
568.820	14580
568.879	13918
568.939	14473
568.998	14931
569.057	14555
569.116	15503
569.176	14885
569.235	15098
569.294	14851
569.353	13905
569.413	15195
569.472	14662
569.531	13361
569.590	13900
569.649	14861
569.708	13954
569.767	15078
569.827	13839
569.886	13522
569.945	14989
570.004	14971
570.063	14003
570.122	15486
570.181	15366
570.240	14854
570.299	15711
570.358	15906
570.417	15112
570.475	16137
570.534	17409
570.593	16039
570.652	15740
570.711	15710
570.770	14847
570.829	14981
570.887	14305
570.946	15822
571.005	15019
571.064	15877
571.122	15676
571.181	15151
571.240	14887
571.299	15165
571.357	14745
571.416	14890
571.475	15883
571.533	16744
571.592	16501
571.650	17341
571.709	18124
571.768	20923
571.826	20815
571.885	19108
571.943	17319
572.002	15272
572.060	14994
572.119	15362
572.177	15231
572.236	16142
572.294	16418
572.352	17017
572.411	17146
572.469	16443
572.528	15236
572.586	14752
572.644	13972
572.703	14834
572.761	13820
572.819	14134
572.877	12825
572.936	12827
572.994	13454
573.052	14143
573.110	13450
573.169	15387
573.227	15720
573.285	15120
573.343	14444
573.401	14594
573.459	15773
573.517	16209
573.576	16200
573.634	15563
573.692	16068
573.750	16540
573.808	14795
573.866	14367
573.924	13419
573.982	13279
574.040	14428
574.098	14797
574.155	13469
574.213	13858
574.271	15106
574.329	17131
574.387	15205
574.445	13968
574.503	13377
574.560	13701
574.618	14383
574.676	13781
574.734	12963
574.792	13898
574.849	11532
574.907	11451
574.965	10095
575.022	10323
575.080	9900
575.138	10840
575.195	10301
575.253	10701
575.311	10455
575.368	10639
575.426	10788
575.483	11325
575.541	12055
575.598	11199
575.656	11635
575.713	11673
575.771	13616
575.828	12535
575.886	11151
575.943	11935
576.001	9496
576.058	10064
576.115	10907
576.173	11533
576.230	11409
576.287	11498
576.345	10963
576.402	10968
576.459	11882
576.517	10850
576.574	9435
576.631	10325
576.688	9613
576.746	9433
576.803	9142
576.860	9462
576.917	10070
576.974	9077
577.031	10329
577.089	10005
577.146	9238
577.203	8518
577.260	9291
577.317	9402
577.374	9174
577.431	9422
577.488	10401
577.545	8860
577.602	10068
577.659	9432
577.716	9148
577.773	9244
577.830	9153
577.886	8106
577.943	9139
578.000	9101
578.057	8555
578.114	8758
578.171	8529
578.227	9250
578.284	8163
578.341	9636
578.398	10079
578.454	9582
578.511	9406
578.568	10283
578.625	8850
578.681	9674
578.738	9481
578.794	8943
578.851	9348
578.908	9462
578.964	8018
579.021	9677
579.077	9165
579.134	9829
579.190	8903
579.247	9409
579.303	9521
579.360	8940
579.416	9032
579.473	9528
579.529	9391
579.586	9640
579.642	9289
579.698	9514
579.755	9162
579.811	10197
579.867	9470
579.924	9905
579.980	9834
580.036	10710
580.093	9850
580.149	10304
580.205	10557
580.261	11086
580.317	11651
580.374	10958
580.430	11256
580.486	11111
580.542	9472
580.598	10694
580.619	10835
580.654	11086
580.692	10775
580.710	10632
580.765	10787
580.767	10797
580.823	10881
580.838	11012
580.879	11383
580.911	11576
580.935	11716
580.984	10750
580.991	10629
581.047	12095
581.057	11858
581.103	10807
581.130	10661
581.159	10482
581.203	10799
581.215	10900
581.270	10868
581.276	10815
581.326	10304
581.349	10426
581.382	10645
581.422	10689
581.438	10716
581.494	10267
581.494	10257
581.550	9040
581.567	9474
581.606	10439
581.640	10553
581.661	10648
581.713	11113
581.717	11148
581.773	10460
581.786	10443
581.829	10420
581.859	10513
581.885	10589
581.932	11249
581.940	11367
581.996	10908
582.004	11034
582.052	11676
582.077	10842
582.107	9888
582.150	10700
582.163	10949
582.219	9835
582.223	9930
582.274	11011
582.296	10916
582.330	10906
582.368	10655
582.386	10496
582.441	11107
582.441	11106
582.497	10607
582.514	10610
582.552	10627
582.587	10845
582.608	10990
582.659	10352
582.663	10302
582.719	11943
582.732	11851
582.774	11582
582.805	11683
582.830	11767
582.877	11724
582.885	11689
582.941	11615
582.950	11687
582.996	12103
583.023	11984
583.052	12032
583.095	12175
583.107	12120
583.162	12262
583.168	12199
583.218	11694
583.240	11685
583.273	11677
583.313	11629
583.328	11658
583.384	12252
583.385	12246
583.439	11854
583.458	11689
583.494	11481
583.531	11504
583.549	11555
583.603	11559
583.605	11553
583.660	12152
583.676	12211
583.715	12492
583.748	12773
583.770	12959
583.820	12991
583.825	12978
583.881	12606
583.893	12558
583.936	12560
583.965	12458
583.991	12325
584.038	13317
584.046	13510
584.101	13154
584.110	13215
584.156	13400
584.183	13392
584.211	13442
584.255	13906
584.266	14068
584.321	14568
584.328	14545
584.376	14424
584.400	14621
584.431	14704
584.472	14984
584.486	15170
584.541	16306
584.545	16303
584.596	16086
584.617	16197
584.651	16902
584.689	18033
584.706	18294
584.761	18813
584.762	18809
584.816	20005
584.834	20600
584.871	21304
584.906	21435
584.926	21786
584.978	23579
584.980	23669
585.035	26041
585.051	26775
585.090	29167
585.123	31340
585.145	32775
585.195	36041
585.200	36582
585.254	43572
585.267	45384
585.309	51051
585.340	56173
585.364	61560
585.412	72739
585.419	74950
585.473	98550
585.484	104738
585.528	140911
585.556	176980
585.583	240082
585.628	383246
585.637	425835
585.692	767558
585.700	803939
585.747	901479
585.772	822263
585.801	593634
585.845	316778
585.856	273258
585.910	141482
585.917	128325
585.965	91488
585.989	75525
586.019	65318
586.061	53883
586.074	51808
586.128	45110
586.133	44530
586.183	40877
586.205	39101
586.237	37498
586.277	36413
586.292	36105
586.346	34484
586.349	34385
586.401	34228
586.421	33921
586.455	33406
586.493	32920
586.509	33350
586.564	34848
586.565	34853
586.618	37608
586.637	38903
586.672	43655
586.709	49229
586.727	52161
586.781	58735
586.781	58801
586.835	48989
586.853	46253
586.889	40822
586.925	36083
586.944	35101
586.996	33946
586.998	33987
587.052	33189
587.068	32823
587.106	32901
587.140	33213
587.161	33377
587.212	33515
587.215	33569
587.269	33207
587.284	33243
587.323	34094
587.356	34476
587.377	34903
587.427	35955
587.431	36046
587.485	35994
587.499	36133
587.539	37519
587.571	38293
587.593	39122
587.643	40941
587.648	41103
587.702	41504
587.715	41543
587.755	41677
587.786	41738
587.810	41995
587.858	42124
587.864	42252
587.917	43062
587.930	43017
587.971	42600
588.001	42523
588.025	42850
588.073	42926
588.079	43016
588.133	42931
588.145	42969
588.187	43428
588.217	43215
588.241	43603
588.288	45002
588.295	45285
588.348	46065
588.360	46261
588.402	46943
588.431	46868
588.456	47106
588.503	47946
588.510	48413
588.564	51262
588.575	51750
588.617	53544
588.646	54801
588.671	55923
588.718	57837
588.725	58591
588.778	65328
588.789	67067
588.832	90307
588.861	108910
588.886	155135
588.932	257011
588.939	268333
588.993	330689
589.004	332856
589.047	179440
589.075	92867
589.100	78570
589.147	57682
589.154	57439
589.207	53932
589.218	53290
589.261	55012
589.290	56082
589.314	56889
589.361	58892
589.368	60397
589.421	72873
589.433	76044
589.475	117506
589.504	150356
589.528	198626
589.576	291133
589.582	281602
589.635	153131
589.647	128901
589.689	84980
589.718	56382
589.742	54738
589.790	51172
589.795	51325
589.849	51657
589.861	51621
589.902	51950
589.932	51830
589.955	51284
590.004	50042
590.009	50223
590.062	50709
590.075	50682
590.115	50862
590.146	50747
590.168	50684
590.218	50319
590.222	50574
590.275	52176
590.289	52400
590.328	52887
590.360	53130
590.381	53713
590.431	54579
590.435	54807
590.488	56129
590.503	56361
590.541	56262
590.574	55822
590.594	56978
590.645	59754
590.647	60020
590.700	62567
590.716	63111
590.753	64307
590.787	65347
590.806	66408
590.859	68374
590.859	68585
590.912	69673
590.930	69942
590.965	70688
591.001	70855
591.018	70750
591.071	69972
591.072	69761
591.124	69032
591.143	68671
591.177	70016
591.214	71010
591.230	71418
591.283	71997
591.285	71805
591.336	71343
591.356	70932
591.389	71254
591.427	70968
591.442	71029
591.495	70732
591.498	70496
591.547	71155
591.569	71161
591.600	72170
591.640	73006
591.653	73621
591.706	75286
591.711	75246
591.759	76933
591.782	77449
591.811	79781
591.853	82529
591.864	82684
591.917	82246
591.924	81913
591.969	83112
591.995	83429
592.022	83710
592.066	83540
592.075	84188
592.127	86544
592.137	86716
592.180	88760
592.208	89658
592.233	90867
592.279	92317
592.285	93025
592.338	96574
592.350	97073
592.390	96663
592.421	95838
592.443	97024
592.491	98660
592.495	99100
592.548	100860
592.562	101032
592.600	101347
592.633	101011
592.653	101396
592.704	100998
592.705	101614
592.775	103315
592.846	107283
592.916	107323
592.987	108137
593.058	109492
593.128	110976
593.199	111114
593.270	112029
593.341	114414
593.411	117464
593.482	122610
593.553	126903
593.623	126481
593.694	132219
593.764	134310
593.835	133912
593.906	134631
593.976	137678
594.047	141959
594.117	148781
594.188	151969
594.258	151041
594.329	150563
594.399	155769
594.470	161082
594.540	166038
594.611	168861
594.681	167149
594.751	166915
594.822	174481
594.892	181608
594.963	187396
595.033	191743
595.103	197375
595.174	199057
595.244	203177
595.314	208973
595.384	215981
595.455	220884
595.525	227718
595.595	237667
595.665	237200
595.736	229955
595.806	236284
595.876	239946
595.946	241478
596.016	249857
596.087	258111
596.157	259062
596.227	260909
596.297	275049
596.367	293066
596.437	308319
596.507	307309
596.577	305170
596.647	315509
596.717	333653
596.787	339276
596.857	336196
596.927	338836
596.997	339947
597.067	346907
597.137	351070
597.207	352070
597.277	355831
597.347	339495
597.417	328710
597.487	330283
597.557	336949
597.626	347911
597.696	350710
597.766	348860
597.836	326788
597.906	312238
597.975	304322
598.045	311898
598.115	322476
598.185	348760
598.254	387724
598.324	417808
598.394	428859
598.464	413875
598.533	406551
598.603	380953
598.672	368096
598.742	380785
598.812	377418
598.881	390985
598.951	384428
599.020	392090
599.090	407856
599.159	413431
599.229	396375
599.299	388863
599.368	397633
599.437	392704
599.507	361100
599.576	348612
599.646	341948
599.715	335936
599.785	336806
599.854	325258
599.924	321175
599.993	320369
600.062	325785
600.132	333210
600.201	353001
600.270	409388
600.340	432289
600.409	424707
600.478	419139
600.547	429824
600.617	386461
600.686	307849
600.755	278001
600.824	264323
600.894	256332
600.963	257955
601.032	254059
601.101	244301
601.170	231608
601.239	224580
601.308	223238
601.378	222736
601.447	224635
601.516	226329
601.585	226887
601.654	230793
601.723	230920
601.792	237933
601.861	245775
601.930	253938
601.999	257689
602.068	256051
602.137	258762
602.206	262878
602.275	267177
602.343	272256
602.412	272093
602.481	274754
602.550	278342
602.619	287955
602.688	288465
602.756	291613
602.825	295547
602.894	303314
602.963	309377
603.032	314231
603.100	314367
603.169	314560
603.238	317907
603.307	318236
603.375	323282
603.444	332272
603.513	337038
603.581	341964
603.650	345926
603.719	340093
603.787	352140
603.856	362670
603.924	372191
603.993	386813
604.061	395942
604.130	416804
604.198	423595
604.267	430287
604.335	437448
604.404	445931
604.472	449374
604.541	454114
604.609	458079
604.678	458063
604.746	460106
604.815	474929
604.883	482296
604.951	479913
605.020	488330
605.088	498762
605.156	510054
605.225	520429
605.293	518820
605.361	522276
605.429	525290
605.498	534829
605.566	547822
605.634	571745
605.702	593026
605.771	609615
605.839	607950
605.907	599510
605.975	578537
606.043	569120
606.111	570304
606.180	570641
606.248	561776
606.316	558322
606.384	552455
606.452	561555
606.520	574735
606.588	595916
606.656	600287
606.724	588363
606.792	556274
606.860	506896
606.928	463373
606.996	444477
607.064	438674
607.132	452609
607.200	477643
607.267	490515
607.335	501509
607.403	510692
607.471	493338
607.539	478682
607.607	484126
607.674	428586
607.742	425862
607.810	423464
607.878	427116
607.946	435529
608.013	454159
608.081	461069
608.149	465224
608.216	481176
608.284	495676
608.352	496731
608.419	492712
608.487	480687
608.555	474786
608.622	489016
608.690	519064
608.757	568097
608.825	578766
608.893	562759
608.960	533701
609.028	511689
609.095	511538
609.163	508922
609.230	458408
609.298	419264
609.365	446148
609.432	478757
609.500	512879
609.567	585219
609.635	659543
609.702	687851
609.769	656415
609.837	521621
609.904	458572
609.971	475113
610.039	514995
610.106	622720
610.173	942398
610.241	1511014
610.308	1151509
610.375	649979
610.442	523172
610.509	487827
610.577	481787
610.644	483185
610.711	498545
610.778	506982
610.845	527854
610.912	559331
610.980	577021
611.047	577645
611.114	564780
611.181	550834
611.248	547994
611.315	578384
611.382	590405
611.449	612020
611.516	619276
611.583	614056
611.650	617646
611.717	625538
611.784	639992
611.851	663998
611.918	694277
611.984	781505
612.051	954386
612.118	1315280
612.185	1919496
612.252	1656775
612.319	1033872
612.386	863738
612.452	765327
612.519	714899
612.586	690639
612.653	697305
612.719	716757
612.786	687482
612.853	642399
612.919	630612
612.986	637904
613.053	606501
613.120	571020
613.186	554304
613.253	552866
613.319	552626
613.386	556603
613.453	564811
613.519	565346
613.586	556286
613.652	560395
613.719	554247
613.785	565112
613.852	574966
613.918	570088
613.985	573286
614.051	594463
614.118	589118
614.184	566314
614.250	565925
614.317	576210
614.383	570131
614.449	581446
614.516	577176
614.582	581082
614.648	568768
614.715	566365
614.781	554456
614.847	553053
614.914	552125
614.980	537816
615.046	538989
615.112	554758
615.179	559109
615.245	561782
615.311	556429
615.377	563049
615.443	571924
615.509	579807
615.575	600724
615.642	597894
615.708	608396
615.774	636190
615.840	671419
615.906	709945
615.972	812036
616.038	1018251
616.104	1491004
616.170	2036238
616.236	1909600
616.302	1289825
616.368	1069836
616.434	859294
616.500	774577
616.565	817395
616.631	969941
616.697	870759
616.763	849912
616.829	1081419
616.895	1582956
616.961	1563953
617.026	977077
617.092	731065
617.158	643949
617.224	610234
617.289	556807
617.355	523635
617.421	516310
617.487	511440
617.552	483805
617.618	477689
617.684	479147
617.749	479379
617.815	458335
617.880	445534
617.946	447541
618.012	456205
618.077	465393
618.143	445273
618.208	448434
618.274	478531
618.339	481397
618.405	398137
618.470	397989
618.536	398008
618.601	388115
618.667	361371
618.732	341345
618.798	337454
618.863	338742
618.928	334811
618.994	338168
619.059	332349
619.124	339389
619.190	335818
619.255	332488
619.320	333475
619.386	333542
619.451	332214
619.516	319381
619.581	325700
619.647	337857
619.712	332188
619.777	318152
619.842	320455
619.907	328626
619.972	333813
620.038	331434
620.103	320284
620.168	321133
620.233	327505
620.298	327407
620.363	333634
620.428	341580
620.493	350603
620.558	355222
620.623	358786
620.688	357989
620.753	354960
620.818	362664
620.883	362898
620.948	363528
621.013	358896
621.078	352927
621.143	358903
621.207	361832
621.272	353876
621.337	345674
621.402	339535
621.467	335439
621.532	334442
621.596	339356
621.661	326581
621.726	324685
621.791	328057
621.855	328791
621.920	322590
621.985	330320
622.049	337104
622.114	338640
622.179	344506
622.243	351388
622.308	363669
622.373	375044
622.437	367998
622.502	348223
622.566	344289
622.631	346634
622.695	352641
622.760	348427
622.824	348165
622.889	350169
622.953	347866
623.018	371583
623.082	375902
623.147	375231
623.211	361499
623.276	362570
623.340	350515
623.404	339411
623.469	337691
623.533	345402
623.597	335004
623.662	333490
623.726	308997
623.790	289942
623.854	283612
623.919	287586
623.983	292389
624.047	297480
624.111	298332
624.176	305708
624.240	307613
624.304	316656
624.368	306557
624.432	306244
624.496	314073
624.560	332423
624.625	337306
624.689	330214
624.753	350798
624.817	330578
624.881	324933
624.945	292813
625.009	280593
625.073	288457
625.137	299949
625.201	313072
625.265	313590
625.329	300739
625.393	302973
625.456	308426
625.520	317230
625.584	321875
625.648	331707
625.712	338896
625.776	337201
625.839	316601
625.903	267909
625.967	252772
626.031	267584
626.095	320205
626.158	300783
626.222	234570
626.286	216935
626.349	208473
626.413	195147
626.477	193778
626.540	199930
626.604	197781
626.668	190375
626.731	190170
626.795	192299
626.858	192330
626.922	189485
626.986	187616
627.049	187977
627.113	196324
627.176	189902
627.240	183858
627.303	185489
627.366	186051
627.430	188115
627.493	184724
627.557	182147
627.620	185780
627.684	196142
627.747	197560
627.810	179299
627.874	161719
627.937	155019
628.000	162038
628.064	155893
628.127	140390
628.190	138676
628.253	134367
628.317	128015
628.380	122555
628.443	119843
628.506	118197
628.569	113564
628.632	107913
628.696	109397
628.759	108735
628.822	103479
628.885	101527
628.948	99918
629.011	98277
629.074	94952
629.137	92395
629.200	90523
629.263	90945
629.326	88521
629.389	88809
629.452	89670
629.515	87405
629.578	86172
629.641	87830
629.704	88725
629.767	86775
629.830	83370
629.892	83260
629.955	81853
630.018	85724
630.081	82322
630.144	84037
630.207	81352
630.269	82906
630.332	80431
630.395	80182
630.458	77903
630.520	75367
630.583	77596
630.646	78485
630.708	78618
630.771	79452
630.834	85903
630.896	84242
630.959	83689
631.021	81276
631.084	81120
631.146	82869
631.209	84222
631.272	82951
631.334	85986
631.397	87566
631.459	88646
631.522	93084
631.584	97776
631.646	103974
631.709	106016
631.771	107782
631.834	101435
631.896	97394
631.958	90112
632.021	89636
632.083	83785
632.145	82326
632.208	80426
632.270	80616
632.332	79743
632.395	77677
632.457	80294
632.519	77708
632.581	77590
632.643	75063
632.706	76875
632.768	74670
632.830	76971
632.892	81228
632.954	80334
633.016	80690
633.078	78858
633.141	78560
633.203	79301
633.265	79592
633.327	77382
633.389	78707
633.451	81083
633.513	80112
633.575	83224
633.637	81773
633.698	83795
633.760	89323
633.822	93562
633.884	97047
633.946	98903
634.008	102871
634.070	106565
634.132	113954
634.193	123208
634.255	132861
634.317	135822
634.379	133113
634.441	120278
634.502	109850
634.564	100203
634.626	91456
634.687	86870
634.749	82344
634.811	81491
634.873	80538
634.934	80073
634.996	80376
635.057	81101
635.119	81957
635.181	84945
635.242	86096
635.304	83184
635.365	86341
635.427	82950
635.488	84871
635.550	83111
635.611	85864
635.673	86972
635.734	95369
635.796	99933
635.857	111052
635.918	117776
635.980	129744
636.041	137268
636.102	147471
636.164	146615
636.225	140200
636.286	122425
636.348	111389
636.409	98493
636.470	90904
636.531	87071
636.593	83601
636.654	78635
636.715	75472
636.776	73798
636.838	72569
636.899	69246
636.960	67932
637.021	66631
637.082	65774
637.143	64967
637.204	63900
637.265	62759
637.326	64261
637.387	64896
637.448	62769
637.509	63857
637.570	62994
637.631	62928
637.692	59972
637.753	57947
637.814	58209
637.875	57074
637.936	60084
637.997	57679
638.058	56693
638.119	56435
638.179	57778
638.240	57452
638.301	58600
638.362	55128
638.423	54060
638.483	54811
638.544	50527
638.605	53173
638.666	52656
638.726	51432
638.787	52698
638.848	53356
638.908	51856
638.969	49007
639.030	48313
639.090	48273
639.151	48973
639.211	52068
639.272	51261
639.332	51900
639.393	54219
639.453	58555
639.514	60853
639.574	52979
639.635	47037
639.695	46998
639.756	45790
639.816	45157
639.877	45227
639.937	47027
639.997	46857
640.058	45207
640.118	46717
640.178	46736
640.239	46536
640.299	47133
640.359	48631
640.420	51837
640.480	59606
640.540	68245
640.600	70308
640.661	64311
640.721	60333
640.781	64418
640.841	58721
640.901	50942
640.961	49296
641.021	51161
641.082	56313
641.142	50776
641.202	46499
641.262	43189
641.322	44724
641.382	42684
641.442	44250
641.502	43167
641.562	44691
641.622	45190
641.682	51291
641.742	58925
641.802	55079
641.861	46982
641.921	42733
641.981	42455
642.041	39784
642.101	38140
642.161	38426
642.221	39541
642.280	40552
642.340	40438
642.400	40625
642.460	42860
642.519	42616
642.579	42256
642.639	44048
642.698	41959
642.758	45785
642.818	43953
642.877	43457
642.937	42170
642.997	43552
643.056	43398
643.116	41807
643.175	46201
643.235	45682
643.294	48338
643.354	51900
643.414	56447
643.473	64251
643.532	76403
643.592	99610
643.651	143562
643.711	231034
643.770	405334
643.830	792847
643.889	1149481
643.948	566647
644.008	191335
644.067	110133
644.126	78041
644.186	65572
644.245	56663
644.304	51285
644.363	50443
644.423	46425
644.482	47481
644.541	50154
644.600	51625
644.659	64043
644.719	79809
644.778	111623
644.837	180477
644.896	346733
644.955	673085
645.014	284327
645.073	90458
645.132	64368
645.191	58051
645.250	54012
645.309	57503
645.368	61928
645.427	83615
645.486	146745
645.545	253318
645.604	82058
645.663	49465
645.722	48800
645.781	52896
645.840	56507
645.898	67300
645.957	89316
646.016	131521
646.075	215740
646.134	382870
646.192	790827
646.251	956948
646.310	344590
646.369	131377
646.427	100023
646.486	72612
646.545	55790
646.603	47585
646.662	45285
646.721	42673
646.779	42906
646.838	44864
646.896	54385
646.955	71864
647.014	112340
647.072	208200
647.131	505114
647.189	270196
647.248	60764
647.306	41332
647.365	37156
647.423	32542
647.481	33547
647.540	30898
647.598	31534
647.657	31507
647.715	31735
647.773	29370
647.832	30405
647.890	26324
647.948	26855
648.007	26269
648.065	24561
648.123	25029
648.181	26258
648.240	26410
648.298	24018
648.356	24727
648.414	25620
648.472	24194
648.531	23588
648.589	23912
648.647	24478
648.705	25252
648.763	24953
648.821	25740
648.879	27366
648.937	30130
648.995	36613
649.053	47062
649.111	65148
649.169	101463
649.227	173765
649.285	345304
649.343	754298
649.401	443270
649.459	102883
649.516	55219
649.574	42459
649.632	41769
649.690	45988
649.748	56026
649.806	81595
649.863	148908
649.921	385776
649.979	274564
650.037	50469
650.094	28102
650.152	26288
650.210	22557
650.268	23011
650.325	23410
650.383	26086
650.440	19308
650.498	19361
650.556	19244
650.613	18316
650.671	18535
650.728	20365
650.786	22502
650.843	33737
650.901	23414
650.958	17155
651.016	16479
651.073	16156
651.131	15432
651.188	15762
651.246	14783
651.303	13901
651.360	15182
651.418	15058
651.475	14744
651.532	14441
651.590	15222
651.647	13195
651.704	14463
651.762	13653
651.819	13860
651.876	14142
651.933	13442
651.990	13991
652.048	12570
652.105	12914
652.162	13523
652.219	13039
652.276	13632
652.333	13184
652.390	11925
652.448	13601
652.505	12541
652.562	12341
652.619	11874
652.676	13353
652.733	12915
652.790	11947
652.847	11494
652.904	12401
652.961	10420
653.017	11619
653.074	12881
653.131	12283
653.188	11199
653.245	12227
653.302	12044
653.359	12096
653.415	12422
653.472	11651
653.529	12824
653.586	11255
653.642	11448
653.699	12171
653.756	10083
653.813	12124
653.869	12433
653.926	13150
653.983	12084
654.039	12475
654.096	11765
654.152	12596
654.209	10021
654.266	12233
654.322	10058
654.379	11595
654.435	11214
654.492	10802
654.548	11281
654.605	10257
654.661	12305
654.717	11313
654.774	10528
654.830	10626
654.887	10767
654.943	12561
655.000	13540
655.056	13040
655.112	11000
655.168	10395
655.225	12148
655.281	12232
655.337	12141
655.394	11708
655.450	10030
655.506	10002
655.562	9770
655.618	11602
655.675	9425
655.731	10534
655.787	9872
655.843	10679
655.899	10355
655.955	11996
656.011	11753
656.067	10016
656.123	11152
656.179	10351
656.235	11951
656.291	9833
656.347	12395
656.403	10313
656.459	10300
656.515	10824
656.571	9472
656.627	10384
656.683	9986
656.739	10765
656.795	9450
656.850	10696
656.906	10799
656.962	11650
657.018	12476
657.074	14888
657.129	21479
657.185	34644
657.241	77138
657.297	44311
657.352	13156
657.408	9826
657.464	11387
657.519	9069
657.575	8650
657.630	8780
657.686	9113
657.742	8379
657.797	9291
657.853	9114
657.908	9932
657.964	8333
658.019	10130
658.075	9296
658.130	9202
658.186	8686
658.241	8428
658.297	7851
658.352	8229
658.407	9236
658.463	7772
658.518	8068
658.573	8508
658.629	8142
658.684	8360
658.739	8511
658.795	7136
658.850	9027
658.905	8008
658.960	9067
659.016	6615
659.071	7653
659.126	7573
659.181	8326
659.236	8120
659.291	8446
659.346	7657
659.401	8086
659.457	8132
659.512	7021
659.567	8539
659.622	7696
659.677	7213
659.732	6781
659.787	7280
659.842	6466
659.897	7528
659.952	7869
660.007	7624
660.061	7847
660.116	5821
660.171	7403
660.226	7420
660.281	9077
660.336	6380
660.391	8517
660.445	6805
660.500	8023
660.555	7199
660.610	7038
660.664	7948
660.719	6842
660.774	6057
660.828	7764
660.883	6956
660.938	6808
660.992	6524
661.047	7069
661.101	6551
661.156	6485
661.211	6378
661.265	7255
661.320	6002
661.374	7023
661.429	6933
661.483	7492
661.538	5663
661.592	6585
661.647	7860
661.701	10101
661.755	7134
661.810	6637
661.864	5839
661.919	5769
661.973	7049
662.027	6496
662.081	6112
662.136	7043
662.190	5804
662.244	6865
662.299	6941
662.353	7397
662.407	6953
662.461	6832
662.515	7089
662.569	6841
662.624	6982
662.678	6044
662.732	6692
662.786	6392
662.840	6428
662.894	8050
662.948	6361
663.002	6005
663.056	6282
663.110	6625
663.164	7876
663.218	7083
663.272	6879
663.326	7054
663.380	6820
663.434	7387
663.488	6258
663.542	7865
663.595	6414
663.649	7263
663.703	6814
663.757	6898
663.811	6312
663.864	6925
663.918	6981
663.972	6188
664.026	6440
664.079	7100
664.133	7427
664.187	7829
664.240	7226
664.294	7072
664.348	7705
664.401	7469
664.455	6902
664.508	7170
664.562	7089
664.615	6954
664.669	5712
664.722	6627
664.776	6199
664.829	6023
664.883	6605
664.936	6444
664.990	6391
665.043	7645
665.097	6819
665.150	8550
665.203	7127
665.257	7051
665.310	7899
665.363	7659
665.417	7496
665.470	8265
665.523	7674
665.576	7849
665.630	7998
665.683	7953
665.736	7824
665.789	8034
665.842	7094
665.895	7934
665.949	8125
666.002	7077
666.055	7874
666.108	8335
666.161	8594
666.214	7738
666.267	7877
666.320	8947
666.373	8580
666.426	9604
666.479	8069
666.532	8954
666.585	9665
666.638	9342
666.691	8211
666.744	8549
666.796	8399
666.849	7931
666.902	8291
666.955	7868
667.008	7671
667.060	8152
667.113	8229
667.166	8911
667.219	8808
667.271	9234
667.324	9403
667.377	8700
667.430	8580
667.482	8113
667.535	8670
667.587	8599
667.640	7930
667.693	8032
667.745	8393
667.798	8461
667.850	8183
667.903	8818
667.955	8321
668.008	8408
668.060	8350
668.113	7475
668.165	7722
668.218	8061
668.270	7517
668.322	8372
668.375	7784
668.427	8355
668.479	7202
668.532	9116
668.584	7622
668.636	7110
668.689	7416
668.741	7075
668.793	7867
668.845	7974
668.898	7732
668.950	8037
669.002	7803
669.054	7895
669.106	7884
669.158	7717
669.211	6776
669.263	7386
669.315	6500
669.367	7777
669.419	5958
669.471	7874
669.523	7085
669.575	7336
669.627	6506
669.679	7534
669.731	7063
669.783	7408
669.835	7594
669.886	6653
669.938	7113
669.990	7858
670.042	6313
670.094	6504
670.146	6553
670.197	7439
670.249	8079
670.301	7054
670.353	8243
670.404	8764
670.456	8033
670.508	10875
670.560	13966
670.611	19530
670.663	29294
670.715	62058
670.766	92178
670.818	29819
670.869	11083
670.921	10108
670.972	10344
671.024	9654
671.075	8135
671.127	9646
671.178	9870
671.230	11663
671.281	12709
671.333	14312
671.384	17187
671.436	23737
671.487	31826
671.538	45303
671.590	70489
671.641	111814
671.692	188612
671.744	322795
671.795	265985
671.846	126854
671.897	65714
671.949	41627
672.000	29579
672.051	22850
672.102	17879
672.153	15325
672.204	12223
672.256	11928
672.307	10118
672.358	9692
672.409	8283
672.460	8300
672.511	7276
672.562	7038
672.613	7132
672.664	6422
672.715	7482
672.766	5902
672.817	5841
672.868	6234
672.919	5757
672.970	5598
673.021	5515
673.071	5232
673.122	5597
673.173	5616
673.224	5226
673.275	5428
673.326	4833
673.376	5083
673.427	4283
673.478	5251
673.528	6117
673.579	5158
673.630	4654
673.680	6759
673.731	5532
673.782	5250
673.832	5374
673.883	5958
673.934	5247
673.984	4918
674.035	5393
674.085	5731
674.136	4583
674.186	5429
674.237	5501
674.287	6051
674.338	5648
674.388	6797
674.438	6823
674.489	7331
674.539	7343
674.589	7376
674.640	7026
674.690	6897
674.740	5987
674.791	6270
674.841	5376
674.891	4744
674.942	4373
674.992	4110
675.042	4403
675.092	4132
675.142	3847
675.193	3392
675.243	4231
675.293	5154
675.343	3964
675.393	5498
675.443	4607
675.493	4922
675.543	4140
675.593	4541
675.643	4590
675.693	5067
675.743	4353
675.793	4072
675.843	4029
675.893	4424
675.943	3247
675.993	3721
676.043	2895
676.093	4174
676.142	3627
676.192	4063
676.242	2977
676.292	4191
676.341	3419
676.391	3941
676.441	2880
676.491	3359
676.540	2695
676.590	3252
676.640	2964
676.689	4062
676.739	2034
676.789	3123
676.838	2648
676.888	4106
676.937	2378
676.987	3355
677.037	2951
677.086	3210
677.136	2863
677.185	3083
677.235	2840
677.284	3212
677.333	3527
677.383	3100
677.432	2182
677.482	3306
677.531	3035
677.580	3144
677.630	2938
677.679	3302
677.728	2997
677.778	3151
677.827	3342
677.876	3467
677.925	2832
677.975	3856
678.024	3353
678.073	3431
678.122	3397
678.171	4580
678.220	4202
678.269	6004
678.319	7034
678.368	7517
678.417	5770
678.466	4856
678.515	3544
678.564	2947
678.613	2905
678.662	2912
678.711	2808
678.760	2811
678.809	2739
678.857	3787
678.906	3078
678.955	3910
679.004	3439
679.053	3630
679.102	3710
679.151	2913
679.199	2335
679.248	3191
679.297	2243
679.346	2157
679.394	1588
679.443	2257
679.492	3470
679.540	3534
679.589	2851
679.638	3231
679.686	3441
679.735	4450
679.784	4103
679.832	6140
679.881	3603
679.929	3297
679.978	2399
680.026	3033
680.075	2728
680.123	2460
680.172	2532
680.220	3244
680.268	1891
680.317	2523
680.365	1630
680.414	2620
680.462	2227
680.510	2370
680.559	2171
680.607	2564
680.655	2414
680.703	2705
680.752	2241
680.800	2101
680.848	2190
680.896	2871
680.945	2459
680.993	1684
681.041	1863
681.089	1450
681.137	2161
681.185	2053
681.233	1539
681.258	1751
681.281	1925
681.329	2519
681.377	2471
681.380	2456
681.425	1712
681.473	3319
681.502	2785
681.521	2363
681.569	4203
681.617	2541
681.624	2703
681.665	3537
681.713	3087
681.745	3581
681.761	3778
681.809	1772
681.857	3705
681.867	3570
681.904	2987
681.952	3575
681.989	2420
682.000	2043
682.048	3501
682.096	3715
682.111	3578
682.143	3181
682.191	2388
682.233	3798
682.239	3985
682.286	2996
682.334	3233
682.354	3230
682.382	3196
682.430	4015
682.476	3716
682.477	3684
682.525	3944
682.572	3734
682.598	3477
682.620	3199
682.667	3154
682.715	4194
682.720	4162
682.763	3649
682.810	4232
682.841	3642
682.857	3301
682.905	3678
682.952	3851
682.963	3907
683.000	4001
683.047	3777
683.085	4323
683.095	4450
683.142	3927
683.190	4157
683.206	4001
683.237	3607
683.284	3925
683.328	4313
683.332	4332
683.379	4290
683.426	3522
683.449	4117
683.473	4685
683.521	4448
683.568	4797
683.571	4803
683.615	4552
683.662	4440
683.693	3966
683.709	3661
683.757	3501
683.804	5132
683.814	5097
683.851	4942
683.898	4666
683.936	4643
683.945	4631
683.992	5284
684.039	5232
684.057	5017
684.086	4524
684.133	4516
684.179	4464
684.180	4453
684.227	5196
684.274	5045
684.300	5131
684.321	5166
684.368	4553
684.415	5713
684.422	5590
684.462	4634
684.509	5278
684.543	5385
684.556	5459
684.603	5525
684.649	5221
684.665	5328
684.696	5395
684.743	4912
684.786	5766
684.790	5829
684.837	4868
684.883	6153
684.908	5432
684.930	4748
684.977	6211
685.023	5803
685.029	5853
685.070	6059
685.117	5656
685.150	5741
685.164	5785
685.210	5906
685.257	6569
685.272	6587
685.303	6609
685.350	6484
685.393	6050
685.396	5977
685.443	6247
685.490	5540
685.514	5730
685.536	6054
685.583	5408
685.629	5628
685.636	5741
685.675	6322
685.722	5974
685.757	6292
685.768	6379
685.815	5899
685.861	6251
685.878	6460
685.908	6855
685.954	6220
686.000	7338
686.000	7348
686.047	6447
686.093	7405
686.121	7432
686.139	7425
686.185	7375
686.232	6735
686.242	6816
686.278	7090
686.324	6529
686.363	6770
686.370	6806
686.416	6615
686.463	7453
686.484	7105
686.509	6705
686.555	7275
686.601	7208
686.606	7206
686.647	7257
686.693	6788
686.727	6843
686.739	6831
686.785	6908
686.831	7120
686.848	7127
686.877	7165
686.923	7914
686.969	7160
686.969	7156
687.015	7406
687.061	7800
687.090	7875
687.107	7888
687.153	8599
687.199	8678
687.211	8499
687.245	7886
687.291	8222
687.332	7590
687.336	7555
687.382	8263
687.428	8132
687.453	8396
687.474	8542
687.520	8550
687.565	9202
687.574	9158
687.611	9315
687.657	9793
687.695	10213
687.702	10367
687.748	11379
687.794	13766
687.816	13757
687.839	12841
687.885	11311
687.931	10349
687.937	10196
687.976	9716
688.022	9452
688.058	9272
688.067	9308
688.113	9005
688.158	8470
688.179	8520
688.204	8648
688.249	9064
688.295	8735
688.300	8733
688.340	8933
688.386	9164
688.421	9337
688.431	9325
688.477	9425
688.522	9515
688.542	9369
688.567	9433
688.613	9994
688.658	10548
688.663	10538
688.703	10064
688.749	9769
688.784	9541
688.794	9567
688.839	10356
688.884	10723
688.905	10491
688.930	9985
688.975	10037
689.020	9493
689.026	9469
689.065	9752
689.110	10199
689.146	9974
689.155	9927
689.201	10268
689.246	10273
689.267	10350
689.291	10338
689.336	10094
689.381	10635
689.388	10598
689.426	10385
689.471	10027
689.509	10030
689.516	10089
689.561	9869
689.606	9876
689.630	10115
689.651	10289
689.696	9898
689.741	10143
689.750	10105
689.785	10219
689.830	10484
689.871	10591
689.875	10585
689.920	10490
689.965	10263
689.992	10334
690.010	10429
690.054	10175
690.099	9904
690.112	10085
690.144	10584
690.189	9883
690.233	10096
690.233	10112
690.278	10928
690.323	10292
690.354	11176
690.367	11499
690.412	11259
690.457	11043
690.474	10961
690.501	10720
690.546	10584
690.590	10063
690.595	9991
690.635	9695
690.680	9990
690.716	9723
690.724	9714
690.769	9969
690.813	10754
690.836	10344
690.857	10151
690.902	10702
690.946	11135
690.957	11292
690.991	12189
691.035	13130
691.077	13932
691.080	13935
691.124	13524
691.168	13417
691.198	12800
691.213	12509
691.257	12123
691.301	11471
691.318	11409
691.346	11646
691.390	11161
691.434	11208
691.439	11143
691.478	10720
691.522	11269
691.559	10994
691.567	11044
691.611	11895
691.655	12238
691.680	12358
691.699	12254
691.743	11975
691.787	11890
691.800	11831
691.831	11744
691.875	11797
691.919	11499
691.921	11479
691.964	11930
692.008	12207
692.041	12196
692.052	12134
692.096	12026
692.139	12305
692.162	12084
692.183	11865
692.227	11658
692.271	11399
692.282	11300
692.315	11399
692.359	11472
692.402	11979
692.403	12006
692.447	12200
692.490	12714
692.523	12348
692.534	12164
692.578	12154
692.622	11790
692.643	11647
692.666	11657
692.709	11905
692.753	11597
692.763	11654
692.797	11755
692.840	11258
692.884	11222
692.884	11250
692.928	11359
692.971	11711
693.004	11983
693.015	12017
693.059	11987
693.102	12255
693.124	12021
693.146	11980
693.189	12205
693.233	12399
693.245	12490
693.276	12810
693.320	13064
693.363	13021
693.365	13002
693.407	13051
693.450	13005
693.485	12720
693.493	12677
693.537	12989
693.580	12782
693.605	12748
693.624	13052
693.667	13595
693.710	14322
693.725	14500
693.753	15411
693.797	16787
693.840	18509
693.845	18595
693.883	17739
693.926	17026
693.966	16417
693.970	16359
694.013	15366
694.056	14280
694.086	13616
694.099	13595
694.142	13181
694.185	12934
694.206	12854
694.229	13036
694.272	13055
694.315	13486
694.326	13447
694.358	13534
694.401	14057
694.444	14020
694.446	14000
694.487	13774
694.530	13586
694.566	13264
694.573	13333
694.616	13679
694.659	14111
694.686	14178
694.702	14232
694.745	14562
694.787	14662
694.806	14865
694.830	14977
694.873	14436
694.916	14407
694.926	14313
694.959	14396
695.002	14593
695.044	14578
695.046	14558
695.087	15132
695.130	15256
695.166	15451
695.172	15535
695.215	15762
695.258	16325
695.286	16424
695.301	16567
695.343	17100
695.386	17375
695.406	17625
695.428	18387
695.471	19579
695.514	20791
695.526	21167
695.556	22597
695.599	24308
695.641	25856
695.646	25988
695.684	24658
695.726	22984
695.766	21432
695.769	21445
695.811	20970
695.854	20357
695.886	19855
695.896	20008
695.938	20508
695.981	20983
696.005	21249
696.023	21885
696.065	23327
696.108	24717
696.125	25193
696.150	25534
696.192	26209
696.235	26727
696.245	26789
696.277	27037
696.319	27458
696.361	27724
696.365	27659
696.404	26672
696.446	25952
696.485	25117
696.488	25202
696.530	25410
696.572	25685
696.604	25859
696.614	25841
696.656	25478
696.698	25101
696.724	24811
696.740	25005
696.783	25370
696.825	25767
696.844	25870
696.867	26029
696.909	26150
696.951	26347
696.964	26333
696.992	26556
697.034	26716
697.076	26961
697.083	26944
697.118	27829
697.160	28788
697.202	29624
697.203	29576
697.244	29474
697.286	29450
697.323	29022
697.327	29063
697.369	29011
697.411	28938
697.442	28815
697.453	28929
697.494	29013
697.536	29112
697.562	29158
697.578	29150
697.620	28895
697.661	28699
697.682	28493
697.703	29250
697.744	30641
697.786	32014
697.801	32441
697.828	32561
697.869	32591
697.911	32640
697.921	32570
697.952	32149
697.994	31439
698.035	30772
698.040	30619
698.077	31218
698.118	31792
698.160	32309
698.160	32231
698.201	32819
698.243	33334
698.279	33740
698.284	33904
698.325	34630
698.367	35321
698.399	35800
698.408	36098
698.449	37065
698.491	37993
698.518	38544
698.532	38423
698.573	37702
698.614	37024
698.638	36520
698.656	36803
698.697	37298
698.738	37763
698.757	37886
698.779	37799
698.820	37461
698.862	37114
698.877	36893
698.903	37208
698.944	37567
698.985	37918
698.996	37922
699.026	37856
699.067	37631
699.116	37270
699.235	37802
699.354	36707
699.474	34666
699.593	32846
699.713	35598
699.832	34300
699.951	37077
700.070	34609
700.190	32921
700.309	31487
700.428	31789
700.547	31078
700.667	30633
700.786	30922
700.905	30481
701.024	30109
701.143	29594
701.262	32471
701.381	32683
701.500	32282
701.619	31363
701.738	33125
701.857	31000
701.976	29156
702.095	30820
702.214	32616
702.333	29587
702.452	32020
702.571	33103
702.690	31031
702.809	31461
702.928	29418
703.047	27710
703.165	29553
703.284	29142
703.403	28475
703.522	28603
703.640	27374
703.759	27368
703.878	26840
703.997	28048
704.115	27794
704.234	26796
704.353	27870
704.471	25122
704.590	24853
704.708	25467
704.827	24360
704.946	24563
705.064	24608
705.183	23857
705.301	24972
705.420	23483
705.538	23935
705.656	22571
705.775	21252
705.893	24198
706.012	23271
706.130	22170
706.249	24120
706.367	21887
706.485	22905
706.604	21794
706.722	21356
706.840	25842
706.958	33220
707.077	26612
707.195	20885
707.313	21693
707.431	18798
707.549	20292
707.668	18841
707.786	22069
707.904	20223
708.022	21031
708.140	20044
708.258	19389
708.376	22763
708.494	19593
708.612	21040
708.730	21152
708.848	20552
708.966	21104
709.084	20847
709.202	20458
709.320	18017
709.438	19377
709.556	19106
709.674	16868
709.791	17879
709.909	17211
710.027	17256
710.145	17259
710.263	16934
710.380	18165
710.498	16475
710.616	16996
710.733	16189
710.851	16770
710.969	16910
711.086	16291
711.204	16781
711.322	17437
711.439	16455
711.557	15384
711.674	15601
711.792	15886
711.909	14337
712.027	14966
712.144	15370
712.262	15661
712.379	15908
712.497	15859
712.614	15774
712.732	15898
712.849	15181
712.966	15687
713.084	16144
713.201	15312
713.318	15136
713.436	18409
713.553	15860
713.670	18834
713.787	17649
713.905	16953
714.022	18486
714.139	19333
714.256	25400
714.373	38225
714.490	73653
714.608	194047
714.725	651691
714.842	621268
714.959	86640
715.076	35427
715.193	26125
715.310	21860
715.427	16294
715.544	17457
715.661	15980
715.778	14375
715.895	15741
716.011	15367
716.128	13306
716.245	15448
716.362	14014
716.479	11971
716.596	12406
716.713	13120
716.829	11553
716.946	11107
717.063	12196
717.180	11721
717.296	11407
717.413	11451
717.530	11937
717.646	11673
717.763	10773
717.880	11662
717.996	10837
718.113	10716
718.229	11338
718.346	10447
718.462	9928
718.579	10421
718.695	10223
718.812	11261
718.928	10049
719.045	9929
719.161	11668
719.277	11034
719.394	12832
719.510	11299
719.626	14346
719.743	18550
719.859	31578
719.975	70319
720.092	271378
720.208	517766
720.324	75830
720.440	21277
720.557	15250
720.673	14077
720.789	12066
720.905	11840
721.021	10974
721.137	10907
721.253	9720
721.369	8883
721.486	9742
721.602	9114
721.718	9279
721.834	9115
721.950	9353
722.066	8839
722.181	8306
722.297	9624
722.413	8439
722.529	9303
722.645	8548
722.761	9976
722.877	9417
722.993	10841
723.108	15640
723.224	13185
723.340	10529
723.456	8942
723.571	7647
723.687	8555
723.803	9332
723.918	8765
724.034	8375
724.150	8018
724.265	8236
724.381	8131
724.497	6927
724.612	7962
724.728	8065
724.843	7901
724.959	7320
725.074	8335
725.190	7564
725.305	7377
725.421	7708
725.536	7763
725.651	6946
725.767	8416
725.882	8482
725.997	7594
726.113	7996
726.228	8188
726.343	6992
726.459	8148
726.574	8136
726.689	7640
726.804	7803
726.920	8212
727.035	7269
727.150	8014
727.265	6962
727.380	7266
727.495	7632
727.610	7340
727.725	7457
727.841	8007
727.956	7573
728.071	7265
728.186	7521
728.301	7042
728.416	8411
728.531	7628
728.645	7650
728.760	7066
728.875	7150
728.990	7222
729.105	7756
729.220	7024
729.335	7927
729.449	7882
729.564	7203
729.679	7701
729.794	8612
729.908	8087
730.023	7902
730.138	8362
730.253	8437
730.367	7533
730.482	7963
730.596	8568
730.711	10280
730.826	15527
730.940	15336
731.055	11909
731.169	12112
731.284	11859
731.398	12072
731.513	14086
731.627	15722
731.742	19632
731.856	25171
731.970	27062
732.085	35219
732.199	53714
732.313	99936
732.428	245570
732.542	563587
732.656	327046
732.771	78010
732.885	43399
732.999	34851
733.113	35879
733.227	33181
733.342	31098
733.456	29346
733.570	28007
733.684	26839
733.798	24911
733.912	25237
734.026	25226
734.140	25221
734.254	23750
734.368	23673
734.482	24074
734.596	23969
734.710	21983
734.824	22462
734.938	21901
735.052	23023
735.166	22268
735.280	21692
735.393	21204
735.507	21431
735.621	21093
735.735	19860
735.849	20991
735.962	18857
736.076	21610
736.190	19709
736.303	20277
736.417	20854
736.531	19489
736.644	19080
736.758	19373
736.872	18511
736.985	18965
737.099	18561
737.212	17810
737.326	17752
737.439	19170
737.553	16636
737.666	19082
737.780	17079
737.893	18907
738.007	17135
738.120	18721
738.233	16114
738.347	17830
738.460	16194
738.573	18854
738.687	16702
738.800	16980
738.913	17824
739.026	16652
739.140	15537
739.253	16351
739.366	15794
739.479	15561
739.592	15638
739.705	14761
739.818	18581
739.932	15157
740.045	15660
740.158	15926
740.271	16825
740.384	15823
740.497	13257
740.610	15476
740.723	15281
740.836	13905
740.949	14925
741.062	16964
741.174	13930
741.287	14966
741.400	14482
741.513	13314
741.626	15699
741.739	14215
741.851	13616
741.964	14930
742.077	12795
742.189	12353
742.302	14512
742.415	14355
742.527	13883
742.640	14493
742.753	10896
742.865	13941
742.978	12659
743.090	12537
743.203	13208
743.316	11690
743.428	12367
743.541	12479
743.653	11623
743.766	12383
743.878	12882
743.990	11528
744.103	13121
744.215	12419
744.327	12006
744.440	15001
744.552	11178
744.664	11251
744.777	13396
744.889	11276
745.001	11826
745.113	12075
745.226	10859
745.338	10530
745.450	13150
745.562	10495
745.674	9955
745.786	13279
745.898	11452
746.010	10343
746.122	12021
746.234	11928
746.347	11777
746.459	11047
746.570	8562
746.682	12641
746.794	13274
746.906	10616
747.018	10163
747.130	10979
747.242	9429
747.354	10234
747.466	11405
747.577	9759
747.689	10589
747.801	11056
747.913	9537
748.024	9480
748.136	10397
748.248	9407
748.359	10071
748.471	10306
748.583	7898
748.694	8278
748.806	9830
748.918	9458
749.029	9364
749.141	9840
749.252	10109
749.364	8348
749.475	8104
749.587	9439
749.698	8771
749.809	9651
749.921	8648
750.032	8914
750.144	8877
750.255	7841
750.366	8270
750.478	8229
750.589	8763
750.700	7270
750.811	9181
750.923	7733
751.034	7361
751.145	9675
751.256	7696
751.367	7510
751.479	7200
751.590	7300
751.701	7765
751.812	6578
751.923	6722
752.034	10052
752.145	8623
752.256	9083
752.367	8493
752.478	8263
752.589	7964
752.700	8017
752.811	7360
752.922	8474
753.032	8810
753.143	8582
753.254	8378
753.365	9650
753.476	8585
753.586	8544
753.697	7567
753.808	7235
753.919	6287
754.029	7330
754.140	6633
754.251	6720
754.361	7300
754.472	7507
754.582	6845
754.693	6997
754.804	8093
754.914	6814
755.025	6083
755.135	7262
755.246	8151
755.356	6988
755.466	6375
755.577	7546
755.687	6824
755.798	6470
755.908	6175
756.018	6876
756.129	7075
756.239	7444
756.349	7881
756.460	8161
756.570	9092
756.680	7101
756.790	7152
756.900	8012
757.011	6803
757.121	5869
757.231	6882
757.341	7299
757.451	6008
757.561	6223
757.671	7017
757.781	6595
757.891	7053
758.001	5653
758.111	6694
758.221	7401
758.331	7475
758.441	7336
758.551	7071
758.661	8807
758.771	8719
758.880	8156
758.990	7810
759.100	7614
759.210	7413
759.320	8364
759.429	8686
759.539	8797
759.649	9382
759.758	11194
759.868	12819
759.978	12397
760.087	13590
760.197	13107
760.307	12368
760.416	10492
760.526	9961
760.635	10970
760.745	12252
760.854	13470
760.964	15162
761.073	16072
761.182	14169
761.292	12257
761.401	10655
761.511	9493
761.620	7435
761.729	8174
761.839	6080
761.948	7426
762.057	6776
762.166	6938
762.276	6578
762.385	7261
762.494	6512
762.603	6274
762.712	5939
762.822	6480
762.931	6640
763.040	4954
763.149	5892
763.258	5867
763.367	6488
763.476	6146
763.585	5517
763.694	6009
763.803	6435
763.912	5476
764.021	5618
764.130	5523
764.238	6521
764.347	7655
764.456	7442
764.565	6860
764.674	5722
764.783	5901
764.891	6592
765.000	6998
765.109	7034
765.217	6984
765.326	7138
765.435	8767
765.543	9556
765.652	9985
765.761	11792
765.869	16032
765.978	23966
766.086	39893
766.195	76833
766.303	183827
766.412	407299
766.520	330950
766.629	113833
766.737	47319
766.846	28047
766.954	19313
767.062	15525
767.171	13111
767.279	10888
767.387	8736
767.496	8441
767.604	7822
767.712	7116
767.820	6585
767.928	7418
768.037	5879
768.145	7399
768.253	6814
768.361	5557
768.469	5571
768.577	5637
768.685	6167
768.793	7178
768.901	7367
769.009	7042
769.117	8734
769.225	9269
769.333	12834
769.441	19120
769.549	32764
769.657	68857
769.765	201265
769.873	334158
769.981	134220
770.088	37760
770.196	22232
770.304	15210
770.412	13605
770.519	10876
770.627	10704
770.735	9018
770.842	8962
770.950	8751
771.058	10210
771.165	11109
771.273	12048
771.380	11767
771.488	16204
771.595	19364
771.703	16108
771.810	15524
771.918	15903
772.025	19391
772.133	21783
772.240	20542
772.348	24131
772.455	21667
772.562	19458
772.670	19848
772.777	20801
772.884	19060
772.991	17886
773.099	20001
773.206	18834
773.313	18891
773.420	18806
773.528	18349
773.635	16513
773.742	19013
773.849	16587
773.956	18738
774.063	17087
774.170	16988
774.277	17667
774.384	16207
774.491	16399
774.598	17705
774.705	16718
774.812	16956
774.919	16402
775.026	15515
775.133	16276
775.239	16546
775.346	15984
775.453	15196
775.560	15278
775.667	16299
775.773	14817
775.880	16145
775.987	14542
776.093	15789
776.200	17156
776.307	12185
776.413	14302
776.520	17065
776.627	14093
776.733	13480
776.840	12039
776.946	18844
777.053	13933
777.159	14945
777.266	12329
777.372	13621
777.478	15866
777.585	14518
777.691	12087
777.798	14562
777.904	12252
778.010	12325
778.117	13867
778.223	12889
778.329	12045
778.435	10914
778.542	14789
778.648	11273
778.754	11579
778.860	13325
778.966	13084
779.072	12022
779.178	12814
779.284	9283
779.391	11597
779.497	12208
779.603	13239
779.708	10442
779.815	11061
779.920	16305
780.026	18476
780.132	12242
780.238	10992
780.344	10370
780.450	13871
780.556	8853
780.661	10358
780.767	12955
780.873	7416
780.979	10362
781.085	11887
781.190	9588
781.296	9531
781.402	11273
781.507	10425
781.613	8023
781.719	9303
781.824	11158
781.930	9108
782.035	10241
782.141	11613
782.246	8110
782.352	8592
782.457	10413
782.563	10265
782.668	9446
782.773	8227
782.879	7899
782.984	9286
783.090	8928
783.195	9617
783.300	10542
783.405	8356
783.511	7082
783.616	8067
783.721	9182
783.826	8301
783.932	8386
784.037	8096
784.142	8297
784.247	8497
784.352	8420
784.457	6861
784.562	9232
784.667	8823
784.772	6540
784.877	5687
784.982	9518
785.087	8758
785.192	5672
785.297	7690
785.402	7939
785.507	8136
785.611	7308
785.716	6380
785.821	7561
785.926	8251
786.031	7476
786.135	8161
786.240	7209
786.345	4726
786.450	5788
786.554	7373
786.659	6172
786.763	6408
786.868	6881
786.973	8867
787.077	5505
787.182	5543
787.286	7433
787.391	8368
787.495	5135
787.600	5246
787.704	6343
787.809	7186
787.913	5920
788.017	6891
788.122	7623
788.226	6029
788.330	4200
788.435	6730
788.539	7904
788.643	6502
788.747	4079
788.852	6418
788.956	5336
789.060	7486
789.164	7048
789.268	6437
789.372	7199
789.476	6192
789.580	3902
789.684	5403
789.788	7022
789.892	6761
789.996	5073
790.100	3915
790.204	6550
790.308	6604
790.412	4035
790.516	3479
790.620	4629
790.724	7057
790.828	5369
790.931	2778
791.035	5479
791.139	4800
791.242	5318
791.346	6117
791.450	5704
791.554	5127
791.657	3621
791.761	5048
791.864	6303
791.968	6300
792.072	6264
792.175	3953
792.279	3844
792.382	4743
792.486	4881
792.589	5769
792.693	5888
792.796	3747
792.899	5507
793.003	5604
793.106	3542
793.209	4583
793.313	4576
793.416	2403
793.519	4824
793.623	5994
793.726	5530
793.829	2883
793.932	2558
794.035	2846
794.138	6014
794.242	6559
794.345	3120
794.448	3762
794.551	3064
794.654	8077
794.757	8218
794.860	3951
794.963	4729
795.066	4214
795.169	5254
795.272	4142
795.375	6041
795.477	3236
795.580	3492
795.683	2913
795.786	4851
795.889	3260
795.991	4555
796.094	4121
796.197	3312
796.300	5374
796.402	4831
796.505	3493
796.608	2646
796.710	4588
796.813	5391
796.915	5029
797.018	5142
797.120	4765
797.223	4062
797.326	6090
797.428	3875
797.530	2937
797.633	3841
797.735	5392
797.838	4358
797.940	6246
798.042	3557
798.145	4710
798.247	4088
798.349	2832
798.452	3766
798.554	4001
798.656	4248
798.758	6655
798.860	4402
798.962	3805
799.065	3056
799.167	2787
799.269	4466
799.371	6162
799.473	6095
799.575	5394
799.677	3784
799.779	4407
799.881	2737
799.983	5395
800.085	3285
800.187	3613
800.289	2495
800.390	3534
800.492	5066
800.594	4999
800.696	2200
800.798	3043
800.899	3668
801.001	4313
801.103	3523
801.205	3241
801.306	3961
801.408	3193
801.509	4055
801.611	4092
801.713	4024
801.814	3110
801.916	2064
802.017	2960
802.119	1705
802.220	3263
802.322	2574
802.423	5042
802.525	1850
802.626	3543
802.727	4275
802.829	3372
802.930	284
803.031	4117
803.133	3101
803.234	3517
803.335	3404
803.436	2039
803.538	2896
803.639	2656
803.740	3002
803.841	2711
803.942	3489
804.043	3449
804.144	2560
804.245	3268
804.346	2471
804.447	2035
804.548	2402
804.649	4109
804.750	2097
804.851	2693
804.952	2223
805.053	3236
805.154	1875
805.255	3706
805.355	1713
805.456	2487
805.557	2313
805.658	1942
805.758	2795
805.859	3012
805.960	2629
806.061	2233
806.161	2215
806.262	2939
806.362	1927
806.463	1717
806.564	2890
806.664	2289
806.765	1332
806.865	2308
806.966	1466
807.066	1127
807.166	2874
807.267	2533
807.367	1708
807.468	2723
807.568	379
807.668	2764
807.769	2841
807.869	2537
807.969	2398
808.069	2693
808.170	1189
808.270	2150
808.370	3123
808.470	2816
808.570	1990
808.670	2542
808.770	2237
808.870	1756
808.970	2763
809.070	2610
809.170	2131
809.271	2745
809.370	1918
809.470	2173
809.570	1657
809.670	867
809.770	2296
809.870	2846
809.970	2788
810.070	2064
810.169	3044
810.269	566
810.369	2768
810.469	2022
810.568	2338
810.668	2331
810.768	1958
810.867	2613
810.967	1163
811.066	1270
811.166	2305
811.265	3231
811.365	1517
811.464	1462
811.564	1940
811.663	3236
811.763	1098
811.862	3311
811.962	2619
812.061	1931
812.160	2261
812.260	1774
812.359	1974
812.458	2098
812.557	3240
812.657	2338
812.756	3052
812.855	1743
812.954	1980
813.053	1987
813.153	2546
813.252	2160
813.351	2434
813.450	2542
813.549	1195
813.648	2289
813.747	1413
813.846	2797
813.945	2944
814.044	3237
814.143	2897
814.242	3069
814.341	1992
814.439	3253
814.538	3171
814.637	3079
814.736	3358
814.835	4080
814.933	3448
815.032	4159
815.131	6170
815.229	13067
815.328	17189
815.427	12524
815.525	10587
815.624	10194
815.722	10281
815.821	11587
815.919	11351
816.018	10234
816.116	11265
816.215	11894
816.313	12112
816.412	15127
816.510	15277
816.609	15840
816.707	16812
816.805	14777
816.904	14651
817.002	15339
817.100	16489
817.198	16573
817.296	14352
817.395	14519
817.493	13514
817.591	12606
817.689	12906
817.787	13615
817.885	13347
817.983	11370
818.081	13191
818.179	12763
818.277	15998
818.375	13693
818.473	12790
818.571	11868
818.669	13629
818.767	14810
818.865	11673
818.963	9804
819.061	11917
819.158	11759
819.256	13256
819.354	11808
819.452	14615
819.549	12968
819.647	13107
819.745	10960
819.842	11325
819.940	11781
820.038	10065
820.135	10646
820.233	12242
820.330	10134
820.428	9582
820.525	12320
820.623	9765
820.720	9180
820.818	11086
820.915	11174
821.012	9473
821.110	8491
821.207	11699
821.304	9704
821.402	10450
821.499	11225
821.596	9628
821.693	9510
821.791	11131
821.888	9625
821.985	11097
822.082	7400
822.179	9869
822.276	9707
822.373	8293
822.470	9219
822.567	9008
822.664	8126
822.761	9763
822.858	9512
822.955	8024
823.052	7421
823.149	9223
823.246	10683
823.343	6549
823.440	7331
823.536	9239
823.633	9034
823.730	7778
823.827	7816
823.923	8408
824.020	7317
824.117	10003
824.213	8523
824.310	7364
824.407	6444
824.503	8955
824.600	7790
824.696	6857
824.793	9707
824.889	8684
824.986	8028
825.082	5952
825.179	7180
825.275	10053
825.371	9715
825.468	6742
825.564	4176
825.660	8806
825.757	10165
825.853	6337
825.949	6317
826.045	6470
826.142	7471
826.238	8131
826.334	8233
826.430	6515
826.526	4919
826.622	4286
826.718	7758
826.814	9759
826.910	6972
827.006	3756
827.102	5089
827.198	7773
827.294	8834
827.390	7677
827.486	6229
827.582	3912
827.678	5553
827.774	9177
827.869	4941
827.965	5543
828.061	5015
828.157	7967
828.252	7740
828.348	6056
828.444	5127
828.539	5418
828.635	6900
828.731	7585
828.826	5147
828.922	7280
829.017	6882
829.113	7406
829.208	4266
829.304	6311
829.399	8552
829.495	6690
829.590	6208
829.685	5200
829.781	7430
829.876	7144
829.971	3125
830.066	2486
830.162	5180
830.257	8662
830.352	5523
830.447	4399
830.543	4336
830.638	5666
830.733	8350
830.828	4644
830.923	5833
831.018	5758
831.113	7987
831.208	4629
831.303	2930
831.398	4095
831.493	6008
831.588	8642
831.683	5091
831.778	2776
831.873	4774
831.967	6080
832.062	6539
832.157	3736
832.252	4964
832.346	4497
832.441	5971
832.536	5627
832.631	5634
832.725	3685
832.820	4629
832.914	5290
833.009	3873
833.104	3802
833.198	4131
833.293	4408
833.387	5978
833.482	4966
833.576	4579
833.670	5386
833.765	5106
833.859	6030
833.954	5600
834.048	4375
834.142	4047
834.237	2886
834.331	4580
834.425	4840
834.519	3743
834.613	3749
834.708	3253
834.802	4412
834.896	4024
834.990	5140
835.084	4182
835.178	2405
835.272	4221
835.366	5301
835.460	5952
835.554	3455
835.648	2987
835.742	1210
835.836	3144
835.930	3219
836.024	3498
836.117	4679
836.211	3291
836.305	3358
836.399	2743
836.493	2383
836.586	5009
836.680	3261
836.774	3135
836.867	3673
836.961	2749
837.055	1267
837.148	2700
837.242	3205
837.335	3531
837.429	3187
837.522	2543
837.616	2412
837.709	2544
837.803	2394
837.896	4159
837.989	3606
838.083	1822
838.176	1059
838.269	1258
838.363	2750
838.456	2918
838.549	4268
838.642	3127
838.735	2042
838.829	3606
838.922	2580
839.015	3370
839.108	2896
839.201	3135
839.294	3510
839.387	3386
839.480	847
839.573	2072
839.666	1475
839.759	2807
839.852	1981
839.945	3357
840.038	2142
840.131	1460
840.223	2164
840.316	4196
840.409	3496
840.502	3187
840.594	3672
840.687	745
840.780	1720
840.873	1460
840.965	1431
841.058	2942
841.150	4200
841.243	1719
841.336	1890
841.428	2128
841.521	2002
841.613	1960
841.706	2319
841.798	2278
841.890	2421
841.983	1796
842.075	2165
842.167	2355
842.260	2643
842.352	2934
842.444	2634
842.537	2125
842.629	1926
842.721	1687
842.813	1671
842.905	1852
842.997	2196
843.090	2688
843.182	1834
843.274	934
843.366	2336
843.458	2510
843.550	3301
843.642	2924
843.734	2523
843.826	1756
843.918	1521
844.009	2591
844.101	1603
844.193	2468
844.285	2443
844.377	2869
844.469	2337
844.560	760
844.652	1122
844.744	2067
844.835	2082
844.927	3686
845.019	2783
845.110	1173
845.202	2458
845.293	1318
845.385	1590
845.476	2564
845.568	2889
845.659	1610
845.751	1683
845.842	1283
845.934	1181
846.025	1278
846.116	1949
846.208	2301
846.299	1392
846.390	1412
846.482	771
846.573	2429
846.664	1519
846.755	1748
846.846	1918
846.937	730
847.029	1064
847.120	1271
847.211	1386
847.302	2473
847.393	1695
847.484	2070
847.575	1269
847.666	1068
847.757	1101
847.847	2348
847.938	3361
848.029	2271
848.120	1802
848.211	1898
848.302	828
848.392	1679
848.483	2172
848.574	1953
848.664	1725
848.755	2081
848.846	1381
848.936	1505
849.027	1924
849.118	3423
849.208	2512
849.299	4787
849.389	7934
849.480	13922
849.570	24124
849.661	45413
849.751	68377
849.841	26973
849.932	6413
850.022	3552
850.112	4054
850.203	2891
850.293	1805
850.383	2153
850.474	1764
850.564	1005
850.654	1096
850.744	1265
850.834	2028
850.924	2124
851.014	3031
851.104	2064
851.194	1361
851.284	2071
851.374	1391
851.464	1066
851.554	1845
851.644	1769
851.734	1955
851.824	1597
851.914	1824
852.004	2453
852.094	997
852.183	968
852.273	1931
852.363	1649
852.452	1793
852.542	1912
852.632	1823
852.721	2735
852.811	1779
852.901	3244
852.990	3276
853.080	3292
853.169	3047
853.259	4338
853.348	3775
853.438	5407
853.527	6548
853.617	10030
853.706	16071
853.795	27924
853.885	50631
853.974	84618
854.063	134924
854.152	168694
854.242	88874
854.331	31034
854.420	14867
854.509	10583
854.598	7734
854.687	7292
854.777	5229
854.866	3711
854.955	4279
855.044	2525
855.133	2875
855.222	2868
855.311	2021
855.400	2358
855.488	1724
855.577	1493
855.666	1266
855.755	2144
855.844	1753
855.933	1911
856.021	1704
856.110	1529
856.199	930
856.288	826
856.376	113
856.465	943
856.554	968
856.642	2287
856.731	2236
856.819	1703
856.908	1525
856.996	2230
857.085	1364
857.173	827
857.262	684
857.350	747
857.438	1698
857.527	1172
857.615	1262
857.703	2516
857.792	816
857.880	1291
857.968	-148
858.056	1190
858.145	1089
858.233	1422
858.321	1256
858.409	2085
858.497	1894
858.585	1260
858.673	709
858.761	521
858.849	1032
858.937	746
859.025	943
859.113	1580
859.201	1652
859.289	2359
859.377	1703
859.465	1600
859.552	1771
859.640	834
859.728	1116
859.816	1465
859.903	1252
859.991	1334
860.079	898
860.166	1356
860.254	1126
860.342	1896
860.429	1400
860.517	1224
860.604	746
860.692	911
860.779	440
860.867	579
860.954	1172
861.042	2272
861.129	1516
861.216	1620
861.304	1713
861.391	2262
861.478	1342
861.565	569
861.653	1878
861.740	1170
861.827	628
861.914	1184
862.001	1637
862.089	2038
862.176	1838
862.263	796
862.350	1838
862.437	1620
862.524	1518
862.611	1125
862.698	1512
862.785	1815
862.871	1695
862.958	2468
863.045	2283
863.132	2124
863.219	1659
863.306	1022
863.392	1436
863.479	1744
863.566	1160
863.652	1728
863.739	2331
863.826	2006
863.912	2715
863.999	1802
864.086	2224
864.172	2851
864.259	2888
864.345	3092
864.432	2666
864.518	2967
864.604	2512
864.691	3421
864.777	3490
864.863	5186
864.950	6876
865.036	9171
865.122	15369
865.209	16253
865.295	13700
865.381	14081
865.467	13086
865.553	15730
865.639	16993
865.726	23692
865.812	35655
865.898	53475
865.984	75230
866.070	114944
866.156	116084
866.242	52440
866.328	23807
866.414	17749
866.499	14796
866.585	12935
866.671	12111
866.757	12980
866.843	11771
866.928	11077
867.014	10937
867.100	10801
867.186	10811
867.271	8846
867.357	10551
867.442	9848
867.528	10230
867.614	9878
867.699	9541
867.785	10666
867.870	10044
867.956	10055
868.041	8745
868.127	9152
868.212	9689
868.297	9455
868.383	10156
868.468	8362
868.553	10842
868.639	9624
868.724	8624
868.809	9816
868.894	8987
868.979	8540
869.065	8608
869.150	7585
869.235	8648
869.320	8817
869.405	6706
869.490	8519
869.575	9745
869.660	6188
869.745	9260
869.830	9936
869.915	7391
870.000	7814
870.085	7476
870.169	9982
870.254	9770
870.339	5789
870.424	6475
870.509	9396
870.593	9296
870.678	8590
870.763	6965
870.847	6184
870.932	7590
871.016	8298
871.101	5898
871.186	7227
871.270	10507
871.355	6497
871.439	7204
871.523	7782
871.608	6611
871.692	6377
871.777	8915
871.861	8824
871.945	6382
872.030	8247
872.114	6638
872.198	6137
872.282	6235
872.367	6714
872.451	7081
872.535	6977
872.619	7531
872.703	6002
872.787	6954
872.871	7611
872.955	5864
873.039	4961
873.123	7317
873.207	8067
873.291	3839
873.375	6309
873.459	7212
873.543	6755
873.627	6011
873.711	5843
873.794	6777
873.878	6716
873.962	5204
874.045	6095
874.129	5904
874.137	5823
874.213	5019
874.245	5504
874.296	6296
874.352	5530
874.380	5156
874.460	5180
874.464	5182
874.547	4579
874.568	5031
874.631	6379
874.676	6138
874.714	5935
874.784	5860
874.798	5848
874.881	5135
874.892	5053
874.965	4503
874.999	5096
875.048	5899
875.107	6011
875.131	6071
875.215	4124
875.215	4124
875.298	3678
875.323	4167
875.381	5344
875.430	6302
875.465	6971
875.538	5838
875.548	5676
875.631	3819
875.646	3745
875.714	3414
875.753	3519
875.798	3697
875.861	5438
875.881	5948
875.964	4432
875.968	4396
876.047	3909
876.076	4241
876.130	4812
876.183	5234
876.213	5472
876.291	4955
876.296	4918
876.379	4262
876.398	4236
876.462	4088
876.506	3835
876.545	3675
876.613	3344
876.628	3267
876.711	5054
876.721	5118
876.794	5598
876.828	5314
876.877	4828
876.935	3651
876.960	3207
877.043	3984
877.043	3986
877.125	4427
877.150	4856
877.208	5788
877.258	4911
877.291	4232
877.365	3240
877.374	3147
877.456	3942
877.472	3880
877.539	3527
877.579	3982
877.622	4450
877.687	4129
877.704	4073
877.787	3804
877.794	3841
877.869	4336
877.901	4412
877.952	4197
878.008	3402
878.034	3121
878.115	2690
878.117	2685
878.199	3070
878.222	3402
878.282	4149
878.329	4386
878.364	4523
878.437	4558
878.447	4554
878.529	2156
878.544	2193
878.611	2438
878.651	2755
878.694	3270
878.758	4127
878.776	4268
878.858	3955
878.865	3930
878.941	3658
878.972	3057
879.023	2057
879.078	2763
879.105	3292
879.185	4086
879.187	4092
879.269	3978
879.292	4012
879.351	3976
879.399	2995
879.433	2333
879.506	2988
879.516	3084
879.598	2955
879.613	2822
879.680	2202
879.720	2660
879.762	3336
879.827	3537
879.844	3471
879.926	2957
879.933	2971
880.007	3394
880.040	3177
880.089	2819
880.147	3111
880.171	3235
880.253	3144
880.254	3143
880.335	2686
880.360	2882
880.417	3751
880.467	3806
880.499	3583
880.574	3481
880.580	3508
880.662	4246
880.680	4004
880.744	2559
880.787	2465
880.825	2724
880.893	3371
880.907	3434
880.989	2334
881.000	2428
881.070	3548
881.106	3828
881.152	3780
881.213	2939
881.233	2775
881.315	3282
881.319	3301
881.396	3328
881.426	3166
881.478	2913
881.532	3201
881.559	3437
881.639	3071
881.641	3048
881.722	3002
881.745	2875
881.803	3019
881.852	3161
881.885	3131
881.958	2305
881.966	2221
882.047	2875
882.064	2807
882.129	2467
882.171	2347
882.210	2144
882.277	2060
882.291	2118
882.372	2650
882.383	2758
882.454	3574
882.489	3505
882.535	3367
882.596	3380
882.616	3297
882.697	3329
882.702	3264
882.778	2133
882.808	1952
882.859	1739
882.914	1837
882.940	1947
883.020	2261
883.021	2266
883.102	3006
883.127	3212
883.183	3688
883.233	3631
883.264	3027
883.339	1439
883.345	1384
883.426	1424
883.445	1348
883.507	1290
883.551	1603
883.587	2278
883.657	3256
883.668	3251
883.749	3244
883.763	3085
883.830	1877
883.869	1741
883.910	2088
883.975	2470
883.991	2569
884.072	2725
884.081	2806
884.152	3270
884.187	3245
884.233	3383
884.292	3664
884.314	3406
884.394	1565
884.398	1516
884.475	982
884.504	809
884.555	1364
884.610	1787
884.636	1891
884.716	2993
884.716	2997
884.797	3271
884.821	3224
884.877	3030
884.927	2840
884.958	2598
885.033	2082
885.038	2050
885.118	1486
885.139	1426
885.199	1647
885.244	1950
885.279	2427
885.350	3212
885.359	3285
885.439	3901
885.456	3854
885.520	2650
885.561	2225
885.600	2093
885.667	2033
885.680	2062
885.760	2121
885.773	2085
885.840	1558
885.878	1336
885.920	1601
885.984	2313
886.000	2434
886.080	2395
886.089	2448
886.160	2538
886.195	2347
886.240	2047
886.300	1912
886.320	2056
886.400	2698
886.406	2716
886.480	1976
886.511	1763
886.560	1951
886.616	2159
886.640	2221
886.720	2419
886.722	2422
886.800	1917
886.827	1745
886.879	2165
886.932	2569
886.959	2756
887.038	3171
887.039	3169
887.119	2826
887.143	2662
887.198	2888
887.248	3155
887.278	2902
887.354	2054
887.358	2059
887.437	2398
887.459	2455
887.517	2472
887.564	2423
887.596	2388
887.669	2312
887.676	2243
887.755	1466
887.774	1272
887.835	1123
887.880	1085
887.914	1344
887.985	1663
887.994	1789
888.073	3292
888.090	3525
888.153	3692
888.195	3722
888.232	3167
888.300	2399
888.311	2323
888.391	1671
888.405	1557
888.470	1617
888.510	1647
888.549	1727
888.615	1943
888.628	2054
888.708	2642
888.720	2719
888.787	2561
888.825	2514
888.866	2013
888.930	1195
888.945	1252
889.024	1658
889.035	1702
889.103	2360
889.140	2717
889.182	2061
889.245	1122
889.261	1234
889.340	1753
889.349	1817
889.419	1942
889.454	2009
889.498	1994
889.559	1978
889.577	1977
889.656	1977
889.664	1982
889.735	2454
889.768	2673
889.814	2522
889.873	2317
889.978	2110
890.083	2218
890.187	2969
890.292	3204
890.397	1774
890.501	1306
890.606	1795
890.710	1699
890.815	3211
890.919	2509
891.024	2112
891.128	2124
891.233	1850
891.337	2946
891.442	2891
891.546	1931
891.650	1905
891.755	1780
891.859	3482
891.963	2574
892.068	1887
892.172	1389
892.276	1301
892.380	2070
892.484	3276
892.589	3281
892.693	2004
892.797	1270
892.901	1013
893.005	1404
893.109	3349
893.213	3049
893.317	2065
893.421	646
893.525	1213
893.629	1387
893.733	2265
893.837	1956
893.941	2053
894.045	1672
894.148	1291
894.252	908
894.356	2337
894.460	2786
894.564	2301
894.667	1718
894.771	1351
894.875	1715
894.978	2024
895.082	2141
895.186	2540
895.289	2013
895.393	1439
895.496	1929
895.600	1675
895.703	1310
895.807	1874
895.910	1227
896.014	2037
896.117	1328
896.221	1918
896.324	1766
896.427	1433
896.531	1528
896.634	1123
896.737	1362
896.840	2019
896.944	1864
897.047	2275
897.150	1173
897.253	1460
897.356	2065
897.460	693
897.563	1934
897.666	2316
897.769	2478
897.872	1954
897.975	1570
898.078	1807
898.181	2137
898.284	1385
898.387	2293
898.490	2441
898.593	1264
898.695	2115
898.798	961
898.901	1251
899.004	1808
899.107	2165
899.209	1930
899.312	2397
899.415	1049
899.518	534
899.620	585
899.723	1280
899.826	1235
899.928	1659
900.031	1908
900.133	3192
900.236	2047
900.338	699
900.441	814
900.543	1707
900.646	1835
900.748	1518
900.851	2010
900.953	1034
901.055	1071
901.158	1331
901.260	1050
901.362	996
901.465	1326
901.567	2473
901.669	2429
901.771	1706
901.873	603
901.976	1587
902.078	1854
902.180	1130
902.282	1613
902.384	2097
902.486	2243
902.588	2149
902.690	655
902.792	988
902.894	1421
902.996	2318
903.098	1878
903.200	1825
903.302	1714
903.404	1145
903.505	751
903.607	1925
903.709	2174
903.811	2227
903.913	874
904.014	648
904.116	937
904.218	1328
904.319	1367
904.421	2573
904.523	2041
904.624	1385
904.726	1000
904.827	1018
904.929	921
905.030	651
905.132	2353
905.233	1335
905.335	-379
905.436	1320
905.537	1101
905.639	1451
905.740	1111
905.841	1305
905.943	1998
906.044	1920
906.145	504
906.247	1332
906.348	1055
906.449	1746
906.550	1680
906.651	1558
906.752	1388
906.854	1048
906.955	690
907.056	1019
907.157	813
907.258	2539
907.359	362
907.460	968
907.561	805
907.662	715
907.762	909
907.863	2320
907.964	1528
908.065	1690
908.166	452
908.267	1091
908.367	642
908.468	1294
908.569	1256
908.670	1800
908.770	1611
908.871	1325
908.971	1375
909.072	1258
909.173	781
909.273	887
909.374	1480
909.474	1231
909.575	704
909.675	951
909.776	1711
909.876	1927
909.977	1112
910.077	2203
910.177	1164
910.278	1283
910.378	1413
910.478	857
910.579	1799
910.679	1526
910.779	2052
910.879	1414
910.980	1834
911.080	1045
911.180	536
911.280	371
911.380	441
911.480	592
911.580	1163
911.680	1144
911.780	718
911.880	1189
911.980	937
912.080	1557
912.180	1376
912.280	618
912.380	458
912.480	1117
912.580	561
912.679	1051
912.779	2071
912.879	1575
912.979	1006
913.078	893
913.178	1137
913.278	1481
913.377	263
913.477	1295
913.577	551
913.676	2126
913.776	1473
913.875	813
913.975	1053
914.074	1358
914.174	1186
914.273	5
914.373	906
914.472	1363
914.572	294
914.671	455
914.770	506
914.870	1231
914.969	1221
915.068	646
915.167	844
915.267	714
915.366	1109
915.465	1263
915.564	81
915.663	1120
915.763	413
915.862	1261
915.961	1535
916.060	1212
916.159	1048
916.258	1297
916.357	1348
916.456	1662
916.555	1017
916.654	925
916.752	1354
916.851	633
916.950	1212
917.049	1229
917.148	1255
917.247	1404
917.345	434
917.444	593
917.543	1118
917.642	1319
917.740	1426
917.839	1349
917.937	2119
918.036	2438
918.135	838
918.233	1311
918.332	926
918.430	1076
918.529	1465
918.627	952
918.726	1725
918.824	599
918.923	463
919.021	1534
919.119	586
919.218	1169
919.316	1613
919.414	820
919.512	1184
919.611	1238
919.709	1687
919.807	1997
919.905	2112
920.003	2323
920.102	1583
920.200	1728
920.298	1920
920.396	2000
920.494	2503
920.592	2036
920.690	1701
920.788	1914
920.886	1698
920.984	1842
921.082	1558
921.180	2927
921.277	2212
921.375	2976
921.473	4354
921.571	3466
921.669	3182
921.766	3153
921.864	3508
921.962	3539
922.060	2673
922.157	3360
922.255	4647
922.352	3924
922.450	3750
922.548	2497
922.645	4526
922.743	5468
922.840	9490
922.938	11063
923.035	9085
923.133	8265
923.230	10573
923.327	11305
923.425	11303
923.522	11428
923.619	9792
923.717	9022
923.814	8213
923.911	9189
924.008	10017
924.106	8277
924.203	8517
924.300	8992
924.397	8239
924.494	9349
924.591	8621
924.688	8418
924.786	8965
924.883	8580
924.979	8890
925.077	7547
925.173	7364
925.270	8657
925.367	8069
925.464	8962
925.561	8733
925.658	9163
925.755	7642
925.852	8807
925.948	9552
926.045	8235
926.142	8526
926.239	8948
926.335	6619
926.432	8675
926.529	8819
926.625	9252
926.722	7560
926.818	7901
926.915	8747
927.011	8471
927.108	8165
927.204	8084
927.301	6013
927.397	8587
927.494	8833
927.590	5972
927.687	6967
927.783	8952
927.879	8057
927.976	7008
928.072	6496
928.168	8455
928.264	7790
928.361	6660
928.457	7997
928.553	7069
928.649	6538
928.745	7109
928.841	6176
928.937	7762
929.033	6020
929.129	6721
929.225	7665
929.321	6333
929.417	5871
929.513	7704
929.609	5512
929.705	6511
929.801	7069
929.897	6061
929.993	5416
930.089	6823
930.184	5573
930.280	6786
930.376	8515
930.471	6040
930.567	4669
930.663	6639
930.758	6039
930.854	5784
930.950	6522
931.045	5200
931.141	6066
931.236	7091
931.332	5688
931.427	5391
931.523	7455
931.618	6327
931.714	4064
931.809	4668
931.905	6350
932.000	4513
932.095	4098
932.191	6058
932.286	7563
932.381	6296
932.476	4849
932.572	5899
932.667	5378
932.762	4844
932.857	5976
932.952	6893
933.047	5318
933.142	4639
933.237	5379
933.332	6161
933.427	6455
933.522	5705
933.617	4425
933.712	4427
933.807	6686
933.902	7015
933.997	5924
934.092	4633
934.187	4909
934.282	5706
934.376	5741
934.471	5220
934.566	4456
934.661	3526
934.755	5847
934.850	5815
934.945	4678
935.039	3837
935.134	3341
935.228	5259
935.323	7425
935.417	4907
935.512	2669
935.606	4128
935.701	4913
935.795	5418
935.890	4714
935.984	4696
936.079	3204
936.173	4965
936.267	3831
936.362	4052
936.456	4711
936.550	6745
936.644	5303
936.738	3359
936.833	3930
936.927	2967
937.021	4097
937.115	4116
937.209	4235
937.303	5057
937.397	3239
937.491	3848
937.585	5205
937.679	4197
937.773	3677
937.867	3137
937.961	3649
938.055	6175
938.149	4249
938.243	2303
938.337	2948
938.430	3162
938.524	5099
938.618	4372
938.712	3708
938.805	3728
938.899	5322
938.993	5494
939.086	3411
939.180	2028
939.274	2905
939.367	5342
939.461	5020
939.554	3435
939.648	2607
939.741	4122
939.835	3656
939.928	5206
940.022	4495
940.115	4452
940.208	4021
940.302	5112
940.395	5390
940.488	2187
940.582	3929
940.675	2886
940.768	2363
940.861	4875
940.954	4503
941.048	2082
941.141	2386
941.234	3018
941.327	4282
941.420	3341
941.513	4611
941.606	3424
941.699	3516
941.792	4142
941.885	3530
941.978	3829
942.071	3578
942.164	2062
942.257	2566
942.349	3357
942.442	3971
942.535	2584
942.628	3092
942.721	3376
942.813	2127
942.906	3128
942.999	2634
943.091	1599
943.184	2514
943.277	3515
943.369	2259
943.462	2429
943.554	2694
943.647	2884
943.739	4236
943.832	3817
943.924	1607
944.017	1399
944.109	2079
944.201	2372
944.294	2234
944.386	2889
944.478	2270
944.571	2480
944.663	2122
944.755	3423
944.847	4276
944.940	2870
945.032	1355
945.124	884
945.216	3541
945.308	2867
945.400	2691
945.492	2307
945.584	3902
945.676	2993
945.768	2550
945.860	4309
945.952	3468
946.044	2653
946.136	2239
946.228	2891
946.320	2572
946.412	2332
946.503	2871
946.595	4172
946.687	2076
946.779	2131
946.870	1181
946.962	1586
947.054	2731
947.145	2708
947.237	2018
947.329	1878
947.420	2730
947.512	2240
947.603	1346
947.695	1444
947.786	1938
947.878	1743
947.969	1826
948.061	3065
948.152	2463
948.243	1543
948.335	1272
948.426	2261
948.517	1879
948.609	2926
948.700	2129
948.791	2786
948.882	812
948.973	1718
949.065	2109
949.156	2289
949.247	993
949.338	1659
949.429	683
949.520	2028
949.611	1521
949.702	2420
949.793	1247
949.884	1649
949.975	1347
950.066	1511
950.157	1653
950.247	1541
950.338	778
950.429	1424
950.520	2013
950.611	1342
950.701	1569
950.792	2507
950.883	1663
950.973	2247
951.064	2528
951.155	2401
951.245	2672
951.336	2740
951.427	2209
951.517	3785
951.608	2195
951.698	2263
951.788	1386
951.879	1058
951.969	422
952.060	2044
952.150	1813
952.240	3126
952.331	1706
952.421	2971
952.511	749
952.602	1042
952.692	944
952.782	1452
952.872	1830
952.962	1162
953.052	1490
953.143	654
953.233	2198
953.323	1964
953.413	1699
953.503	2811
953.593	2154
953.683	1844
953.773	1046
953.863	1481
953.953	1232
954.042	1750
954.132	1230
954.222	1542
954.312	537
954.402	1768
954.492	1006
954.581	1472
954.671	1246
954.761	355
954.850	1649
954.940	128
955.030	383
955.119	1030
955.209	963
955.298	1742
955.388	1338
955.477	2683
955.567	391
955.656	1387
955.746	1662
955.835	723
955.925	1547
956.014	1618
956.103	1646
956.193	2632
956.282	1664
956.371	2042
956.461	639
956.550	741
956.639	1367
956.728	559
956.817	1754
956.906	1660
956.995	1531
957.085	793
957.174	976
957.263	1149
957.352	1681
957.441	474
957.530	222
957.619	829
957.708	1446
957.796	904
957.885	1195
957.974	716
958.063	1356
958.152	-163
958.241	1149
958.329	1000
958.418	1246
958.507	647
958.596	1714
958.684	1034
958.773	1908
958.861	-157
958.950	803
959.039	1637
959.127	1271
959.216	1436
959.304	543
959.393	1214
959.481	2028
959.570	1024
959.658	-339
959.746	856
959.835	1159
959.923	612
960.011	603
960.100	1368
960.188	1064
960.276	1230
960.365	870
960.453	-318
960.541	259
960.629	1136
960.717	346
960.805	193
960.893	510
960.981	743
961.069	1983
961.158	1529
961.245	2301
961.333	1493
961.421	1409
961.509	953
961.597	966
961.685	686
961.773	1350
961.861	1025
961.949	1808
962.036	523
962.124	903
962.212	1083
962.299	217
962.387	700
962.475	372
962.562	940
962.650	1289
962.738	1728
962.825	-285
962.913	1327
963.000	879
963.088	1583
963.175	569
963.263	562
963.350	-45
963.438	988
963.525	434
963.612	1287
963.700	996
963.787	1947
963.874	579
963.962	929
964.049	759
964.136	613
964.223	-407
964.310	641
964.398	836
964.485	185
964.572	1080
964.659	430
964.746	412
964.833	876
964.920	728
965.007	804
965.094	719
965.181	623
965.268	1051
965.355	1747
965.441	753
965.528	1238
965.615	911
965.702	489
965.789	693
965.875	1013
965.962	1581
966.049	226
966.136	1427
966.222	680
966.309	1644
966.395	1302
966.482	2072
966.569	1020
966.655	1392
966.742	590
966.828	611
966.915	638
967.001	314
967.087	-373
967.174	544
967.260	852
967.347	491
967.433	867
967.519	1315
967.605	722
967.692	676
967.778	894
967.864	287
967.950	1335
968.036	253
968.123	1405
968.209	659
968.295	-321
968.381	2107
968.467	932
968.553	-395
968.639	1536
968.725	634
968.811	1864
968.897	1297
968.983	362
969.069	185
969.154	1148
969.240	927
969.326	-25
969.412	-8
969.497	365
969.583	420
969.669	2075
969.755	1188
969.840	737
969.926	1518
970.012	2762
970.097	3673
970.183	1344
970.268	1369
970.354	1907
970.439	-747
970.525	1029
970.610	121
970.696	1139
970.781	1078
970.866	-134
970.952	1326
971.037	-93
971.122	302
971.208	594
971.293	1253
971.378	526
971.463	584
971.549	753
971.634	648
971.719	559
971.804	-390
971.889	1712
971.974	1147
972.059	320
972.144	542
972.229	624
972.314	364
972.399	588
972.484	513
972.569	1078
972.654	-262
972.739	1045
972.824	-216
972.908	943
972.993	235
973.078	290
973.163	483
973.247	1110
973.332	-521
973.417	2116
973.501	27
973.586	425
973.671	548
973.755	800
973.840	941
973.924	1990
974.009	929
974.093	1195
974.178	2295
974.262	1156
974.346	-258
974.431	1656
974.515	855
974.600	766
974.684	1155
974.768	-121
974.852	723
974.937	-68
975.021	1193
975.105	591
975.189	754
975.273	1395
975.358	1146
975.442	-410
975.526	825
975.610	125
975.694	-221
975.778	1976
975.862	84
975.946	-814
976.030	2158
976.114	589
976.198	258
976.281	741
976.365	1966
976.449	854
976.533	230
976.617	-702
976.700	1050
976.784	363
976.868	301
976.951	756
977.035	801
977.119	1174
977.202	674
977.286	902
977.369	1417
977.453	2021
977.536	3116
977.620	783
977.703	1780
977.787	411
977.870	1343
977.953	1933
978.037	233
978.120	1455
978.203	230
978.287	1008
978.370	1046
978.453	500
978.536	257
978.620	661
978.703	642
978.786	546
978.869	177
978.952	-71
979.035	2027
979.118	1247
979.201	-374
979.284	2417
979.367	485
979.450	1054
979.533	420
979.616	731
979.699	315
979.782	1131
979.865	1151
979.948	444
980.030	456
980.113	915
980.196	274
980.279	1796
980.361	46
980.444	1091
980.526	841
980.609	2683
980.692	2671
980.774	2511
980.857	282
980.939	902
981.022	828
981.104	592
981.187	61
981.269	1390
981.352	776
981.434	348
981.516	700
981.599	2191
981.681	1229
981.763	965
981.846	732
981.928	1104
982.010	363
982.092	226
982.174	1640
982.256	791
982.339	394
982.421	541
982.503	755
982.585	790
982.667	498
982.749	1023
982.831	432
982.913	-122
982.995	1730
983.077	748
983.158	2345
983.240	483
983.322	1687
983.404	2795
983.486	1602
983.568	2469
983.649	1814
983.731	2441
983.813	1145
983.894	956
983.976	811
984.058	1110
984.139	2873
984.221	509
984.302	1949
984.384	1476
984.465	808
984.547	1032
984.628	83
984.710	1942
984.791	1498
984.872	1310
984.954	666
985.035	1029
985.116	850
985.198	768
985.279	2286
985.360	1044
985.441	1288
985.522	1457
985.604	1263
985.685	102
985.766	1655
985.847	2879
985.928	700
986.009	1292
986.090	1038
986.171	1153
986.252	516
986.333	1363
986.414	1478
986.495	1518
986.576	1871
986.656	1589
986.737	1465
986.818	1145
986.899	1203
986.980	988
987.060	1882
987.141	1728
987.222	1899
987.302	2645
987.383	2456
987.464	2046
987.544	2795
987.625	2178
987.705	2629
987.786	1953
987.866	1812
987.947	2321
988.027	2361
988.108	1897
988.188	1960
988.268	1594
988.349	2101
988.429	959
988.509	2030
988.589	1230
988.670	-95
988.750	2827
988.830	1556
988.910	1733
988.990	1144
989.070	563
989.151	1619
989.231	519
989.311	2039
989.391	744
989.471	1534
989.551	1942
989.631	1145
989.711	2562
989.791	957
989.870	1153
989.950	2268
990.030	1405
990.110	1473
990.190	983
990.269	819
990.349	593
990.429	1187
990.509	1625
990.588	-303
990.668	1512
990.747	974
990.827	1159
990.907	1037
990.986	1523
991.066	723
991.145	387
991.225	1462
991.304	1465
991.383	1034
991.463	152
991.542	1452
991.622	594
991.701	751
991.780	-50
991.859	513
991.939	471
992.018	1639
992.097	844
992.176	13
992.256	570
992.335	457
992.414	575
992.493	432
992.572	-210
992.651	1018
992.730	291
992.809	659
992.888	-406
992.967	436
993.046	1090
993.125	384
993.203	-142
993.282	902
993.361	784
993.440	700
993.519	12
993.597	-70
993.676	-416
993.755	1266
993.834	1025
993.912	-613
993.991	333
994.069	-124
994.148	328
994.226	-617
994.305	937
994.384	-176
994.462	1129
994.540	-1030
994.619	-582
994.697	520
994.776	-305
994.854	227
994.932	-406
995.011	239
995.089	-126
995.167	133
995.245	638
995.324	-1381
995.402	432
995.480	-619
995.558	-37
995.636	-2258
995.714	-503
995.792	492
995.870	189
995.948	29
996.026	-133
996.104	-1199
996.182	-936
996.260	-434
996.338	-248
996.416	-66
996.494	599
996.572	422
996.649	-514
996.727	-1597
996.805	-321
996.883	-160
996.960	-843
997.038	144
997.116	-247
997.193	-212
997.271	-1014
997.348	-731
997.426	-536
997.504	-998
997.581	77
997.658	-703
997.736	-1799
997.813	-799
997.891	-299
997.968	-1338
998.046	507
998.123	-743
998.200	53
998.277	-505
998.355	-60
998.432	-1799
998.509	-637
998.586	295
998.663	-210
998.741	-1228
998.818	-1125
998.895	-1208
998.972	-8
999.049	1
999.126	-1074
999.203	-217
999.280	-404
999.357	-794
999.434	-353
999.511	-1071
999.587	-192
999.664	-1066
999.741	-532
999.818	-1079
999.895	-771
999.971	-631
1000.048	-1111
1000.125	357
1000.202	-558
1000.278	-864
1000.355	-465
1000.431	-1038
1000.508	-1306
1000.584	-795
1000.661	-634
1000.738	-1721
1000.814	-936
1000.890	-700
1000.967	-1075
1001.043	-85
1001.120	-2036
1001.196	-266
1001.272	-1894
1001.349	-124
1001.425	-939
1001.501	-1770
1001.577	-1041
1001.654	-582
1001.730	-986
1001.806	-1077
1001.882	-1735
1001.958	194
1002.034	44
1002.110	-961
1002.186	-1330
1002.262	-1271
1002.338	-1802
1002.414	-1692
1002.490	-509
1002.566	-1601
1002.642	-1584
1002.718	-1040
1002.794	-1678
1002.870	-970
1002.945	-891
1003.021	-707
1003.097	-1487
1003.173	-1433
1003.248	-2007
1003.324	-876
1003.400	-916
1003.475	-1695
1003.551	-1341
1003.626	-1245
1003.702	-1945
1003.777	-611
1003.853	-1572
1003.928	-1740
1004.004	-957
1004.079	-563
1004.155	-506
1004.230	-2052
1004.305	-412
1004.381	-850
1004.456	-2013
1004.531	-1201
1004.607	-625
1004.682	-746
1004.757	-1741
1004.832	-1313
1004.907	-654
1004.982	-660
1005.057	-879
1005.133	-1745
1005.208	-1433
1005.283	-1132
1005.358	-634
1005.433	-1517
1005.508	-675
1005.583	-1698
1005.657	-1132
1005.732	-1292
1005.807	-1110
1005.882	-1146
1005.957	-2049
1006.032	-1341
1006.106	-931
1006.181	-1268
1006.256	-1205
1006.331	-1220
1006.405	-1422
1006.480	-1783
1006.554	-1646
1006.629	-654
1006.704	-1474
1006.778	-1286
1006.853	-717
1006.927	-780
1007.002	-1731
1007.076	-1393
1007.150	-1755
1007.225	-957
1007.299	-1173
1007.373	-1396
1007.448	-1260
1007.522	-1345
1007.596	-777
1007.671	-1774
1007.745	-985
1007.819	-1790
1007.893	-1796
1007.967	-1448
1008.041	-1686
1008.115	-1025
1008.190	-1710
1008.264	-1187
1008.338	-2347
1008.412	-1217
1008.486	-739
1008.560	-1507
1008.633	-1777
1008.707	-1015
1008.781	-651
1008.855	-1321
1008.929	-1796
1009.003	-1812
1009.076	-1365
1009.150	-937
1009.224	-301
1009.298	-863
1009.371	-1490
1009.445	-556
1009.519	-504
1009.592	-2200
1009.666	-1018
1009.739	-1104
1009.813	-1186
1009.886	-764
1009.960	-2024
1010.033	-330
1010.107	-1164
1010.180	-2087
1010.253	-1470
1010.327	-1953
1010.400	-926
1010.473	-1113
1010.547	-189
1010.620	-1964
1010.693	-908
1010.766	-2140
1010.840	-721
1010.913	-467
1010.986	-2213
1011.059	-1330
1011.132	-1613
1011.205	-515
1011.278	-1518
1011.351	-1789
1011.424	-968
1011.497	-1991
1011.570	-1672
1011.643	-1381
1011.716	-1738
1011.789	-2400
1011.862	-1116
1011.934	-1052
1012.007	-1979
1012.080	-902
1012.153	-1618
1012.225	-967
1012.298	-1931
1012.371	-1998
1012.443	-1063
1012.516	-2456
1012.588	-1249
1012.661	-942
1012.733	-1314
1012.806	-333
1012.879	-2418
1012.951	-1483
1013.023	-1939
1013.096	-2402
1013.168	-2167
1013.241	-632
1013.313	-1415
1013.385	-2097
1013.458	-1123
1013.530	-1053
1013.602	-1593
1013.674	-531
1013.746	-1794
1013.819	-2277
1013.891	-1479
1013.963	-1311
1014.035	-1350
1014.107	-910
1014.179	-1771
1014.251	-1898
1014.323	-558
1014.395	-897
1014.467	-1356
1014.539	-1350
1014.611	-1608
1014.683	-1213
1014.754	-1336
1014.826	-2136
1014.898	-1477
1014.970	-1651
1015.042	-877
1015.113	-1539
1015.185	-1394
1015.257	-1939
1015.328	-1047
1015.400	-993
1015.471	-1324
1015.543	-2470
1015.615	-1431
1015.686	-1678
1015.757	-2178
1015.829	-621
1015.901	-862
1015.972	-835
1016.043	-1528
1016.115	-1217
1016.186	-467
1016.257	-2026
1016.328	-468
1016.400	-643
1016.471	-1618
1016.542	-1652
1016.613	-1281
1016.685	-851
1016.756	-1335
1016.827	-1535
1016.898	-1494
1016.969	-1154
1017.040	-1425
1017.111	-1662
1017.182	-2466
1017.253	-2493
1017.324	-1864
1017.395	-1861
1017.466	-1052
1017.537	-1982
1017.608	-839
1017.678	-1872
1017.749	-1860
1017.820	-1831
1017.891	-2045
1017.961	-1355
1018.032	-996
1018.103	-1129
1018.173	-1510
1018.244	-1536
1018.315	-1737
1018.385	-1239
1018.456	-2321
1018.526	-1924
1018.597	-1624
1018.667	-1797
1018.738	-996
1018.808	-1765
1018.878	-1796
1018.949	-1740
1019.019	-1763
1019.089	-1119
1019.160	-1646
1019.230	-1845
1019.300	-1238
1019.371	-2265
1019.441	-1705
1019.511	-1066
1019.581	-1749
1019.651	-1545
1019.721	-1757
1019.791	-2035
1019.861	-2190
1019.931	-1742
1020.001	-2165
1020.071	-1800
1020.141	-1609
1020.211	-2043
1020.281	-2286
1020.351	-2180
1020.421	-1649
1020.491	-1313
1020.560	-2056
1020.630	-2154
1020.700	-1622
1020.770	-1923
1020.839	-1745
1020.909	-1500
1020.979	-1878
1021.048	-1467
1021.118	-1294
1021.187	-2811
1021.257	-1557
1021.326	-1197
1021.396	-1917
1021.465	-2088
1021.535	-1356
1021.604	-2219
1021.674	-1671
1021.743	-1779
1021.812	-1220
1021.882	-1968
1021.951	-1942
1022.020	-1360
1022.089	-920
1022.159	-1574
1022.228	-1389
1022.297	-1800
1022.366	-1773
1022.435	-1789
1022.504	-1739
1022.573	-1657
1022.642	-2074
1022.711	-2026
1022.781	-834
1022.849	-1674
1022.918	-1860
1022.987	-1432
1023.056	-2737
1023.125	-1811
1023.194	-1847
1023.263	-924
1023.331	-1481
1023.400	-2722
1023.469	-2231
1023.538	-1461
1023.606	-2596
1023.675	-1437
1023.744	-2139
1023.812	-2235
1023.881	-2415
1023.949	-2033
1024.018	-1681
1024.086	-2637
1024.155	-1777
1024.223	-1108
1024.292	-1791
1024.360	-1669
1024.429	-820
1024.497	-2013
1024.565	-1565
1024.634	-1898
1024.702	-601
1024.770	-1932
1024.838	-1978
1024.907	-1916
1024.975	-1791
1025.043	-1355
1025.111	-2560
1025.179	-1573
1025.247	-1754
1025.315	-2126
1025.383	-2012
1025.451	-2173
1025.519	-2404
1025.587	-2121
1025.655	-1140
1025.723	-1872
1025.791	-1434
1025.859	-1769
1025.927	-1536
1025.995	-2375
1026.062	-1940
1026.130	-1781
1026.198	-2054
1026.266	-1786
1026.333	-1726
1026.401	-1572
1026.469	-1243
1026.536	-2494
1026.604	-2030
1026.671	-2209
1026.739	-2369
1026.806	-2319
1026.874	-1501
1026.941	-1824
1027.009	-1862
1027.076	-2282
1027.144	-1513
1027.211	-1843
1027.278	-2523
1027.345	-1230
1027.413	-1616
1027.480	-2304
1027.547	-2343
1027.614	-810
1027.682	-2031
1027.749	-2509
1027.816	-1607
1027.883	-2263
1027.950	-2051
1028.017	-2661
1028.084	-1610
1028.151	-2823
1028.218	-2279
1028.285	-2772
1028.352	-1752
1028.419	-2500
1028.486	-2321
1028.553	-2144
1028.619	-2145
1028.686	-1402
1028.753	-2121
1028.820	-1914
1028.886	-1845
1028.953	-1864
1029.020	-1989
1029.086	-2203
1029.153	-2439
1029.220	-2085
1029.286	-1727
1029.353	-1803
1029.419	-2248
1029.486	-2147
1029.552	-1589
1029.619	-1897
1029.685	-1202
1029.751	-2595
1029.818	-891
1029.884	-2140
1029.951	-895
1030.017	-1285
1030.083	-1959
1030.149	-2932
1030.216	-2095
1030.282	-1760
1030.348	-1775
1030.414	-2366
1030.480	-2145
1030.546	-2375
1030.612	-2107
1030.678	-2005
1030.744	-2452
1030.810	-2023
1030.876	-1999
1030.942	-2017
1031.008	-2162
1031.074	-1624
1031.140	-1681
1031.206	-2197
1031.272	-2484
1031.337	-2109
1031.403	-2158
1031.469	-2289
1031.534	-2637
1031.600	-1960
1031.666	-1906
1031.731	-2726
1031.797	-2075
1031.863	-1550
1031.928	-2045
1031.994	-2547
1032.059	-2487
1032.125	-2489
1032.190	-1965
1032.256	-2879
1032.321	-2576
1032.386	-2558
1032.452	-1635
1032.517	-1906
1032.582	-2276
1032.647	-2378
1032.713	-2186
1032.778	-2429
1032.843	-2367
1032.908	-2600
1032.974	-2520
1033.039	-2349
1033.104	-1651
1033.169	-2850
1033.234	-1821
1033.299	-1643
1033.364	-2773
1033.429	-1821
1033.494	-1041
1033.559	-2257
1033.624	-1416
1033.688	-1687
1033.753	-1831
1033.818	-1238
1033.883	-1664
1033.948	-1819
1034.013	-1278
1034.077	-1874
1034.142	-958
1034.207	-840
1034.271	689
1034.336	1393
1034.400	-429
1034.465	-1587
1034.530	-1327
1034.594	-1855
1034.658	-2494
1034.723	-1669
1034.787	-1767
1034.852	-711
1034.916	-2412
1034.981	-2279
1035.045	-1663
1035.109	-2073
1035.173	-1864
1035.238	-2555
1035.302	-2045
1035.366	-2651
1035.430	-2256
1035.495	-1951
1035.559	-3355
1035.623	-2575
1035.687	-2019
1035.751	-1452
1035.815	-1989
1035.879	-2595
1035.943	-1872
1036.007	-2551
1036.071	-2257
1036.135	-2145
1036.198	-2270
1036.262	-2678
1036.326	-2487
1036.390	-2565
1036.454	-1540
1036.517	-2438
1036.581	-2465
1036.645	-2231
1036.709	-1810
1036.772	-2416
1036.836	-2301
1036.900	-2609
1036.963	-2438
1037.026	-2514
1037.090	-2618
1037.154	-2200
1037.217	-2100
1037.280	-2957
1037.344	-2144
1037.407	-2389
1037.471	-1910
1037.534	-2522
1037.597	-1737
1037.661	-3112
1037.724	-2164
1037.787	-2522
1037.850	-2438
1037.913	-2618
1037.977	-806
1038.040	-2004
1038.103	-2320
1038.166	-1940
1038.229	-2624
1038.292	-3114
1038.355	-2056
1038.418	-2184
1038.481	-2057
1038.544	-2221
1038.607	-2246
1038.670	-2576
1038.732	-1744
1038.795	-2262
1038.858	-2735
1038.921	-2149
1038.984	-1728
1039.046	-2213
1039.109	-2662
1039.172	-2070
1039.234	-2386
1039.297	-2667
1039.360	-1982
1039.422	-1809
1039.485	-2184
1039.547	-2981
1039.610	-2918
1039.672	-1401
1039.734	-2294
1039.797	-2045
1039.859	-2557
1039.922	-2650
1039.984	-2274
1040.046	-2522
1040.109	-2257
1040.171	-2843
1040.233	-2289
1040.295	-2638
1040.358	-2058
1040.420	-2711
1040.482	-2559
1040.544	-3037
1040.606	-2483
1040.668	-2686
1040.730	-2592
1040.792	-2522
1040.854	-2089
1040.916	-2348
1040.978	-2997
1041.040	-1290
1041.102	-3613
1041.164	-2274
1041.225	-2334
1041.287	-2395
1041.349	-2021
1041.411	-2526
1041.472	-2405
1041.534	-2550
1041.596	-2771
1041.657	-2432
1041.719	-1119
1041.781	-2611
1041.842	-2055
1041.904	-2418
1041.965	-2438
1042.027	-2208
1042.088	-2267
1042.150	-2856
1042.211	-2419
1042.272	-2085
1042.334	-2427
1042.395	-2400
1042.456	-2451
1042.518	-2202
1042.579	-1538
1042.640	-2763
1042.701	-2097
1042.763	-2095
1042.824	-1640
1042.885	-2900
1042.946	-2891
1043.007	-3110
1043.068	-1817
1043.129	-2409
1043.190	-1541
1043.251	-3062
1043.312	-1721
1043.373	-2702
1043.434	-2737
1043.495	-2319
1043.556	-1881
1043.616	-1893
1043.677	-2013
1043.738	-1974
1043.799	-2694
1043.859	-2392
1043.920	-2164
1043.981	-1981
1044.041	-1905
1044.102	-2328
1044.162	-2085
1044.223	-2648
1044.284	-2780
1044.344	-2111
1044.405	-2837
1044.465	-2161
1044.525	-1901
1044.586	-2770
1044.646	-2254
1044.707	-2154
1044.767	-2239
1044.827	-2489
1044.887	-2575
1044.948	-1723
1045.008	-2430
1045.068	-1492
1045.128	-2117
1045.188	-2648
1045.249	-1692
1045.309	-2810
1045.369	-1669
1045.429	-2169
1045.489	-2462
1045.549	-2510
1045.609	-2438
1045.669	-3111
1045.729	-2099
1045.789	-3052
1045.848	-1442
1045.908	-1368
1045.968	-1939
1046.028	-2152
1046.088	-1685
1046.147	-1784
1046.207	-2373
1046.267	-1993
1046.326	-963
1046.386	-2080
1046.446	-1956
1046.505	-1715
1046.565	-1716
1046.624	-1474
1046.684	-531
1046.743	-790
1046.803	-908
1046.862	-750
1046.922	0
