'Start Wavelength	183.907
'End Wavelength	1046.922
'Gate Delay	5.000
'Gate Width (ms)	1.050
'Laser Output Level	0.000
'X Position	0.000
'Y Position	0.000
'Z Position	0.000
'Grid Point Number	1.000
'Shot Number	100.000
183.907	460.000
183.977	-511.000
184.047	-490
184.116	-420
184.186	80
184.256	-120
184.325	243
184.395	-1139
184.465	889
184.534	239
184.604	-587
184.674	-303
184.743	-56
184.813	-135
184.883	88
184.952	-545
185.022	-53
185.092	-242
185.161	-726
185.231	18
185.301	-317
185.370	-113
185.440	-230
185.509	-961
185.579	-313
185.649	-772
185.718	-51
185.788	-306
185.857	-167
185.927	-911
185.996	401
186.066	-960
186.136	-266
186.205	-316
186.275	-89
186.344	52
186.414	-921
186.483	-207
186.553	864
186.622	-762
186.692	285
186.761	-831
186.831	521
186.900	-725
186.970	-400
187.039	518
187.109	474
187.178	-1026
187.248	-296
187.317	89
187.387	-559
187.456	-32
187.526	-5
187.595	-161
187.664	873
187.734	157
187.803	-271
187.873	110
187.942	19
188.012	-2
188.081	4
188.150	-23
188.220	134
188.289	219
188.358	-491
188.428	-80
188.497	-851
188.567	487
188.636	-795
188.705	-156
188.775	8
188.844	-1091
188.913	707
188.983	-846
189.052	-2
189.121	-380
189.191	559
189.260	-10
189.329	116
189.399	-493
189.468	70
189.537	163
189.606	284
189.676	-498
189.745	-208
189.814	81
189.883	210
189.953	-304
190.022	222
190.091	74
190.161	-531
190.230	185
190.299	313
190.368	-530
190.437	-633
190.507	222
190.576	231
190.645	-123
190.714	481
190.783	-56
190.853	286
190.922	-172
190.991	-512
191.060	-17
191.129	-487
191.198	-234
191.268	171
191.337	-99
191.406	648
191.475	-56
191.544	-349
191.613	-282
191.682	-195
191.752	-1165
191.821	-211
191.890	-613
191.959	-172
192.028	7
192.097	-85
192.166	-810
192.235	-763
192.304	-421
192.373	-367
192.442	-833
192.511	-394
192.580	-759
192.650	321
192.719	-618
192.788	80
192.857	-496
192.926	-432
192.995	-473
193.064	430
193.133	-604
193.202	-419
193.271	292
193.340	129
193.409	-122
193.478	657
193.547	-908
193.615	-156
193.684	-342
193.753	430
193.822	-168
193.891	307
193.960	148
194.029	-179
194.098	-358
194.167	130
194.236	142
194.305	-79
194.374	99
194.443	302
194.512	-147
194.580	176
194.649	-408
194.718	-262
194.787	192
194.856	-431
194.925	-381
194.994	-433
195.062	283
195.131	138
195.200	-601
195.269	392
195.338	2
195.407	111
195.475	-496
195.544	343
195.613	-221
195.682	-356
195.751	-197
195.819	-655
195.888	-811
195.957	630
196.026	366
196.094	377
196.163	-292
196.232	-3
196.301	-1262
196.369	-125
196.438	-465
196.507	-413
196.576	140
196.644	-409
196.713	152
196.782	-329
196.850	-74
196.919	-50
196.988	186
197.056	-181
197.125	-248
197.194	-400
197.262	-2
197.331	342
197.400	-455
197.468	-627
197.537	-561
197.606	280
197.674	46
197.743	-251
197.812	-277
197.880	397
197.949	80
198.017	-131
198.086	-861
198.155	-848
198.223	-159
198.292	97
198.360	-515
198.429	-616
198.497	-959
198.566	669
198.635	630
198.703	768
198.772	3
198.840	-600
198.909	-67
198.977	-857
199.046	-527
199.114	-69
199.183	-755
199.251	-400
199.320	-765
199.388	-625
199.457	-287
199.525	-694
199.594	-560
199.662	-66
199.731	-674
199.799	-384
199.867	315
199.936	-185
200.004	-650
200.073	158
200.141	-736
200.210	-65
200.278	-196
200.346	144
200.415	247
200.483	-520
200.552	33
200.620	-30
200.688	-220
200.757	-281
200.825	-50
200.893	30
200.962	-61
201.030	-99
201.098	-885
201.167	-115
201.235	-722
201.303	-144
201.372	43
201.440	-441
201.508	-94
201.577	-875
201.645	-515
201.713	-449
201.781	-384
201.850	-628
201.918	198
201.986	-156
202.055	-43
202.123	-483
202.191	-158
202.259	-154
202.327	8
202.396	314
202.464	-368
202.532	-77
202.600	185
202.669	226
202.737	-595
202.805	-373
202.873	102
202.941	765
203.009	152
203.078	-168
203.146	222
203.214	-399
203.282	-1149
203.350	61
203.418	1
203.487	192
203.555	-1015
203.623	67
203.691	-326
203.759	-299
203.827	-1013
203.895	452
203.963	-804
204.031	-251
204.099	-561
204.168	-424
204.236	-122
204.304	392
204.372	-1260
204.440	-76
204.508	-79
204.576	50
204.644	-699
204.712	-967
204.780	-181
204.848	-143
204.916	-524
204.984	141
205.052	-130
205.120	-462
205.188	-662
205.256	-768
205.324	-178
205.392	-486
205.460	-393
205.528	-580
205.596	-377
205.664	-400
205.732	-819
205.799	-167
205.867	-490
205.935	-170
206.003	-471
206.071	-240
206.139	-907
206.207	-378
206.275	-807
206.343	-876
206.411	-1221
206.478	-440
206.546	-521
206.614	-120
206.682	-1577
206.750	38
206.818	-518
206.885	282
206.953	-721
207.021	36
207.089	37
207.157	-225
207.225	-641
207.292	116
207.360	-756
207.428	-413
207.496	-814
207.563	-72
207.631	-413
207.699	-409
207.767	-933
207.834	-419
207.902	-595
207.970	-1107
208.038	-567
208.105	23
208.173	-1023
208.241	-143
208.309	-306
208.376	-105
208.444	-383
208.512	-876
208.579	-1039
208.647	-240
208.715	-395
208.782	171
208.850	-41
208.918	-700
208.985	-318
209.053	-522
209.120	-606
209.188	-385
209.256	-447
209.323	-1360
209.391	-734
209.459	606
209.526	-16
209.594	-660
209.661	-322
209.729	240
209.796	111
209.864	-374
209.932	-1376
209.999	390
210.067	-748
210.134	-491
210.202	-265
210.269	82
210.337	791
210.404	287
210.472	-557
210.539	-445
210.607	-840
210.674	-73
210.742	-899
210.809	-684
210.877	41
210.944	245
211.012	-1052
211.079	18
211.146	-650
211.214	-394
211.281	-199
211.349	48
211.416	-714
211.484	-337
211.551	-908
211.618	-427
211.686	-513
211.753	-960
211.821	-454
211.888	-482
211.955	-903
212.023	-28
212.090	11
212.157	-224
212.225	-14
212.292	92
212.359	-40
212.427	1760
212.494	-456
212.561	-7
212.629	105
212.696	-728
212.763	-339
212.831	-1424
212.898	-336
212.965	-384
213.032	-1190
213.100	-563
213.167	-972
213.234	356
213.301	-765
213.369	-17
213.436	-1131
213.503	-900
213.570	-381
213.638	-821
213.705	-1030
213.772	-889
213.839	-1402
213.906	-144
213.973	-932
214.041	-93
214.108	25
214.175	-610
214.242	-682
214.309	215
214.376	-264
214.444	-613
214.511	-172
214.578	-279
214.645	202
214.712	-420
214.779	-556
214.846	-627
214.913	-397
214.980	-961
215.048	-360
215.115	1458
215.182	-540
215.249	-308
215.316	-861
215.383	-20
215.450	-361
215.517	-1395
215.584	-839
215.651	-90
215.718	-59
215.785	-334
215.852	-1502
215.919	25
215.986	-407
216.053	-87
216.120	-1503
216.187	-756
216.254	-521
216.321	-911
216.388	-375
216.455	-171
216.522	41
216.589	-399
216.656	187
216.722	142
216.789	-923
216.856	-294
216.923	-821
216.990	102
217.057	-731
217.124	-79
217.191	-692
217.258	213
217.324	-734
217.391	562
217.458	-261
217.525	-317
217.592	322
217.659	-543
217.725	-524
217.792	-684
217.859	-225
217.926	-84
217.993	-710
218.059	42
218.126	-558
218.193	-591
218.260	-560
218.327	-449
218.393	-827
218.460	-537
218.527	-941
218.594	-174
218.660	-548
218.727	-170
218.794	-775
218.860	-100
218.927	-1048
218.994	-769
219.061	-1310
219.127	-424
219.194	-1023
219.261	-394
219.327	-426
219.394	192
219.461	-580
219.527	-31
219.594	-524
219.661	-659
219.727	-1496
219.794	687
219.860	-968
219.927	891
219.994	776
220.060	1117
220.127	1327
220.193	829
220.260	131
220.326	92
220.393	-736
220.460	-206
220.526	-390
220.593	-1190
220.659	1212
220.726	-856
220.792	116
220.859	527
220.925	422
220.992	313
221.058	1106
221.125	973
221.191	-277
221.258	-443
221.324	-209
221.391	3
221.457	-825
221.524	-879
221.590	78
221.657	1335
221.723	-628
221.789	-767
221.856	331
221.922	-929
221.989	-660
222.055	-516
222.121	-1104
222.188	560
222.254	76
222.321	-1001
222.387	-1756
222.453	-843
222.520	-751
222.586	-565
222.652	-424
222.719	-845
222.785	-284
222.851	-814
222.918	-284
222.984	-534
223.050	-751
223.116	-1768
223.183	133
223.249	-1203
223.315	-1118
223.382	-381
223.448	-917
223.514	-189
223.580	-583
223.647	-1238
223.713	-1694
223.779	-409
223.845	-734
223.911	-401
223.978	-760
224.044	-715
224.110	-619
224.176	-72
224.242	-1121
224.309	-1198
224.375	-993
224.441	-834
224.507	-1565
224.573	-1338
224.639	-397
224.705	-792
224.772	-1002
224.838	-1576
224.904	6
224.970	-647
225.036	-454
225.102	-1217
225.168	-705
225.234	-100
225.300	-792
225.366	-601
225.432	285
225.499	-561
225.565	-716
225.631	-1550
225.697	-498
225.763	101
225.829	-441
225.895	-719
225.961	-1323
226.027	-1181
226.093	-1071
226.159	75
226.225	746
226.291	579
226.357	1244
226.423	-93
226.489	-700
226.554	-651
226.620	-450
226.686	350
226.752	-151
226.818	810
226.884	3047
226.950	2607
227.016	83
227.082	251
227.148	-715
227.214	333
227.279	-677
227.345	-477
227.411	-432
227.477	1074
227.543	2276
227.609	3326
227.674	1805
227.740	270
227.806	-187
227.872	35
227.938	425
228.003	67
228.069	-1101
228.135	-206
228.201	-866
228.267	-470
228.332	-329
228.398	-1458
228.464	-1299
228.530	-432
228.595	38
228.661	-1036
228.727	-1230
228.792	500
228.858	-565
228.924	-2057
228.990	-171
229.055	-2152
229.121	-745
229.187	-682
229.252	-1205
229.318	-1380
229.384	-995
229.449	-520
229.515	-1806
229.581	-1677
229.646	971
229.712	-635
229.777	-1217
229.843	-462
229.909	-545
229.974	-777
230.040	-636
230.105	-553
230.171	-1006
230.236	-830
230.302	-1049
230.368	-1135
230.433	-2109
230.499	99
230.564	212
230.630	-1181
230.695	-1243
230.761	-65
230.826	-1953
230.892	533
230.957	-1080
231.023	-958
231.088	-1113
231.154	-563
231.219	-1106
231.284	-1373
231.350	-212
231.415	-1400
231.481	-284
231.546	-820
231.612	-615
231.677	-1396
231.742	-2124
231.808	-213
231.873	-1241
231.939	-1564
232.004	67
232.069	-378
232.135	-1044
232.200	-1229
232.265	-548
232.331	-886
232.396	-1417
232.461	-1245
232.527	-1418
232.592	-1921
232.657	-160
232.723	-134
232.788	-1321
232.853	-288
232.918	-439
232.984	-804
233.049	-555
233.114	-1478
233.179	-784
233.245	274
233.310	-309
233.375	-816
233.440	-742
233.506	-1213
233.571	-1392
233.636	-602
233.701	-1176
233.766	-602
233.832	-1258
233.897	-771
233.962	-2054
234.027	130
234.092	-313
234.157	-778
234.222	-1312
234.288	-782
234.353	-449
234.418	-229
234.483	-377
234.548	-423
234.613	-692
234.678	-699
234.743	-1449
234.808	578
234.873	-1202
234.938	194
235.004	-902
235.069	-348
235.134	-1797
235.199	-502
235.264	-154
235.329	-1657
235.394	-596
235.459	54
235.524	-1662
235.589	-606
235.654	-852
235.719	-1707
235.784	-1305
235.849	-1003
235.913	-931
235.978	-406
236.043	-695
236.108	-880
236.173	-1592
236.238	-140
236.303	-1533
236.368	-875
236.433	-214
236.498	-856
236.563	-609
236.627	-902
236.692	4292
236.757	3466
236.822	-308
236.887	-518
236.952	-179
237.017	-1680
237.081	176
237.146	-1181
237.211	377
237.276	3963
237.341	7236
237.405	1099
237.470	-136
237.535	-673
237.600	98
237.664	53
237.729	-1323
237.794	-1385
237.859	500
237.923	-751
237.988	-1026
238.053	-240
238.118	-1002
238.182	373
238.247	1046
238.312	-1512
238.376	179
238.441	-1758
238.506	-280
238.570	-2072
238.635	-391
238.700	-929
238.764	-1083
238.829	-442
238.893	-1317
238.958	-3
239.023	-731
239.087	-507
239.152	-450
239.216	-1217
239.281	-673
239.346	170
239.410	-495
239.475	-888
239.539	175
239.604	-1253
239.668	228
239.733	298
239.797	2632
239.862	6628
239.926	4582
239.991	2093
240.055	669
240.120	-711
240.184	-577
240.249	-1185
240.313	-1510
240.378	-450
240.442	-763
240.507	284
240.571	-909
240.635	-804
240.700	-1602
240.764	-1408
240.829	-1282
240.893	-2027
240.957	-1099
241.022	-610
241.086	-42
241.151	-1797
241.215	-1777
241.279	-174
241.344	-1894
241.408	-77
241.472	-1777
241.537	633
241.601	-1096
241.665	-1526
241.730	-1119
241.794	-303
241.858	-1388
241.922	-1090
241.987	-1433
242.051	-707
242.115	-2184
242.179	-531
242.244	-2100
242.308	-863
242.372	-1747
242.436	-1464
242.501	-613
242.565	-1382
242.629	-1623
242.693	-482
242.757	-1769
242.822	-1336
242.886	-379
242.950	73
243.014	-1323
243.078	-731
243.142	-844
243.206	-1625
243.271	-1080
243.335	-1419
243.399	-472
243.463	-177
243.527	3598
243.591	-252
243.655	-977
243.719	-1123
243.783	-454
243.847	-944
243.911	-386
243.975	-1013
244.040	-1943
244.104	587
244.168	-697
244.232	-1131
244.296	-1075
244.360	-348
244.424	-1761
244.488	-642
244.552	-881
244.615	-2318
244.679	-857
244.743	-1573
244.807	-2325
244.871	203
244.935	-273
244.999	-1632
245.063	-1830
245.127	-439
245.191	-1196
245.255	-937
245.319	-937
245.383	-2349
245.446	-97
245.510	-1705
245.574	-1490
245.638	-464
245.702	-2494
245.766	-829
245.829	258
245.893	-1783
245.957	-1695
246.021	567
246.085	-951
246.149	-838
246.212	787
246.276	-882
246.340	-792
246.404	345
246.467	-287
246.531	-2686
246.595	476
246.659	-793
246.722	-2736
246.786	-1227
246.850	-1096
246.913	-860
246.977	-2071
247.041	-871
247.104	-1163
247.168	57
247.232	-304
247.295	517
247.359	492
247.423	-1581
247.486	-892
247.550	151
247.614	-1510
247.677	-339
247.741	-1518
247.804	-752
247.868	-789
247.932	-1298
247.995	807
248.059	-484
248.122	-1592
248.186	471
248.249	-497
248.313	2974
248.376	2900
248.440	289
248.503	-2023
248.567	40
248.630	-2265
248.694	-562
248.757	229
248.821	2931
248.884	753
248.948	-71
249.011	875
249.075	2481
249.138	2791
249.202	-326
249.265	-1420
249.328	658
249.392	-1559
249.455	-247
249.519	-1276
249.582	-510
249.645	-765
249.709	-586
249.772	-601
249.835	-482
249.899	-707
249.962	-416
250.025	-1512
250.089	461
250.152	459
250.215	60
250.279	-885
250.342	-12
250.405	-508
250.468	-1066
250.532	-1128
250.595	-27
250.658	2747
250.721	8297
250.785	1167
250.848	933
250.911	-922
250.974	455
251.038	-622
251.101	1322
251.164	-891
251.227	-485
251.290	-951
251.354	315
251.417	6768
251.480	5444
251.543	2791
251.606	14160
251.669	8164
251.732	1945
251.795	1420
251.859	1391
251.922	7658
251.985	3991
252.048	721
252.111	-67
252.174	-1346
252.237	1286
252.300	3335
252.363	2742
252.426	11343
252.489	2688
252.552	404
252.615	-821
252.678	-157
252.741	2052
252.804	2279
252.867	11943
252.930	4696
252.993	1068
253.056	336
253.119	282
253.182	-818
253.245	-367
253.308	-267
253.371	-663
253.434	-884
253.497	-155
253.559	533
253.622	101
253.685	-860
253.748	-622
253.811	-1019
253.874	131
253.937	-1218
254.000	-588
254.062	-939
254.125	154
254.188	224
254.251	-832
254.314	-1304
254.376	-1785
254.439	-67
254.502	-264
254.565	-1018
254.628	1681
254.690	-967
254.753	-671
254.816	-785
254.878	-1744
254.941	52
255.004	-321
255.067	-773
255.129	-1519
255.192	-816
255.255	-1603
255.317	-1072
255.380	-757
255.443	-1142
255.505	-738
255.568	-1782
255.631	-787
255.693	-656
255.756	-1461
255.819	-255
255.881	-840
255.944	-875
256.006	-788
256.069	-1599
256.132	-1037
256.194	-938
256.257	-1169
256.319	-1215
256.382	-102
256.444	127
256.507	-61
256.569	-1443
256.632	-638
256.694	-1415
256.757	1653
256.819	7167
256.882	894
256.944	203
257.007	-229
257.069	-1436
257.132	-855
257.194	-76
257.257	-852
257.319	-1574
257.381	-1467
257.444	911
257.506	8336
257.569	7504
257.631	472
257.693	-578
257.756	-1178
257.818	-1010
257.880	-1004
257.943	115
258.005	-941
258.067	-800
258.130	-966
258.192	-915
258.254	-661
258.317	-1270
258.379	280
258.441	-1344
258.503	530
258.566	-447
258.628	-388
258.690	-1213
258.753	-511
258.815	-1469
258.877	-1068
258.939	-1051
259.001	-353
259.064	-1070
259.126	-1280
259.188	-1400
259.250	-534
259.312	-2481
259.375	-1337
259.437	-1578
259.499	-875
259.561	-1448
259.623	-489
259.685	-1752
259.747	-537
259.809	201
259.872	432
259.934	1091
259.996	1458
260.058	-619
260.120	-1652
260.182	-1053
260.244	-647
260.306	-1688
260.368	406
260.430	-1628
260.492	-465
260.554	-495
260.616	-1652
260.678	169
260.740	-55
260.802	-924
260.864	-606
260.926	-1669
260.988	-249
261.050	-1381
261.112	-1837
261.174	658
261.236	154
261.298	-1168
261.359	-1209
261.421	241
261.483	-1313
261.545	269
261.607	-1460
261.669	-322
261.731	-445
261.793	113
261.854	-1075
261.916	-193
261.978	-942
262.040	-1208
262.102	-424
262.164	-1378
262.225	-613
262.287	-1608
262.349	-337
262.411	-1301
262.472	-302
262.534	-1473
262.596	-1101
262.658	-511
262.719	-1705
262.781	-1015
262.843	-1399
262.904	-558
262.966	-295
263.028	-1203
263.090	790
263.151	2327
263.213	471
263.275	-1530
263.336	-825
263.398	-551
263.459	-1181
263.521	-1584
263.583	-235
263.644	-1132
263.706	-1027
263.767	-1436
263.829	-348
263.891	-968
263.952	-882
264.014	-1311
264.075	-1088
264.137	-952
264.198	-614
264.260	-1817
264.321	-1228
264.383	-1562
264.444	-630
264.506	-1132
264.567	-662
264.629	-358
264.690	-1594
264.752	-896
264.813	-1631
264.875	-2005
264.936	-346
264.998	-1117
265.059	-961
265.120	-33
265.182	-1404
265.243	1557
265.305	2478
265.366	-881
265.427	-110
265.489	-440
265.550	-1177
265.611	-1015
265.673	-1332
265.734	-1256
265.795	159
265.857	-540
265.918	-786
265.979	-432
266.040	4934
266.102	3034
266.163	663
266.224	-657
266.286	-1178
266.347	-1940
266.408	-1044
266.469	-859
266.530	-1349
266.592	-1098
266.653	-865
266.714	-1451
266.775	-573
266.836	-1214
266.898	-1998
266.959	-911
267.020	-1386
267.081	-191
267.142	-556
267.203	-1140
267.264	-1740
267.326	-957
267.387	-1544
267.448	-1280
267.509	-949
267.570	-425
267.631	-882
267.692	-1791
267.753	-875
267.814	-1187
267.875	-511
267.936	-734
267.997	-794
268.058	-270
268.119	-917
268.180	-1303
268.241	-1287
268.302	-1256
268.363	-1304
268.424	-1111
268.485	-1503
268.546	-1924
268.607	-1363
268.668	-1321
268.729	-1916
268.790	-618
268.851	-390
268.912	-1211
268.972	-928
269.033	-1466
269.094	-1210
269.155	-1201
269.216	-722
269.277	-1075
269.338	-865
269.398	-1127
269.459	-1603
269.520	-1709
269.581	-1273
269.642	-1439
269.702	-1635
269.763	-414
269.824	-783
269.885	-808
269.945	-1068
270.006	-1428
270.067	-1086
270.128	-921
270.188	-1899
270.249	-1793
270.310	-1564
270.370	-682
270.431	-945
270.492	-2067
270.553	-1430
270.613	-1145
270.674	512
270.734	-1035
270.795	-1018
270.856	-820
270.916	-1984
270.977	-1070
271.038	-678
271.098	-1039
271.159	-826
271.219	-1605
271.280	-926
271.340	-1271
271.401	-1842
271.462	-1153
271.522	-271
271.583	-1643
271.643	-161
271.704	-1425
271.764	-416
271.825	-533
271.885	1784
271.946	2598
272.006	649
272.066	535
272.127	2791
272.187	2478
272.248	53
272.308	-1112
272.369	1798
272.429	311
272.489	-502
272.550	-1317
272.610	47
272.671	-1881
272.731	281
272.791	-1389
272.852	-692
272.912	-1399
272.972	-974
273.033	-1104
273.093	-811
273.153	-284
273.214	-871
273.274	-560
273.334	226
273.394	1291
273.455	-99
273.515	-535
273.575	714
273.635	-147
273.696	636
273.756	1646
273.816	226
273.876	-637
273.936	-40
273.997	629
274.057	-776
274.117	-1170
274.177	-659
274.237	1932
274.297	1315
274.358	-200
274.418	1176
274.478	-282
274.538	-567
274.598	-1223
274.658	-112
274.718	304
274.778	-749
274.838	-1501
274.898	-525
274.958	384
275.018	1861
275.078	254
275.138	-539
275.198	-1045
275.258	-876
275.318	-1293
275.378	-377
275.438	-1332
275.498	-270
275.558	-38
275.618	1443
275.678	-25
275.738	388
275.798	-1221
275.858	-1323
275.918	-1469
275.978	-458
276.038	-465
276.098	-614
276.157	-1029
276.217	727
276.277	-883
276.337	-338
276.397	-743
276.457	-285
276.517	-1030
276.576	-268
276.636	-1642
276.696	-1098
276.756	-408
276.815	-475
276.875	-425
276.935	-935
276.995	-773
277.055	-700
277.114	176
277.174	-1024
277.234	-443
277.293	-1105
277.353	-1560
277.413	-633
277.472	-1627
277.532	-954
277.592	-271
277.651	3227
277.711	6666
277.771	1072
277.830	7118
277.890	5431
277.950	3989
278.009	14570
278.069	4642
278.128	4859
278.188	6961
278.248	1757
278.307	7840
278.367	5181
278.426	-319
278.486	-717
278.545	-907
278.605	-75
278.664	-1184
278.724	-510
278.783	-294
278.843	3094
278.902	-722
278.962	-806
279.021	-918
279.081	1261
279.140	-253
279.199	121
279.259	-11
279.318	1254
279.378	1711
279.437	2244
279.496	7823
279.556	40603
279.615	31935
279.675	6250
279.734	2414
279.793	3411
279.853	3918
279.912	664
279.971	1131
280.031	559
280.090	1103
280.149	2586
280.208	3570
280.268	27356
280.327	29304
280.386	4541
280.445	2405
280.505	1559
280.564	538
280.623	-589
280.682	138
280.742	523
280.801	-665
280.860	-296
280.919	-629
280.978	125
281.037	-297
281.097	-742
281.156	-70
281.215	-318
281.274	-682
281.333	1005
281.392	147
281.451	-675
281.510	-767
281.569	-337
281.628	-756
281.688	-557
281.747	-369
281.806	-473
281.865	-901
281.924	-618
281.983	-761
282.042	-897
282.101	-866
282.160	-546
282.219	-1480
282.278	-532
282.337	-1369
282.396	-869
282.454	-1047
282.513	-239
282.572	160
282.631	-351
282.690	-1053
282.749	-1413
282.808	-874
282.867	-1216
282.926	-95
282.985	-694
283.043	-1000
283.102	-1493
283.161	-1338
283.220	-267
283.279	236
283.338	-848
283.396	-1376
283.455	53
283.514	-1059
283.573	-680
283.631	-893
283.690	-445
283.749	-999
283.808	-172
283.866	-103
283.925	-668
283.984	-832
284.043	-703
284.101	-561
284.160	-1111
284.219	-860
284.277	-24
284.336	-624
284.395	670
284.453	1014
284.512	867
284.570	507
284.629	322
284.688	-195
284.746	1153
284.805	1069
284.863	2224
284.922	3160
284.981	4290
285.039	6029
285.098	11903
285.156	27602
285.215	47465
285.273	45614
285.332	29960
285.390	15887
285.449	9093
285.507	5371
285.566	2945
285.624	1781
285.683	2564
285.741	724
285.799	935
285.858	475
285.916	144
285.975	-338
286.033	-496
286.091	533
286.150	-365
286.208	-619
286.267	323
286.325	-431
286.383	-419
286.442	16
286.500	-1330
286.558	-455
286.616	-648
286.675	50
286.733	-535
286.791	-1207
286.850	-276
286.908	-1158
286.966	-487
287.024	-1539
287.083	-1158
287.141	-319
287.199	-464
287.257	-67
287.315	-341
287.374	-1073
287.432	-651
287.490	-537
287.548	-532
287.606	-1206
287.664	-442
287.723	-725
287.781	-57
287.839	-838
287.897	-706
287.955	-442
288.013	-170
288.071	607
288.129	8232
288.187	31349
288.245	9660
288.303	2323
288.361	1308
288.419	724
288.477	-587
288.535	-885
288.593	-280
288.651	-1413
288.709	-744
288.767	-936
288.825	-1217
288.883	-835
288.941	-423
288.999	-1381
289.057	-627
289.115	-880
289.173	-1249
289.231	-1127
289.289	-1050
289.346	-1047
289.404	-532
289.462	-1125
289.520	-869
289.578	-1259
289.636	-611
289.694	-194
289.751	-926
289.809	-1657
289.867	-600
289.925	-476
289.983	-1455
290.040	-574
290.098	-966
290.156	-1641
290.214	-539
290.271	-1278
290.329	-374
290.387	-1469
290.444	-98
290.502	-820
290.560	-164
290.617	-1570
290.675	-657
290.733	-967
290.790	-148
290.848	-171
290.906	-1154
290.963	-1169
291.021	-805
291.078	-416
291.136	-1538
291.194	-350
291.251	730
291.309	-926
291.366	-912
291.424	-870
291.481	-557
291.539	-1436
291.596	-919
291.654	-1096
291.711	-384
291.769	-320
291.826	-971
291.884	-306
291.941	-1127
291.999	-383
292.056	-1002
292.114	-1582
292.171	-711
292.228	-857
292.286	-1186
292.343	-830
292.401	-361
292.458	-457
292.515	-736
292.573	328
292.630	-556
292.687	-748
292.745	-473
292.802	-1424
292.859	-503
292.917	287
292.974	-518
293.031	-1151
293.089	-1261
293.146	-816
293.203	-1341
293.260	-1192
293.318	-1120
293.375	-903
293.432	-732
293.489	-365
293.546	-304
293.604	-907
293.661	348
293.718	3273
293.775	300
293.832	-463
293.889	-725
293.947	-446
294.004	-1051
294.061	-502
294.118	-327
294.175	-524
294.232	1178
294.289	-304
294.346	-536
294.403	-558
294.460	-260
294.517	-577
294.574	-662
294.631	-960
294.688	330
294.745	-531
294.802	2889
294.859	1531
294.916	-313
294.973	-599
295.030	-377
295.087	-647
295.144	-1046
295.201	-742
295.258	-934
295.315	-707
295.372	-109
295.429	1475
295.486	416
295.542	-1383
295.599	366
295.656	1212
295.713	442
295.770	349
295.827	-424
295.883	-570
295.940	-687
295.997	-771
296.054	-665
296.111	-1051
296.167	256
296.224	-630
296.281	-1088
296.338	-1294
296.394	-1011
296.451	-341
296.508	-567
296.564	99
296.621	-123
296.678	2259
296.734	3521
296.791	764
296.848	-203
296.904	-780
296.961	-83
297.018	605
297.074	1042
297.131	-640
297.187	-982
297.244	-671
297.301	1513
297.357	5522
297.414	243
297.470	-503
297.527	-753
297.583	-496
297.640	277
297.696	-1277
297.753	-169
297.809	-472
297.866	-792
297.922	-490
297.979	-576
298.035	-607
298.092	-426
298.148	75
298.204	431
298.261	-788
298.317	676
298.374	2827
298.430	1397
298.486	-551
298.543	-1055
298.599	-842
298.656	-940
298.712	-496
298.768	479
298.824	221
298.881	-1312
298.937	-1396
298.993	-701
299.050	-381
299.106	-7
299.162	-591
299.218	520
299.275	-855
299.331	158
299.387	-459
299.443	4192
299.500	9696
299.556	6939
299.612	1682
299.668	1193
299.724	6375
299.780	8882
299.837	2247
299.893	2045
299.949	6027
300.005	9589
300.061	6723
300.117	12220
300.173	4765
300.229	1654
300.285	109
300.341	525
300.397	484
300.453	855
300.510	-262
300.566	-71
300.622	1545
300.678	12465
300.734	14938
300.790	6726
300.845	4124
300.901	6301
300.957	10494
301.013	4218
301.069	738
301.125	678
301.181	197
301.237	206
301.293	-1300
301.349	369
301.405	-506
301.461	-959
301.516	-591
301.572	-976
301.628	-906
301.684	-394
301.740	-517
301.796	217
301.851	-128
301.907	323
301.963	-197
302.019	1611
302.074	9401
302.130	8943
302.186	2584
302.242	898
302.297	385
302.353	-152
302.409	267
302.464	50
302.520	340
302.576	1394
302.631	2148
302.687	11
302.743	-806
302.798	-758
302.854	-375
302.910	33
302.965	-1331
303.021	-243
303.076	-792
303.132	-330
303.187	-698
303.243	-953
303.299	-1096
303.354	-114
303.410	-735
303.465	-15
303.521	-538
303.576	-602
303.632	71
303.687	137
303.743	2014
303.798	2301
303.853	-476
303.909	-461
303.964	-874
304.020	-458
304.075	-670
304.130	-747
304.186	-1275
304.241	566
304.297	-101
304.352	-485
304.358	-633
304.407	-1831
304.449	-947
304.463	-648
304.518	-845
304.539	-675
304.573	-411
304.629	-1021
304.630	-1012
304.684	-645
304.720	337
304.739	794
304.794	3118
304.811	2546
304.850	1157
304.902	-490
304.905	-590
304.960	-668
304.992	-676
305.015	-717
305.071	-305
305.083	-288
305.126	-241
305.173	-396
305.181	-408
305.236	-737
305.264	-415
305.292	-107
305.347	-653
305.354	-562
305.402	-5
305.445	591
305.457	757
305.512	-347
305.535	-432
305.567	-526
305.622	-538
305.626	-515
305.678	207
305.716	1518
305.733	1882
305.788	2431
305.807	1918
305.843	1465
305.897	3031
305.898	3041
305.953	2996
305.988	1920
306.008	1455
306.063	569
306.078	325
306.118	-193
306.168	-274
306.173	-271
306.228	275
306.259	-22
306.283	-295
306.338	258
306.349	224
306.393	-50
306.440	-134
306.448	-99
306.503	209
306.530	165
306.558	188
306.613	1157
306.620	1148
306.668	1210
306.711	1851
306.723	1810
306.778	1553
306.801	924
306.833	508
306.888	553
306.892	554
306.943	465
306.982	-16
306.997	-181
307.052	-286
307.072	-163
307.107	260
307.162	668
307.163	667
307.217	989
307.253	914
307.272	695
307.327	339
307.343	335
307.381	490
307.434	234
307.436	271
307.491	1234
307.524	2212
307.546	2258
307.600	1537
307.614	1311
307.655	982
307.704	454
307.710	472
307.765	1084
307.795	1395
307.819	1552
307.874	2285
307.885	2384
307.929	2602
307.975	2406
307.984	2615
308.038	4109
308.065	5373
308.093	11854
308.148	26108
308.156	29196
308.202	41971
308.246	49570
308.257	46949
308.312	21078
308.336	11230
308.366	7921
308.421	4206
308.426	3904
308.475	2604
308.517	2190
308.530	2183
308.585	1827
308.607	1946
308.639	2154
308.694	1667
308.697	1683
308.748	3140
308.787	4000
308.803	3777
308.857	2861
308.877	2417
308.912	2734
308.967	3911
308.967	3910
309.021	5707
309.058	7305
309.076	9419
309.130	16082
309.148	18515
309.185	41945
309.238	80297
309.239	80451
309.293	78043
309.328	67514
309.348	56636
309.402	24231
309.418	16039
309.457	11996
309.508	7491
309.511	7476
309.566	8187
309.598	9003
309.620	11439
309.674	17725
309.688	19535
309.729	18076
309.778	14038
309.783	13645
309.837	9054
309.868	6399
309.892	5926
309.946	5154
309.959	5088
310.001	5698
310.049	6119
310.055	5971
310.109	4186
310.139	3348
310.163	2903
310.218	1977
310.229	1746
310.272	2051
310.319	2256
310.326	2148
310.381	1730
310.409	1411
310.435	1410
310.489	1440
310.499	1416
310.543	1368
310.589	1375
310.598	1413
310.652	1666
310.679	1695
310.706	1594
310.760	1324
310.769	1327
310.814	1589
310.859	1496
310.868	1556
310.923	2045
310.948	2224
310.977	2297
311.031	2516
311.038	2505
311.085	2362
311.128	2371
311.139	2371
311.193	2225
311.218	2123
311.247	2155
311.301	2205
311.308	2209
311.356	2220
311.398	2075
311.410	2022
311.464	1894
311.488	1760
311.518	1657
311.572	1527
311.578	1506
311.626	1583
311.668	1623
311.680	1773
311.734	2373
311.758	2634
311.788	2315
311.842	1730
311.847	1661
311.896	2303
311.937	2835
311.950	2803
312.004	2620
312.027	2518
312.058	2458
312.112	2358
312.117	2340
312.165	2139
312.207	1958
312.297	1930
312.386	2512
312.476	2568
312.566	2571
312.656	3010
312.745	2196
312.835	2753
312.925	2422
313.015	2680
313.104	2557
313.194	3350
313.284	2777
313.374	3155
313.463	2495
313.553	3592
313.643	2807
313.732	3521
313.822	4034
313.912	5021
314.001	4507
314.091	4558
314.180	4772
314.270	4803
314.360	4630
314.449	4250
314.539	3945
314.628	4268
314.718	4848
314.808	4488
314.897	5436
314.987	5430
315.076	5472
315.166	5240
315.255	5223
315.345	4852
315.434	5015
315.524	5001
315.613	6340
315.703	7834
315.792	29826
315.881	112878
315.971	25630
316.060	7754
316.150	4853
316.239	5958
316.328	4058
316.418	4586
316.507	5512
316.597	7036
316.686	5572
316.775	6767
316.865	6798
316.954	4550
317.043	4516
317.133	3906
317.222	3139
317.311	3064
317.400	3085
317.490	5386
317.579	4804
317.668	6359
317.757	13157
317.847	50860
317.936	161832
318.025	38694
318.114	40953
318.203	14338
318.293	6612
318.382	9321
318.471	9010
318.560	8178
318.649	10112
318.738	3889
318.828	4130
318.917	3304
319.006	3735
319.095	4600
319.184	9629
319.273	4980
319.362	3915
319.451	3085
319.540	2902
319.629	2908
319.718	4875
319.807	3010
319.896	4429
319.985	13047
320.074	4347
320.163	3828
320.252	3840
320.341	4130
320.430	3024
320.519	4406
320.608	3857
320.697	5445
320.786	5086
320.875	7272
320.964	7688
321.053	7582
321.142	8585
321.230	9501
321.319	9309
321.408	12814
321.497	11238
321.586	9653
321.675	8924
321.764	8928
321.852	8531
321.941	8890
322.030	8453
322.119	8343
322.207	13209
322.296	13215
322.385	13778
322.474	15314
322.562	17701
322.651	12327
322.740	9294
322.829	9487
322.917	8833
323.006	6166
323.095	6761
323.183	5525
323.272	5577
323.361	6181
323.449	12465
323.538	4964
323.626	8940
323.715	5792
323.804	3658
323.892	7658
323.981	5717
324.069	3898
324.158	5687
324.246	5724
324.335	3527
324.424	4233
324.512	3438
324.601	2971
324.689	2936
324.778	3356
324.866	4208
324.954	2832
325.043	3090
325.131	2776
325.220	4577
325.308	3836
325.397	4008
325.485	3097
325.574	2819
325.662	2349
325.750	1658
325.839	2680
325.927	2873
326.015	2872
326.104	3291
326.192	3759
326.280	2241
326.369	2566
326.457	2406
326.545	2972
326.634	2501
326.722	2142
326.810	2793
326.898	3218
326.987	3850
327.075	3180
327.163	3683
327.251	2302
327.340	3858
327.428	5058
327.516	6495
327.604	4969
327.692	3451
327.781	3769
327.869	2828
327.957	2658
328.045	2259
328.133	2698
328.221	1629
328.309	2301
328.397	3259
328.485	3451
328.574	6291
328.662	8872
328.750	5203
328.838	3289
328.926	3248
329.014	1733
329.102	2169
329.190	3074
329.278	2436
329.366	1959
329.454	2169
329.542	2179
329.630	2133
329.718	2424
329.806	2337
329.893	2397
329.981	2178
330.069	2016
330.157	2851
330.245	2752
330.333	2781
330.421	1582
330.509	2540
330.597	5061
330.684	2552
330.772	2486
330.860	2976
330.948	2824
331.036	2076
331.123	1810
331.211	2833
331.299	2344
331.387	2779
331.475	3259
331.562	2514
331.650	2517
331.738	2462
331.825	2644
331.913	2690
332.001	2035
332.089	2340
332.176	3066
332.264	3859
332.352	2895
332.439	2714
332.527	2854
332.614	2702
332.702	2542
332.790	2611
332.877	3204
332.965	5808
333.052	3788
333.140	5497
333.228	9988
333.315	3853
333.403	3234
333.490	5396
333.578	5656
333.665	13787
333.753	6952
333.840	4035
333.928	5339
334.015	7076
334.103	9146
334.190	17640
334.278	13919
334.365	18064
334.452	17857
334.540	11801
334.627	11706
334.715	15329
334.802	21976
334.889	41034
334.977	49119
335.064	27319
335.151	13868
335.239	9979
335.326	8701
335.413	13168
335.501	13557
335.588	9297
335.675	9442
335.762	13847
335.850	18294
335.937	25762
336.024	42047
336.111	69519
336.199	55685
336.286	24828
336.373	14785
336.460	9200
336.547	7584
336.635	6294
336.722	6067
336.809	4592
336.896	4260
336.983	6501
337.070	9628
337.157	13548
337.245	10406
337.332	8234
337.419	5650
337.506	4340
337.593	3602
337.680	5066
337.767	8507
337.854	4588
337.941	4726
338.028	4487
338.115	2721
338.202	4183
338.289	4960
338.376	7829
338.463	4208
338.550	6627
338.637	5931
338.724	3528
338.811	3716
338.898	3080
338.984	1844
339.071	2856
339.158	3507
339.245	3554
339.332	3420
339.419	3162
339.506	4128
339.593	1824
339.679	3115
339.766	2476
339.853	2374
339.940	2656
340.027	2903
340.113	2435
340.200	2017
340.287	2212
340.374	2603
340.460	2755
340.547	1474
340.634	2660
340.720	4655
340.807	3207
340.894	2876
340.980	2024
341.067	3075
341.154	3392
341.240	2694
341.327	2919
341.414	2522
341.500	1984
341.587	3809
341.674	2802
341.760	2782
341.847	2221
341.933	1851
342.020	1885
342.106	2485
342.193	2617
342.279	3234
342.366	2356
342.452	3146
342.539	2979
342.625	3614
342.712	4027
342.798	3034
342.885	2413
342.971	2480
343.058	2962
343.144	2302
343.230	2578
343.317	2516
343.403	2230
343.490	2494
343.576	1930
343.662	3250
343.749	2280
343.835	2927
343.921	3789
344.008	15724
344.094	27404
344.180	6009
344.267	3183
344.353	6237
344.439	5155
344.525	2964
344.612	3131
344.698	2935
344.784	2341
344.870	2733
344.957	2486
345.043	2949
345.129	2290
345.215	2412
345.301	2104
345.387	2054
345.474	2364
345.560	1800
345.646	1520
345.732	2185
345.818	1931
345.904	1956
345.990	2363
346.076	2176
346.162	2597
346.249	2501
346.335	1890
346.421	2873
346.507	3988
346.593	8646
346.679	2639
346.765	3824
346.851	5951
346.937	4080
347.023	3959
347.108	2740
347.194	3235
347.280	2708
347.366	4162
347.452	13258
347.538	20184
347.624	11163
347.710	6889
347.796	3434
347.882	3068
347.967	2567
348.053	3213
348.139	2610
348.225	2022
348.311	1842
348.397	2835
348.482	3178
348.568	3886
348.654	4380
348.740	16813
348.825	16505
348.911	7433
348.997	8785
349.083	10995
349.168	2713
349.254	3394
349.340	3185
349.425	2886
349.511	2673
349.597	2681
349.682	2764
349.768	5729
349.854	2840
349.939	3589
350.025	2040
350.110	2563
350.196	2223
350.282	1625
350.367	3058
350.453	3102
350.538	1977
350.624	2265
350.709	2579
350.795	2315
350.880	1940
350.966	3094
351.051	2382
351.137	3137
351.222	3026
351.308	2625
351.393	4143
351.479	2110
351.564	1574
351.649	2064
351.735	1987
351.820	2335
351.906	2195
351.991	2403
352.076	3490
352.162	3961
352.247	2587
352.332	2825
352.418	1816
352.503	2835
352.588	5369
352.673	3954
352.759	2871
352.844	2871
352.929	2743
353.014	2533
353.100	2924
353.185	2685
353.270	2624
353.355	3340
353.441	2259
353.526	2243
353.611	2529
353.696	2815
353.781	3437
353.866	2048
353.952	3379
354.037	3068
354.122	3524
354.207	3433
354.292	3113
354.377	2672
354.462	2942
354.547	2190
354.632	2972
354.717	2590
354.802	2185
354.887	2330
354.972	2423
355.057	2368
355.142	1765
355.227	2688
355.312	2260
355.397	2803
355.482	4469
355.567	2522
355.652	4606
355.737	3155
355.822	6236
355.907	4151
355.991	3194
356.076	2308
356.161	2683
356.246	2280
356.331	2693
356.416	3291
356.501	14392
356.585	11322
356.670	2581
356.755	4854
356.840	3575
356.924	11003
357.009	29291
357.094	10671
357.179	2714
357.263	3366
357.348	3371
357.433	3518
357.517	3655
357.602	2424
357.687	2458
357.771	3163
357.856	5559
357.941	5008
358.025	11348
358.110	39788
358.195	15701
358.279	4138
358.364	2648
358.448	5919
358.533	9018
358.617	6946
358.702	8033
358.787	4436
358.871	2829
358.956	3398
359.040	2221
359.125	2187
359.209	2958
359.294	4886
359.378	7441
359.462	6255
359.547	3442
359.631	2900
359.716	1583
359.800	3052
359.885	3507
359.969	1945
360.053	3437
360.138	2088
360.222	2638
360.306	3022
360.391	3344
360.475	4682
360.559	4992
360.644	4502
360.728	3067
360.812	8627
360.896	18509
360.981	6938
361.065	3930
361.149	4359
361.233	3770
361.318	2471
361.402	3146
361.486	4409
361.570	3724
361.654	3326
361.739	5089
361.823	15298
361.907	20603
361.991	7533
362.075	7379
362.159	10357
362.243	20376
362.327	47640
362.411	66056
362.495	26028
362.580	12755
362.664	12291
362.748	13757
362.832	22175
362.916	47291
363.000	124726
363.084	161426
363.168	73771
363.252	21853
363.336	13407
363.420	11019
363.503	14094
363.587	14808
363.671	7508
363.755	7097
363.839	9670
363.923	9357
364.007	13188
364.091	17655
364.175	29153
364.258	69435
364.342	147774
364.426	234715
364.510	122785
364.594	39341
364.677	20848
364.761	23108
364.845	16541
364.929	7583
365.013	5884
365.096	6601
365.180	5365
365.264	7170
365.347	17063
365.431	8039
365.515	3665
365.598	3649
365.682	5112
365.766	3035
365.849	4047
365.933	3539
366.017	4946
366.100	3317
366.184	2805
366.267	4280
366.351	3462
366.435	3901
366.518	3071
366.602	3797
366.685	3400
366.769	2509
366.852	4114
366.936	3146
367.019	3576
367.103	3346
367.186	5474
367.270	4586
367.353	3807
367.436	4552
367.520	4221
367.603	3944
367.687	3618
367.770	4759
367.853	4985
367.937	7126
368.020	7272
368.104	3606
368.187	4173
368.270	3796
368.353	3669
368.437	3905
368.520	6081
368.603	3876
368.687	4635
368.770	7844
368.853	3583
368.936	3958
369.020	3724
369.103	2422
369.186	2377
369.269	3184
369.352	3981
369.436	2615
369.519	2744
369.602	1190
369.685	4595
369.768	1698
369.851	3535
369.934	2219
370.018	2259
370.101	2056
370.184	4705
370.267	3922
370.350	3883
370.433	4811
370.516	19860
370.599	55963
370.682	21747
370.765	8099
370.848	6824
370.931	9223
371.014	5783
371.097	2310
371.180	3183
371.263	2930
371.346	2054
371.429	3821
371.511	2366
371.594	2726
371.677	4047
371.760	4406
371.843	3905
371.926	16451
372.009	30628
372.091	11985
372.174	6181
372.257	11618
372.340	5646
372.423	4228
372.505	5550
372.588	3621
372.671	6429
372.754	8510
372.836	5672
372.919	6058
373.002	8554
373.085	3519
373.167	4678
373.250	5780
373.332	11010
373.415	21668
373.498	41372
373.580	25974
373.663	85513
373.746	81622
373.828	13064
373.911	7262
373.993	5838
374.076	9546
374.159	8631
374.241	5441
374.324	9660
374.406	8371
374.489	12985
374.571	28972
374.654	11777
374.736	7815
374.819	18310
374.901	29345
374.983	29178
375.066	8956
375.148	5771
375.231	8908
375.313	13838
375.395	7376
375.478	6113
375.560	5528
375.643	6074
375.725	8857
375.807	22688
375.890	18088
375.972	6437
376.054	5607
376.136	6804
376.219	4922
376.301	8310
376.383	15694
376.465	7828
376.548	4092
376.630	6294
376.712	11774
376.794	6581
376.877	3294
376.959	2266
377.041	2964
377.123	3526
377.205	4125
377.287	2707
377.369	3758
377.452	2984
377.534	3418
377.616	3134
377.698	1844
377.780	2652
377.862	3223
377.944	3936
378.026	2181
378.108	3507
378.190	2790
378.272	4778
378.354	3326
378.436	3146
378.518	2580
378.600	3857
378.682	4984
378.764	5508
378.846	5583
378.928	3110
379.010	2523
379.091	3709
379.173	2886
379.255	2421
379.337	2833
379.419	4614
379.501	8156
379.583	4572
379.664	3199
379.746	3458
379.828	6551
379.910	6538
379.991	7090
380.073	2917
380.155	2599
380.237	2888
380.318	3444
380.400	3673
380.482	3634
380.564	3712
380.645	3458
380.727	3466
380.809	4309
380.890	3220
380.972	2308
381.053	2980
381.135	4448
381.217	3710
381.298	6767
381.380	4419
381.461	4663
381.543	13538
381.624	15597
381.706	4863
381.787	4546
381.869	5150
381.951	10875
382.032	29912
382.113	20973
382.195	4644
382.276	5716
382.358	6800
382.439	13433
382.521	18540
382.602	26999
382.684	15306
382.765	21214
382.846	41933
382.928	84384
383.009	47808
383.090	38717
383.172	135969
383.253	184079
383.334	53759
383.416	27694
383.497	19224
383.578	16828
383.659	32837
383.741	126596
383.822	276550
383.903	133691
383.984	30909
384.066	26184
384.147	16119
384.228	10281
384.309	8554
384.390	9749
384.471	9367
384.553	7624
384.634	7220
384.715	7176
384.796	6518
384.877	6156
384.958	9981
385.039	8517
385.120	6638
385.201	6525
385.282	6017
385.363	7315
385.444	7613
385.525	9264
385.606	14032
385.687	12202
385.768	8045
385.849	7476
385.930	19380
386.011	28652
386.092	10846
386.173	7844
386.254	6658
386.335	6650
386.416	7353
386.496	7627
386.577	9202
386.658	7174
386.739	5997
386.820	8103
386.901	8298
386.981	8828
387.062	10332
387.143	10965
387.224	13226
387.304	14109
387.385	12267
387.466	10831
387.547	13557
387.627	12924
387.708	12984
387.789	18431
387.869	18402
387.950	13294
388.031	8894
388.111	7462
388.192	10787
388.273	11781
388.353	9510
388.434	6485
388.514	7620
388.595	15561
388.676	15218
388.756	8783
388.837	8373
388.917	6701
388.998	3614
389.078	6379
389.159	5030
389.239	3471
389.320	6578
389.400	3529
389.480	6269
389.561	7326
389.641	7114
389.722	5622
389.802	5263
389.883	6540
389.963	10459
390.043	7367
390.124	4794
390.204	5934
390.284	8373
390.365	6215
390.445	8595
390.525	14239
390.605	13552
390.686	6659
390.766	7029
390.846	6462
390.927	5345
391.007	4843
391.087	6881
391.167	5247
391.247	4170
391.328	7478
391.408	7713
391.488	7127
391.568	6083
391.648	7840
391.728	8141
391.808	9060
391.888	7740
391.969	10235
392.049	12662
392.129	11823
392.209	13209
392.289	18122
392.369	15573
392.449	16556
392.529	16868
392.609	20982
392.689	24004
392.769	31314
392.849	36591
392.929	45892
393.009	65177
393.089	96361
393.169	178598
393.248	389035
393.328	666963
393.408	650317
393.488	373046
393.568	165073
393.648	89156
393.728	54890
393.807	37686
393.887	31663
393.967	24104
394.047	21060
394.127	17518
394.206	18205
394.286	35134
394.366	120009
394.446	121554
394.525	30998
394.605	12705
394.685	11994
394.764	14323
394.844	23512
394.924	27366
395.003	13320
395.083	10060
395.163	9263
395.242	7863
395.322	8112
395.402	7581
395.481	11178
395.561	12495
395.640	33897
395.720	60504
395.799	36030
395.879	18789
395.958	17177
396.038	43642
396.117	153715
396.197	160805
396.276	48536
396.356	25720
396.435	30320
396.515	40451
396.594	62831
396.673	134456
396.753	343385
396.832	595300
396.912	467573
396.991	184809
397.070	77946
397.150	42880
397.229	36421
397.308	55363
397.388	90376
397.467	46748
397.546	17609
397.625	10908
397.705	12693
397.784	10476
397.863	8952
397.942	8208
398.022	7156
398.101	8039
398.180	11319
398.259	8535
398.338	6831
398.417	5262
398.497	5638
398.576	5097
398.655	4513
398.734	5670
398.813	4268
398.892	6599
398.971	9666
399.050	6185
399.129	3670
399.208	3909
399.287	5212
399.366	3316
399.445	3349
399.524	3147
399.603	2072
399.682	3641
399.761	4734
399.840	10331
399.919	9077
399.998	3607
400.077	2998
400.156	1805
400.235	4399
400.313	2478
400.392	2527
400.471	4072
400.550	5123
400.629	1792
400.708	3164
400.786	2753
400.865	2593
400.944	2701
401.023	4827
401.102	1916
401.180	2572
401.259	2129
401.338	1434
401.416	2092
401.495	465
401.574	3729
401.652	1962
401.731	3051
401.810	1515
401.888	1924
401.967	1516
402.046	1794
402.124	2496
402.203	1295
402.281	2043
402.360	1807
402.438	3052
402.517	2076
402.596	2723
402.674	1315
402.753	1376
402.831	2421
402.910	2845
402.988	1950
403.066	2786
403.145	3244
403.223	3184
403.302	3443
403.380	3512
403.459	2830
403.537	3248
403.615	2302
403.694	1317
403.772	3081
403.850	3160
403.929	1689
404.007	2177
404.085	3317
404.164	2213
404.242	2227
404.320	3894
404.398	6279
404.477	7380
404.555	16722
404.633	14726
404.711	5402
404.789	4007
404.868	1911
404.946	1428
405.024	2079
405.102	1620
405.180	1318
405.258	105
405.336	3098
405.415	1045
405.493	2423
405.571	2422
405.649	2382
405.727	1706
405.805	3665
405.883	3100
405.961	2934
406.039	2117
406.117	1738
406.195	2729
406.273	3852
406.351	10557
406.429	7824
406.507	1315
406.585	801
406.663	1810
406.740	1946
406.818	1015
406.896	1194
406.974	2782
407.052	1420
407.130	6683
407.208	8322
407.285	3426
407.363	955
407.441	1375
407.519	1581
407.596	3094
407.674	8618
407.752	31306
407.830	24176
407.907	3995
407.985	1349
408.063	2529
408.141	1581
408.218	2591
408.296	1428
408.373	1946
408.451	3095
408.529	2944
408.606	1864
408.684	2196
408.762	2665
408.839	2891
408.917	3184
408.994	3722
409.072	3254
409.149	5253
409.227	10319
409.304	14293
409.382	16891
409.459	18475
409.537	23624
409.614	21957
409.692	17269
409.769	18039
409.846	24080
409.924	29660
410.001	21035
410.079	15693
410.156	12188
410.233	8732
410.311	7098
410.388	5657
410.465	6041
410.543	4501
410.620	4652
410.697	4255
410.775	4267
410.852	3483
410.929	6185
411.006	4603
411.083	4214
411.161	3904
411.238	3689
411.315	3888
411.392	2572
411.469	3825
411.547	3107
411.624	1701
411.701	2972
411.778	2557
411.855	2260
411.932	1647
412.009	1729
412.086	2543
412.163	2617
412.240	1231
412.317	2071
412.394	2476
412.471	2404
412.548	1549
412.625	2062
412.702	2164
412.779	1813
412.856	1953
412.933	1170
413.010	1874
413.087	1390
413.164	2190
413.241	2623
413.318	1543
413.395	2369
413.471	1330
413.548	1595
413.625	1837
413.702	658
413.779	1801
413.855	1506
413.932	824
414.009	274
414.086	1141
414.162	1055
414.239	1832
414.316	2544
414.393	5468
414.469	1590
414.546	1555
414.623	1016
414.699	657
414.776	1481
414.853	1014
414.929	893
415.006	1179
415.082	1681
415.159	1091
415.236	1646
415.312	1476
415.389	2480
415.465	852
415.542	1819
415.618	426
415.695	1707
415.771	935
415.848	919
415.924	912
416.000	547
416.077	2189
416.153	576
416.230	-619
416.306	828
416.383	991
416.459	1472
416.535	-18
416.612	860
416.688	1332
416.764	1129
416.841	806
416.917	1259
416.993	1441
417.069	1475
417.146	1106
417.222	975
417.298	1766
417.374	79
417.451	1682
417.527	457
417.603	1119
417.679	1300
417.755	988
417.831	-350
417.908	1562
417.984	793
418.060	207
418.136	1713
418.212	1032
418.288	1387
418.364	2080
418.440	399
418.516	2302
418.592	1247
418.668	1316
418.744	1481
418.820	1491
418.896	1788
418.972	837
419.048	1087
419.124	2393
419.200	931
419.276	1942
419.352	1268
419.428	2219
419.504	1581
419.579	1820
419.655	1677
419.731	1973
419.807	1859
419.883	1691
419.959	2284
420.034	2765
420.110	2495
420.186	4267
420.262	3557
420.337	3249
420.413	2859
420.489	2716
420.565	3678
420.640	3792
420.716	3754
420.792	2859
420.867	4502
420.943	3471
421.019	5425
421.094	4346
421.170	5369
421.245	5504
421.321	6700
421.397	7246
421.472	12843
421.548	23178
421.623	18391
421.699	11482
421.774	11988
421.850	13737
421.925	17398
422.001	20466
422.076	24350
422.152	30977
422.227	41985
422.302	59321
422.378	85092
422.453	134571
422.529	205266
422.604	225319
422.679	179342
422.755	214252
422.830	206340
422.905	137469
422.981	90930
423.056	62177
423.131	46165
423.207	34588
423.282	26947
423.357	22513
423.432	18184
423.508	16172
423.583	13026
423.658	12566
423.733	11397
423.808	10295
423.883	9713
423.959	10383
424.034	13215
424.109	11948
424.184	8419
424.259	6091
424.334	5337
424.409	5410
424.484	4407
424.559	4751
424.634	3758
424.709	3767
424.784	3112
424.859	2760
424.934	2952
425.009	4440
425.084	4692
425.159	2855
425.234	3513
425.309	2098
425.384	3301
425.459	2955
425.534	2489
425.609	1460
425.683	2172
425.758	1747
425.833	2040
425.908	2302
425.983	1965
426.058	3855
426.132	2718
426.207	1480
426.282	2874
426.357	1296
426.431	1537
426.506	1730
426.581	1771
426.655	1876
426.730	1256
426.805	1045
426.879	2029
426.954	1510
427.029	1062
427.103	4150
427.178	8149
427.253	4025
427.327	1971
427.402	1366
427.476	1932
427.551	1092
427.625	1162
427.700	1057
427.774	686
427.849	1355
427.923	1199
427.998	2120
428.072	2473
428.147	7754
428.221	39255
428.296	104785
428.370	58042
428.444	8720
428.519	3153
428.593	3508
428.667	3659
428.742	4289
428.816	15723
428.890	68323
428.965	95823
429.039	25597
429.113	4791
429.188	1971
429.262	2380
429.336	2003
429.410	2522
429.485	2275
429.559	2556
429.633	3170
429.707	3860
429.781	13257
429.855	64091
429.930	86296
430.004	24692
430.078	17531
430.152	47584
430.226	142286
430.300	135821
430.374	32068
430.448	9633
430.522	7282
430.596	10046
430.670	24880
430.744	83580
430.818	87734
430.892	16435
430.966	3670
431.040	2031
431.114	999
431.188	713
431.262	1598
431.336	759
431.410	1989
431.484	1585
431.557	2792
431.631	2307
431.705	5970
431.779	31000
431.853	100204
431.927	67980
432.000	9916
432.074	2197
432.148	2165
432.222	180
432.295	315
432.369	278
432.443	398
432.516	3479
432.590	7768
432.664	2561
432.737	638
432.811	579
432.885	-431
432.958	672
433.032	-290
433.106	257
433.179	589
433.253	110
433.326	-223
433.400	-56
433.473	797
433.547	-1042
433.620	-344
433.694	79
433.767	369
433.841	-158
433.914	842
433.988	863
434.061	490
434.134	548
434.208	-4
434.281	319
434.355	141
434.428	1217
434.501	-326
434.575	136
434.648	871
434.721	196
434.795	353
434.868	-32
434.941	262
435.014	375
435.088	1211
435.161	1701
435.234	2962
435.307	2596
435.381	3245
435.454	5920
435.527	10705
435.600	11530
435.673	9458
435.746	6866
435.819	5463
435.892	3981
435.966	2931
436.039	2127
436.112	1401
436.185	923
436.258	756
436.331	1064
436.404	837
436.477	313
436.550	256
436.623	1534
436.696	579
436.769	-75
436.842	429
436.915	613
436.987	-252
437.060	1050
437.133	-199
437.206	-497
437.279	342
437.352	145
437.425	-31
437.498	-581
437.570	597
437.643	-158
437.716	-50
437.789	-410
437.861	659
437.934	703
438.007	126
438.080	-277
438.152	74
438.225	771
438.298	4508
438.370	14049
438.443	5013
438.516	810
438.588	23
438.661	-407
438.734	180
438.806	403
438.879	514
438.951	-166
439.024	-2
439.096	-1013
439.169	-918
439.241	85
439.314	-475
439.386	373
439.459	-25
439.531	-477
439.604	-14
439.676	-64
439.749	-37
439.821	-319
439.893	461
439.966	-557
440.038	-392
440.110	-422
440.183	-1124
440.255	-652
440.327	166
440.400	1502
440.472	6229
440.544	3314
440.617	427
440.689	667
440.761	846
440.833	485
440.905	850
440.978	-421
441.050	678
441.122	706
441.194	-55
441.266	375
441.338	-132
441.411	659
441.483	1927
441.555	2942
441.627	513
441.699	745
441.771	319
441.843	176
441.915	1520
441.987	1040
442.059	1561
442.131	1512
442.203	2691
442.275	3620
442.347	6416
442.419	20826
442.491	86211
442.563	157561
442.635	61843
442.706	13162
442.778	6618
442.850	4083
442.922	3638
442.994	3652
443.066	3788
443.137	5808
443.209	7318
443.281	13190
443.353	29023
443.425	99049
443.496	242491
443.568	240747
443.640	97937
443.711	23902
443.783	10007
443.855	6363
443.926	4704
443.998	2429
444.070	3799
444.141	2467
444.213	2033
444.285	2901
444.356	2615
444.428	1692
444.499	2294
444.571	2454
444.642	2649
444.714	2548
444.785	2106
444.857	3660
444.928	4093
445.000	4507
445.071	5719
445.143	8336
445.214	12226
445.285	22769
445.357	58542
445.428	175118
445.500	274382
445.571	224246
445.642	143588
445.714	48649
445.785	16338
445.856	7302
445.928	5628
445.999	3249
446.070	3643
446.141	2339
446.213	1891
446.284	1002
446.355	2028
446.426	961
446.497	1039
446.569	605
446.640	1199
446.711	1603
446.782	279
446.853	834
446.924	1144
446.995	202
447.066	149
447.138	-10
447.209	990
447.280	1065
447.351	-110
447.422	-96
447.493	-1009
447.564	255
447.635	-39
447.706	-117
447.777	-80
447.847	-211
447.918	-453
447.989	-572
448.060	181
448.131	521
448.202	650
448.273	268
448.344	544
448.414	-349
448.485	-921
448.556	-401
448.627	227
448.698	384
448.768	-292
448.839	-64
448.910	-26
448.981	-6
449.051	-420
449.122	187
449.193	-147
449.263	-328
449.334	-39
449.405	-366
449.475	338
449.546	682
449.616	708
449.687	520
449.758	262
449.828	-1
449.899	-95
449.969	-73
450.040	-363
450.110	53
450.181	-98
450.251	-483
450.322	87
450.392	173
450.463	-372
450.533	-142
450.604	-354
450.674	-293
450.744	863
450.815	688
450.885	1484
450.955	1339
451.026	642
451.096	165
451.166	608
451.237	1442
451.307	2358
451.377	831
451.447	-57
451.518	273
451.588	208
451.658	228
451.728	-149
451.799	634
451.869	886
451.939	-399
452.009	-121
452.079	-247
452.149	-87
452.219	829
452.289	1089
452.360	854
452.430	851
452.500	2066
452.570	3310
452.640	10199
452.710	25289
452.780	25912
452.850	12349
452.920	5999
452.990	3709
453.060	2183
453.129	841
453.199	285
453.269	1832
453.339	2242
453.409	2676
453.479	3914
453.549	5403
453.619	4481
453.688	1758
453.758	842
453.828	224
453.898	143
453.968	-316
454.037	433
454.087	99
454.107	-43
454.168	356
454.177	407
454.247	-491
454.249	-472
454.316	-220
454.330	-263
454.386	-474
454.411	-228
454.456	158
454.492	439
454.525	704
454.574	919
454.595	994
454.655	193
454.665	62
454.734	286
454.736	305
454.804	722
454.817	768
454.873	935
454.898	754
454.943	404
454.979	166
455.013	-63
455.060	66
455.082	93
455.141	-71
455.152	-79
455.221	1090
455.222	1113
455.291	1896
455.303	1952
455.360	2109
455.384	2656
455.430	3584
455.465	2395
455.499	1220
455.546	1060
455.569	1002
455.627	419
455.638	289
455.707	799
455.708	800
455.777	-233
455.789	-247
455.846	-551
455.869	-192
455.916	542
455.950	312
455.985	133
456.031	135
456.054	134
456.112	626
456.124	700
456.193	592
456.193	583
456.262	574
456.274	672
456.332	1085
456.355	1099
456.401	1104
456.436	1038
456.470	820
456.516	262
456.540	92
456.597	284
456.609	268
456.678	397
456.678	391
456.747	603
456.759	565
456.817	215
456.840	426
456.886	1053
456.920	1267
456.955	1234
457.001	857
457.024	742
457.082	905
457.093	927
457.162	906
457.163	915
457.232	1187
457.243	1173
457.301	931
457.324	792
457.370	646
457.405	1150
457.439	1652
457.485	1737
457.508	1841
457.566	2527
457.577	2782
457.646	4853
457.647	4888
457.715	10205
457.727	11927
457.784	20631
457.808	28335
457.853	38173
457.889	43739
457.922	47003
457.969	30904
457.991	27422
458.050	31402
458.060	32100
458.129	61108
458.130	61781
458.198	67478
458.211	59054
458.267	29422
458.292	21333
458.336	13407
458.372	13195
458.405	17325
458.453	26805
458.474	31722
458.533	56102
458.543	57851
458.611	96380
458.614	96197
458.680	63220
458.694	50806
458.749	19774
458.775	14351
458.818	7615
458.855	6239
458.887	5218
458.936	4067
458.955	3716
459.016	3067
459.024	3004
459.093	3552
459.097	3510
459.162	2453
459.177	2363
459.230	2222
459.257	2408
459.299	2660
459.338	2184
459.368	1751
459.418	1940
459.437	2012
459.499	1723
459.505	1693
459.574	2200
459.579	2132
459.643	1328
459.659	1500
459.711	2035
459.740	2089
459.780	2075
459.820	2025
459.849	1983
459.900	1913
459.917	1976
459.981	2202
459.986	2178
460.054	2015
460.061	1994
460.123	1825
460.141	1892
460.191	2246
460.222	2366
460.260	2601
460.302	2544
460.328	2401
460.382	2549
460.397	2635
460.462	2957
460.465	3073
460.534	5729
460.543	6123
460.602	12408
460.623	15010
460.671	23075
460.703	31613
460.739	28537
460.783	18384
460.808	15475
460.864	4484
460.876	3218
460.944	2425
460.945	2409
461.013	1632
461.024	1630
461.081	1912
461.104	1947
461.150	2056
461.184	2001
461.218	2028
461.264	2227
461.286	2212
461.345	2002
461.355	2028
461.423	2622
461.425	2626
461.491	2262
461.505	2172
461.559	2329
461.585	2592
461.628	2446
461.665	2304
461.696	2688
461.745	3206
461.764	2975
461.825	1969
461.832	2052
461.901	2810
461.905	2878
461.969	1732
461.985	1512
462.037	2915
462.065	3424
462.105	2439
462.145	1591
462.173	1802
462.225	2294
462.241	2291
462.305	2315
462.310	2336
462.378	2505
462.385	2513
462.446	2284
462.465	2301
462.514	2301
462.545	2236
462.582	2263
462.625	2086
462.650	1927
462.705	1996
462.718	2040
462.785	1883
462.786	1883
462.854	1751
462.865	1803
462.922	2384
462.945	2542
462.990	2688
463.025	2704
463.058	2476
463.104	2366
463.126	2286
463.184	1867
463.194	1951
463.262	2333
463.264	2356
463.330	2515
463.344	2551
463.398	2643
463.424	2657
463.466	2196
463.504	1865
463.533	2146
463.583	2476
463.601	2553
463.663	2701
463.669	2585
463.737	1487
463.743	1368
463.805	2524
463.823	2904
463.873	3030
463.903	3048
463.940	2681
463.982	2164
464.008	2082
464.062	2171
464.076	2178
464.142	2060
464.144	2072
464.211	2304
464.221	2342
464.279	2558
464.301	2660
464.347	2862
464.381	2945
464.414	2599
464.461	2242
464.482	2168
464.540	1820
464.550	1942
464.617	2784
464.620	2811
464.685	3250
464.699	3353
464.753	3316
464.779	3273
464.820	2811
464.859	2369
464.888	2273
464.938	2145
464.956	2467
465.018	3483
465.023	3460
465.091	3068
465.098	3032
465.158	3143
465.177	3200
465.226	3280
465.257	3265
465.293	3051
465.336	2833
465.361	2809
465.416	2679
465.428	2647
465.495	2475
465.496	2483
465.563	3028
465.575	3146
465.631	3394
465.654	3430
465.698	3048
465.734	2778
465.765	2919
465.813	3002
465.833	3099
465.893	3440
465.900	3385
465.968	2938
465.972	2898
466.035	3189
466.052	3258
466.102	2759
466.131	2477
466.170	2586
466.210	2687
466.237	3130
466.290	4074
466.304	3984
466.369	3331
466.372	3311
466.439	2763
466.449	2652
466.506	2886
466.528	2980
466.573	3159
466.607	3336
466.641	3560
466.687	3794
466.708	3771
466.766	3713
466.775	3707
466.842	3643
466.845	3634
466.909	3786
466.925	3821
466.977	3503
467.004	3325
467.044	3374
467.083	3424
467.111	3733
467.163	4290
467.178	4312
467.242	4384
467.245	4342
467.312	3373
467.321	3241
467.379	3561
467.400	3670
467.446	3845
467.480	3962
467.559	3928
467.638	3532
467.717	3453
467.796	4014
467.875	4230
467.955	3996
468.034	5156
468.113	6144
468.192	8658
468.271	7256
468.350	10811
468.429	14659
468.508	15026
468.588	9070
468.667	5274
468.746	5107
468.825	3868
468.904	4854
468.983	3751
469.062	3894
469.141	5122
469.220	3531
469.299	3265
469.378	3630
469.456	4917
469.535	3532
469.614	4052
469.693	3423
469.772	3186
469.851	4316
469.930	3226
470.009	4584
470.088	3771
470.166	4517
470.245	4862
470.324	4767
470.403	4563
470.482	3217
470.560	3362
470.639	3292
470.718	3534
470.797	3962
470.875	3840
470.954	3714
471.033	3883
471.111	3140
471.190	3306
471.269	4139
471.347	2528
471.426	3574
471.505	3146
471.583	3924
471.662	3405
471.740	3744
471.819	3287
471.898	2489
471.976	3298
472.055	3074
472.133	3944
472.212	3659
472.290	2823
472.369	3469
472.447	2425
472.526	3792
472.604	3204
472.683	3828
472.761	2181
472.839	3778
472.918	3466
472.996	3274
473.075	3998
473.153	3960
473.231	2891
473.310	3994
473.388	3845
473.466	3880
473.545	3983
473.623	3912
473.701	3566
473.780	4413
473.858	2863
473.936	5271
474.014	4095
474.093	4281
474.171	3982
474.249	4423
474.327	3657
474.405	3419
474.484	4457
474.562	2944
474.640	2832
474.718	3675
474.796	3378
474.874	3784
474.952	3199
475.030	3214
475.108	2857
475.187	4105
475.265	3825
475.343	3891
475.421	3830
475.499	3390
475.577	3283
475.655	4493
475.733	4790
475.811	4298
475.889	3739
475.966	3804
476.044	3242
476.122	2991
476.200	3268
476.278	3401
476.356	3647
476.434	3306
476.512	2628
476.590	3150
476.667	4772
476.745	2506
476.823	4019
476.901	3486
476.979	3129
477.056	3620
477.134	3981
477.212	3987
477.290	3820
477.367	2319
477.445	2836
477.523	3105
477.601	3540
477.678	2822
477.756	3044
477.834	3650
477.911	3298
477.989	3295
478.066	2382
478.144	4124
478.222	3593
478.299	4243
478.377	3236
478.454	3622
478.532	3135
478.609	3612
478.687	4037
478.764	3255
478.842	2091
478.919	2540
478.997	2892
479.074	2952
479.152	2593
479.229	3671
479.307	1829
479.384	3526
479.461	3515
479.539	3518
479.616	2820
479.694	3897
479.771	2934
479.848	3896
479.926	2160
480.003	4509
480.080	2878
480.157	3291
480.235	2740
480.312	3056
480.389	3403
480.467	4182
480.544	3819
480.621	3957
480.698	3711
480.775	3617
480.853	3595
480.930	4441
481.007	3603
481.084	4403
481.161	4390
481.238	4333
481.315	3460
481.392	4118
481.470	3844
481.547	3070
481.624	2891
481.701	2667
481.778	3848
481.855	3271
481.932	4447
482.009	4258
482.086	3642
482.163	5994
482.240	5717
482.317	5484
482.393	5311
482.470	4882
482.547	5134
482.624	4252
482.701	3928
482.778	3640
482.855	3589
482.932	5022
483.009	3027
483.085	5342
483.162	4967
483.239	6264
483.316	4501
483.393	6111
483.469	4962
483.546	4884
483.623	4002
483.699	4828
483.776	3901
483.853	3283
483.930	3847
484.006	4052
484.083	6743
484.160	6965
484.236	7330
484.313	6629
484.389	5798
484.466	6508
484.543	7261
484.619	9646
484.696	10785
484.772	7491
484.849	5023
484.925	5607
485.002	5203
485.078	5230
485.155	4680
485.231	4961
485.308	4113
485.384	4330
485.461	5131
485.537	4937
485.614	5801
485.690	4139
485.766	4130
485.843	4402
485.919	4420
485.995	4438
486.072	4157
486.148	4292
486.224	4272
486.301	4748
486.377	4697
486.453	3810
486.530	5545
486.606	6352
486.682	6492
486.758	5647
486.835	5681
486.911	4764
486.987	6357
487.063	8438
487.139	7990
487.215	7960
487.292	9287
487.368	8994
487.444	10551
487.520	14951
487.596	24223
487.672	68932
487.748	181169
487.824	233732
487.900	62972
487.976	19319
488.052	11191
488.128	9208
488.204	6107
488.280	6443
488.356	5976
488.432	6778
488.508	6135
488.584	5164
488.660	4718
488.736	5061
488.812	3762
488.888	5051
488.964	4583
489.039	5316
489.115	6489
489.191	5788
489.267	4897
489.343	4059
489.418	4592
489.494	3913
489.570	2820
489.646	5388
489.722	4279
489.797	3844
489.873	4652
489.949	6056
490.024	4014
490.100	3679
490.176	3902
490.251	4178
490.327	4780
490.403	4206
490.478	4960
490.554	3639
490.629	4100
490.705	3816
490.781	3804
490.856	3369
490.932	3699
491.007	3816
491.083	2924
491.158	3396
491.234	4149
491.309	4950
491.385	3724
491.460	3614
491.536	3652
491.611	3761
491.686	4416
491.762	3821
491.837	4110
491.913	5318
491.988	6235
492.063	5380
492.139	4068
492.214	4087
492.289	2898
492.365	2994
492.440	3859
492.515	3327
492.590	2715
492.666	2988
492.741	3447
492.816	3353
492.891	3597
492.967	3796
493.042	3396
493.117	3341
493.192	4124
493.267	4535
493.342	7396
493.418	8445
493.493	3537
493.568	3324
493.643	3480
493.718	3384
493.793	3158
493.868	3824
493.943	1852
494.018	2772
494.093	2542
494.168	4105
494.243	2459
494.318	3875
494.393	3612
494.468	3266
494.543	2819
494.618	2795
494.693	2969
494.768	3108
494.842	2740
494.917	3021
494.992	2843
495.067	2717
495.142	2238
495.217	2490
495.292	2739
495.366	3571
495.441	2506
495.516	4476
495.591	3372
495.665	4700
495.740	8422
495.815	4547
495.890	2783
495.964	1407
496.039	4823
496.114	3681
496.188	3940
496.263	3213
496.338	2885
496.412	2419
496.487	3299
496.561	3210
496.636	2995
496.710	3151
496.785	3237
496.860	2647
496.934	2020
497.009	3077
497.083	2688
497.158	3271
497.232	2471
497.307	3400
497.381	3188
497.455	3229
497.530	2903
497.604	3155
497.679	2842
497.753	3444
497.827	2773
497.902	1950
497.976	4236
498.050	8157
498.125	16390
498.199	14951
498.273	3692
498.348	3214
498.422	2531
498.496	3104
498.570	3933
498.645	3006
498.719	2521
498.793	3049
498.867	3320
498.941	3382
499.016	8491
499.090	15316
499.164	6713
499.238	4155
499.312	3249
499.386	3171
499.460	3494
499.534	3740
499.609	3772
499.683	3726
499.757	4010
499.831	6057
499.905	11719
499.979	9208
500.053	3354
500.127	4126
500.201	2159
500.275	3797
500.349	3181
500.422	2166
500.496	3600
500.570	5005
500.644	8874
500.718	11024
500.792	3949
500.866	4048
500.940	2567
501.013	4072
501.087	2697
501.161	3047
501.235	3309
501.309	7834
501.382	8852
501.456	8857
501.530	4187
501.603	4564
501.677	3119
501.751	2331
501.825	4645
501.898	4439
501.972	5267
502.046	4375
502.119	1575
502.193	4200
502.266	3892
502.340	4262
502.413	4768
502.487	5212
502.561	2771
502.634	3253
502.708	2275
502.781	2174
502.855	3363
502.928	1849
503.002	2523
503.075	2374
503.149	2113
503.222	3024
503.295	3442
503.369	3726
503.442	3295
503.516	6572
503.589	9576
503.662	6932
503.736	6342
503.809	10637
503.882	10177
503.956	17621
504.029	40130
504.102	105620
504.175	127691
504.249	42257
504.322	15669
504.395	9173
504.468	6628
504.542	4386
504.615	3851
504.688	4625
504.761	1708
504.834	4889
504.907	3476
504.980	2969
505.053	2709
505.127	992
505.200	4332
505.273	2779
505.346	1580
505.419	1695
505.492	3359
505.565	2069
505.638	3053
505.711	1819
505.784	1192
505.857	1917
505.930	3209
506.003	1766
506.076	3935
506.149	1703
506.221	838
506.294	3705
506.367	1972
506.440	4774
506.513	3801
506.586	2271
506.659	1770
506.731	1864
506.804	1735
506.877	1020
506.950	1944
507.022	3817
507.095	284
507.168	2225
507.241	3274
507.313	1168
507.386	155
507.459	2686
507.531	1846
507.604	1672
507.677	2844
507.749	758
507.822	3172
507.894	1940
507.967	3245
508.040	2052
508.112	2312
508.185	2923
508.257	334
508.330	4017
508.402	1380
508.475	1968
508.547	2678
508.620	2608
508.692	3046
508.765	3091
508.837	1773
508.909	2520
508.982	1520
509.054	2564
509.127	1800
509.199	2335
509.271	1172
509.344	2316
509.416	2186
509.488	2844
509.560	1763
509.633	1724
509.705	1802
509.777	2244
509.849	2236
509.922	1175
509.994	1441
510.066	3092
510.138	357
510.210	4938
510.283	2542
510.355	3087
510.427	2411
510.499	2596
510.571	2233
510.643	1533
510.715	2726
510.787	1465
510.859	3330
510.931	2068
511.003	2027
511.076	2644
511.148	1605
511.219	1596
511.291	2316
511.363	2991
511.435	2386
511.507	1631
511.579	3367
511.651	2866
511.723	1980
511.795	1285
511.867	1254
511.939	1986
512.010	1919
512.082	2708
512.154	954
512.226	1816
512.298	3190
512.369	3478
512.441	2945
512.513	1744
512.585	1236
512.656	3254
512.728	1823
512.800	2273
512.871	3628
512.943	2666
513.015	1100
513.086	2607
513.158	2172
513.230	1498
513.301	2163
513.373	3320
513.444	2426
513.516	1986
513.588	1864
513.659	2694
513.731	1814
513.802	1143
513.874	3984
513.945	3244
514.016	865
514.088	2818
514.159	1054
514.231	2901
514.302	2207
514.374	3401
514.445	434
514.516	4605
514.588	2615
514.659	2089
514.730	1722
514.802	3252
514.873	140
514.944	4724
515.016	2082
515.087	2377
515.158	1994
515.229	3532
515.301	1250
515.372	3171
515.443	1208
515.514	2280
515.585	682
515.656	2298
515.728	2620
515.799	2010
515.870	2651
515.941	2429
516.012	1775
516.083	3586
516.154	1292
516.225	4185
516.296	3955
516.367	2933
516.438	3257
516.509	4150
516.580	5960
516.651	24703
516.722	53812
516.793	19336
516.864	4699
516.935	5489
517.006	5842
517.077	7532
517.148	22825
517.219	92678
517.289	108356
517.360	14550
517.431	6679
517.502	3543
517.573	4083
517.643	3697
517.714	3397
517.785	5262
517.856	4533
517.926	6127
517.997	6738
518.068	6491
518.138	11231
518.209	18974
518.280	77464
518.350	205574
518.421	63206
518.492	13763
518.562	13062
518.633	18653
518.703	29038
518.774	80872
518.845	189928
518.915	141279
518.986	34795
519.056	16471
519.127	10537
519.197	9190
519.268	9036
519.338	7685
519.408	4300
519.479	4760
519.549	2724
519.620	4880
519.690	3038
519.760	2912
519.831	2861
519.901	2551
519.971	2796
520.042	2791
520.112	2252
520.182	3493
520.253	2739
520.323	2674
520.393	1621
520.463	4915
520.534	-515
520.604	5825
520.674	3170
520.744	2773
520.814	2363
520.885	3632
520.955	3448
521.025	6706
521.095	3393
521.165	3348
521.235	1624
521.305	1396
521.375	3265
521.445	3013
521.515	762
521.585	3260
521.655	215
521.725	2627
521.795	2846
521.865	-22
521.935	3780
522.005	2042
522.075	2377
522.145	3370
522.215	1407
522.285	3516
522.355	1780
522.424	3864
522.494	2055
522.564	3215
522.634	2293
522.704	5754
522.774	1358
522.843	3777
522.913	1679
522.983	1827
523.053	1560
523.122	3011
523.192	1876
523.262	2783
523.331	1540
523.401	3701
523.471	2431
523.540	3338
523.610	2615
523.680	3278
523.749	3845
523.819	3741
523.888	2470
523.958	2821
524.027	2749
524.097	2917
524.166	2323
524.236	1691
524.305	4027
524.375	2204
524.444	2275
524.514	4569
524.583	1945
524.653	2450
524.722	3277
524.791	1961
524.861	3387
524.930	2071
524.999	2162
525.069	4694
525.138	3950
525.207	2949
525.277	4337
525.346	4440
525.415	5716
525.484	6258
525.554	5278
525.623	7507
525.692	9050
525.761	10982
525.830	12992
525.900	17867
525.969	30330
526.038	60242
526.107	153159
526.176	353275
526.245	217010
526.314	75080
526.383	192171
526.452	219912
526.522	358389
526.591	235639
526.660	37177
526.729	23643
526.797	28359
526.867	49944
526.935	179495
527.004	517749
527.073	231658
527.142	29575
527.211	13432
527.280	10334
527.349	7603
527.418	4355
527.487	6724
527.555	3424
527.624	4724
527.693	2477
527.762	3854
527.831	2661
527.899	3474
527.968	2832
528.037	1945
528.106	3490
528.174	3019
528.243	3912
528.312	2966
528.380	3551
528.449	2162
528.518	4562
528.586	1074
528.655	4804
528.723	3059
528.792	2392
528.861	1536
528.929	2163
528.998	3730
529.066	3771
529.135	5435
529.203	4371
529.272	5344
529.340	7343
529.409	7545
529.477	5768
529.545	4660
529.614	8800
529.682	6373
529.751	8121
529.819	10538
529.887	9568
529.956	7792
530.024	9166
530.092	7095
530.161	9054
530.229	7563
530.297	8462
530.365	9372
530.434	10050
530.502	8086
530.570	8147
530.638	5458
530.707	7133
530.775	7199
530.843	7768
530.911	7390
530.979	8084
531.047	9249
531.115	9083
531.183	7977
531.252	8375
531.320	7114
531.388	6473
531.456	8905
531.524	7782
531.592	9039
531.660	11970
531.728	7699
531.796	6831
531.864	8604
531.932	8501
532.000	8366
532.067	8917
532.135	10138
532.203	12347
532.271	10146
532.339	11382
532.407	10509
532.475	10047
532.542	10713
532.610	10953
532.678	9533
532.746	14804
532.814	16865
532.881	11902
532.949	9934
533.017	9598
533.084	9716
533.152	9395
533.220	9035
533.287	8272
533.355	9276
533.423	10730
533.490	9131
533.558	9095
533.625	9133
533.693	8991
533.761	9053
533.828	9502
533.896	8264
533.963	11583
534.031	10093
534.098	12120
534.166	11776
534.233	10797
534.300	12110
534.368	12459
534.435	10094
534.503	11801
534.570	13134
534.637	12755
534.705	14925
534.772	20250
534.840	44185
534.907	182487
534.974	152273
535.041	20031
535.109	12131
535.176	10262
535.243	11198
535.310	10577
535.378	8615
535.445	9574
535.512	9859
535.579	9158
535.646	8331
535.714	8938
535.781	9444
535.848	9765
535.915	10883
535.982	8547
536.049	8995
536.116	10183
536.183	7352
536.250	8052
536.317	7488
536.384	8196
536.451	8143
536.518	8104
536.585	6670
536.652	10805
536.719	9659
536.786	6416
536.853	7347
536.920	9308
536.987	8250
537.053	7787
537.120	11083
537.187	11027
537.254	7164
537.321	8552
537.388	8867
537.454	8799
537.521	7526
537.588	7580
537.654	8643
537.721	8351
537.788	8847
537.855	8392
537.921	9085
537.988	7414
538.055	8502
538.121	6790
538.188	7279
538.254	7220
538.321	7876
538.388	8607
538.454	7958
538.521	8932
538.587	7647
538.654	8169
538.720	7869
538.787	8465
538.853	8886
538.920	7477
538.986	5988
539.053	7179
539.119	7668
539.185	7519
539.252	9339
539.318	8501
539.385	8824
539.451	6945
539.517	7862
539.583	9089
539.650	7925
539.716	9150
539.782	7410
539.849	7320
539.915	8596
539.981	6996
540.047	6392
540.114	7031
540.180	8569
540.246	8296
540.312	7923
540.378	7854
540.444	9917
540.510	8805
540.576	9703
540.643	8247
540.709	7014
540.775	7217
540.841	7799
540.907	8232
540.973	7413
541.039	7951
541.105	8398
541.171	8126
541.237	7177
541.303	8941
541.369	9712
541.435	8826
541.500	8556
541.566	6413
541.632	6563
541.698	7480
541.764	8396
541.830	7653
541.896	5725
541.961	7422
542.027	6647
542.093	8240
542.159	8029
542.224	6904
542.290	7946
542.356	8292
542.421	8566
542.487	8356
542.553	6998
542.618	6281
542.684	7232
542.750	7079
542.815	8140
542.881	7217
542.947	9609
543.012	9321
543.078	5777
543.143	7252
543.209	7863
543.274	6594
543.340	7353
543.405	8750
543.471	7912
543.536	7307
543.602	8225
543.667	6825
543.732	9154
543.798	7055
543.863	8480
543.928	7460
543.994	7530
544.059	8267
544.124	8852
544.190	7767
544.255	8779
544.320	7883
544.386	7592
544.451	9395
544.516	8610
544.581	8119
544.646	9512
544.712	11279
544.777	9073
544.842	9187
544.907	8568
544.972	9720
545.037	8669
545.102	9477
545.168	9617
545.233	10490
545.298	10685
545.363	9348
545.428	10377
545.493	11725
545.558	10444
545.623	10599
545.688	9732
545.753	10719
545.818	11463
545.883	12560
545.947	11975
546.012	12277
546.077	12631
546.142	14403
546.207	13382
546.272	15705
546.337	14709
546.401	17453
546.466	16308
546.531	16947
546.596	19371
546.661	19447
546.725	20532
546.790	20621
546.855	22845
546.919	26260
546.984	29764
547.049	32330
547.113	35903
547.178	40521
547.243	46306
547.307	53432
547.372	57144
547.436	57258
547.501	62755
547.565	64126
547.630	57903
547.695	57766
547.759	58494
547.823	59237
547.888	59601
547.952	61880
548.017	64144
548.081	64707
548.146	64643
548.210	67804
548.274	72446
548.339	68206
548.403	64139
548.468	60381
548.532	60051
548.596	61565
548.660	62720
548.725	70435
548.789	73141
548.853	70104
548.917	67043
548.982	63932
549.046	57877
549.110	52811
549.174	57728
549.238	66514
549.303	71411
549.367	71680
549.431	68917
549.495	65250
549.559	67445
549.623	80082
549.687	81183
549.751	84837
549.815	100361
549.879	98443
549.943	93861
550.007	99782
550.071	96585
550.135	87578
550.199	84336
550.263	80900
550.327	78138
550.391	82989
550.455	90539
550.519	94654
550.582	101834
550.646	114747
550.710	112908
550.774	112662
550.838	116787
550.901	118377
550.965	125091
551.029	131477
551.093	140799
551.156	155250
551.220	173343
551.284	182708
551.347	140922
551.411	124347
551.475	120670
551.538	124467
551.602	114310
551.666	109495
551.729	101706
551.793	101923
551.856	99389
551.920	98014
551.983	98621
552.047	98182
552.110	97986
552.174	101380
552.237	100166
552.301	93427
552.364	89919
552.428	88820
552.491	92574
552.554	92167
552.618	93962
552.681	93503
552.745	89994
552.808	97044
552.871	101056
552.934	96889
552.998	93707
553.061	91273
553.124	87925
553.187	88797
553.251	91016
553.314	92138
553.377	93452
553.440	102175
553.503	105316
553.567	105027
553.630	100556
553.693	99235
553.756	100991
553.819	97722
553.882	95707
553.945	97278
554.008	95078
554.071	97393
554.134	97171
554.197	92922
554.260	90513
554.323	93593
554.386	94839
554.449	97859
554.512	96312
554.575	93772
554.638	93019
554.701	92947
554.764	91401
554.827	87337
554.889	82126
554.952	80191
555.015	77295
555.078	80965
555.141	81498
555.203	79490
555.266	79802
555.329	77705
555.391	75320
555.454	74290
555.517	70717
555.580	68684
555.642	66008
555.705	64540
555.768	65819
555.830	62984
555.893	59291
555.955	59469
556.018	58642
556.080	57669
556.143	60301
556.206	59124
556.268	57491
556.330	55424
556.393	54260
556.455	52525
556.518	51353
556.580	50645
556.643	48383
556.705	48587
556.767	47076
556.830	46900
556.892	44952
556.955	45100
557.017	42254
557.079	43053
557.142	41495
557.204	41708
557.266	41315
557.328	38774
557.391	36070
557.453	36154
557.515	36280
557.577	36600
557.639	37322
557.701	36609
557.764	35842
557.826	36172
557.888	38951
557.950	40079
558.012	45402
558.074	63070
558.136	153929
558.198	252393
558.260	74941
558.322	40908
558.384	39894
558.446	43879
558.508	46251
558.570	50786
558.632	57838
558.694	80213
558.756	150646
558.818	439465
558.880	652816
558.942	256198
559.003	277150
559.065	103545
559.127	51604
559.189	50222
559.251	57916
559.312	95025
559.374	251656
559.436	540627
559.498	194418
559.559	56939
559.621	49893
559.683	64483
559.744	117769
559.806	352400
559.868	340841
559.929	72496
559.991	61489
560.052	121438
560.114	268438
560.176	137481
560.237	187379
560.299	201650
560.360	38117
560.422	22019
560.483	18806
560.545	18274
560.606	18227
560.667	17393
560.729	15072
560.790	16055
560.852	14951
560.913	15061
560.974	12988
561.036	14349
561.097	13834
561.158	13453
561.220	13594
561.281	13267
561.342	11771
561.403	13155
561.465	13122
561.526	12640
561.587	13625
561.648	11712
561.709	12482
561.771	12232
561.832	11344
561.893	11477
561.954	11754
562.015	10305
562.076	10374
562.137	9930
562.198	10352
562.259	10879
562.320	10407
562.381	10762
562.442	11217
562.503	9827
562.564	9433
562.625	10359
562.686	9564
562.747	9639
562.808	9849
562.869	9369
562.930	9176
562.991	9002
563.051	8450
563.112	9099
563.173	8856
563.234	8187
563.294	8974
563.355	8353
563.416	9143
563.477	8846
563.537	8653
563.598	8901
563.659	8631
563.720	8538
563.780	8164
563.841	8946
563.901	8931
563.962	9228
564.023	8267
564.083	8026
564.144	7662
564.204	7843
564.265	8211
564.325	7491
564.386	8947
564.446	8397
564.507	8048
564.567	7971
564.628	8041
564.688	9023
564.749	6970
564.809	8084
564.869	6826
564.930	7814
564.990	8157
565.050	7677
565.111	7503
565.171	7705
565.231	8159
565.292	8562
565.352	7409
565.412	7689
565.472	7570
565.532	7294
565.593	6907
565.653	7813
565.713	7958
565.773	8298
565.833	8085
565.893	8536
565.953	6802
566.013	6979
566.074	7187
566.134	7787
566.194	7349
566.254	7856
566.314	7259
566.374	6959
566.434	7095
566.494	7908
566.554	6552
566.614	8133
566.673	7282
566.733	8360
566.793	8182
566.853	8091
566.913	7642
566.973	7425
567.033	7826
567.092	7929
567.152	7398
567.212	8048
567.272	8618
567.331	8196
567.391	8079
567.451	8519
567.511	8932
567.570	8993
567.630	8778
567.690	8390
567.749	7669
567.809	7843
567.868	8269
567.928	8194
567.988	7798
568.047	8664
568.107	8025
568.166	9405
568.226	7724
568.285	8549
568.345	7853
568.404	9483
568.464	9255
568.523	8864
568.582	8219
568.642	8748
568.701	7759
568.761	7905
568.820	7894
568.879	8216
568.939	8999
568.998	7770
569.057	8706
569.116	9387
569.176	7901
569.235	8869
569.294	8741
569.353	8245
569.413	7669
569.472	7821
569.531	8012
569.590	8314
569.649	7516
569.708	8437
569.767	8426
569.827	8215
569.886	7652
569.945	8037
570.004	8281
570.063	8692
570.122	8604
570.181	10105
570.240	7928
570.299	8968
570.358	8204
570.417	9608
570.475	9057
570.534	8775
570.593	8860
570.652	9626
570.711	8028
570.770	8060
570.829	8351
570.887	8795
570.946	8765
571.005	9105
571.064	9408
571.122	9973
571.181	8559
571.240	8137
571.299	9130
571.357	9124
571.416	8157
571.475	9350
571.533	8568
571.592	9136
571.650	9911
571.709	9478
571.768	11563
571.826	11779
571.885	10548
571.943	9737
572.002	9527
572.060	9180
572.119	9657
572.177	8909
572.236	9135
572.294	8894
572.352	9623
572.411	10802
572.469	8560
572.528	8385
572.586	9373
572.644	8503
572.703	8922
572.761	8664
572.819	7646
572.877	8479
572.936	7337
572.994	8400
573.052	8257
573.110	8088
573.169	8386
573.227	9620
573.285	8964
573.343	9488
573.401	8876
573.459	8708
573.517	9475
573.576	9087
573.634	8982
573.692	9341
573.750	9214
573.808	9124
573.866	8705
573.924	8867
573.982	9251
574.040	9291
574.098	8591
574.155	8495
574.213	8077
574.271	9142
574.329	9916
574.387	8503
574.445	8182
574.503	7759
574.560	7210
574.618	8140
574.676	8080
574.734	8106
574.792	8001
574.849	6879
574.907	6284
574.965	6770
575.022	6281
575.080	6906
575.138	7218
575.195	6735
575.253	6469
575.311	7298
575.368	7190
575.426	6238
575.483	7236
575.541	7809
575.598	6999
575.656	7604
575.713	7878
575.771	8233
575.828	6557
575.886	6086
575.943	5925
576.001	6708
576.058	5771
576.115	6259
576.173	5526
576.230	6849
576.287	6482
576.345	6984
576.402	7662
576.459	8122
576.517	5705
576.574	5896
576.631	5925
576.688	7397
576.746	6610
576.803	6829
576.860	6361
576.917	7638
576.974	6631
577.031	6580
577.089	5597
577.146	5368
577.203	5614
577.260	6185
577.317	5943
577.374	6178
577.431	6358
577.488	5748
577.545	6235
577.602	6632
577.659	5591
577.716	7130
577.773	6223
577.830	6850
577.886	5449
577.943	5594
578.000	5866
578.057	5874
578.114	6842
578.171	6930
578.227	6488
578.284	6037
578.341	6489
578.398	5787
578.454	6308
578.511	5970
578.568	6831
578.625	6360
578.681	6533
578.738	6463
578.794	5481
578.851	5962
578.908	5573
578.964	6879
579.021	6297
579.077	6475
579.134	5759
579.190	6671
579.247	6722
579.303	6467
579.360	7302
579.416	6270
579.473	6384
579.529	5973
579.586	6759
579.642	7255
579.698	7255
579.755	7003
579.811	6870
579.867	7156
579.924	6957
579.980	6952
580.036	7313
580.093	7691
580.149	8004
580.205	7908
580.261	7729
580.317	8080
580.374	8234
580.430	8864
580.486	8113
580.542	7452
580.598	7921
580.619	8095
580.654	8406
580.692	8179
580.710	8076
580.765	8276
580.767	8289
580.823	8584
580.838	8616
580.879	8737
580.911	8728
580.935	8726
580.984	8144
580.991	8077
581.047	8793
581.057	8831
581.103	8988
581.130	8849
581.159	8733
581.203	8018
581.215	7829
581.270	8366
581.276	8344
581.326	8164
581.349	8102
581.382	8041
581.422	8297
581.438	8399
581.494	8768
581.494	8759
581.550	8428
581.567	8622
581.606	9023
581.640	8588
581.661	8347
581.713	9552
581.717	9650
581.773	8480
581.786	8549
581.829	8810
581.859	8826
581.885	8832
581.932	9445
581.940	9556
581.996	9865
582.004	9698
582.052	8744
582.077	9152
582.107	9710
582.150	9564
582.163	9516
582.219	8533
582.223	8566
582.274	8924
582.296	9139
582.330	9518
582.368	9162
582.386	9052
582.441	10324
582.441	10326
582.497	9717
582.514	9671
582.552	9938
582.587	10127
582.608	10168
582.659	10208
582.663	10212
582.719	9911
582.732	9986
582.774	10230
582.805	10316
582.830	10389
582.877	11219
582.885	11370
582.941	11858
582.950	11916
582.996	12197
583.023	12553
583.052	12945
583.095	12934
583.107	12899
583.162	13092
583.168	12937
583.218	11613
583.240	11448
583.273	11114
583.313	11174
583.328	11241
583.384	10943
583.385	10910
583.439	9903
583.458	10130
583.494	10618
583.531	10481
583.549	10408
583.603	10322
583.605	10317
583.660	10581
583.676	10602
583.715	10678
583.748	10694
583.770	10674
583.820	10095
583.825	10042
583.881	10875
583.893	10701
583.936	10211
583.965	10645
583.991	10860
584.038	10958
584.046	11014
584.101	11265
584.110	11132
584.156	10558
584.183	10898
584.211	11120
584.255	10947
584.266	10997
584.321	12493
584.328	12456
584.376	11978
584.400	12384
584.431	12787
584.472	11953
584.486	11741
584.541	13011
584.545	13025
584.596	13036
584.617	13151
584.651	13693
584.689	14303
584.706	14414
584.761	15280
584.762	15271
584.816	14456
584.834	14970
584.871	16022
584.906	16521
584.926	16946
584.978	17924
584.980	17962
585.035	19526
585.051	20062
585.090	21850
585.123	22823
585.145	23597
585.195	26805
585.200	27193
585.254	30484
585.267	31756
585.309	36754
585.340	40236
585.364	43477
585.412	51851
585.419	53487
585.473	67996
585.484	72762
585.528	100832
585.556	125641
585.583	175845
585.628	287344
585.637	328628
585.692	649472
585.700	687707
585.747	796794
585.772	736567
585.801	495944
585.845	220067
585.856	188062
585.910	88638
585.917	77669
585.965	55712
585.989	46339
586.019	40814
586.061	34380
586.074	33191
586.128	29422
586.133	29004
586.183	26203
586.205	25225
586.237	24370
586.277	23591
586.292	23421
586.346	21928
586.349	21903
586.401	21815
586.421	21830
586.455	21939
586.493	21046
586.509	21009
586.564	21638
586.565	21662
586.618	24310
586.637	25220
586.672	28558
586.709	32693
586.727	34669
586.781	38457
586.781	38483
586.835	30812
586.853	28721
586.889	25109
586.925	21580
586.944	20719
586.996	20275
586.998	20288
587.052	19283
587.068	19150
587.106	19299
587.140	18900
587.161	18877
587.212	19631
587.215	19659
587.269	18948
587.284	19002
587.323	19235
587.356	19453
587.377	19857
587.427	20492
587.431	20510
587.485	21189
587.499	20981
587.539	20804
587.571	21593
587.593	22234
587.643	23049
587.648	23110
587.702	23380
587.715	23278
587.755	22981
587.786	23284
587.810	23592
587.858	23634
587.864	23606
587.917	23828
587.930	23731
587.971	23907
588.001	24097
588.025	24112
588.073	24125
588.079	24193
588.133	24182
588.145	24348
588.187	24281
588.217	24158
588.241	24854
588.288	25768
588.295	25809
588.348	26698
588.360	26610
588.402	26390
588.431	26926
588.456	27490
588.503	27796
588.510	27973
588.564	29948
588.575	30361
588.617	31624
588.646	32795
588.671	34003
588.718	35950
588.725	36582
588.778	44082
588.789	46118
588.832	66623
588.861	83998
588.886	121452
588.932	207130
588.939	216554
588.993	262514
589.004	261967
589.047	136092
589.075	68841
589.100	55077
589.147	35003
589.154	34545
589.207	32579
589.218	32117
589.261	32806
589.290	33606
589.314	34322
589.361	36614
589.368	37778
589.421	49023
589.433	52096
589.475	87318
589.504	116719
589.528	156918
589.576	231892
589.582	224255
589.635	113716
589.647	93870
589.689	55462
589.718	31922
589.742	30577
589.790	27989
589.795	28049
589.849	28504
589.861	28547
589.902	27929
589.932	27576
589.955	27119
590.004	26028
590.009	26022
590.062	25716
590.075	25599
590.115	25890
590.146	26169
590.168	26063
590.218	25553
590.222	25639
590.275	26948
590.289	27110
590.328	27507
590.360	27803
590.381	27904
590.431	28245
590.435	28274
590.488	28285
590.503	28183
590.541	28563
590.574	28999
590.594	29345
590.645	30068
590.647	30128
590.700	30853
590.716	31025
590.753	31593
590.787	32086
590.806	32488
590.859	33665
590.859	33706
590.912	33599
590.930	33560
590.965	34192
591.001	34861
591.018	34864
591.071	34659
591.072	34614
591.124	33106
591.143	32591
591.177	33499
591.214	34361
591.230	34377
591.283	34382
591.285	34340
591.336	33854
591.356	33607
591.389	34239
591.427	34746
591.442	34619
591.495	34151
591.498	34084
591.547	33919
591.569	33772
591.600	34499
591.640	35272
591.653	35515
591.706	36384
591.711	36445
591.759	37098
591.782	37331
591.811	38084
591.853	39113
591.864	39239
591.917	39560
591.924	39543
591.969	39533
591.995	39547
592.022	39416
592.066	38958
592.075	39256
592.127	40937
592.137	41188
592.180	41775
592.208	42102
592.233	43156
592.279	44995
592.285	45102
592.338	45491
592.350	45520
592.390	45222
592.421	44888
592.443	45410
592.491	46404
592.495	46542
592.548	47603
592.562	47833
592.600	47326
592.633	46781
592.653	46723
592.704	46170
592.705	46458
592.775	47703
592.846	50053
592.916	48670
592.987	49827
593.058	50436
593.128	50744
593.199	51948
593.270	51919
593.341	53242
593.411	54170
593.482	57203
593.553	58171
593.623	59089
593.694	60593
593.764	62911
593.835	59776
593.906	61526
593.976	63068
594.047	64253
594.117	68389
594.188	70224
594.258	69170
594.329	68641
594.399	72004
594.470	73622
594.540	77823
594.611	78555
594.681	76895
594.751	77941
594.822	80346
594.892	84470
594.963	86487
595.033	89164
595.103	92588
595.174	93329
595.244	94389
595.314	97818
595.384	100132
595.455	102873
595.525	107114
595.595	110091
595.665	110088
595.736	108242
595.806	110186
595.876	111670
595.946	111575
596.016	116402
596.087	120707
596.157	120895
596.227	120836
596.297	127344
596.367	135826
596.437	144297
596.507	145149
596.577	143616
596.647	147243
596.717	156582
596.787	159028
596.857	158168
596.927	159266
596.997	160072
597.067	161775
597.137	164157
597.207	166266
597.277	168340
597.347	160380
597.417	153496
597.487	154774
597.557	160344
597.626	163614
597.696	167688
597.766	164485
597.836	156845
597.906	148084
597.975	144729
598.045	148426
598.115	153204
598.185	165367
598.254	183473
598.324	200611
598.394	202461
598.464	197133
598.533	193690
598.603	180602
598.672	176855
598.742	180515
598.812	181635
598.881	188180
598.951	184990
599.020	189715
599.090	195784
599.159	199367
599.229	191734
599.299	187808
599.368	194429
599.437	191213
599.507	176714
599.576	171944
599.646	168982
599.715	166293
599.785	166355
599.854	161038
599.924	159284
599.993	158243
600.062	162013
600.132	166694
600.201	175792
600.270	203676
600.340	214519
600.409	210780
600.478	208615
600.547	216793
600.617	196858
600.686	160822
600.755	148597
600.824	140055
600.894	138164
600.963	140758
601.032	138376
601.101	133902
601.170	130765
601.239	126618
601.308	126575
601.378	129083
601.447	130003
601.516	130455
601.585	130843
601.654	133517
601.723	135075
601.792	138984
601.861	143685
601.930	150665
601.999	152043
602.068	150791
602.137	154376
602.206	155994
602.275	157804
602.343	159222
602.412	159750
602.481	161754
602.550	162543
602.619	167147
602.688	167357
602.756	171099
602.825	172371
602.894	176257
602.963	178781
603.032	181543
603.100	181850
603.169	179409
603.238	183278
603.307	181718
603.375	184236
603.444	188933
603.513	189445
603.581	192177
603.650	197893
603.719	186870
603.787	188831
603.856	194407
603.924	198968
603.993	204027
604.061	212335
604.130	220670
604.198	224573
604.267	229299
604.335	231968
604.404	235785
604.472	238964
604.541	241317
604.609	242675
604.678	246419
604.746	249589
604.815	258109
604.883	257005
604.951	256826
605.020	260289
605.088	261416
605.156	263452
605.225	268638
605.293	267628
605.361	268205
605.429	271672
605.498	277187
605.566	281022
605.634	293125
605.702	302128
605.771	310011
605.839	311488
605.907	301433
605.975	295699
606.043	287772
606.111	286830
606.180	291184
606.248	283744
606.316	278285
606.384	280762
606.452	275636
606.520	276048
606.588	286234
606.656	290250
606.724	282888
606.792	268206
606.860	243532
606.928	220474
606.996	211372
607.064	208025
607.132	214956
607.200	228371
607.267	235814
607.335	240155
607.403	245932
607.471	236956
607.539	229675
607.607	234753
607.674	204998
607.742	207164
607.810	202490
607.878	204204
607.946	208213
608.013	219409
608.081	222841
608.149	222608
608.216	233019
608.284	240058
608.352	239419
608.419	235070
608.487	231045
608.555	226433
608.622	236389
608.690	246611
608.757	274238
608.825	276527
608.893	271110
608.960	254900
609.028	245277
609.095	243835
609.163	241375
609.230	218625
609.298	197860
609.365	211774
609.432	227318
609.500	245571
609.567	280452
609.635	318693
609.702	337379
609.769	321331
609.837	253294
609.904	224197
609.971	235664
610.039	267820
610.106	360842
610.173	669188
610.241	1377098
610.308	959526
610.375	367654
610.442	265642
610.509	240665
610.577	235907
610.644	236996
610.711	241944
610.778	247310
610.845	257163
610.912	271630
610.980	280161
611.047	281131
611.114	274723
611.181	266943
611.248	266553
611.315	279342
611.382	286294
611.449	296804
611.516	301724
611.583	297610
611.650	299994
611.717	307219
611.784	316276
611.851	332589
611.918	357004
611.984	426604
612.051	585533
612.118	1028141
612.185	1872127
612.252	1532758
612.319	658811
612.386	459373
612.452	393469
612.519	360273
612.586	343801
612.653	345419
612.719	352504
612.786	336856
612.853	313717
612.919	305738
612.986	310164
613.053	292471
613.120	276284
613.186	262850
613.253	268544
613.319	266152
613.386	268679
613.453	271581
613.519	271818
613.586	266040
613.652	269807
613.719	266798
613.785	273554
613.852	277067
613.918	273523
613.985	276911
614.051	287938
614.118	285545
614.184	273575
614.250	273336
614.317	283374
614.383	275213
614.449	279934
614.516	277567
614.582	279304
614.648	274841
614.715	272679
614.781	267729
614.847	265057
614.914	264140
614.980	256608
615.046	257752
615.112	266400
615.179	268663
615.245	272360
615.311	269201
615.377	272953
615.443	276052
615.509	282777
615.575	293889
615.642	293310
615.708	301833
615.774	317355
615.840	344165
615.906	374202
615.972	463230
616.038	686103
616.104	1243998
616.170	2048709
616.236	1924314
616.302	995912
616.368	710402
616.434	499237
616.500	419206
616.565	463900
616.631	612288
616.697	512796
616.763	497778
616.829	753448
616.895	1327431
616.961	1346554
617.026	665605
617.092	390944
617.158	326603
617.224	297938
617.289	273020
617.355	252169
617.421	247902
617.487	247160
617.552	230779
617.618	227954
617.684	227114
617.749	225972
617.815	217201
617.880	212921
617.946	210691
618.012	215672
618.077	219486
618.143	211362
618.208	209881
618.274	227140
618.339	225960
618.405	187192
618.470	187220
618.536	184561
618.601	182468
618.667	170635
618.732	160949
618.798	157708
618.863	158761
618.928	156392
618.994	159175
619.059	157036
619.124	157247
619.190	155849
619.255	154874
619.320	155843
619.386	156616
619.451	155671
619.516	147980
619.581	151633
619.647	155690
619.712	156740
619.777	149499
619.842	150965
619.907	154355
619.972	157757
620.038	155337
620.103	150359
620.168	151379
620.233	155188
620.298	154053
620.363	155949
620.428	160490
620.493	163775
620.558	165274
620.623	169108
620.688	168323
620.753	164560
620.818	170554
620.883	169503
620.948	168044
621.013	166717
621.078	163914
621.143	166262
621.207	170491
621.272	165883
621.337	159478
621.402	158506
621.467	157351
621.532	157110
621.596	158771
621.661	151577
621.726	150343
621.791	153628
621.855	151817
621.920	151982
621.985	153640
622.049	157608
622.114	158887
622.179	159920
622.243	163201
622.308	169548
622.373	176203
622.437	171805
622.502	161360
622.566	159492
622.631	160373
622.695	162485
622.760	161917
622.824	160995
622.889	162239
622.953	162580
623.018	173696
623.082	174788
623.147	174744
623.211	168977
623.276	169723
623.340	161771
623.404	156083
623.469	155879
623.533	159502
623.597	154320
623.662	154236
623.726	143655
623.790	132228
623.854	128680
623.919	132401
623.983	134599
624.047	136803
624.111	138197
624.176	140520
624.240	143754
624.304	147201
624.368	140469
624.432	140806
624.496	146319
624.560	154091
624.625	155605
624.689	153586
624.753	162029
624.817	153833
624.881	150206
624.945	135554
625.009	129951
625.073	132736
625.137	136507
625.201	145347
625.265	143472
625.329	137263
625.393	140427
625.456	142052
625.520	145902
625.584	148010
625.648	152455
625.712	155761
625.776	157495
625.839	149013
625.903	123514
625.967	114919
626.031	124199
626.095	149782
626.158	137558
626.222	108477
626.286	99490
626.349	94146
626.413	88618
626.477	89387
626.540	91189
626.604	89133
626.668	86354
626.731	86663
626.795	87474
626.858	87321
626.922	86473
626.986	85220
627.049	83243
627.113	90082
627.176	86911
627.240	83437
627.303	85233
627.366	83327
627.430	85644
627.493	83305
627.557	82865
627.620	84373
627.684	88878
627.747	89467
627.810	82029
627.874	74708
627.937	71051
628.000	73564
628.064	71459
628.127	64123
628.190	63527
628.253	62334
628.317	57510
628.380	56143
628.443	54530
628.506	54320
628.569	52409
628.632	49325
628.696	50079
628.759	49065
628.822	47017
628.885	46029
628.948	44810
629.011	44432
629.074	43121
629.137	42499
629.200	41180
629.263	41937
629.326	40180
629.389	40882
629.452	39545
629.515	39251
629.578	38939
629.641	40792
629.704	40421
629.767	39283
629.830	38702
629.892	37823
629.955	37292
630.018	39856
630.081	36779
630.144	39683
630.207	36528
630.269	39953
630.332	36215
630.395	37198
630.458	36148
630.520	34780
630.583	35698
630.646	36871
630.708	36941
630.771	36423
630.834	40390
630.896	38594
630.959	38607
631.021	38408
631.084	37906
631.146	38879
631.209	40810
631.272	40639
631.334	42197
631.397	42733
631.459	44952
631.522	48190
631.584	50772
631.646	57025
631.709	59870
631.771	60947
631.834	57489
631.896	53494
631.958	48212
632.021	45374
632.083	41543
632.145	40668
632.208	39239
632.270	40328
632.332	38008
632.395	37433
632.457	38262
632.519	36297
632.581	37008
632.643	35708
632.706	36682
632.768	35128
632.830	36595
632.892	37752
632.954	37817
633.016	38802
633.078	37272
633.141	37608
633.203	37018
633.265	37399
633.327	37827
633.389	37668
633.451	38889
633.513	38457
633.575	41117
633.637	39204
633.698	41254
633.760	45647
633.822	47144
633.884	48610
633.946	51349
634.008	53953
634.070	58309
634.132	65921
634.193	74791
634.255	81563
634.317	84771
634.379	81238
634.441	72276
634.502	62552
634.564	55748
634.626	48948
634.687	45005
634.749	42775
634.811	42148
634.873	40581
634.934	40435
634.996	42004
635.057	39929
635.119	41677
635.181	43286
635.242	45441
635.304	42112
635.365	45844
635.427	42723
635.488	44345
635.550	43162
635.611	46253
635.673	45886
635.734	52314
635.796	57883
635.857	64592
635.918	71530
635.980	81821
636.041	88759
636.102	95912
636.164	99416
636.225	92213
636.286	78694
636.348	68713
636.409	57720
636.470	51613
636.531	47324
636.593	43635
636.654	41299
636.715	39273
636.776	37342
636.838	35580
636.899	34474
636.960	33605
637.021	32859
637.082	32123
637.143	32586
637.204	30259
637.265	31034
637.326	31407
637.387	32271
637.448	30593
637.509	32263
637.570	30971
637.631	31290
637.692	28580
637.753	26281
637.814	29408
637.875	27031
637.936	28570
637.997	26092
638.058	26484
638.119	27617
638.179	26380
638.240	26025
638.301	26356
638.362	24439
638.423	25222
638.483	24915
638.544	22867
638.605	24529
638.666	23428
638.726	24472
638.787	24646
638.848	23408
638.908	22537
638.969	22977
639.030	22516
639.090	22550
639.151	22641
639.211	22729
639.272	23686
639.332	24904
639.393	26744
639.453	29465
639.514	32079
639.574	25713
639.635	22888
639.695	22365
639.756	20354
639.816	21543
639.877	21155
639.937	22111
639.997	23590
640.058	21109
640.118	21638
640.178	22332
640.239	21532
640.299	22635
640.359	22859
640.420	26881
640.480	32287
640.540	39165
640.600	41601
640.661	35455
640.721	32274
640.781	34083
640.841	26058
640.901	24233
640.961	24414
641.021	26684
641.082	30814
641.142	25771
641.202	22169
641.262	18783
641.322	20188
641.382	19692
641.442	21002
641.502	19700
641.562	21688
641.622	21613
641.682	26168
641.742	33651
641.802	30399
641.861	23232
641.921	19979
641.981	18662
642.041	17930
642.101	18570
642.161	17880
642.221	18415
642.280	19480
642.340	17944
642.400	18472
642.460	20657
642.519	19888
642.579	20231
642.639	20994
642.698	18897
642.758	23938
642.818	21578
642.877	19735
642.937	21559
642.997	21283
643.056	20933
643.116	19963
643.175	22942
643.235	22215
643.294	24139
643.354	27181
643.414	28555
643.473	34911
643.532	45131
643.592	62265
643.651	97352
643.711	171664
643.770	327619
643.830	723669
643.889	1181789
643.948	466348
644.008	123331
644.067	66538
644.126	44934
644.186	36073
644.245	31025
644.304	25604
644.363	27632
644.423	23743
644.482	24363
644.541	25835
644.600	26824
644.659	37270
644.719	49046
644.778	78409
644.837	139416
644.896	286805
644.955	615555
645.014	224328
645.073	56772
645.132	37182
645.191	31341
645.250	29546
645.309	32408
645.368	36780
645.427	52908
645.486	103251
645.545	188289
645.604	50003
645.663	26139
645.722	25611
645.781	26957
645.840	31148
645.898	40039
645.957	58698
646.016	90289
646.075	163700
646.134	312608
646.192	737238
646.251	944798
646.310	257161
646.369	83941
646.427	61772
646.486	42731
646.545	30177
646.603	25772
646.662	22968
646.721	21880
646.779	22514
646.838	23789
646.896	32990
646.955	48992
647.014	83209
647.072	167450
647.131	442240
647.189	217034
647.248	36166
647.306	23767
647.365	19174
647.423	15704
647.481	17952
647.540	13686
647.598	15100
647.657	14815
647.715	15129
647.773	12512
647.832	14791
647.890	11322
647.948	12208
648.007	12401
648.065	10523
648.123	11161
648.181	12293
648.240	11236
648.298	11027
648.356	10058
648.414	12181
648.472	10181
648.531	11259
648.589	10337
648.647	11049
648.705	10556
648.763	10778
648.821	12602
648.879	13105
648.937	15731
648.995	20818
649.053	27512
649.111	43603
649.169	73825
649.227	138441
649.285	290276
649.343	710908
649.401	379747
649.459	67441
649.516	34417
649.574	24357
649.632	25617
649.690	28704
649.748	37280
649.806	60196
649.863	118296
649.921	333381
649.979	223399
650.037	30998
650.094	15803
650.152	13192
650.210	11683
650.268	11409
650.325	10149
650.383	10721
650.440	7717
650.498	8976
650.556	7635
650.613	8838
650.671	8790
650.728	9536
650.786	10799
650.843	18633
650.901	12324
650.958	7846
651.016	7445
651.073	6828
651.131	5726
651.188	6024
651.246	6895
651.303	6513
651.360	6716
651.418	6166
651.475	6005
651.532	6057
651.590	6391
651.647	6239
651.704	5708
651.762	6246
651.819	5892
651.876	5456
651.933	5310
651.990	6054
652.048	5373
652.105	5502
652.162	5688
652.219	5418
652.276	5318
652.333	6221
652.390	4900
652.448	5774
652.505	4941
652.562	5560
652.619	4212
652.676	5584
652.733	6280
652.790	4794
652.847	4121
652.904	6279
652.961	4131
653.017	4830
653.074	5745
653.131	4705
653.188	4358
653.245	4913
653.302	4223
653.359	5203
653.415	5420
653.472	4324
653.529	4930
653.586	4824
653.642	5202
653.699	5477
653.756	4424
653.813	3859
653.869	6166
653.926	6026
653.983	5252
654.039	5141
654.096	4591
654.152	5314
654.209	3433
654.266	4376
654.322	3844
654.379	4575
654.435	4142
654.492	4609
654.548	4356
654.605	4236
654.661	4361
654.717	3906
654.774	3813
654.830	3798
654.887	3814
654.943	4594
655.000	5038
655.056	5452
655.112	4489
655.168	3801
655.225	4797
655.281	5730
655.337	4917
655.394	3955
655.450	4000
655.506	4112
655.562	4064
655.618	5233
655.675	3024
655.731	4286
655.787	3497
655.843	4269
655.899	4172
655.955	4979
656.011	5171
656.067	3687
656.123	4076
656.179	4320
656.235	5363
656.291	3915
656.347	6213
656.403	4546
656.459	4671
656.515	3966
656.571	4536
656.627	3145
656.683	4064
656.739	4446
656.795	3443
656.850	4204
656.906	4048
656.962	5517
657.018	4808
657.074	7240
657.129	9500
657.185	18327
657.241	44488
657.297	23582
657.352	5345
657.408	3776
657.464	4780
657.519	3836
657.575	2713
657.630	3122
657.686	3362
657.742	2696
657.797	3634
657.853	2999
657.908	3930
657.964	3041
658.019	2784
658.075	2953
658.130	3500
658.186	2707
658.241	3692
658.297	2741
658.352	3007
658.407	3866
658.463	2510
658.518	3827
658.573	3048
658.629	1743
658.684	3498
658.739	3796
658.795	2903
658.850	2967
658.905	2670
658.960	2568
659.016	1946
659.071	2022
659.126	2334
659.181	2906
659.236	4053
659.291	3380
659.346	2539
659.401	3016
659.457	3099
659.512	2210
659.567	3872
659.622	2743
659.677	2217
659.732	1989
659.787	2696
659.842	2404
659.897	2907
659.952	3369
660.007	2808
660.061	2484
660.116	1984
660.171	1746
660.226	2595
660.281	2993
660.336	2114
660.391	2763
660.445	1477
660.500	2569
660.555	2427
660.610	2000
660.664	2601
660.719	2822
660.774	2280
660.828	2893
660.883	2323
660.938	2870
660.992	1051
661.047	2638
661.101	2138
661.156	2922
661.211	1140
661.265	2566
661.320	2649
661.374	2339
661.429	1689
661.483	2606
661.538	1256
661.592	2189
661.647	2736
661.701	4444
661.755	2734
661.810	2880
661.864	1050
661.919	1908
661.973	2834
662.027	2125
662.081	1369
662.136	2421
662.190	1988
662.244	1858
662.299	2070
662.353	2944
662.407	1700
662.461	2235
662.515	2601
662.569	1706
662.624	2481
662.678	1816
662.732	1633
662.786	1933
662.840	1976
662.894	2151
662.948	2325
663.002	2879
663.056	2630
663.110	2127
663.164	1898
663.218	2058
663.272	2689
663.326	3068
663.380	1671
663.434	2642
663.488	2265
663.542	2991
663.595	2098
663.649	2216
663.703	2847
663.757	3247
663.811	1500
663.864	2508
663.918	2451
663.972	2221
664.026	3006
664.079	2641
664.133	3224
664.187	2344
664.240	2723
664.294	2889
664.348	2955
664.401	2233
664.455	2152
664.508	1539
664.562	2333
664.615	2764
664.669	2255
664.722	2491
664.776	1706
664.829	2112
664.883	1862
664.936	1556
664.990	2234
665.043	2360
665.097	1602
665.150	2094
665.203	1214
665.257	1999
665.310	2061
665.363	2485
665.417	3194
665.470	2912
665.523	3189
665.576	3007
665.630	2379
665.683	3513
665.736	2100
665.789	3017
665.842	2138
665.895	2193
665.949	2970
666.002	2644
666.055	2757
666.108	3935
666.161	3400
666.214	3145
666.267	2472
666.320	3579
666.373	4130
666.426	3488
666.479	2865
666.532	3442
666.585	3933
666.638	3606
666.691	3000
666.744	3262
666.796	2695
666.849	3309
666.902	2739
666.955	3159
667.008	1691
667.060	2874
667.113	2005
667.166	3561
667.219	2814
667.271	3088
667.324	2584
667.377	3305
667.430	2545
667.482	2520
667.535	2433
667.587	3035
667.640	2638
667.693	2341
667.745	2721
667.798	2932
667.850	2404
667.903	3188
667.955	3207
668.008	3250
668.060	2621
668.113	2241
668.165	2532
668.218	3506
668.270	2992
668.322	3013
668.375	2390
668.427	2712
668.479	2161
668.532	2930
668.584	2993
668.636	2125
668.689	2486
668.741	3335
668.793	2626
668.845	2097
668.898	3024
668.950	2971
669.002	1937
669.054	2216
669.106	2093
669.158	2519
669.211	1877
669.263	2877
669.315	2184
669.367	3146
669.419	1715
669.471	3466
669.523	2774
669.575	3569
669.627	1934
669.679	2213
669.731	2363
669.783	2849
669.835	2584
669.886	2061
669.938	2295
669.990	2438
670.042	2271
670.094	1762
670.146	2294
670.197	3275
670.249	2852
670.301	3283
670.353	4901
670.404	6523
670.456	7947
670.508	13002
670.560	21934
670.611	37415
670.663	65916
670.715	158051
670.766	237478
670.818	67772
670.869	12894
670.921	8470
670.972	7867
671.024	4579
671.075	4940
671.127	5227
671.178	5384
671.230	5636
671.281	5974
671.333	7447
671.384	8852
671.436	12742
671.487	19066
671.538	28936
671.590	47834
671.641	79286
671.692	138309
671.744	245075
671.795	191234
671.846	80902
671.897	39257
671.949	24591
672.000	15629
672.051	11421
672.102	9321
672.153	6936
672.204	5478
672.256	5389
672.307	4559
672.358	4097
672.409	3543
672.460	3564
672.511	2222
672.562	2117
672.613	2647
672.664	2707
672.715	2544
672.766	1535
672.817	1945
672.868	1890
672.919	1756
672.970	2172
673.021	1352
673.071	1074
673.122	1613
673.173	1887
673.224	1888
673.275	1286
673.326	1973
673.376	1447
673.427	879
673.478	1978
673.528	1900
673.579	1278
673.630	1019
673.680	2065
673.731	1357
673.782	1542
673.832	515
673.883	1951
673.934	1558
673.984	1809
674.035	2003
674.085	1800
674.136	2158
674.186	895
674.237	1913
674.287	1970
674.338	2492
674.388	2694
674.438	2454
674.489	3334
674.539	3249
674.589	2316
674.640	2503
674.690	2606
674.740	2719
674.791	2646
674.841	2247
674.891	1976
674.942	1638
674.992	1397
675.042	1236
675.092	1287
675.142	362
675.193	995
675.243	759
675.293	1427
675.343	835
675.393	1501
675.443	1349
675.493	1502
675.543	1294
675.593	1107
675.643	949
675.693	2141
675.743	2015
675.793	492
675.843	573
675.893	808
675.943	1649
675.993	1770
676.043	724
676.093	987
676.142	618
676.192	1256
676.242	253
676.292	912
676.341	258
676.391	214
676.441	254
676.491	455
676.540	796
676.590	776
676.640	767
676.689	647
676.739	-113
676.789	590
676.838	-62
676.888	1016
676.937	374
676.987	298
677.037	169
677.086	310
677.136	260
677.185	351
677.235	508
677.284	569
677.333	-16
677.383	41
677.432	556
677.482	404
677.531	-28
677.580	198
677.630	0
677.679	-243
677.728	146
677.778	1464
677.827	151
677.876	594
677.925	221
677.975	902
678.024	1016
678.073	757
678.122	935
678.171	1325
678.220	1292
678.269	2517
678.319	2416
678.368	3090
678.417	2155
678.466	2006
678.515	597
678.564	663
678.613	-153
678.662	229
678.711	-206
678.760	1014
678.809	340
678.857	731
678.906	1570
678.955	259
679.004	499
679.053	1114
679.102	-524
679.151	207
679.199	443
679.248	584
679.297	-537
679.346	-103
679.394	157
679.443	-315
679.492	-448
679.540	-169
679.589	483
679.638	503
679.686	481
679.735	1639
679.784	1539
679.832	2504
679.881	1325
679.929	940
679.978	-24
680.026	434
680.075	516
680.123	-515
680.172	-291
680.220	325
680.268	-261
680.317	-431
680.365	-660
680.414	353
680.462	-199
680.510	1103
680.559	-67
680.607	-637
680.655	-296
680.703	14
680.752	22
680.800	-607
680.848	-104
680.896	-144
680.945	94
680.993	-462
681.041	-86
681.089	160
681.137	-178
681.185	-40
681.233	537
681.258	291
681.281	21
681.329	159
681.377	-344
681.380	-296
681.425	-146
681.473	-321
681.502	-316
681.521	-383
681.569	1350
681.617	894
681.624	1002
681.665	1370
681.713	959
681.745	1104
681.761	1123
681.809	933
681.857	2008
681.867	1838
681.904	1096
681.952	902
681.989	1046
682.000	1029
682.048	1245
682.096	763
682.111	945
682.143	1238
682.191	1632
682.233	2430
682.239	2510
682.286	1439
682.334	1529
682.354	1389
682.382	1115
682.430	2147
682.476	2192
682.477	2158
682.525	2392
682.572	2522
682.598	2341
682.620	2126
682.667	2340
682.715	2766
682.720	2762
682.763	2358
682.810	2703
682.841	3023
682.857	3153
682.905	2339
682.952	2786
682.963	2932
683.000	3304
683.047	3118
683.085	3729
683.095	3850
683.142	2972
683.190	4033
683.206	3775
683.237	3207
683.284	3331
683.328	3079
683.332	3030
683.379	3898
683.426	3911
683.449	3806
683.473	3648
683.521	3637
683.568	4044
683.571	4036
683.615	3488
683.662	4497
683.693	4152
683.709	3904
683.757	4041
683.804	3620
683.814	3823
683.851	4472
683.898	3676
683.936	4263
683.945	4381
683.992	3634
684.039	4552
684.057	4684
684.086	4871
684.133	4962
684.179	4309
684.180	4261
684.227	4462
684.274	5473
684.300	5449
684.321	5389
684.368	4548
684.415	5426
684.422	5388
684.462	5053
684.509	5364
684.543	5762
684.556	5862
684.603	5480
684.649	4708
684.665	5046
684.696	5816
684.743	6392
684.786	6460
684.790	6417
684.837	5267
684.883	5296
684.908	5728
684.930	6285
684.977	6381
685.023	6750
685.029	6748
685.070	6421
685.117	6030
685.150	6745
685.164	6995
685.210	6706
685.257	7092
685.272	7014
685.303	6881
685.350	7096
685.393	7116
685.396	7079
685.443	6467
685.490	6367
685.514	6610
685.536	6923
685.583	6785
685.629	6574
685.636	6570
685.675	6442
685.722	6792
685.757	7172
685.768	7292
685.815	7096
685.861	7337
685.878	7301
685.908	7273
685.954	7531
686.000	7702
686.000	7693
686.047	7681
686.093	8281
686.121	8416
686.139	8470
686.185	8220
686.232	8251
686.242	8346
686.278	8724
686.324	8061
686.363	8417
686.370	8457
686.416	8110
686.463	8439
686.484	8256
686.509	8145
686.555	9066
686.601	8319
686.606	8444
686.647	9255
686.693	8556
686.727	8498
686.739	8502
686.785	8822
686.831	8813
686.848	8807
686.877	8841
686.923	8793
686.969	8941
686.969	8941
687.015	8823
687.061	9820
687.090	10306
687.107	10454
687.153	10005
687.199	9918
687.211	9875
687.245	9795
687.291	10044
687.332	9742
687.336	9728
687.382	10224
687.428	10660
687.453	10649
687.474	10595
687.520	10780
687.565	10301
687.574	10237
687.611	10193
687.657	11119
687.695	11761
687.702	11898
687.748	12371
687.794	12652
687.816	12990
687.839	12857
687.885	11343
687.931	11054
687.937	10978
687.976	11158
688.022	11721
688.058	11721
688.067	11692
688.113	11552
688.158	10995
688.179	11097
688.204	11268
688.249	11508
688.295	11712
688.300	11724
688.340	11808
688.386	11625
688.421	11190
688.431	11152
688.477	11628
688.522	12138
688.542	12518
688.567	12979
688.613	12713
688.658	13116
688.663	13107
688.703	12817
688.749	12670
688.784	12403
688.794	12405
688.839	12568
688.884	12868
688.905	13006
688.930	13008
688.975	12966
689.020	12480
689.026	12426
689.065	12339
689.110	12195
689.146	12656
689.155	12818
689.201	12710
689.246	12697
689.267	12878
689.291	12995
689.336	13243
689.381	12913
689.388	12869
689.426	12921
689.471	12923
689.509	12883
689.516	12843
689.561	13198
689.606	12961
689.630	12731
689.651	12722
689.696	13284
689.741	13757
689.750	13775
689.785	13757
689.830	13660
689.871	13225
689.875	13193
689.920	13521
689.965	13248
689.992	13338
690.010	13511
690.054	12827
690.099	13714
690.112	13779
690.144	13894
690.189	13415
690.233	13715
690.233	13737
690.278	13360
690.323	13790
690.354	13918
690.367	13992
690.412	13710
690.457	13759
690.474	13851
690.501	14044
690.546	14009
690.590	13842
690.595	13789
690.635	13362
690.680	13358
690.716	13046
690.724	13039
690.769	13347
690.813	13681
690.836	13446
690.857	13655
690.902	14874
690.946	15609
690.957	15730
690.991	16404
691.035	17669
691.077	19088
691.080	19122
691.124	18341
691.168	18068
691.198	17495
691.213	17128
691.257	16697
691.301	15705
691.318	15312
691.346	15299
691.390	15389
691.434	15420
691.439	15406
691.478	15237
691.522	14840
691.559	14655
691.567	14761
691.611	15549
691.655	15546
691.680	15836
691.699	15881
691.743	15597
691.787	15448
691.800	15280
691.831	15135
691.875	15698
691.919	15531
691.921	15512
691.964	15723
692.008	15564
692.041	15567
692.052	15644
692.096	15491
692.139	15641
692.162	15402
692.183	15166
692.227	15334
692.271	15244
692.282	15135
692.315	15018
692.359	15360
692.402	15225
692.403	15257
692.447	15510
692.490	15953
692.523	15943
692.534	15926
692.578	16208
692.622	15990
692.643	15935
692.666	15849
692.709	15981
692.753	15942
692.763	15866
692.797	15903
692.840	15892
692.884	15766
692.884	15801
692.928	15929
692.971	16471
693.004	16255
693.015	16174
693.059	16145
693.102	16039
693.124	16015
693.146	16206
693.189	16391
693.233	16548
693.245	16623
693.276	16742
693.320	16557
693.363	16312
693.365	16262
693.407	16161
693.450	16512
693.485	16696
693.493	16852
693.537	17472
693.580	17524
693.605	17831
693.624	18204
693.667	18971
693.710	19637
693.725	19912
693.753	21764
693.797	24144
693.840	27000
693.845	27235
693.883	26114
693.926	24941
693.966	23580
693.970	23408
694.013	21403
694.056	19448
694.086	17927
694.099	17831
694.142	17550
694.185	17117
694.206	16921
694.229	17150
694.272	17438
694.315	17603
694.326	17633
694.358	17681
694.401	17735
694.444	17881
694.446	17838
694.487	17958
694.530	17933
694.566	17972
694.573	17987
694.616	17938
694.659	17772
694.686	17580
694.702	17688
694.745	17972
694.787	18241
694.806	18358
694.830	18486
694.873	18360
694.916	18381
694.926	18358
694.959	18695
695.002	18935
695.044	19197
695.046	19160
695.087	19527
695.130	20014
695.166	20272
695.172	20319
695.215	20221
695.258	20245
695.286	20172
695.301	20281
695.343	20608
695.386	20870
695.406	20753
695.428	21262
695.471	22656
695.514	23941
695.526	24279
695.556	25644
695.599	27294
695.641	29070
695.646	29168
695.684	27883
695.726	26529
695.766	25273
695.769	25322
695.811	24950
695.854	24625
695.886	24432
695.896	24469
695.938	24173
695.981	24054
696.005	23857
696.023	24439
696.065	25730
696.108	27089
696.125	27529
696.150	27953
696.192	28575
696.235	29286
696.245	29404
696.277	29560
696.319	29415
696.361	29518
696.365	29440
696.404	29055
696.446	28682
696.485	28232
696.488	28316
696.530	28300
696.572	28366
696.604	28431
696.614	28552
696.656	28671
696.698	28786
696.724	28791
696.740	28888
696.783	29120
696.825	29182
696.844	29125
696.867	29469
696.909	29893
696.951	30436
696.964	30541
696.992	30500
697.034	30236
697.076	30040
697.083	29931
697.118	30931
697.160	31972
697.202	33047
697.203	32990
697.244	32629
697.286	32195
697.323	31657
697.327	31784
697.369	32152
697.411	32539
697.442	32846
697.453	32829
697.494	32223
697.536	31795
697.562	31391
697.578	31574
697.620	31805
697.661	32071
697.682	32100
697.703	32551
697.744	33260
697.786	34144
697.801	34305
697.828	34171
697.869	33910
697.911	33533
697.921	33383
697.952	33436
697.994	33325
698.035	33172
698.040	33069
698.077	33427
698.118	33763
698.160	34006
698.160	33915
698.201	34785
698.243	35486
698.279	36059
698.284	36220
698.325	36804
698.367	37378
698.399	37716
698.408	37843
698.449	37980
698.491	38110
698.518	38097
698.532	38276
698.573	38506
698.614	38725
698.638	38759
698.656	38793
698.697	38616
698.738	38419
698.757	38240
698.779	38399
698.820	38476
698.862	38561
698.877	38490
698.903	38528
698.944	38419
698.985	38303
698.996	38171
699.026	38257
699.067	38233
699.116	38103
699.235	38275
699.354	38421
699.474	36060
699.593	35883
699.713	35782
699.832	35816
699.951	37507
700.070	36723
700.190	35573
700.309	33159
700.428	33723
700.547	33094
700.667	32670
700.786	33004
700.905	31696
701.024	32401
701.143	31341
701.262	32365
701.381	34753
701.500	33557
701.619	32709
701.738	33718
701.857	32682
701.976	30649
702.095	31827
702.214	33227
702.333	30789
702.452	33415
702.571	32572
702.690	32678
702.809	31891
702.928	31621
703.047	29808
703.165	30202
703.284	30539
703.403	29086
703.522	29020
703.640	28684
703.759	28037
703.878	28006
703.997	28528
704.115	28889
704.234	28560
704.353	29390
704.471	27231
704.590	26515
704.708	26315
704.827	25814
704.946	25592
705.064	26677
705.183	26013
705.301	26298
705.420	25388
705.538	25022
705.656	24158
705.775	22970
705.893	25396
706.012	25513
706.130	24814
706.249	25988
706.367	24559
706.485	23879
706.604	23442
706.722	23663
706.840	25642
706.958	29283
707.077	24318
707.195	22978
707.313	23327
707.431	21266
707.549	21281
707.668	20353
707.786	23581
707.904	21463
708.022	22379
708.140	21766
708.258	20246
708.376	22311
708.494	20358
708.612	22178
708.730	23856
708.848	20983
708.966	22426
709.084	22202
709.202	22260
709.320	20661
709.438	19857
709.556	21126
709.674	18451
709.791	19785
709.909	18704
710.027	18899
710.145	19123
710.263	19025
710.380	19205
710.498	18957
710.616	18422
710.733	17638
710.851	18581
710.969	19379
711.086	17072
711.204	18965
711.322	18445
711.439	18826
711.557	17690
711.674	17955
711.792	16651
711.909	17406
712.027	16463
712.144	16987
712.262	17430
712.379	18033
712.497	17402
712.614	17131
712.732	17642
712.849	16080
712.966	17222
713.084	17981
713.201	15831
713.318	17086
713.436	17880
713.553	16582
713.670	19590
713.787	18567
713.905	17146
714.022	19009
714.139	19303
714.256	23097
714.373	33041
714.490	58739
714.608	146170
714.725	566075
714.842	577226
714.959	68461
715.076	29467
715.193	23296
715.310	21865
715.427	17429
715.544	17389
715.661	17010
715.778	16179
715.895	16403
716.011	16905
716.128	15372
716.245	15964
716.362	16564
716.479	13842
716.596	15092
716.713	14320
716.829	14598
716.946	14602
717.063	13695
717.180	13401
717.296	14619
717.413	15041
717.530	13992
717.646	13178
717.763	13007
717.880	12258
717.996	12759
718.113	12615
718.229	12996
718.346	11320
718.462	12447
718.579	12999
718.695	12520
718.812	12155
718.928	13144
719.045	12164
719.161	11627
719.277	12934
719.394	13929
719.510	13826
719.626	14314
719.743	17645
719.859	27512
719.975	55102
720.092	209838
720.208	466269
720.324	66543
720.440	18794
720.557	15358
720.673	14650
720.789	13749
720.905	12585
721.021	12629
721.137	12115
721.253	11311
721.369	10534
721.486	11574
721.602	11514
721.718	10997
721.834	9964
721.950	11620
722.066	10269
722.181	10541
722.297	10942
722.413	10763
722.529	11476
722.645	10782
722.761	10007
722.877	11034
722.993	11816
723.108	15590
723.224	13249
723.340	10818
723.456	10583
723.571	9252
723.687	9656
723.803	10441
723.918	9575
724.034	9334
724.150	9325
724.265	10764
724.381	10032
724.497	9491
724.612	10090
724.728	9256
724.843	9108
724.959	9689
725.074	10263
725.190	10491
725.305	9274
725.421	8751
725.536	9596
725.651	10754
725.767	9173
725.882	9475
725.997	9367
726.113	10148
726.228	9560
726.343	9051
726.459	8661
726.574	9629
726.689	10006
726.804	9530
726.920	8568
727.035	8905
727.150	9578
727.265	8769
727.380	9441
727.495	9482
727.610	8925
727.725	8342
727.841	8599
727.956	9517
728.071	8745
728.186	8565
728.301	8030
728.416	8816
728.531	9055
728.645	8638
728.760	8679
728.875	9133
728.990	8799
729.105	7944
729.220	8567
729.335	9042
729.449	8297
729.564	8462
729.679	8132
729.794	9240
729.908	9128
730.023	8667
730.138	9436
730.253	7392
730.367	9039
730.482	9187
730.596	9311
730.711	10153
730.826	13385
730.940	12502
731.055	11102
731.169	11325
731.284	10963
731.398	10795
731.513	11967
731.627	12226
731.742	15174
731.856	18774
731.970	18859
732.085	22344
732.199	33258
732.313	58216
732.428	146764
732.542	441134
732.656	271292
732.771	51963
732.885	29592
732.999	24738
733.113	25531
733.227	25109
733.342	23004
733.456	22352
733.570	20913
733.684	19889
733.798	18979
733.912	19704
734.026	19836
734.140	18906
734.254	18961
734.368	18478
734.482	19025
734.596	18215
734.710	18164
734.824	18104
734.938	18156
735.052	17879
735.166	18180
735.280	17388
735.393	16524
735.507	17207
735.621	16958
735.735	16584
735.849	17932
735.962	15440
736.076	17130
736.190	15888
736.303	15943
736.417	16944
736.531	15873
736.644	17332
736.758	14423
736.872	15153
736.985	15147
737.099	15397
737.212	14788
737.326	15810
737.439	14923
737.553	14444
737.666	15404
737.780	12829
737.893	15299
738.007	13842
738.120	15410
738.233	14811
738.347	14851
738.460	13093
738.573	15942
738.687	13141
738.800	13599
738.913	13955
739.026	14001
739.140	13594
739.253	13577
739.366	13297
739.479	13319
739.592	13747
739.705	12541
739.818	14588
739.932	12362
740.045	13097
740.158	13266
740.271	13873
740.384	12431
740.497	12059
740.610	13311
740.723	12267
740.836	12291
740.949	12266
741.062	14493
741.174	12189
741.287	12400
741.400	12794
741.513	11128
741.626	13360
741.739	11360
741.851	11143
741.964	11777
742.077	12073
742.189	10898
742.302	12746
742.415	11245
742.527	11067
742.640	12128
742.753	10500
742.865	11440
742.978	11786
743.090	11150
743.203	12023
743.316	10592
743.428	10800
743.541	11304
743.653	9891
743.766	10514
743.878	10524
743.990	9393
744.103	10391
744.215	9824
744.327	9786
744.440	11731
744.552	11334
744.664	10019
744.777	11470
744.889	9720
745.001	10164
745.113	9916
745.226	10612
745.338	9709
745.450	11309
745.562	10222
745.674	9226
745.786	11298
745.898	10299
746.010	9439
746.122	10022
746.234	10030
746.347	10303
746.459	10084
746.570	8008
746.682	9964
746.794	9966
746.906	8898
747.018	9619
747.130	10341
747.242	8772
747.354	8380
747.466	9074
747.577	8380
747.689	9101
747.801	9091
747.913	8342
748.024	9148
748.136	8288
748.248	8307
748.359	8230
748.471	8801
748.583	7889
748.694	7355
748.806	9327
748.918	7136
749.029	8693
749.141	8859
749.252	8491
749.364	8048
749.475	8866
749.587	7531
749.698	8305
749.809	8389
749.921	8290
750.032	8234
750.144	6696
750.255	7967
750.366	7445
750.478	7097
750.589	7728
750.700	6545
750.811	8891
750.923	7477
751.034	7317
751.145	9019
751.256	7427
751.367	7327
751.479	7457
751.590	6798
751.701	7094
751.812	6447
751.923	6824
752.034	8424
752.145	7910
752.256	8227
752.367	6698
752.478	7087
752.589	8218
752.700	7667
752.811	7128
752.922	7391
753.032	7734
753.143	7370
753.254	7053
753.365	8683
753.476	8041
753.586	7648
753.697	6999
753.808	6782
753.919	6137
754.029	5987
754.140	7156
754.251	7068
754.361	6835
754.472	7670
754.582	6016
754.693	6391
754.804	7863
754.914	6865
755.025	6464
755.135	7301
755.246	6898
755.356	6231
755.466	6806
755.577	6192
755.687	6467
755.798	5923
755.908	6398
756.018	6345
756.129	6731
756.239	6377
756.349	7790
756.460	7688
756.570	7011
756.680	7053
756.790	7315
756.900	6900
757.011	5921
757.121	5842
757.231	6172
757.341	6499
757.451	5370
757.561	6240
757.671	7312
757.781	5467
757.891	5962
758.001	5532
758.111	6261
758.221	6615
758.331	7019
758.441	6572
758.551	6561
758.661	7089
758.771	7420
758.880	7149
758.990	7011
759.100	6517
759.210	7168
759.320	7369
759.429	6979
759.539	7729
759.649	8335
759.758	8696
759.868	9737
759.978	8586
760.087	9936
760.197	10511
760.307	9487
760.416	8334
760.526	7983
760.635	8795
760.745	10130
760.854	10107
760.964	12641
761.073	11928
761.182	11149
761.292	8784
761.401	7693
761.511	6707
761.620	6516
761.729	6566
761.839	6115
761.948	6611
762.057	6031
762.166	6631
762.276	6063
762.385	7555
762.494	5779
762.603	5966
762.712	6484
762.822	6314
762.931	6547
763.040	5218
763.149	5713
763.258	5160
763.367	6367
763.476	5628
763.585	6401
763.694	5897
763.803	6392
763.912	6606
764.021	5995
764.130	5843
764.238	6341
764.347	6845
764.456	7496
764.565	6794
764.674	7205
764.783	6056
764.891	6349
765.000	7809
765.109	7640
765.217	7839
765.326	8850
765.435	10176
765.543	11032
765.652	12213
765.761	15386
765.869	19699
765.978	28904
766.086	44772
766.195	80241
766.303	167961
766.412	325141
766.520	270291
766.629	136316
766.737	63742
766.846	38486
766.954	25617
767.062	20515
767.171	15496
767.279	13840
767.387	10974
767.496	11399
767.604	9152
767.712	8782
767.820	8248
767.928	7606
768.037	6987
768.145	8179
768.253	7877
768.361	7144
768.469	7172
768.577	7011
768.685	7999
768.793	7796
768.901	7142
769.009	9312
769.117	9835
769.225	10818
769.333	14751
769.441	21108
769.549	34478
769.657	69844
769.765	175227
769.873	272508
769.981	142880
770.088	51723
770.196	28019
770.304	19689
770.412	14759
770.519	13020
770.627	11259
770.735	9392
770.842	8887
770.950	9603
771.058	8753
771.165	9917
771.273	9877
771.380	10366
771.488	12245
771.595	14871
771.703	12485
771.810	11076
771.918	11744
772.025	13950
772.133	14627
772.240	13791
772.348	16840
772.455	16617
772.562	14099
772.670	13766
772.777	15190
772.884	13870
772.991	13156
773.099	13442
773.206	12599
773.313	13111
773.420	13517
773.528	13635
773.635	12020
773.742	13892
773.849	12550
773.956	13393
774.063	11715
774.170	12136
774.277	12743
774.384	11390
774.491	11493
774.598	12938
774.705	11552
774.812	11685
774.919	11486
775.026	10851
775.133	11553
775.239	11860
775.346	11386
775.453	11273
775.560	10867
775.667	11204
775.773	9931
775.880	11337
775.987	10317
776.093	10564
776.200	12009
776.307	9364
776.413	9167
776.520	11833
776.627	10854
776.733	10396
776.840	8429
776.946	12514
777.053	10020
777.159	9981
777.266	8184
777.372	10322
777.478	10456
777.585	9955
777.691	8227
777.798	11069
777.904	10075
778.010	9133
778.117	9604
778.223	9365
778.329	9249
778.435	7848
778.542	9940
778.648	8490
778.754	8105
778.860	9309
778.966	9952
779.072	8210
779.178	8818
779.284	7177
779.391	8078
779.497	9217
779.603	9636
779.708	8175
779.815	10117
779.920	17472
780.026	25869
780.132	10270
780.238	7986
780.344	7779
780.450	9821
780.556	6585
780.661	6474
780.767	9393
780.873	6001
780.979	7362
781.085	9005
781.190	7496
781.296	6398
781.402	7944
781.507	7967
781.613	6656
781.719	6998
781.824	9268
781.930	7757
782.035	7298
782.141	8734
782.246	6203
782.352	6618
782.457	7834
782.563	7388
782.668	7591
782.773	6233
782.879	6100
782.984	6429
783.090	7131
783.195	7400
783.300	7999
783.405	6410
783.511	6152
783.616	6844
783.721	7416
783.826	6881
783.932	5893
784.037	6854
784.142	7134
784.247	5761
784.352	7057
784.457	5304
784.562	6611
784.667	7488
784.772	4833
784.877	4519
784.982	6818
785.087	6765
785.192	5781
785.297	6824
785.402	6647
785.507	6910
785.611	6539
785.716	4763
785.821	6233
785.926	5257
786.031	5767
786.135	6589
786.240	6142
786.345	5024
786.450	5414
786.554	5308
786.659	4540
786.763	5168
786.868	5919
786.973	6109
787.077	5446
787.182	4606
787.286	5379
787.391	6004
787.495	5345
787.600	3426
787.704	5329
787.809	5833
787.913	4972
788.017	5592
788.122	5854
788.226	4836
788.330	4229
788.435	5164
788.539	6006
788.643	4567
788.747	3720
788.852	4450
788.956	4417
789.060	6126
789.164	5556
789.268	4115
789.372	6235
789.476	4301
789.580	3253
789.684	4120
789.788	5820
789.892	5693
789.996	4274
790.100	3746
790.204	5147
790.308	5827
790.412	5152
790.516	3920
790.620	4570
790.724	5542
790.828	4243
790.931	3008
791.035	4937
791.139	4180
791.242	4773
791.346	4814
791.450	4207
791.554	3664
791.657	3106
791.761	4581
791.864	5671
791.968	5259
792.072	4870
792.175	3316
792.279	4135
792.382	3878
792.486	4211
792.589	4339
792.693	5393
792.796	3175
792.899	4984
793.003	4814
793.106	2840
793.209	3040
793.313	4512
793.416	2131
793.519	4516
793.623	5085
793.726	4658
793.829	3309
793.932	3659
794.035	3008
794.138	4754
794.242	5935
794.345	3542
794.448	3119
794.551	4119
794.654	8830
794.757	13850
794.860	4358
794.963	4260
795.066	3192
795.169	4156
795.272	2907
795.375	5648
795.477	2552
795.580	3187
795.683	2779
795.786	4339
795.889	2957
795.991	4448
796.094	4215
796.197	3185
796.300	4010
796.402	3840
796.505	3014
796.608	1853
796.710	3089
796.813	4317
796.915	4440
797.018	4042
797.120	3913
797.223	2681
797.326	4864
797.428	2947
797.530	2605
797.633	3365
797.735	4740
797.838	3487
797.940	3731
798.042	3802
798.145	2490
798.247	2996
798.349	1570
798.452	3657
798.554	3060
798.656	3880
798.758	4783
798.860	3458
798.962	3249
799.065	3102
799.167	2721
799.269	4250
799.371	3758
799.473	5578
799.575	4190
799.677	2695
799.779	4054
799.881	2922
799.983	4081
800.085	3505
800.187	3124
800.289	2381
800.390	3409
800.492	4050
800.594	3994
800.696	2490
800.798	3232
800.899	2227
801.001	2236
801.103	3395
801.205	3149
801.306	3582
801.408	2209
801.509	2996
801.611	2846
801.713	3244
801.814	1892
801.916	2216
802.017	2042
802.119	2559
802.220	2096
802.322	1438
802.423	4116
802.525	1885
802.626	2894
802.727	4017
802.829	3579
802.930	880
803.031	4012
803.133	2388
803.234	2818
803.335	2944
803.436	2406
803.538	3051
803.639	1540
803.740	3686
803.841	1914
803.942	4410
804.043	1860
804.144	1827
804.245	3042
804.346	2456
804.447	1478
804.548	2519
804.649	3339
804.750	2218
804.851	2222
804.952	2418
805.053	3180
805.154	1387
805.255	2465
805.355	2514
805.456	2498
805.557	2507
805.658	1276
805.758	3096
805.859	2768
805.960	3379
806.061	1293
806.161	2441
806.262	2498
806.362	1616
806.463	1524
806.564	3821
806.664	2769
806.765	1942
806.865	2347
806.966	1595
807.066	1623
807.166	3104
807.267	2654
807.367	1214
807.468	3289
807.568	843
807.668	2931
807.769	2885
807.869	654
807.969	2795
808.069	1971
808.170	2808
808.270	2463
808.370	3516
808.470	2893
808.570	2054
808.670	1935
808.770	2360
808.870	1413
808.970	2435
809.070	2418
809.170	1543
809.271	2519
809.370	2754
809.470	2533
809.570	1942
809.670	1267
809.770	2056
809.870	3405
809.970	2579
810.070	2295
810.169	2765
810.269	1074
810.369	2739
810.469	1956
810.568	2376
810.668	1353
810.768	1294
810.867	2795
810.967	1340
811.066	1389
811.166	2753
811.265	3054
811.365	2625
811.464	1696
811.564	2339
811.663	2972
811.763	1496
811.862	2525
811.962	3188
812.061	765
812.160	1341
812.260	2073
812.359	2871
812.458	2199
812.557	4421
812.657	2269
812.756	2823
812.855	1708
812.954	2291
813.053	1925
813.153	2492
813.252	713
813.351	2819
813.450	2894
813.549	1863
813.648	3007
813.747	2170
813.846	1925
813.945	1559
814.044	2388
814.143	2865
814.242	2271
814.341	1655
814.439	3109
814.538	2531
814.637	3088
814.736	3429
814.835	3186
814.933	2989
815.032	3489
815.131	4877
815.229	8216
815.328	12129
815.427	9838
815.525	7555
815.624	7626
815.722	7411
815.821	7852
815.919	8291
816.018	8190
816.116	8121
816.215	7368
816.313	8567
816.412	10912
816.510	10420
816.609	11500
816.707	11425
816.805	10435
816.904	10059
817.002	10373
817.100	10630
817.198	10760
817.296	9790
817.395	9897
817.493	10005
817.591	8419
817.689	9006
817.787	9305
817.885	9518
817.983	8563
818.081	10462
818.179	9451
818.277	14480
818.375	12445
818.473	9250
818.571	8459
818.669	9257
818.767	9675
818.865	9384
818.963	7231
819.061	8826
819.158	9238
819.256	12090
819.354	11509
819.452	17516
819.549	12223
819.647	10448
819.745	8157
819.842	7192
819.940	8776
820.038	7878
820.135	7127
820.233	8812
820.330	7755
820.428	7690
820.525	8355
820.623	7690
820.720	6871
820.818	8193
820.915	7487
821.012	8022
821.110	6722
821.207	7844
821.304	7590
821.402	8576
821.499	7661
821.596	7193
821.693	6755
821.791	8050
821.888	7053
821.985	7616
822.082	5114
822.179	7814
822.276	7333
822.373	6647
822.470	6007
822.567	8124
822.664	5759
822.761	6352
822.858	6607
822.955	6205
823.052	5359
823.149	5952
823.246	7027
823.343	5292
823.440	5916
823.536	6903
823.633	6063
823.730	5894
823.827	6631
823.923	6492
824.020	5530
824.117	6556
824.213	6150
824.310	5740
824.407	4503
824.503	6644
824.600	6049
824.696	4588
824.793	6796
824.889	6852
824.986	5483
825.082	3827
825.179	4521
825.275	5972
825.371	7110
825.468	5076
825.564	2352
825.660	6337
825.757	7493
825.853	5463
825.949	4080
826.045	4708
826.142	5198
826.238	6400
826.334	6068
826.430	5761
826.526	3629
826.622	2933
826.718	6345
826.814	6282
826.910	6792
827.006	3502
827.102	3819
827.198	5694
827.294	6039
827.390	5524
827.486	5203
827.582	3282
827.678	3592
827.774	6764
827.869	4145
827.965	5140
828.061	3265
828.157	6506
828.252	5355
828.348	4095
828.444	4156
828.539	4070
828.635	4385
828.731	4740
828.826	4172
828.922	5158
829.017	6125
829.113	5650
829.208	4635
829.304	4167
829.399	6143
829.495	5136
829.590	3967
829.685	4360
829.781	4870
829.876	5320
829.971	2317
830.066	1889
830.162	4257
830.257	6470
830.352	4315
830.447	4379
830.543	3696
830.638	3166
830.733	6544
830.828	2795
830.923	4980
831.018	4370
831.113	5459
831.208	2983
831.303	2411
831.398	2603
831.493	4053
831.588	6436
831.683	3636
831.778	3094
831.873	2990
831.967	4644
832.062	4605
832.157	3244
832.252	3883
832.346	3790
832.441	4560
832.536	4691
832.631	4796
832.725	3472
832.820	3625
832.914	3624
833.009	3078
833.104	3005
833.198	3676
833.293	2996
833.387	4139
833.482	4161
833.576	2902
833.670	3556
833.765	3545
833.859	4272
833.954	4734
834.048	4371
834.142	3097
834.237	2775
834.331	3639
834.425	4422
834.519	3074
834.613	3535
834.708	2262
834.802	2835
834.896	2856
834.990	3671
835.084	2712
835.178	2793
835.272	2334
835.366	3943
835.460	4832
835.554	3110
835.648	3024
835.742	1406
835.836	2526
835.930	1793
836.024	3520
836.117	3655
836.211	3153
836.305	2342
836.399	3202
836.493	2352
836.586	3945
836.680	3253
836.774	2350
836.867	2762
836.961	1475
837.055	1938
837.148	2465
837.242	3460
837.335	2743
837.429	2182
837.522	1745
837.616	2225
837.709	2271
837.803	2793
837.896	3246
837.989	3192
838.083	2570
838.176	1346
838.269	1216
838.363	3189
838.456	2241
838.549	4026
838.642	2471
838.735	2674
838.829	3016
838.922	2366
839.015	2560
839.108	2243
839.201	2425
839.294	2978
839.387	2567
839.480	1570
839.573	1945
839.666	1909
839.759	2349
839.852	1527
839.945	3111
840.038	1446
840.131	1237
840.223	2079
840.316	2992
840.409	2632
840.502	3013
840.594	4315
840.687	1190
840.780	1560
840.873	990
840.965	2120
841.058	2654
841.150	3574
841.243	635
841.336	2707
841.428	2014
841.521	1666
841.613	1773
841.706	2087
841.798	2521
841.890	2537
841.983	858
842.075	2440
842.167	1416
842.260	3379
842.352	3248
842.444	1774
842.537	1226
842.629	2004
842.721	1290
842.813	1712
842.905	1465
842.997	2541
843.090	2340
843.182	1413
843.274	931
843.366	1996
843.458	2098
843.550	3728
843.642	1058
843.734	1186
843.826	893
843.918	2053
844.009	1945
844.101	1500
844.193	1975
844.285	2778
844.377	1272
844.469	2377
844.560	625
844.652	1611
844.744	1448
844.835	2193
844.927	1971
845.019	1850
845.110	996
845.202	2513
845.293	1460
845.385	1279
845.476	1225
845.568	3016
845.659	1364
845.751	1517
845.842	961
845.934	1484
846.025	1133
846.116	2596
846.208	1362
846.299	1390
846.390	1012
846.482	1795
846.573	1701
846.664	2248
846.755	1239
846.846	1385
846.937	806
847.029	1417
847.120	1681
847.211	337
847.302	1768
847.393	842
847.484	2388
847.575	1919
847.666	825
847.757	1045
847.847	1135
847.938	2491
848.029	1756
848.120	1762
848.211	1226
848.302	926
848.392	1594
848.483	2284
848.574	1795
848.664	1281
848.755	1732
848.846	1629
848.936	1564
849.027	2557
849.118	1554
849.208	2074
849.299	3233
849.389	4986
849.480	10391
849.570	21218
849.661	38819
849.751	64640
849.841	24602
849.932	5559
850.022	2825
850.112	2602
850.203	2263
850.293	1573
850.383	650
850.474	999
850.564	1389
850.654	1466
850.744	1140
850.834	1373
850.924	2445
851.014	3444
851.104	1095
851.194	1199
851.284	632
851.374	1983
851.464	1165
851.554	1044
851.644	1145
851.734	1760
851.824	2010
851.914	2091
852.004	2595
852.094	1739
852.183	1474
852.273	1567
852.363	1126
852.452	2291
852.542	1548
852.632	1173
852.721	1559
852.811	1817
852.901	3205
852.990	2561
853.080	2202
853.169	2169
853.259	3018
853.348	2555
853.438	3018
853.527	5471
853.617	6656
853.706	12142
853.795	19842
853.885	41217
853.974	72499
854.063	126728
854.152	177089
854.242	81059
854.331	21625
854.420	9876
854.509	6121
854.598	5678
854.687	3488
854.777	3886
854.866	2830
854.955	2497
855.044	2481
855.133	2361
855.222	2335
855.311	1800
855.400	2133
855.488	1206
855.577	1663
855.666	1929
855.755	1787
855.844	1706
855.933	845
856.021	1621
856.110	2124
856.199	1141
856.288	1059
856.376	174
856.465	1116
856.554	1648
856.642	1044
856.731	2528
856.819	1964
856.908	1224
856.996	1835
857.085	900
857.173	562
857.262	1272
857.350	832
857.438	924
857.527	1431
857.615	815
857.703	1247
857.792	1088
857.880	1276
857.968	1097
858.056	1700
858.145	1855
858.233	1728
858.321	1211
858.409	1065
858.497	1398
858.585	1066
858.673	1511
858.761	610
858.849	1159
858.937	1391
859.025	793
859.113	1386
859.201	1120
859.289	1920
859.377	1145
859.465	1941
859.552	1022
859.640	-99
859.728	2210
859.816	807
859.903	1857
859.991	1586
860.079	1296
860.166	1513
860.254	2036
860.342	1602
860.429	963
860.517	769
860.604	1181
860.692	1648
860.779	1304
860.867	1502
860.954	1224
861.042	1289
861.129	1568
861.216	1735
861.304	1690
861.391	1583
861.478	1275
861.565	970
861.653	2074
861.740	739
861.827	497
861.914	1876
862.001	510
862.089	1186
862.176	1985
862.263	1330
862.350	1345
862.437	853
862.524	794
862.611	1473
862.698	1506
862.785	1795
862.871	2713
862.958	1639
863.045	1393
863.132	1833
863.219	1128
863.306	595
863.392	1983
863.479	734
863.566	1202
863.652	2084
863.739	1836
863.826	1996
863.912	1744
863.999	967
864.086	2082
864.172	1918
864.259	3062
864.345	2778
864.432	2493
864.518	2690
864.604	2230
864.691	2695
864.777	2133
864.863	3961
864.950	4921
865.036	6516
865.122	11030
865.209	12346
865.295	11255
865.381	9596
865.467	10774
865.553	11217
865.639	12925
865.726	17004
865.812	28405
865.898	46335
865.984	66047
866.070	110010
866.156	117132
866.242	43510
866.328	16888
866.414	11578
866.499	10415
866.585	9368
866.671	9448
866.757	9795
866.843	8843
866.928	7821
867.014	7874
867.100	8697
867.186	8110
867.271	7250
867.357	8807
867.442	7114
867.528	8408
867.614	7950
867.699	7987
867.785	7202
867.870	7202
867.956	7137
868.041	7742
868.127	6791
868.212	7913
868.297	7092
868.383	7440
868.468	6728
868.553	8517
868.639	6802
868.724	6368
868.809	7851
868.894	7012
868.979	7056
869.065	6576
869.150	5728
869.235	6473
869.320	7206
869.405	6283
869.490	6505
869.575	7666
869.660	5594
869.745	6495
869.830	7218
869.915	5669
870.000	5715
870.085	5779
870.169	7460
870.254	7914
870.339	5595
870.424	5058
870.509	6176
870.593	6649
870.678	7700
870.763	6069
870.847	5570
870.932	6976
871.016	6576
871.101	4676
871.186	5246
871.270	7356
871.355	5488
871.439	4879
871.523	6653
871.608	4277
871.692	4522
871.777	6544
871.861	6344
871.945	5558
872.030	5681
872.114	4882
872.198	5060
872.282	4261
872.367	4992
872.451	5639
872.535	4832
872.619	6432
872.703	4649
872.787	6173
872.871	5167
872.955	4579
873.039	3558
873.123	5819
873.207	6654
873.291	4128
873.375	4363
873.459	6974
873.543	4261
873.627	3988
873.711	4525
873.794	5739
873.878	4287
873.962	4027
874.045	4646
874.129	4211
874.137	4210
874.213	4202
874.245	4739
874.296	5609
874.352	4450
874.380	3888
874.460	4161
874.464	4173
874.547	3831
874.568	4339
874.631	5839
874.676	4991
874.714	4297
874.784	4950
874.798	5070
874.881	4013
874.892	3766
874.965	2114
874.999	3183
875.048	4673
875.107	4736
875.131	4753
875.215	2965
875.215	2965
875.298	3013
875.323	3113
875.381	3371
875.430	3947
875.465	4349
875.538	4510
875.548	4526
875.631	3811
875.646	3627
875.714	2729
875.753	2804
875.798	2949
875.861	4396
875.881	4833
875.964	3824
875.968	3756
876.047	2585
876.076	2753
876.130	3044
876.183	3875
876.213	4353
876.291	4383
876.296	4377
876.379	3300
876.398	3047
876.462	2286
876.506	2355
876.545	2412
876.613	2793
876.628	2886
876.711	2978
876.721	3110
876.794	3931
876.828	3830
876.877	3796
876.935	2939
876.960	2557
877.043	2806
877.043	2807
877.125	3046
877.150	3428
877.208	4168
877.258	3432
877.291	2949
877.365	2194
877.374	2115
877.456	2494
877.472	2611
877.539	3020
877.579	3247
877.622	3435
877.687	3108
877.704	3045
877.787	2991
877.794	2997
877.869	3033
877.901	2977
877.952	2805
878.008	2413
878.034	2270
878.115	1840
878.117	1833
878.199	1890
878.222	2247
878.282	3169
878.329	3475
878.364	3627
878.437	3116
878.447	3034
878.529	1541
878.544	1680
878.611	2486
878.651	2652
878.694	2813
878.758	3028
878.776	3073
878.858	3137
878.865	3088
878.941	2228
878.972	2008
879.023	1854
879.078	2260
879.105	2509
879.185	2797
879.187	2799
879.269	2801
879.292	2923
879.351	2829
879.399	2109
879.433	1927
879.506	2482
879.516	2503
879.598	2313
879.613	2094
879.680	1153
879.720	1574
879.762	2169
879.827	2005
879.844	1876
879.926	2135
879.933	2103
880.007	1886
880.040	1799
880.089	1844
880.147	2518
880.171	2682
880.253	2228
880.254	2229
880.335	2292
880.360	2591
880.417	3463
880.467	3963
880.499	4196
880.574	4599
880.580	4559
880.662	3130
880.680	2711
880.744	1525
880.787	1275
880.825	1252
880.893	1744
880.907	1821
880.989	2021
881.000	2034
881.070	1946
881.106	1949
881.152	2141
881.213	2146
881.233	2031
881.315	1497
881.319	1489
881.396	1936
881.426	1838
881.478	1331
881.532	2184
881.559	2638
881.639	2260
881.641	2241
881.722	1857
881.745	1705
881.803	1757
881.852	2037
881.885	1949
881.958	1309
881.966	1302
882.047	1311
882.064	1465
882.129	1634
882.171	1405
882.210	1303
882.277	936
882.291	816
882.372	993
882.383	1051
882.454	2091
882.489	2275
882.535	2123
882.596	2279
882.616	2429
882.697	2467
882.702	2434
882.778	1434
882.808	1568
882.859	1784
882.914	1526
882.940	1400
883.020	1332
883.021	1333
883.102	1922
883.127	2056
883.183	2167
883.233	1946
883.264	1639
883.339	934
883.345	907
883.426	867
883.445	893
883.507	833
883.551	1042
883.587	1432
883.657	1642
883.668	1703
883.749	2598
883.763	2612
883.830	1679
883.869	1313
883.910	1149
883.975	1116
883.991	1175
884.072	1484
884.081	1537
884.152	2045
884.187	2090
884.233	2010
884.292	1886
884.314	1738
884.394	970
884.398	955
884.475	775
884.504	702
884.555	749
884.610	681
884.636	633
884.716	1319
884.716	1322
884.797	1950
884.821	2051
884.877	1590
884.927	1126
884.958	1131
885.033	1309
885.038	1255
885.118	450
885.139	265
885.199	571
885.244	945
885.279	1027
885.350	1111
885.359	1212
885.439	2230
885.456	2272
885.520	1339
885.561	909
885.600	812
885.667	1074
885.680	1108
885.760	980
885.773	956
885.840	688
885.878	592
885.920	631
885.984	921
886.000	1042
886.080	1321
886.089	1341
886.160	954
886.195	874
886.240	896
886.300	816
886.320	878
886.400	1333
886.406	1342
886.480	1026
886.511	1063
886.560	670
886.616	-52
886.640	167
886.720	1075
886.722	1097
886.800	597
886.827	515
886.879	825
886.932	936
886.959	1177
887.038	1803
887.039	1803
887.119	1865
887.143	1890
887.198	1831
887.248	1656
887.278	1294
887.354	455
887.358	441
887.437	234
887.459	209
887.517	909
887.564	1368
887.596	1179
887.669	835
887.676	803
887.755	444
887.774	357
887.835	687
887.880	996
887.914	1104
887.985	1285
887.994	1244
888.073	856
888.090	781
888.153	1352
888.195	1689
888.232	1450
888.300	1117
888.311	1159
888.391	1385
888.405	1440
888.470	1203
888.510	1052
888.549	1111
888.615	1282
888.628	1249
888.708	982
888.720	949
888.787	772
888.825	619
888.866	408
888.930	230
888.945	353
889.024	933
889.035	1024
889.103	890
889.140	798
889.182	674
889.245	549
889.261	571
889.340	652
889.349	673
889.419	762
889.454	792
889.498	756
889.559	757
889.577	700
889.656	455
889.664	438
889.735	977
889.768	1240
889.814	1204
889.873	1156
889.978	611
890.083	1484
890.187	1018
890.292	1826
890.397	1506
890.501	493
890.606	542
890.710	1344
890.815	622
890.919	1185
891.024	905
891.128	1269
891.233	255
891.337	1013
891.442	1526
891.546	256
891.650	391
891.755	1086
891.859	1867
891.963	1134
892.068	609
892.172	823
892.276	-198
892.380	1047
892.484	616
892.589	1393
892.693	970
892.797	935
892.901	1234
893.005	448
893.109	1467
893.213	2293
893.317	973
893.421	693
893.525	-238
893.629	260
893.733	1075
893.837	723
893.941	620
894.045	634
894.148	423
894.252	559
894.356	1207
894.460	1726
894.564	572
894.667	678
894.771	-93
894.875	-423
894.978	427
895.082	-161
895.186	551
895.289	610
895.393	598
895.496	877
895.600	609
895.703	340
895.807	-49
895.910	1267
896.014	246
896.117	693
896.221	742
896.324	1011
896.427	446
896.531	891
896.634	1457
896.737	543
896.840	617
896.944	105
897.047	1357
897.150	321
897.253	253
897.356	328
897.460	-202
897.563	89
897.666	361
897.769	1130
897.872	283
897.975	-6
898.078	658
898.181	434
898.284	8
898.387	850
898.490	1483
898.593	1097
898.695	99
898.798	13
898.901	170
899.004	1049
899.107	704
899.209	492
899.312	474
899.415	658
899.518	494
899.620	227
899.723	-285
899.826	-16
899.928	129
900.031	408
900.133	286
900.236	1115
900.338	-38
900.441	245
900.543	80
900.646	490
900.748	5
900.851	815
900.953	87
901.055	-162
901.158	-51
901.260	394
901.362	375
901.465	-248
901.567	507
901.669	1504
901.771	16
901.873	387
901.976	1029
902.078	976
902.180	510
902.282	-433
902.384	404
902.486	1452
902.588	422
902.690	275
902.792	705
902.894	786
902.996	-140
903.098	171
903.200	-199
903.302	521
903.404	-334
903.505	-35
903.607	389
903.709	1557
903.811	525
903.913	345
904.014	-160
904.116	226
904.218	827
904.319	426
904.421	1309
904.523	824
904.624	-142
904.726	248
904.827	245
904.929	-231
905.030	-487
905.132	1014
905.233	5
905.335	228
905.436	-163
905.537	651
905.639	229
905.740	60
905.841	30
905.943	531
906.044	-44
906.145	214
906.247	517
906.348	189
906.449	416
906.550	0
906.651	-81
906.752	455
906.854	340
906.955	233
907.056	373
907.157	829
907.258	515
907.359	-41
907.460	-584
907.561	799
907.662	-107
907.762	666
907.863	-555
907.964	127
908.065	505
908.166	782
908.267	476
908.367	-14
908.468	998
908.569	47
908.670	398
908.770	577
908.871	362
908.971	445
909.072	-802
909.173	190
909.273	278
909.374	817
909.474	98
909.575	-90
909.675	399
909.776	460
909.876	-290
909.977	-344
910.077	668
910.177	832
910.278	673
910.378	-273
910.478	-313
910.579	-67
910.679	-154
910.779	469
910.879	626
910.980	-127
911.080	-367
911.180	215
911.280	-7
911.380	354
911.480	55
911.580	-433
911.680	50
911.780	1034
911.880	80
911.980	66
912.080	102
912.180	409
912.280	-162
912.380	502
912.480	-381
912.580	883
912.679	-635
912.779	710
912.879	881
912.979	-94
913.078	-403
913.178	-49
913.278	-886
913.377	465
913.477	-192
913.577	-251
913.676	1038
913.776	46
913.875	4
913.975	-161
914.074	-577
914.174	-250
914.273	114
914.373	529
914.472	-4
914.572	-284
914.671	-14
914.770	-281
914.870	823
914.969	199
915.068	584
915.167	41
915.267	267
915.366	410
915.465	618
915.564	22
915.663	-147
915.763	279
915.862	553
915.961	786
916.060	-133
916.159	613
916.258	-353
916.357	-98
916.456	443
916.555	298
916.654	438
916.752	1468
916.851	-181
916.950	-727
917.049	-19
917.148	163
917.247	-151
917.345	610
917.444	-404
917.543	-112
917.642	277
917.740	543
917.839	-359
917.937	387
918.036	559
918.135	-23
918.233	198
918.332	164
918.430	-27
918.529	451
918.627	866
918.726	219
918.824	28
918.923	57
919.021	-221
919.119	81
919.218	-465
919.316	-410
919.414	412
919.512	-343
919.611	719
919.709	-277
919.807	499
919.905	663
920.003	-25
920.102	288
920.200	606
920.298	144
920.396	279
920.494	129
920.592	132
920.690	453
920.788	1262
920.886	606
920.984	395
921.082	137
921.180	694
921.277	407
921.375	1346
921.473	1361
921.571	881
921.669	1952
921.766	319
921.864	1411
921.962	846
922.060	700
922.157	286
922.255	1615
922.352	1249
922.450	2543
922.548	933
922.645	917
922.743	1846
922.840	3576
922.938	4109
923.035	3554
923.133	3776
923.230	3541
923.327	4488
923.425	5272
923.522	4677
923.619	4909
923.717	3578
923.814	4326
923.911	4066
924.008	4324
924.106	3712
924.203	3195
924.300	3093
924.397	4547
924.494	4121
924.591	4677
924.688	3000
924.786	4768
924.883	3511
924.979	4135
925.077	3410
925.173	3900
925.270	2918
925.367	3334
925.464	3350
925.561	3674
925.658	4514
925.755	2419
925.852	3440
925.948	3713
926.045	3457
926.142	3556
926.239	3878
926.335	2767
926.432	3717
926.529	2977
926.625	4032
926.722	3964
926.818	2741
926.915	3603
927.011	3036
927.108	3961
927.204	3070
927.301	3417
927.397	3667
927.494	4156
927.590	1828
927.687	2386
927.783	3654
927.879	3367
927.976	2660
928.072	3061
928.168	2622
928.264	3142
928.361	2725
928.457	4112
928.553	2667
928.649	2601
928.745	2435
928.841	2571
928.937	2330
929.033	3647
929.129	2470
929.225	3720
929.321	2407
929.417	2657
929.513	2690
929.609	3124
929.705	1865
929.801	3201
929.897	2194
929.993	2731
930.089	2702
930.184	2163
930.280	2713
930.376	3206
930.471	2748
930.567	2278
930.663	2059
930.758	1974
930.854	2057
930.950	2192
931.045	2437
931.141	2700
931.236	3633
931.332	2784
931.427	1008
931.523	3201
931.618	3356
931.714	1499
931.809	1576
931.905	3079
932.000	1884
932.095	1292
932.191	3095
932.286	3541
932.381	1806
932.476	974
932.572	1769
932.667	2283
932.762	1653
932.857	2140
932.952	2607
933.047	2231
933.142	1461
933.237	2355
933.332	1669
933.427	2493
933.522	1870
933.617	1982
933.712	1510
933.807	2565
933.902	2581
933.997	2191
934.092	1445
934.187	2160
934.282	2208
934.376	2021
934.471	2682
934.566	2281
934.661	1792
934.755	2151
934.850	1951
934.945	2569
935.039	1232
935.134	1418
935.228	1141
935.323	3382
935.417	1372
935.512	828
935.606	1463
935.701	2399
935.795	2633
935.890	2041
935.984	1021
936.079	1077
936.173	2442
936.267	1597
936.362	1281
936.456	1644
936.550	2118
936.644	2615
936.738	1457
936.833	1025
936.927	852
937.021	2037
937.115	1591
937.209	1947
937.303	1438
937.397	1574
937.491	1506
937.585	1727
937.679	1241
937.773	1033
937.867	749
937.961	1518
938.055	1498
938.149	3122
938.243	1107
938.337	720
938.430	1032
938.524	1672
938.618	1893
938.712	1242
938.805	1361
938.899	1483
938.993	2403
939.086	1486
939.180	-636
939.274	259
939.367	1301
939.461	2889
939.554	1361
939.648	969
939.741	397
939.835	1843
939.928	1162
940.022	2947
940.115	647
940.208	2125
940.302	1877
940.395	2290
940.488	290
940.582	1153
940.675	471
940.768	320
940.861	1211
940.954	2728
941.048	1185
941.141	683
941.234	-173
941.327	1002
941.420	983
941.513	1807
941.606	730
941.699	1190
941.792	1528
941.885	810
941.978	1035
942.071	1732
942.164	-230
942.257	921
942.349	1328
942.442	1177
942.535	255
942.628	1816
942.721	215
942.813	448
942.906	1594
942.999	565
943.091	205
943.184	648
943.277	111
943.369	1337
943.462	-180
943.554	606
943.647	836
943.739	1007
943.832	1383
943.924	462
944.017	519
944.109	258
944.201	276
944.294	1314
944.386	442
944.478	511
944.571	-86
944.663	558
944.755	180
944.847	1009
944.940	618
945.032	-266
945.124	-249
945.216	862
945.308	434
945.400	1076
945.492	590
945.584	729
945.676	1031
945.768	779
945.860	1777
945.952	1438
946.044	170
946.136	1055
946.228	374
946.320	159
946.412	236
946.503	453
946.595	1980
946.687	-186
946.779	-143
946.870	155
946.962	-280
947.054	906
947.145	838
947.237	998
947.329	336
947.420	1029
947.512	434
947.603	-283
947.695	-3
947.786	1053
947.878	-648
947.969	707
948.061	861
948.152	714
948.243	174
948.335	-325
948.426	-175
948.517	-537
948.609	1103
948.700	670
948.791	176
948.882	-479
948.973	-588
949.065	193
949.156	-65
949.247	-154
949.338	-80
949.429	-549
949.520	-1040
949.611	-9
949.702	1036
949.793	561
949.884	1
949.975	426
950.066	-732
950.157	-502
950.247	-527
950.338	1052
950.429	-245
950.520	-359
950.611	-258
950.701	801
950.792	571
950.883	660
950.973	-388
951.064	7
951.155	164
951.245	1430
951.336	459
951.427	-414
951.517	1416
951.608	111
951.698	619
951.788	465
951.879	-574
951.969	476
952.060	-505
952.150	553
952.240	1167
952.331	-124
952.421	599
952.511	244
952.602	-752
952.692	-268
952.782	-654
952.872	-218
952.962	635
953.052	-508
953.143	-344
953.233	-468
953.323	24
953.413	834
953.503	286
953.593	554
953.683	-319
953.773	-517
953.863	-1045
953.953	-677
954.042	-158
954.132	-95
954.222	245
954.312	-137
954.402	676
954.492	-341
954.581	-672
954.671	-865
954.761	-1092
954.850	694
954.940	-299
955.030	-482
955.119	-90
955.209	-413
955.298	-412
955.388	54
955.477	1386
955.567	-1312
955.656	-187
955.746	351
955.835	-615
955.925	-396
956.014	-589
956.103	270
956.193	962
956.282	819
956.371	287
956.461	228
956.550	-1021
956.639	-393
956.728	-1499
956.817	576
956.906	-774
956.995	-10
957.085	-1026
957.174	-112
957.263	-780
957.352	-136
957.441	-233
957.530	952
957.619	67
957.708	-635
957.796	-919
957.885	289
957.974	-780
958.063	181
958.152	-844
958.241	-1206
958.329	-1185
958.418	-472
958.507	-844
958.596	44
958.684	-1049
958.773	-173
958.861	-769
958.950	-261
959.039	-414
959.127	-652
959.216	-62
959.304	-826
959.393	-795
959.481	-448
959.570	-297
959.658	-552
959.746	-1753
959.835	-460
959.923	-1073
960.011	-1250
960.100	-693
960.188	-1042
960.276	-1082
960.365	-1072
960.453	-1746
960.541	-819
960.629	-911
960.717	-619
960.805	-1743
960.893	-814
960.981	-1657
961.069	-69
961.158	-1019
961.245	768
961.333	-155
961.421	186
961.509	-833
961.597	-521
961.685	-391
961.773	-671
961.861	-1077
961.949	439
962.036	-1309
962.124	-427
962.212	-96
962.299	-1111
962.387	-1360
962.475	-1041
962.562	-713
962.650	-453
962.738	-498
962.825	-835
962.913	-548
963.000	-1282
963.088	-657
963.175	-13
963.263	-764
963.350	-745
963.438	-1441
963.525	-1064
963.612	-389
963.700	-978
963.787	-750
963.874	-910
963.962	-666
964.049	-922
964.136	-1893
964.223	-1746
964.310	-363
964.398	-959
964.485	-1768
964.572	-465
964.659	-1389
964.746	-1692
964.833	-939
964.920	-1186
965.007	-530
965.094	-1031
965.181	-1058
965.268	-868
965.355	-622
965.441	-986
965.528	-1558
965.615	255
965.702	-1822
965.789	-1259
965.875	-1212
965.962	-1044
966.049	-1589
966.136	-376
966.222	-659
966.309	-2
966.395	-1456
966.482	-490
966.569	-962
966.655	-1026
966.742	-1488
966.828	-689
966.915	-1536
967.001	-1164
967.087	-1856
967.174	-1058
967.260	-493
967.347	-1384
967.433	-1532
967.519	-941
967.605	-1232
967.692	-1133
967.778	-647
967.864	-1078
967.950	-1338
968.036	-1222
968.123	107
968.209	-1633
968.295	-2364
968.381	917
968.467	-1248
968.553	-2186
968.639	-560
968.725	-1499
968.811	-362
968.897	-1040
968.983	-1341
969.069	-1566
969.154	-457
969.240	-700
969.326	-1398
969.412	-1442
969.497	-1616
969.583	-1981
969.669	-616
969.755	-666
969.840	-2013
969.926	-77
970.012	-1159
970.097	953
970.183	-502
970.268	-1090
970.354	-1045
970.439	-1342
970.525	-1185
970.610	-1769
970.696	-254
970.781	-170
970.866	-1956
970.952	-1182
971.037	-2053
971.122	-1185
971.208	-276
971.293	-1263
971.378	-2276
971.463	-1321
971.549	-1328
971.634	-1310
971.719	-1426
971.804	-1607
971.889	-775
971.974	-1456
972.059	-1493
972.144	-593
972.229	-948
972.314	-1348
972.399	-977
972.484	-1592
972.569	-822
972.654	-2211
972.739	-993
972.824	-1388
972.908	-1875
972.993	-1255
973.078	-1888
973.163	-1134
973.247	-1209
973.332	-2355
973.417	165
973.501	-1936
973.586	-1773
973.671	-677
973.755	-1695
973.840	-900
973.924	-1326
974.009	-236
974.093	-1338
974.178	619
974.262	-370
974.346	-1612
974.431	-1900
974.515	-1892
974.600	-1387
974.684	-1756
974.768	-1760
974.852	-578
974.937	-1782
975.021	-547
975.105	-1056
975.189	-1679
975.273	-795
975.358	-1675
975.442	-1524
975.526	-454
975.610	-1651
975.694	-2225
975.778	-697
975.862	-545
975.946	-2868
976.030	-493
976.114	-1506
976.198	-522
976.281	-1741
976.365	-458
976.449	-1585
976.533	-826
976.617	-1676
976.700	-491
976.784	-1622
976.868	-1509
976.951	-264
977.035	-1329
977.119	-1352
977.202	-1085
977.286	-697
977.369	-807
977.453	-136
977.536	-61
977.620	-1121
977.703	-314
977.787	-1593
977.870	-390
977.953	397
978.037	-1774
978.120	-808
978.203	-1082
978.287	-1369
978.370	-1259
978.453	-824
978.536	-1428
978.620	-928
978.703	-643
978.786	-1775
978.869	-949
978.952	-2333
979.035	-93
979.118	-1010
979.201	-783
979.284	-747
979.367	-1556
979.450	-1494
979.533	-1728
979.616	-1834
979.699	-1517
979.782	-1235
979.865	-1143
979.948	-1588
980.030	-1677
980.113	-383
980.196	-1527
980.279	-864
980.361	-1447
980.444	-1275
980.526	-173
980.609	-1217
980.692	-443
980.774	42
980.857	-764
980.939	-685
981.022	-1796
981.104	-706
981.187	-1066
981.269	-943
981.352	-871
981.434	-1628
981.516	-943
981.599	-43
981.681	-769
981.763	-777
981.846	-864
981.928	-1266
982.010	-487
982.092	-1559
982.174	230
982.256	-692
982.339	-739
982.421	-610
982.503	-314
982.585	-1423
982.667	-835
982.749	-918
982.831	-288
982.913	-1390
982.995	305
983.077	-1179
983.158	427
983.240	-1650
983.322	-468
983.404	-58
983.486	337
983.568	-390
983.649	-259
983.731	57
983.813	-892
983.894	-485
983.976	-1278
984.058	-457
984.139	44
984.221	-1364
984.302	84
984.384	-1084
984.465	-1409
984.547	-1150
984.628	-737
984.710	299
984.791	-599
984.872	-367
984.954	-455
985.035	-469
985.116	-1105
985.198	-1371
985.279	573
985.360	-818
985.441	-1039
985.522	-484
985.604	-376
985.685	-2284
985.766	333
985.847	389
985.928	-765
986.009	-746
986.090	-311
986.171	-422
986.252	-1227
986.333	-274
986.414	-499
986.495	-248
986.576	-177
986.656	-440
986.737	-552
986.818	-974
986.899	-74
986.980	-642
987.060	450
987.141	-687
987.222	118
987.302	-29
987.383	364
987.464	-23
987.544	813
987.625	-1343
987.705	-215
987.786	41
987.866	-96
987.947	-659
988.027	-429
988.108	-347
988.188	639
988.268	-903
988.349	-493
988.429	-1285
988.509	658
988.589	-629
988.670	-1566
988.750	280
988.830	-284
988.910	-131
988.990	-656
989.070	-331
989.151	-125
989.231	-823
989.311	-34
989.391	-129
989.471	-600
989.551	-290
989.631	-367
989.711	-130
989.791	-762
989.870	-1083
989.950	616
990.030	-844
990.110	-496
990.190	-872
990.269	-209
990.349	-546
990.429	179
990.509	-120
990.588	-887
990.668	-1373
990.747	-196
990.827	-443
990.907	-886
990.986	-727
991.066	223
991.145	-1164
991.225	-339
991.304	-1338
991.383	-56
991.463	-1482
991.542	-126
991.622	-626
991.701	-200
991.780	-818
991.859	-199
991.939	-402
992.018	-1517
992.097	-802
992.176	-469
992.256	-609
992.335	-727
992.414	-998
992.493	-1130
992.572	-1662
992.651	705
992.730	-1173
992.809	-858
992.888	-1400
992.967	-1116
993.046	-261
993.125	-880
993.203	-1253
993.282	-792
993.361	-1564
993.440	-74
993.519	-1428
993.597	-469
993.676	-2188
993.755	-459
993.834	-573
993.912	-1769
993.991	44
994.069	-785
994.148	-1707
994.226	-985
994.305	-1181
994.384	-1245
994.462	-19
994.540	-1180
994.619	-1983
994.697	-993
994.776	-1205
994.854	-526
994.932	-1825
995.011	-517
995.089	-1754
995.167	-1037
995.245	-980
995.324	-1867
995.402	-790
995.480	-987
995.558	-650
995.636	-1557
995.714	-883
995.792	556
995.870	-1072
995.948	-557
996.026	-794
996.104	-1554
996.182	-834
996.260	-1409
996.338	-552
996.416	-1786
996.494	-1945
996.572	-125
996.649	-1268
996.727	-1494
996.805	-586
996.883	-1416
996.960	-1379
997.038	-451
997.116	-1735
997.193	-1573
997.271	-799
997.348	-1307
997.426	-1338
997.504	-1578
997.581	-827
997.658	-1484
997.736	-2488
997.813	-1492
997.891	-673
997.968	-2025
998.046	-1746
998.123	-1788
998.200	-1606
998.277	-1101
998.355	-1038
998.432	-2311
998.509	-2033
998.586	-982
998.663	-1095
998.741	-1597
998.818	-2071
998.895	-1492
998.972	-1358
999.049	-814
999.126	-2045
999.203	-1005
999.280	-1572
999.357	-1906
999.434	-2356
999.511	-1095
999.587	-1561
999.664	-2365
999.741	-1662
999.818	-1051
999.895	-1743
999.971	-1731
1000.048	-2240
1000.125	-371
1000.202	-2748
1000.278	-866
1000.355	-1132
1000.431	-1480
1000.508	-2105
1000.584	-1695
1000.661	-1969
1000.738	-2383
1000.814	-2243
1000.890	-1305
1000.967	-1824
1001.043	-1181
1001.120	-2857
1001.196	-1399
1001.272	-2835
1001.349	-1089
1001.425	-1541
1001.501	-1286
1001.577	-1992
1001.654	-675
1001.730	-1901
1001.806	-1636
1001.882	-2147
1001.958	-882
1002.034	-2011
1002.110	-1618
1002.186	-3069
1002.262	-1885
1002.338	-2835
1002.414	-984
1002.490	-1184
1002.566	-1902
1002.642	-1467
1002.718	-1636
1002.794	-2868
1002.870	-2275
1002.945	-1592
1003.021	-1444
1003.097	-2096
1003.173	-1901
1003.248	-2023
1003.324	-1828
1003.400	-1599
1003.475	-2416
1003.551	-1890
1003.626	-1605
1003.702	-2337
1003.777	-1835
1003.853	-2625
1003.928	-2044
1004.004	-2379
1004.079	-1083
1004.155	-1745
1004.230	-2695
1004.305	-1143
1004.381	-1618
1004.456	-2110
1004.531	-1528
1004.607	-2022
1004.682	-1920
1004.757	-1897
1004.832	-2129
1004.907	-1267
1004.982	-1748
1005.057	-2964
1005.133	-1437
1005.208	-2140
1005.283	-2048
1005.358	-1445
1005.433	-2231
1005.508	-1962
1005.583	-2907
1005.657	-2366
1005.732	-972
1005.807	-2831
1005.882	-1788
1005.957	-2084
1006.032	-1745
1006.106	-1857
1006.181	-1769
1006.256	-2124
1006.331	-1740
1006.405	-2091
1006.480	-1527
1006.554	-2665
1006.629	-2251
1006.704	-2447
1006.778	-1796
1006.853	-2286
1006.927	-2272
1007.002	-2884
1007.076	-2425
1007.150	-2500
1007.225	-2182
1007.299	-1253
1007.373	-2462
1007.448	-2564
1007.522	-1644
1007.596	-1506
1007.671	-2088
1007.745	-1175
1007.819	-3095
1007.893	-2271
1007.967	-1775
1008.041	-2964
1008.115	-1921
1008.190	-3069
1008.264	-2188
1008.338	-3150
1008.412	-2039
1008.486	-3339
1008.560	-2693
1008.633	-2640
1008.707	-1841
1008.781	-2148
1008.855	-2746
1008.929	-2846
1009.003	-2668
1009.076	-2566
1009.150	-2203
1009.224	-2816
1009.298	-1340
1009.371	-2741
1009.445	-1513
1009.519	-1929
1009.592	-2558
1009.666	-2849
1009.739	-1702
1009.813	-2422
1009.886	-1344
1009.960	-3107
1010.033	-2370
1010.107	-2209
1010.180	-2785
1010.253	-1757
1010.327	-2590
1010.400	-2755
1010.473	-2266
1010.547	-1363
1010.620	-1994
1010.693	-1870
1010.766	-2695
1010.840	-1926
1010.913	-1932
1010.986	-2658
1011.059	-2125
1011.132	-2791
1011.205	-1585
1011.278	-2636
1011.351	-2553
1011.424	-1964
1011.497	-2531
1011.570	-2773
1011.643	-1948
1011.716	-2339
1011.789	-2902
1011.862	-3043
1011.934	-1893
1012.007	-3256
1012.080	-2277
1012.153	-2801
1012.225	-959
1012.298	-2858
1012.371	-2750
1012.443	-1806
1012.516	-2552
1012.588	-2141
1012.661	-1921
1012.733	-3181
1012.806	-911
1012.879	-3355
1012.951	-2202
1013.023	-2457
1013.096	-1151
1013.168	-2812
1013.241	-1642
1013.313	-2304
1013.385	-1435
1013.458	-2341
1013.530	-1684
1013.602	-2868
1013.674	-1898
1013.746	-2826
1013.819	-1743
1013.891	-1715
1013.963	-2747
1014.035	-2605
1014.107	-2360
1014.179	-1391
1014.251	-2849
1014.323	-2185
1014.395	-2568
1014.467	-3130
1014.539	-1903
1014.611	-2772
1014.683	-2044
1014.754	-2742
1014.826	-3073
1014.898	-1521
1014.970	-3159
1015.042	-1357
1015.113	-1776
1015.185	-2337
1015.257	-2913
1015.328	-1840
1015.400	-2317
1015.471	-2221
1015.543	-3035
1015.615	-2514
1015.686	-2387
1015.757	-2892
1015.829	-1406
1015.901	-2861
1015.972	-2251
1016.043	-2427
1016.115	-1406
1016.186	-2506
1016.257	-2562
1016.328	-1639
1016.400	-1365
1016.471	-2601
1016.542	-2731
1016.613	-1854
1016.685	-1829
1016.756	-1268
1016.827	-2064
1016.898	-2652
1016.969	-1750
1017.040	-1610
1017.111	-2329
1017.182	-3039
1017.253	-2296
1017.324	-3001
1017.395	-2574
1017.466	-2500
1017.537	-1309
1017.608	-1627
1017.678	-2213
1017.749	-2395
1017.820	-1403
1017.891	-2809
1017.961	-2201
1018.032	-2333
1018.103	-2136
1018.173	-2081
1018.244	-2372
1018.315	-2587
1018.385	-986
1018.456	-2417
1018.526	-2600
1018.597	-2784
1018.667	-1723
1018.738	-1991
1018.808	-2682
1018.878	-2128
1018.949	-1595
1019.019	-1962
1019.089	-1634
1019.160	-1869
1019.230	-1937
1019.300	-2092
1019.371	-1964
1019.441	-1904
1019.511	-1690
1019.581	-1656
1019.651	-1855
1019.721	-1990
1019.791	-2161
1019.861	-2397
1019.931	-1937
1020.001	-2469
1020.071	-1397
1020.141	-2738
1020.211	-1910
1020.281	-2559
1020.351	-2166
1020.421	-2029
1020.491	-1152
1020.560	-2860
1020.630	-1662
1020.700	-2060
1020.770	-2565
1020.839	-2320
1020.909	-2187
1020.979	-1583
1021.048	-2168
1021.118	-1932
1021.187	-2383
1021.257	-2632
1021.326	-1075
1021.396	-2020
1021.465	-2289
1021.535	-1636
1021.604	-3136
1021.674	-1895
1021.743	-1465
1021.812	-2556
1021.882	-1754
1021.951	-2201
1022.020	-1697
1022.089	-1328
1022.159	-2259
1022.228	-1160
1022.297	-2043
1022.366	-1576
1022.435	-1891
1022.504	-2508
1022.573	-2326
1022.642	-1315
1022.711	-1934
1022.781	-1864
1022.849	-1809
1022.918	-1971
1022.987	-1041
1023.056	-1965
1023.125	-1944
1023.194	-1452
1023.263	-1385
1023.331	-1342
1023.400	-1143
1023.469	-2582
1023.538	-1585
1023.606	-2360
1023.675	-2186
1023.744	-2289
1023.812	-2033
1023.881	-2425
1023.949	-1605
1024.018	-1935
1024.086	-1660
1024.155	-2026
1024.223	-1918
1024.292	-1476
1024.360	-2192
1024.429	-2265
1024.497	-2213
1024.565	-1170
1024.634	-1869
1024.702	-1837
1024.770	-1380
1024.838	-2480
1024.907	-2159
1024.975	-2923
1025.043	-1113
1025.111	-2191
1025.179	-1850
1025.247	-2134
1025.315	-583
1025.383	-1911
1025.451	-1712
1025.519	-2932
1025.587	-1641
1025.655	-1607
1025.723	-2107
1025.791	-2008
1025.859	-1468
1025.927	-2191
1025.995	-2135
1026.062	-794
1026.130	-2588
1026.198	-1792
1026.266	-2194
1026.333	-1351
1026.401	-1754
1026.469	-2157
1026.536	-2449
1026.604	-2148
1026.671	-1519
1026.739	-1639
1026.806	-2208
1026.874	-2023
1026.941	-1950
1027.009	-1565
1027.076	-1962
1027.144	-1533
1027.211	-1495
1027.278	-1967
1027.345	-1391
1027.413	-2098
1027.480	-1329
1027.547	-2550
1027.614	-2059
1027.682	-2343
1027.749	-2058
1027.816	-2069
1027.883	-1474
1027.950	-1481
1028.017	-2370
1028.084	-1366
1028.151	-2534
1028.218	-2906
1028.285	-2390
1028.352	-2082
1028.419	-1893
1028.486	-1843
1028.553	-2385
1028.619	-2447
1028.686	-1310
1028.753	-2067
1028.820	-1696
1028.886	-1871
1028.953	-2046
1029.020	-2383
1029.086	-1647
1029.153	-2598
1029.220	-2232
1029.286	-2880
1029.353	-1555
1029.419	-2051
1029.486	-1899
1029.552	-1956
1029.619	-1639
1029.685	-2020
1029.751	-1372
1029.818	-1322
1029.884	-2015
1029.951	-1079
1030.017	-2653
1030.083	-2624
1030.149	-1707
1030.216	-2032
1030.282	-977
1030.348	-2541
1030.414	-2097
1030.480	-2605
1030.546	-2154
1030.612	-1894
1030.678	-1477
1030.744	-1767
1030.810	-1885
1030.876	-2653
1030.942	-1637
1031.008	-2095
1031.074	-1608
1031.140	-1345
1031.206	-1530
1031.272	-2577
1031.337	-2139
1031.403	-1979
1031.469	-1329
1031.534	-2197
1031.600	-1774
1031.666	-2649
1031.731	-1911
1031.797	-2122
1031.863	-1467
1031.928	-2278
1031.994	-2109
1032.059	-2369
1032.125	-1772
1032.190	-2267
1032.256	-1727
1032.321	-2662
1032.386	-1894
1032.452	-2120
1032.517	-2499
1032.582	-2376
1032.647	-2047
1032.713	-2353
1032.778	-1400
1032.843	-1929
1032.908	-2260
1032.974	-2202
1033.039	-1791
1033.104	-2564
1033.169	-1750
1033.234	-2244
1033.299	-1876
1033.364	-2099
1033.429	-2653
1033.494	-1718
1033.559	-2572
1033.624	-1918
1033.688	-1920
1033.753	-2386
1033.818	-2061
1033.883	-2013
1033.948	-1751
1034.013	-2168
1034.077	-1001
1034.142	-1444
1034.207	-502
1034.271	-686
1034.336	-31
1034.400	-880
1034.465	-650
1034.530	-1504
1034.594	-1928
1034.658	-2347
1034.723	-1906
1034.787	-1357
1034.852	-1125
1034.916	-2746
1034.981	-1657
1035.045	-2275
1035.109	-2284
1035.173	-1538
1035.238	-2121
1035.302	-2103
1035.366	-2457
1035.430	-2591
1035.495	-2554
1035.559	-1803
1035.623	-1492
1035.687	-2673
1035.751	-2005
1035.815	-2712
1035.879	-2168
1035.943	-1459
1036.007	-2494
1036.071	-2103
1036.135	-2304
1036.198	-1641
1036.262	-2170
1036.326	-2548
1036.390	-1676
1036.454	-1672
1036.517	-1650
1036.581	-2349
1036.645	-2696
1036.709	-2515
1036.772	-2523
1036.836	-1868
1036.900	-2041
1036.963	-2382
1037.026	-1915
1037.090	-2081
1037.154	-2106
1037.217	-2340
1037.280	-2005
1037.344	-2752
1037.407	-1198
1037.471	-2087
1037.534	-1493
1037.597	-2027
1037.661	-2405
1037.724	-2172
1037.787	-1893
1037.850	-2220
1037.913	-2500
1037.977	-1737
1038.040	-2812
1038.103	-2431
1038.166	-1480
1038.229	-2152
1038.292	-2356
1038.355	-2081
1038.418	-2689
1038.481	-2376
1038.544	-1808
1038.607	-2187
1038.670	-2368
1038.732	-2536
1038.795	-2224
1038.858	-2530
1038.921	-1527
1038.984	-1975
1039.046	-2200
1039.109	-2453
1039.172	-2436
1039.234	-2149
1039.297	-2058
1039.360	-2624
1039.422	-1806
1039.485	-2277
1039.547	-2551
1039.610	-2432
1039.672	-2157
1039.734	-1985
1039.797	-2617
1039.859	-2020
1039.922	-2187
1039.984	-2262
1040.046	-2324
1040.109	-1828
1040.171	-2223
1040.233	-2316
1040.295	-1089
1040.358	-2361
1040.420	-2714
1040.482	-2532
1040.544	-1931
1040.606	-2503
1040.668	-2411
1040.730	-2322
1040.792	-2095
1040.854	-2213
1040.916	-2361
1040.978	-2344
1041.040	-984
1041.102	-1916
1041.164	-2591
1041.225	-2901
1041.287	-2912
1041.349	-2863
1041.411	-1950
1041.472	-2065
1041.534	-1911
1041.596	-2680
1041.657	-2105
1041.719	-2426
1041.781	-2114
1041.842	-3081
1041.904	-2492
1041.965	-2001
1042.027	-2255
1042.088	-3235
1042.150	-2282
1042.211	-2776
1042.272	-1887
1042.334	-1737
1042.395	-1679
1042.456	-2847
1042.518	-2603
1042.579	-1891
1042.640	-2126
1042.701	-2642
1042.763	-2489
1042.824	-2451
1042.885	-2968
1042.946	-2452
1043.007	-2674
1043.068	-1781
1043.129	-1536
1043.190	-2302
1043.251	-2022
1043.312	-2409
1043.373	-2166
1043.434	-2205
1043.495	-2383
1043.556	-1733
1043.616	-1798
1043.677	-1613
1043.738	-2361
1043.799	-2172
1043.859	-1860
1043.920	-2402
1043.981	-3013
1044.041	-1537
1044.102	-2198
1044.162	-2249
1044.223	-2524
1044.284	-1897
1044.344	-1273
1044.405	-2031
1044.465	-2690
1044.525	-2054
1044.586	-2307
1044.646	-2227
1044.707	-1810
1044.767	-1751
1044.827	-1886
1044.887	-2215
1044.948	-2473
1045.008	-2272
1045.068	-2484
1045.128	-1194
1045.188	-2477
1045.249	-2137
1045.309	-2183
1045.369	-2105
1045.429	-2326
1045.489	-2756
1045.549	-2111
1045.609	-2289
1045.669	-2104
1045.729	-2251
1045.789	-1849
1045.848	-2509
1045.908	-1426
1045.968	-1571
1046.028	-1974
1046.088	-1974
1046.147	-1023
1046.207	-2217
1046.267	-974
1046.326	-2146
1046.386	-1819
1046.446	-1759
1046.505	-1569
1046.565	-1297
1046.624	-1005
1046.684	-1676
1046.743	-1271
1046.803	-717
1046.862	-570
1046.922	0
