'Start Wavelength	183.907
'End Wavelength	1046.922
'Gate Delay	5.000
'Gate Width (ms)	1.050
'Laser Output Level	0.000
'X Position	0.000
'Y Position	0.000
'Z Position	0.000
'Grid Point Number	1.000
'Shot Number	100.000
183.907	602.000
183.977	162.000
184.047	-422
184.116	207
184.186	-33
184.256	899
184.325	547
184.395	341
184.465	678
184.534	521
184.604	-827
184.674	133
184.743	-818
184.813	-151
184.883	103
184.952	570
185.022	-11
185.092	744
185.161	-388
185.231	-22
185.301	464
185.370	1094
185.440	-346
185.509	104
185.579	-332
185.649	298
185.718	419
185.788	834
185.857	-248
185.927	-47
185.996	135
186.066	-105
186.136	346
186.205	150
186.275	-35
186.344	585
186.414	502
186.483	-145
186.553	172
186.622	1570
186.692	250
186.761	756
186.831	-70
186.900	511
186.970	224
187.039	429
187.109	282
187.178	629
187.248	-269
187.317	485
187.387	38
187.456	509
187.526	283
187.595	218
187.664	-109
187.734	110
187.803	-466
187.873	892
187.942	-506
188.012	975
188.081	-905
188.150	401
188.220	-187
188.289	1175
188.358	-570
188.428	124
188.497	-106
188.567	850
188.636	-487
188.705	638
188.775	-478
188.844	450
188.913	725
188.983	511
189.052	226
189.121	399
189.191	-324
189.260	266
189.329	-850
189.399	-144
189.468	678
189.537	-108
189.606	-119
189.676	-274
189.745	590
189.814	571
189.883	-303
189.953	-164
190.022	-121
190.091	-135
190.161	-619
190.230	549
190.299	-288
190.368	260
190.437	-73
190.507	564
190.576	-882
190.645	-37
190.714	-333
190.783	-493
190.853	-31
190.922	307
190.991	-120
191.060	311
191.129	-1259
191.198	331
191.268	-42
191.337	-335
191.406	269
191.475	611
191.544	188
191.613	25
191.682	-161
191.752	891
191.821	-875
191.890	-330
191.959	-130
192.028	-3
192.097	-634
192.166	523
192.235	-897
192.304	712
192.373	-958
192.442	149
192.511	-703
192.580	167
192.650	-308
192.719	270
192.788	-59
192.857	-61
192.926	-496
192.995	690
193.064	-51
193.133	167
193.202	-252
193.271	-150
193.340	-664
193.409	522
193.478	465
193.547	241
193.615	-54
193.684	28
193.753	-654
193.822	293
193.891	-701
193.960	935
194.029	75
194.098	-148
194.167	-705
194.236	842
194.305	-80
194.374	-64
194.443	-88
194.512	536
194.580	336
194.649	796
194.718	536
194.787	528
194.856	-1217
194.925	269
194.994	-431
195.062	202
195.131	460
195.200	-248
195.269	363
195.338	108
195.407	-209
195.475	172
195.544	170
195.613	10
195.682	74
195.751	-46
195.819	-1096
195.888	466
195.957	476
196.026	-7
196.094	-210
196.163	787
196.232	156
196.301	451
196.369	-541
196.438	276
196.507	-575
196.576	284
196.644	-169
196.713	-270
196.782	-691
196.850	777
196.919	-811
196.988	-60
197.056	-512
197.125	-1036
197.194	-152
197.262	221
197.331	-250
197.400	759
197.468	-976
197.537	-226
197.606	-502
197.674	398
197.743	513
197.812	178
197.880	256
197.949	-361
198.017	-478
198.086	-374
198.155	-435
198.223	-22
198.292	-209
198.360	21
198.429	-645
198.497	28
198.566	181
198.635	356
198.703	718
198.772	1200
198.840	150
198.909	80
198.977	-901
199.046	439
199.114	-53
199.183	-217
199.251	-269
199.320	-175
199.388	-780
199.457	637
199.525	-6
199.594	449
199.662	-222
199.731	-315
199.799	-331
199.867	623
199.936	-759
200.004	416
200.073	332
200.141	-438
200.210	-1024
200.278	864
200.346	1240
200.415	1253
200.483	-245
200.552	328
200.620	-755
200.688	-521
200.757	-716
200.825	51
200.893	-581
200.962	299
201.030	-537
201.098	266
201.167	-151
201.235	-218
201.303	-894
201.372	426
201.440	-654
201.508	-334
201.577	151
201.645	304
201.713	200
201.781	93
201.850	100
201.918	198
201.986	-289
202.055	859
202.123	-918
202.191	-61
202.259	-794
202.327	333
202.396	74
202.464	272
202.532	-882
202.600	768
202.669	-280
202.737	-146
202.805	-910
202.873	-428
202.941	-284
203.009	343
203.078	-573
203.146	891
203.214	-412
203.282	-309
203.350	-256
203.418	-347
203.487	-550
203.555	14
203.623	-314
203.691	967
203.759	-115
203.827	256
203.895	21
203.963	-475
204.031	77
204.099	171
204.168	-912
204.236	579
204.304	62
204.372	579
204.440	-490
204.508	-1020
204.576	-715
204.644	366
204.712	39
204.780	279
204.848	-101
204.916	10
204.984	-243
205.052	-41
205.120	-617
205.188	-112
205.256	-503
205.324	143
205.392	-786
205.460	403
205.528	-45
205.596	263
205.664	-307
205.732	-823
205.799	-409
205.867	-232
205.935	-675
206.003	653
206.071	-1450
206.139	191
206.207	-325
206.275	399
206.343	-1419
206.411	378
206.478	-408
206.546	-263
206.614	-1295
206.682	762
206.750	-216
206.818	321
206.885	1080
206.953	-511
207.021	316
207.089	618
207.157	-768
207.225	113
207.292	-800
207.360	222
207.428	-408
207.496	-163
207.563	-174
207.631	-361
207.699	-1234
207.767	656
207.834	-690
207.902	-72
207.970	-341
208.038	403
208.105	-799
208.173	83
208.241	-379
208.309	681
208.376	-754
208.444	200
208.512	-575
208.579	-281
208.647	493
208.715	984
208.782	-474
208.850	857
208.918	-819
208.985	732
209.053	-496
209.120	-208
209.188	-875
209.256	21
209.323	-1559
209.391	623
209.459	907
209.526	-12
209.594	-533
209.661	197
209.729	110
209.796	255
209.864	367
209.932	-1094
209.999	38
210.067	180
210.134	275
210.202	-492
210.269	-293
210.337	1551
210.404	299
210.472	-133
210.539	-67
210.607	-246
210.674	-1349
210.742	354
210.809	-305
210.877	-167
210.944	62
211.012	-1028
211.079	894
211.146	103
211.214	-74
211.281	1701
211.349	480
211.416	135
211.484	77
211.551	-340
211.618	-63
211.686	573
211.753	-919
211.821	955
211.888	-649
211.955	447
212.023	-198
212.090	128
212.157	-142
212.225	-430
212.292	-67
212.359	17
212.427	1120
212.494	578
212.561	295
212.629	830
212.696	-1104
212.763	266
212.831	-933
212.898	650
212.965	-338
213.032	111
213.100	-248
213.167	-257
213.234	439
213.301	-167
213.369	-90
213.436	763
213.503	-277
213.570	174
213.638	-805
213.705	-365
213.772	-875
213.839	-288
213.906	420
213.973	354
214.041	-366
214.108	349
214.175	-298
214.242	-332
214.309	-607
214.376	693
214.444	-576
214.511	-283
214.578	-556
214.645	224
214.712	-296
214.779	738
214.846	-281
214.913	321
214.980	486
215.048	695
215.115	1310
215.182	1335
215.249	209
215.316	166
215.383	269
215.450	806
215.517	-166
215.584	566
215.651	-494
215.718	27
215.785	-642
215.852	-128
215.919	-134
215.986	177
216.053	265
216.120	-307
216.187	-437
216.254	555
216.321	-597
216.388	64
216.455	-420
216.522	-173
216.589	-11
216.656	66
216.722	42
216.789	467
216.856	-836
216.923	-56
216.990	68
217.057	-56
217.124	-58
217.191	-220
217.258	24
217.324	-253
217.391	-807
217.458	-188
217.525	17
217.592	96
217.659	-1818
217.725	135
217.792	-1480
217.859	1166
217.926	-943
217.993	-135
218.059	-611
218.126	161
218.193	-211
218.260	-193
218.327	-676
218.393	233
218.460	-495
218.527	-545
218.594	-862
218.660	147
218.727	-214
218.794	-768
218.860	-109
218.927	387
218.994	-590
219.061	14
219.127	-474
219.194	-5
219.261	-112
219.327	-855
219.394	-50
219.461	-34
219.527	-95
219.594	-61
219.661	-128
219.727	-665
219.794	447
219.860	293
219.927	-30
219.994	2144
220.060	1819
220.127	2859
220.193	1623
220.260	219
220.326	154
220.393	-186
220.460	-340
220.526	214
220.593	-125
220.659	770
220.726	-576
220.792	-54
220.859	13
220.925	195
220.992	58
221.058	1178
221.125	598
221.191	541
221.258	-64
221.324	388
221.391	-315
221.457	68
221.524	262
221.590	124
221.657	555
221.723	345
221.789	-175
221.856	956
221.922	-623
221.989	799
222.055	-423
222.121	-271
222.188	1506
222.254	528
222.321	89
222.387	420
222.453	-162
222.520	-92
222.586	-649
222.652	852
222.719	182
222.785	663
222.851	-446
222.918	283
222.984	-428
223.050	-314
223.116	-1903
223.183	548
223.249	-931
223.315	94
223.382	-934
223.448	631
223.514	-1095
223.580	-337
223.647	-697
223.713	-260
223.779	-1122
223.845	141
223.911	-106
223.978	-450
224.044	-699
224.110	35
224.176	-856
224.242	229
224.309	-1266
224.375	226
224.441	-187
224.507	83
224.573	-1060
224.639	373
224.705	-1099
224.772	-774
224.838	-262
224.904	369
224.970	-51
225.036	16
225.102	-1318
225.168	768
225.234	171
225.300	717
225.366	-490
225.432	1215
225.499	-754
225.565	608
225.631	-1158
225.697	419
225.763	269
225.829	541
225.895	-972
225.961	88
226.027	62
226.093	-3
226.159	-2
226.225	1061
226.291	-311
226.357	495
226.423	21
226.489	207
226.554	-1201
226.620	90
226.686	-297
226.752	114
226.818	330
226.884	781
226.950	1173
227.016	285
227.082	451
227.148	352
227.214	-573
227.279	268
227.345	555
227.411	1484
227.477	2447
227.543	5632
227.609	5206
227.674	4556
227.740	180
227.806	1438
227.872	-232
227.938	469
228.003	-200
228.069	-126
228.135	-732
228.201	-188
228.267	-70
228.332	-233
228.398	-707
228.464	488
228.530	-672
228.595	380
228.661	-920
228.727	664
228.792	695
228.858	-792
228.924	-1811
228.990	1454
229.055	-1584
229.121	254
229.187	214
229.252	-243
229.318	-994
229.384	-114
229.449	-276
229.515	-1893
229.581	-867
229.646	1019
229.712	-708
229.777	-42
229.843	-619
229.909	-421
229.974	11
230.040	94
230.105	-798
230.171	-413
230.236	371
230.302	211
230.368	-2191
230.433	-1386
230.499	-442
230.564	-84
230.630	-1702
230.695	-76
230.761	22
230.826	-817
230.892	1099
230.957	-794
231.023	-809
231.088	-1144
231.154	-703
231.219	-412
231.284	-1338
231.350	224
231.415	-1285
231.481	332
231.546	-1297
231.612	149
231.677	-555
231.742	-468
231.808	776
231.873	-732
231.939	-1843
232.004	1276
232.069	-186
232.135	-667
232.200	-864
232.265	362
232.331	-1051
232.396	-947
232.461	-988
232.527	-112
232.592	-1011
232.657	624
232.723	-532
232.788	-452
232.853	191
232.918	439
232.984	-167
233.049	-31
233.114	-989
233.179	1066
233.245	489
233.310	474
233.375	-1475
233.440	315
233.506	-972
233.571	-621
233.636	-2
233.701	-329
233.766	-852
233.832	548
233.897	-376
233.962	-826
234.027	38
234.092	233
234.157	-1010
234.222	-456
234.288	-167
234.353	132
234.418	47
234.483	957
234.548	-300
234.613	-296
234.678	-490
234.743	-626
234.808	393
234.873	-911
234.938	-100
235.004	-395
235.069	-475
235.134	-360
235.199	-133
235.264	413
235.329	-1271
235.394	759
235.459	624
235.524	-836
235.589	-546
235.654	-153
235.719	-1618
235.784	345
235.849	-619
235.913	-137
235.978	118
236.043	-390
236.108	-371
236.173	-899
236.238	349
236.303	-382
236.368	-808
236.433	701
236.498	-860
236.563	241
236.627	64
236.692	1627
236.757	531
236.822	513
236.887	-1101
236.952	-194
237.017	-1165
237.081	760
237.146	-1162
237.211	1012
237.276	204
237.341	3346
237.405	-283
237.470	-248
237.535	-372
237.600	218
237.664	-87
237.729	-394
237.794	-1657
237.859	199
237.923	-932
237.988	264
238.053	149
238.118	-282
238.182	22
238.247	2360
238.312	-1096
238.376	780
238.441	-2090
238.506	1068
238.570	-1672
238.635	1484
238.700	-344
238.764	-803
238.829	-655
238.893	115
238.958	-258
239.023	-550
239.087	-561
239.152	253
239.216	-185
239.281	483
239.346	100
239.410	754
239.475	-866
239.539	1795
239.604	-534
239.668	1552
239.733	1354
239.797	5245
239.862	10154
239.926	8819
239.991	3216
240.055	1373
240.120	112
240.184	1964
240.249	1
240.313	888
240.378	-1
240.442	1216
240.507	158
240.571	890
240.635	-901
240.700	251
240.764	-1243
240.829	-358
240.893	-985
240.957	-58
241.022	110
241.086	1277
241.151	-1113
241.215	-1172
241.279	590
241.344	-346
241.408	29
241.472	-284
241.537	415
241.601	553
241.665	-1110
241.730	-521
241.794	203
241.858	30
241.922	-634
241.987	276
242.051	-873
242.115	-866
242.179	-485
242.244	-666
242.308	-88
242.372	110
242.436	-846
242.501	195
242.565	-1329
242.629	-193
242.693	-391
242.757	-828
242.822	-1037
242.886	655
242.950	567
243.014	-497
243.078	-218
243.142	-183
243.206	-702
243.271	435
243.335	133
243.399	1170
243.463	781
243.527	3553
243.591	127
243.655	-318
243.719	-968
243.783	586
243.847	90
243.911	358
243.975	-567
244.040	-766
244.104	842
244.168	42
244.232	-860
244.296	-207
244.360	-643
244.424	-291
244.488	-287
244.552	705
244.615	-2045
244.679	118
244.743	-1330
244.807	-941
244.871	-590
244.935	673
244.999	-1259
245.063	126
245.127	463
245.191	-106
245.255	-472
245.319	611
245.383	-1505
245.446	1169
245.510	-478
245.574	-408
245.638	-48
245.702	-906
245.766	-661
245.829	846
245.893	-884
245.957	-173
246.021	-464
246.085	496
246.149	-537
246.212	491
246.276	196
246.340	-520
246.404	600
246.467	1051
246.531	-2128
246.595	626
246.659	-750
246.722	-795
246.786	-243
246.850	-354
246.913	-349
246.977	0
247.041	-617
247.104	29
247.168	123
247.232	789
247.295	1286
247.359	1333
247.423	-194
247.486	-69
247.550	316
247.614	-190
247.677	-398
247.741	-306
247.804	355
247.868	2796
247.932	116
247.995	3589
248.059	-489
248.122	-716
248.186	697
248.249	907
248.313	2468
248.376	3512
248.440	483
248.503	-605
248.567	845
248.630	-537
248.694	-239
248.757	621
248.821	3887
248.884	1964
248.948	193
249.011	1935
249.075	3067
249.138	3297
249.202	43
249.265	-211
249.328	562
249.392	-349
249.455	451
249.519	753
249.582	-556
249.645	511
249.709	-300
249.772	-424
249.835	-582
249.899	226
249.962	13
250.025	-487
250.089	74
250.152	1603
250.215	114
250.279	-240
250.342	-622
250.405	243
250.468	-739
250.532	289
250.595	1264
250.658	4439
250.721	9295
250.785	1347
250.848	1628
250.911	836
250.974	-45
251.038	1017
251.101	1553
251.164	623
251.227	503
251.290	431
251.354	479
251.417	7426
251.480	6472
251.543	3577
251.606	17917
251.669	10025
251.732	1451
251.795	2048
251.859	2365
251.922	8988
251.985	3499
252.048	2263
252.111	126
252.174	258
252.237	683
252.300	4514
252.363	3324
252.426	12798
252.489	2717
252.552	1681
252.615	-436
252.678	1141
252.741	2132
252.804	3818
252.867	12649
252.930	5211
252.993	715
253.056	1868
253.119	-1006
253.182	-648
253.245	158
253.308	1636
253.371	-495
253.434	391
253.497	432
253.559	1348
253.622	824
253.685	717
253.748	450
253.811	-188
253.874	325
253.937	-690
254.000	-704
254.062	1023
254.125	641
254.188	1269
254.251	-290
254.314	332
254.376	-319
254.439	720
254.502	67
254.565	976
254.628	1318
254.690	607
254.753	-573
254.816	60
254.878	-324
254.941	958
255.004	355
255.067	334
255.129	-978
255.192	-331
255.255	-606
255.317	391
255.380	-340
255.443	823
255.505	529
255.568	-542
255.631	-373
255.693	872
255.756	-382
255.819	1919
255.881	-305
255.944	812
256.006	-46
256.069	-195
256.132	-777
256.194	-395
256.257	-437
256.319	742
256.382	719
256.444	1417
256.507	500
256.569	-119
256.632	-836
256.694	-44
256.757	131
256.819	3200
256.882	-778
256.944	611
257.007	74
257.069	116
257.132	-28
257.194	943
257.257	-853
257.319	-721
257.381	-843
257.444	563
257.506	1831
257.569	3188
257.631	874
257.693	786
257.756	-208
257.818	-439
257.880	-636
257.943	881
258.005	-235
258.067	-203
258.130	-372
258.192	253
258.254	92
258.317	-313
258.379	-348
258.441	197
258.503	135
258.566	242
258.628	1441
258.690	36
258.753	160
258.815	151
258.877	-870
258.939	318
259.001	305
259.064	-660
259.126	-1598
259.188	-94
259.250	92
259.312	454
259.375	388
259.437	-80
259.499	-241
259.561	215
259.623	-667
259.685	-288
259.747	165
259.809	1464
259.872	1298
259.934	3725
259.996	2032
260.058	910
260.120	-396
260.182	655
260.244	-372
260.306	-111
260.368	668
260.430	-945
260.492	-156
260.554	1568
260.616	-726
260.678	735
260.740	1114
260.802	227
260.864	-1
260.926	-860
260.988	315
261.050	-2
261.112	114
261.174	2396
261.236	720
261.298	269
261.359	238
261.421	1497
261.483	-703
261.545	762
261.607	-1338
261.669	342
261.731	-667
261.793	1498
261.854	-1607
261.916	601
261.978	-689
262.040	-96
262.102	324
262.164	-248
262.225	-618
262.287	447
262.349	-786
262.411	10
262.472	922
262.534	266
262.596	588
262.658	828
262.719	-1504
262.781	852
262.843	-1106
262.904	713
262.966	-215
263.028	58
263.090	1611
263.151	3849
263.213	547
263.275	-311
263.336	-249
263.398	1520
263.459	-831
263.521	206
263.583	92
263.644	494
263.706	-18
263.767	419
263.829	-251
263.891	507
263.952	144
264.014	-29
264.075	-594
264.137	119
264.198	20
264.260	-628
264.321	-457
264.383	457
264.444	794
264.506	-263
264.567	-319
264.629	891
264.690	-1856
264.752	564
264.813	-46
264.875	84
264.936	296
264.998	422
265.059	-74
265.120	18
265.182	-425
265.243	748
265.305	71
265.366	233
265.427	155
265.489	880
265.550	-609
265.611	-327
265.673	12
265.734	240
265.795	-88
265.857	165
265.918	-698
265.979	964
266.040	1243
266.102	1314
266.163	-63
266.224	1209
266.286	360
266.347	-553
266.408	-182
266.469	1177
266.530	-131
266.592	393
266.653	271
266.714	1207
266.775	-335
266.836	-66
266.898	-592
266.959	29
267.020	-778
267.081	1786
267.142	-627
267.203	538
267.264	-1052
267.326	1839
267.387	-480
267.448	73
267.509	147
267.570	811
267.631	-20
267.692	-177
267.753	83
267.814	64
267.875	418
267.936	1034
267.997	-1158
268.058	-51
268.119	-568
268.180	-290
268.241	-437
268.302	613
268.363	-700
268.424	271
268.485	-356
268.546	987
268.607	-218
268.668	285
268.729	-690
268.790	560
268.851	426
268.912	16
268.972	-549
269.033	-381
269.094	226
269.155	631
269.216	279
269.277	-140
269.338	-932
269.398	1092
269.459	-492
269.520	247
269.581	424
269.642	870
269.702	-1078
269.763	-35
269.824	-545
269.885	650
269.945	-603
270.006	810
270.067	-287
270.128	123
270.188	-133
270.249	441
270.310	-227
270.370	722
270.431	-114
270.492	371
270.553	-366
270.613	611
270.674	-17
270.734	128
270.795	586
270.856	98
270.916	-706
270.977	-231
271.038	77
271.098	936
271.159	-635
271.219	83
271.280	-122
271.340	556
271.401	-1089
271.462	915
271.522	-11
271.583	385
271.643	-38
271.704	676
271.764	-339
271.825	-21
271.885	3194
271.946	4166
272.006	644
272.066	1489
272.127	4309
272.187	6542
272.248	2782
272.308	796
272.369	2401
272.429	849
272.489	652
272.550	311
272.610	766
272.671	1138
272.731	742
272.791	832
272.852	517
272.912	961
272.972	-85
273.033	740
273.093	446
273.153	1034
273.214	2
273.274	266
273.334	935
273.394	1806
273.455	117
273.515	1113
273.575	1037
273.635	878
273.696	1249
273.756	3058
273.816	990
273.876	1003
273.936	23
273.997	2063
274.057	101
274.117	459
274.177	507
274.237	2778
274.297	2195
274.358	1026
274.418	1151
274.478	1342
274.538	-42
274.598	599
274.658	1565
274.718	2127
274.778	901
274.838	751
274.898	-73
274.958	2532
275.018	1650
275.078	2406
275.138	434
275.198	1329
275.258	195
275.318	1758
275.378	-1078
275.438	1255
275.498	1096
275.558	1936
275.618	2050
275.678	1540
275.738	1429
275.798	1244
275.858	630
275.918	899
275.978	79
276.038	1424
276.098	-12
276.157	1285
276.217	924
276.277	1040
276.337	97
276.397	1262
276.457	1436
276.517	1158
276.576	1077
276.636	603
276.696	125
276.756	1095
276.815	1260
276.875	1435
276.935	417
276.995	911
277.055	383
277.114	2007
277.174	1268
277.234	1821
277.293	-183
277.353	431
277.413	333
277.472	169
277.532	-32
277.592	1087
277.651	1298
277.711	3253
277.771	1816
277.830	4322
277.890	3595
277.950	2332
278.009	8987
278.069	3961
278.128	3205
278.188	3435
278.248	792
278.307	4446
278.367	2920
278.426	1503
278.486	109
278.545	1361
278.605	658
278.664	1544
278.724	86
278.783	2201
278.843	3259
278.902	1793
278.962	521
279.021	1812
279.081	1829
279.140	2359
279.199	1018
279.259	1429
279.318	1889
279.378	2517
279.437	3055
279.496	11393
279.556	50483
279.615	35980
279.675	7243
279.734	4778
279.793	3845
279.853	7552
279.912	2307
279.971	2926
280.031	1597
280.090	4030
280.149	5351
280.208	5470
280.268	30518
280.327	30826
280.386	5576
280.445	3053
280.505	1940
280.564	1811
280.623	1456
280.682	1376
280.742	1930
280.801	1929
280.860	1184
280.919	1314
280.978	902
281.037	990
281.097	671
281.156	2108
281.215	799
281.274	1574
281.333	1545
281.392	1672
281.451	1463
281.510	1668
281.569	10
281.628	1586
281.688	1036
281.747	2014
281.806	760
281.865	1792
281.924	905
281.983	1695
282.042	859
282.101	1886
282.160	1352
282.219	1219
282.278	1047
282.337	1893
282.396	489
282.454	1939
282.513	1297
282.572	1586
282.631	897
282.690	764
282.749	871
282.808	1546
282.867	246
282.926	1990
282.985	1032
283.043	1029
283.102	272
283.161	589
283.220	801
283.279	1816
283.338	1297
283.396	190
283.455	391
283.514	1369
283.573	1177
283.631	2076
283.690	1558
283.749	1127
283.808	774
283.866	1774
283.925	138
283.984	2402
284.043	681
284.101	1946
284.160	186
284.219	1738
284.277	778
284.336	992
284.395	1962
284.453	2608
284.512	1750
284.570	1947
284.629	1830
284.688	1756
284.746	1073
284.805	2249
284.863	2189
284.922	2680
284.981	3469
285.039	4551
285.098	6128
285.156	15607
285.215	53067
285.273	51761
285.332	18475
285.390	9507
285.449	4764
285.507	4302
285.566	2250
285.624	2191
285.683	2308
285.741	2689
285.799	1530
285.858	2054
285.916	764
285.975	2053
286.033	878
286.091	2136
286.150	893
286.208	1352
286.267	844
286.325	1627
286.383	1216
286.442	1245
286.500	2008
286.558	1962
286.616	942
286.675	1785
286.733	937
286.791	1526
286.850	1087
286.908	1320
286.966	1514
287.024	1300
287.083	667
287.141	1623
287.199	1691
287.257	2066
287.315	1454
287.374	2215
287.432	2036
287.490	1251
287.548	1314
287.606	1943
287.664	1330
287.723	2156
287.781	975
287.839	2507
287.897	1035
287.955	2572
288.013	1257
288.071	3965
288.129	11046
288.187	38682
288.245	15460
288.303	4420
288.361	3865
288.419	2918
288.477	1933
288.535	1924
288.593	2103
288.651	1761
288.709	1384
288.767	1902
288.825	1181
288.883	1866
288.941	919
288.999	1121
289.057	1036
289.115	1472
289.173	1109
289.231	1712
289.289	1394
289.346	1591
289.404	2010
289.462	2594
289.520	1623
289.578	1711
289.636	1493
289.694	1667
289.751	1871
289.809	1624
289.867	1677
289.925	2799
289.983	916
290.040	1758
290.098	2070
290.156	1167
290.214	1627
290.271	1557
290.329	2072
290.387	2698
290.444	1140
290.502	2091
290.560	2104
290.617	1949
290.675	1886
290.733	2349
290.790	1672
290.848	2676
290.906	1699
290.963	1919
291.021	1428
291.078	1594
291.136	1246
291.194	2245
291.251	1898
291.309	2162
291.366	2039
291.424	1544
291.481	1703
291.539	1964
291.596	1913
291.654	1982
291.711	2409
291.769	2388
291.826	1808
291.884	1922
291.941	1339
291.999	2312
292.056	2137
292.114	1649
292.171	1668
292.228	3274
292.286	1788
292.343	1886
292.401	1903
292.458	2704
292.515	830
292.573	3261
292.630	1266
292.687	2095
292.745	917
292.802	2044
292.859	2535
292.917	2844
292.974	1943
293.031	1988
293.089	1874
293.146	1758
293.203	1947
293.260	1797
293.318	1301
293.375	2391
293.432	1816
293.489	2796
293.546	1667
293.604	2037
293.661	2543
293.718	6011
293.775	2824
293.832	3647
293.889	2432
293.947	2402
294.004	1496
294.061	2249
294.118	2612
294.175	3130
294.232	2481
294.289	2094
294.346	2162
294.403	2676
294.460	1507
294.517	2180
294.574	2485
294.631	2883
294.688	1859
294.745	3710
294.802	4660
294.859	4776
294.916	2559
294.973	2883
295.030	1367
295.087	2285
295.144	1583
295.201	2757
295.258	2019
295.315	2890
295.372	2530
295.429	3795
295.486	2420
295.542	2001
295.599	1402
295.656	3110
295.713	1419
295.770	3807
295.827	2137
295.883	1793
295.940	2073
295.997	1936
296.054	1521
296.111	2000
296.167	2453
296.224	1698
296.281	2397
296.338	1745
296.394	1320
296.451	2211
296.508	2220
296.564	3134
296.621	3363
296.678	6351
296.734	7582
296.791	4616
296.848	2623
296.904	2185
296.961	3068
297.018	3740
297.074	3067
297.131	2911
297.187	2110
297.244	2434
297.301	3920
297.357	9338
297.414	3431
297.470	3634
297.527	2343
297.583	2433
297.640	1434
297.696	2399
297.753	1979
297.809	2419
297.866	1858
297.922	2520
297.979	1584
298.035	2418
298.092	2298
298.148	4082
298.204	3014
298.261	2736
298.317	4060
298.374	6178
298.430	4938
298.486	3208
298.543	1939
298.599	2473
298.656	1963
298.712	3255
298.768	3131
298.824	3577
298.881	2560
298.937	2093
298.993	2730
299.050	2862
299.106	2127
299.162	2918
299.218	2869
299.275	3141
299.331	3272
299.387	5405
299.443	9100
299.500	23335
299.556	19954
299.612	10567
299.668	7970
299.724	20575
299.780	25491
299.837	11092
299.893	7977
299.949	16129
300.005	23946
300.061	19911
300.117	27933
300.173	14837
300.229	6209
300.285	5631
300.341	4160
300.397	4427
300.453	4223
300.510	5015
300.566	4926
300.622	9789
300.678	30053
300.734	40298
300.790	19187
300.845	14464
300.901	18303
300.957	26368
301.013	13792
301.069	6157
301.125	5040
301.181	4759
301.237	3606
301.293	3401
301.349	3610
301.405	2410
301.461	2492
301.516	3887
301.572	2233
301.628	2823
301.684	2516
301.740	3114
301.796	3277
301.851	3919
301.907	3204
301.963	4057
302.019	5858
302.074	15466
302.130	15649
302.186	8954
302.242	3628
302.297	4525
302.353	2842
302.409	3726
302.464	3479
302.520	4024
302.576	3331
302.631	6359
302.687	2609
302.743	2286
302.798	1939
302.854	1890
302.910	2303
302.965	3168
303.021	2750
303.076	2520
303.132	2610
303.187	3745
303.243	3237
303.299	2761
303.354	1482
303.410	2973
303.465	1526
303.521	2661
303.576	1546
303.632	2815
303.687	2708
303.743	5191
303.798	5041
303.853	3203
303.909	1859
303.964	2858
304.020	2416
304.075	2978
304.130	1827
304.186	3430
304.241	3176
304.297	3562
304.352	1922
304.358	2070
304.407	3276
304.449	2519
304.463	2265
304.518	2501
304.539	2279
304.573	1916
304.629	2643
304.630	2637
304.684	2449
304.720	3983
304.739	4754
304.794	5961
304.811	5610
304.850	4723
304.902	2744
304.905	2617
304.960	2656
304.992	2545
305.015	2446
305.071	2877
305.083	2594
305.126	1616
305.173	1888
305.181	1939
305.236	1740
305.264	2041
305.292	2310
305.347	1919
305.354	1932
305.402	2076
305.445	2229
305.457	2253
305.512	3001
305.535	2460
305.567	1769
305.622	1947
305.626	1962
305.678	2342
305.716	3304
305.733	3651
305.788	4523
305.807	4364
305.843	4230
305.897	5634
305.898	5646
305.953	5666
305.988	4143
306.008	3379
306.063	2878
306.078	2759
306.118	2529
306.168	1847
306.173	1773
306.228	1775
306.259	1875
306.283	2047
306.338	2160
306.349	2207
306.393	2302
306.440	2429
306.448	2436
306.503	2476
306.530	2243
306.558	2107
306.613	2363
306.620	2329
306.668	2256
306.711	3507
306.723	3735
306.778	2704
306.801	2795
306.833	3031
306.888	2092
306.892	2107
306.943	2349
306.982	1915
306.997	1781
307.052	2142
307.072	2316
307.107	2696
307.162	2622
307.163	2621
307.217	2539
307.253	2602
307.272	2533
307.327	1700
307.343	1923
307.381	2715
307.434	1883
307.436	1845
307.491	2363
307.524	2620
307.546	2706
307.600	2948
307.614	2825
307.655	2524
307.704	2608
307.710	2588
307.765	1823
307.795	1854
307.819	2081
307.874	2138
307.885	2284
307.929	2906
307.975	3053
307.984	3069
308.038	3658
308.065	3474
308.093	5400
308.148	11693
308.156	13129
308.202	18744
308.246	22734
308.257	22407
308.312	11085
308.336	7354
308.366	5437
308.421	3178
308.426	3097
308.475	2808
308.517	2216
308.530	2038
308.585	1925
308.607	1793
308.639	1767
308.694	2040
308.697	2050
308.748	2275
308.787	2689
308.803	2760
308.857	2009
308.877	2150
308.912	2566
308.967	2299
308.967	2305
309.021	3434
309.058	4121
309.076	4834
309.130	7278
309.148	8081
309.185	17223
309.238	34326
309.239	34357
309.293	35574
309.328	29052
309.348	24711
309.402	10559
309.418	7493
309.457	5559
309.508	3815
309.511	3747
309.566	4280
309.598	4143
309.620	4202
309.674	4947
309.688	5176
309.729	5030
309.778	4536
309.783	4492
309.837	3768
309.868	3508
309.892	3597
309.946	3489
309.959	3649
310.001	4211
310.049	4456
310.055	4356
310.109	3413
310.139	2677
310.163	2465
310.218	2603
310.229	2540
310.272	2579
310.319	3162
310.326	3200
310.381	2721
310.409	2856
310.435	2885
310.489	2391
310.499	2369
310.543	2686
310.589	2877
310.598	2846
310.652	2687
310.679	2500
310.706	2498
310.760	2801
310.769	2832
310.814	3053
310.859	3197
310.868	3127
310.923	2792
310.948	2638
310.977	2719
311.031	2802
311.038	2833
311.085	2704
311.128	2395
311.139	2353
311.193	2291
311.218	2238
311.247	2591
311.301	3330
311.308	3413
311.356	3098
311.398	2824
311.410	2808
311.464	2656
311.488	2641
311.518	2591
311.572	2396
311.578	2390
311.626	2561
311.668	2597
311.680	2644
311.734	2938
311.758	3025
311.788	2959
311.842	2956
311.847	2949
311.896	3013
311.937	3101
311.950	3079
312.004	2961
312.027	2926
312.058	3123
312.112	3456
312.117	3484
312.165	3093
312.207	2751
312.297	3278
312.386	2799
312.476	2653
312.566	3062
312.656	3242
312.745	2156
312.835	3449
312.925	3345
313.015	3188
313.104	3385
313.194	4053
313.284	4014
313.374	3575
313.463	4373
313.553	4381
313.643	4102
313.732	4590
313.822	4466
313.912	5548
314.001	5538
314.091	5585
314.180	5617
314.270	6175
314.360	6056
314.449	5256
314.539	5448
314.628	5693
314.718	5809
314.808	6539
314.897	7113
314.987	7358
315.076	7530
315.166	7286
315.255	7178
315.345	7530
315.434	6056
315.524	7809
315.613	8771
315.703	14617
315.792	54821
315.881	185324
315.971	46632
316.060	12209
316.150	8289
316.239	6939
316.328	6781
316.418	7831
316.507	7277
316.597	8943
316.686	8237
316.775	7887
316.865	7900
316.954	6655
317.043	6509
317.133	5977
317.222	4972
317.311	5988
317.400	4250
317.490	7945
317.579	8623
317.668	11871
317.757	23752
317.847	95179
317.936	255389
318.025	71898
318.114	81711
318.203	27455
318.293	10026
318.382	12176
318.471	11896
318.560	10498
318.649	8580
318.738	6444
318.828	5369
318.917	4220
319.006	4322
319.095	5065
319.184	6173
319.273	4085
319.362	4153
319.451	4239
319.540	3971
319.629	4257
319.718	4841
319.807	4872
319.896	4916
319.985	6492
320.074	4790
320.163	4476
320.252	4504
320.341	5251
320.430	5163
320.519	5594
320.608	5456
320.697	7092
320.786	7423
320.875	9064
320.964	10092
321.053	10432
321.142	11283
321.230	11843
321.319	13520
321.408	14710
321.497	14216
321.586	12584
321.675	10092
321.764	9939
321.852	10687
321.941	11139
322.030	10928
322.119	12080
322.207	14704
322.296	14943
322.385	17275
322.474	19404
322.562	20395
322.651	14815
322.740	11995
322.829	10678
322.917	10108
323.006	8689
323.095	7529
323.183	6953
323.272	6466
323.361	8207
323.449	8719
323.538	6194
323.626	6862
323.715	5653
323.804	4881
323.892	6589
323.981	4731
324.069	4445
324.158	5521
324.246	5507
324.335	4833
324.424	5278
324.512	4896
324.601	4436
324.689	4103
324.778	4515
324.866	4835
324.954	4790
325.043	4341
325.131	3471
325.220	5351
325.308	5188
325.397	4010
325.485	4430
325.574	3173
325.662	4152
325.750	3377
325.839	3861
325.927	3608
326.015	4216
326.104	3592
326.192	3720
326.280	3898
326.369	2997
326.457	3579
326.545	4485
326.634	2685
326.722	4437
326.810	3893
326.898	4881
326.987	5552
327.075	4760
327.163	4941
327.251	4581
327.340	4931
327.428	7177
327.516	7753
327.604	6366
327.692	4845
327.781	4542
327.869	4028
327.957	3781
328.045	2497
328.133	3722
328.221	2842
328.309	3501
328.397	3669
328.485	4193
328.574	7716
328.662	9740
328.750	5626
328.838	4382
328.926	4201
329.014	3141
329.102	3664
329.190	4031
329.278	3443
329.366	3578
329.454	2830
329.542	2995
329.630	2800
329.718	3233
329.806	3778
329.893	3408
329.981	2929
330.069	3716
330.157	3411
330.245	3338
330.333	3701
330.421	2685
330.509	3217
330.597	4203
330.684	3553
330.772	3290
330.860	3141
330.948	3459
331.036	3110
331.123	3010
331.211	3660
331.299	3448
331.387	3251
331.475	3714
331.562	3848
331.650	3929
331.738	3089
331.825	3582
331.913	2792
332.001	3326
332.089	3199
332.176	3507
332.264	3969
332.352	3366
332.439	3707
332.527	3512
332.614	3096
332.702	3567
332.790	3608
332.877	3796
332.965	5268
333.052	4695
333.140	3937
333.228	4556
333.315	3401
333.403	4162
333.490	4292
333.578	4786
333.665	6815
333.753	6036
333.840	5539
333.928	7779
334.015	8259
334.103	10387
334.190	14297
334.278	16789
334.365	22596
334.452	21959
334.540	15370
334.627	16156
334.715	18962
334.802	27978
334.889	44933
334.977	53235
335.064	33595
335.151	19154
335.239	13784
335.326	11755
335.413	12884
335.501	12527
335.588	12615
335.675	14992
335.762	17851
335.850	24136
335.937	32897
336.024	53732
336.111	76628
336.199	62542
336.286	30501
336.373	19040
336.460	13543
336.547	10922
336.635	9255
336.722	7022
336.809	6977
336.896	6541
336.983	7339
337.070	7879
337.157	8477
337.245	8000
337.332	7442
337.419	5439
337.506	6076
337.593	5552
337.680	5256
337.767	6597
337.854	5449
337.941	4827
338.028	5296
338.115	4777
338.202	5337
338.289	4910
338.376	5951
338.463	4599
338.550	4033
338.637	4373
338.724	4459
338.811	4852
338.898	4555
338.984	3536
339.071	3492
339.158	4179
339.245	4151
339.332	4204
339.419	4160
339.506	4658
339.593	3897
339.679	4687
339.766	4097
339.853	3421
339.940	3649
340.027	3830
340.113	3976
340.200	3218
340.287	2574
340.374	3338
340.460	3683
340.547	3686
340.634	3880
340.720	4927
340.807	3122
340.894	4261
340.980	3750
341.067	3378
341.154	4465
341.240	4314
341.327	3807
341.414	3615
341.500	3355
341.587	4045
341.674	3709
341.760	4070
341.847	3340
341.933	3203
342.020	2983
342.106	3361
342.193	3472
342.279	3666
342.366	3545
342.452	4176
342.539	3204
342.625	3500
342.712	4068
342.798	4273
342.885	3145
342.971	2682
343.058	3054
343.144	2858
343.230	4259
343.317	2952
343.403	3173
343.490	2964
343.576	3210
343.662	2795
343.749	2747
343.835	3996
343.921	3757
344.008	11513
344.094	16693
344.180	5561
344.267	3370
344.353	5464
344.439	4376
344.525	4521
344.612	3780
344.698	3863
344.784	3255
344.870	3852
344.957	2981
345.043	4837
345.129	2857
345.215	4064
345.301	2913
345.387	3441
345.474	3214
345.560	2910
345.646	2673
345.732	3398
345.818	3282
345.904	3816
345.990	3009
346.076	2404
346.162	4071
346.249	4121
346.335	3067
346.421	4789
346.507	4476
346.593	6373
346.679	3380
346.765	6024
346.851	7784
346.937	6270
347.023	4571
347.108	3713
347.194	3622
347.280	3562
347.366	5914
347.452	16423
347.538	18754
347.624	10364
347.710	5486
347.796	4181
347.882	3645
347.967	3776
348.053	3221
348.139	3842
348.225	2871
348.311	3434
348.397	3109
348.482	4332
348.568	4605
348.654	7982
348.740	22191
348.825	20708
348.911	10015
348.997	7563
349.083	7624
349.168	4111
349.254	3877
349.340	3377
349.425	3636
349.511	4130
349.597	3729
349.682	4127
349.768	6623
349.854	4626
349.939	3842
350.025	3399
350.110	3961
350.196	3927
350.282	2907
350.367	4475
350.453	3885
350.538	2913
350.624	3425
350.709	4401
350.795	2821
350.880	3080
350.966	4916
351.051	3966
351.137	3026
351.222	3927
351.308	3837
351.393	4523
351.479	3032
351.564	2725
351.649	3495
351.735	3733
351.820	3089
351.906	3196
351.991	3661
352.076	3955
352.162	5108
352.247	4254
352.332	3610
352.418	2800
352.503	4154
352.588	5196
352.673	4298
352.759	3629
352.844	3467
352.929	3387
353.014	2692
353.100	4027
353.185	3669
353.270	2883
353.355	4087
353.441	3800
353.526	3642
353.611	3525
353.696	2582
353.781	4757
353.866	1982
353.952	3854
354.037	2668
354.122	4587
354.207	4009
354.292	4044
354.377	3812
354.462	3738
354.547	3404
354.632	3753
354.717	4695
354.802	3277
354.887	3935
354.972	3956
355.057	4012
355.142	3795
355.227	3802
355.312	3521
355.397	3205
355.482	4726
355.567	3498
355.652	4471
355.737	4377
355.822	5398
355.907	4879
355.991	4795
356.076	3089
356.161	4826
356.246	4321
356.331	4499
356.416	3522
356.501	10989
356.585	7463
356.670	3033
356.755	6236
356.840	4587
356.924	9411
357.009	18230
357.094	8754
357.179	4035
357.263	4504
357.348	4866
357.433	3849
357.517	4362
357.602	3975
357.687	3636
357.771	4836
357.856	4940
357.941	5251
358.025	10165
358.110	26702
358.195	12000
358.279	4678
358.364	4978
358.448	7114
358.533	8673
358.617	6577
358.702	6632
358.787	4600
358.871	4504
358.956	4623
359.040	4914
359.125	4238
359.209	4802
359.294	4700
359.378	9000
359.462	7633
359.547	5031
359.631	4308
359.716	3329
359.800	4385
359.885	4861
359.969	4050
360.053	4793
360.138	4089
360.222	4390
360.306	3174
360.391	4835
360.475	4943
360.559	4586
360.644	5677
360.728	4509
360.812	8545
360.896	11926
360.981	6236
361.065	4807
361.149	6040
361.233	5002
361.318	4403
361.402	5149
361.486	6564
361.570	6034
361.654	6240
361.739	6745
361.823	12893
361.907	16238
361.991	9918
362.075	11298
362.159	15367
362.243	29668
362.327	66005
362.411	78584
362.495	32368
362.580	18140
362.664	17687
362.748	20859
362.832	34205
362.916	68702
363.000	156988
363.084	179684
363.168	75170
363.252	27321
363.336	17468
363.420	15089
363.503	12569
363.587	11739
363.671	10717
363.755	11480
363.839	13719
363.923	14065
364.007	19131
364.091	26032
364.175	42105
364.258	87595
364.342	182144
364.426	258243
364.510	135001
364.594	49717
364.677	25951
364.761	21969
364.845	16849
364.929	10801
365.013	9666
365.096	8045
365.180	7206
365.264	7101
365.347	9734
365.431	6537
365.515	4888
365.598	5653
365.682	7450
365.766	5106
365.849	6193
365.933	5413
366.017	7152
366.100	4922
366.184	4944
366.267	6726
366.351	6022
366.435	4573
366.518	4838
366.602	6260
366.685	5984
366.769	5736
366.852	5851
366.936	5972
367.019	5547
367.103	4735
367.186	6513
367.270	5535
367.353	4813
367.436	7293
367.520	6519
367.603	6836
367.687	5366
367.770	5217
367.853	6760
367.937	8055
368.020	7771
368.104	4704
368.187	5430
368.270	5265
368.353	4760
368.437	4992
368.520	5501
368.603	5340
368.687	4943
368.770	6280
368.853	4913
368.936	5112
369.020	4901
369.103	4156
369.186	4402
369.269	4014
369.352	3512
369.436	4119
369.519	3937
369.602	2370
369.685	5484
369.768	3669
369.851	4666
369.934	3924
370.018	3789
370.101	4084
370.184	6912
370.267	5352
370.350	5220
370.433	7850
370.516	31957
370.599	96693
370.682	41615
370.765	10359
370.848	7965
370.931	6601
371.014	6114
371.097	3367
371.180	5340
371.263	4755
371.346	2975
371.429	4602
371.511	3801
371.594	3584
371.677	4790
371.760	4900
371.843	5490
371.926	14280
372.009	20488
372.091	9213
372.174	5230
372.257	8464
372.340	5043
372.423	4197
372.505	5607
372.588	3998
372.671	6220
372.754	7274
372.836	5407
372.919	5260
373.002	6439
373.085	4133
373.167	6102
373.250	6700
373.332	9320
373.415	18293
373.498	29194
373.580	36217
373.663	133778
373.746	116200
373.828	20498
373.911	9907
373.993	6584
374.076	8234
374.159	7244
374.241	6451
374.324	8245
374.406	8621
374.489	11651
374.571	19397
374.654	9629
374.736	9738
374.819	13689
374.901	21946
374.983	19536
375.066	8979
375.148	7699
375.231	8509
375.313	9918
375.395	7455
375.478	7933
375.560	7736
375.643	7605
375.725	9143
375.807	16452
375.890	14034
375.972	5787
376.054	7495
376.136	6719
376.219	5897
376.301	8118
376.383	10540
376.465	7630
376.548	6281
376.630	5830
376.712	9225
376.794	6620
376.877	4792
376.959	4511
377.041	5287
377.123	4251
377.205	5182
377.287	3996
377.369	5360
377.452	4058
377.534	5028
377.616	5168
377.698	4927
377.780	4250
377.862	5087
377.944	5503
378.026	4294
378.108	4533
378.190	4581
378.272	5629
378.354	5255
378.436	4018
378.518	3579
378.600	4861
378.682	5152
378.764	5718
378.846	6213
378.928	4201
379.010	4369
379.091	5235
379.173	4811
379.255	3638
379.337	4608
379.419	5138
379.501	6795
379.583	4614
379.664	5089
379.746	3784
379.828	7060
379.910	5914
379.991	6596
380.073	4443
380.155	4542
380.237	4539
380.318	3762
380.400	4852
380.482	5058
380.564	4427
380.645	4640
380.727	4063
380.809	5409
380.890	4488
380.972	3762
381.053	4823
381.135	3943
381.217	5213
381.298	6505
381.380	4398
381.461	5877
381.543	10107
381.624	10264
381.706	4513
381.787	5026
381.869	6297
381.951	9444
382.032	18001
382.113	14163
382.195	4214
382.276	6783
382.358	6099
382.439	9490
382.521	12365
382.602	16436
382.684	9668
382.765	10957
382.846	12562
382.928	18149
383.009	12173
383.090	12268
383.172	28641
383.253	35294
383.334	15178
383.416	13770
383.497	10248
383.578	7547
383.659	11231
383.741	29775
383.822	57611
383.903	27682
383.984	11458
384.066	15236
384.147	10700
384.228	10176
384.309	10264
384.390	11221
384.471	9804
384.553	9892
384.634	9000
384.715	8035
384.796	6988
384.877	7812
384.958	10102
385.039	9371
385.120	7744
385.201	7947
385.282	8724
385.363	9241
385.444	9397
385.525	10933
385.606	12468
385.687	12471
385.768	10069
385.849	10527
385.930	18820
386.011	23146
386.092	12262
386.173	11791
386.254	10360
386.335	10834
386.416	9313
386.496	10203
386.577	10838
386.658	9496
386.739	9341
386.820	10707
386.901	10986
386.981	13499
387.062	14595
387.143	15463
387.224	15778
387.304	17949
387.385	17113
387.466	15220
387.547	17590
387.627	17165
387.708	18265
387.789	20513
387.869	17969
387.950	16613
388.031	13468
388.111	11768
388.192	14588
388.273	15765
388.353	13792
388.434	9763
388.514	9478
388.595	13629
388.676	12328
388.756	10248
388.837	9696
388.917	8121
388.998	6501
389.078	8872
389.159	7796
389.239	6292
389.320	9411
389.400	6016
389.480	8671
389.561	8399
389.641	8480
389.722	8514
389.802	6725
389.883	9099
389.963	11443
390.043	8339
390.124	6416
390.204	8469
390.284	9377
390.365	8223
390.445	10441
390.525	12616
390.605	12281
390.686	8259
390.766	9631
390.846	9262
390.927	7287
391.007	8909
391.087	11355
391.167	8962
391.247	8975
391.328	11460
391.408	10334
391.488	11835
391.568	10348
391.648	11369
391.728	13917
391.808	14352
391.888	12999
391.969	15642
392.049	16562
392.129	18241
392.209	18848
392.289	22779
392.369	22876
392.449	24150
392.529	25827
392.609	31481
392.689	36274
392.769	42810
392.849	54307
392.929	70317
393.009	97456
393.089	146809
393.169	261690
393.248	509818
393.328	808514
393.408	751988
393.488	441192
393.568	227076
393.648	129220
393.728	85147
393.807	58498
393.887	46570
393.967	37264
394.047	31571
394.127	26041
394.206	25056
394.286	29036
394.366	57519
394.446	54806
394.525	21761
394.605	16846
394.685	17165
394.764	19128
394.844	29530
394.924	33663
395.003	19834
395.083	14579
395.163	13631
395.242	12942
395.322	13916
395.402	12233
395.481	15263
395.561	17628
395.640	45806
395.720	74743
395.799	40469
395.879	20273
395.958	19282
396.038	31861
396.117	78242
396.197	77962
396.276	36463
396.356	33843
396.435	44827
396.515	62849
396.594	98454
396.673	202518
396.753	461510
396.832	725225
396.912	544270
396.991	237646
397.070	110581
397.150	66254
397.229	54703
397.308	80524
397.388	113791
397.467	59828
397.546	27597
397.625	18663
397.705	18623
397.784	15864
397.863	13721
397.942	12918
398.022	11932
398.101	10679
398.180	12095
398.259	10090
398.338	10891
398.417	8915
398.497	8303
398.576	8413
398.655	7556
398.734	8550
398.813	6998
398.892	6958
398.971	8673
399.050	6721
399.129	5767
399.208	6251
399.287	6913
399.366	5638
399.445	6261
399.524	5783
399.603	4760
399.682	6553
399.761	6018
399.840	7188
399.919	7099
399.998	6412
400.077	5306
400.156	3894
400.235	7095
400.313	4134
400.392	4693
400.471	5261
400.550	6335
400.629	4146
400.708	5043
400.786	3309
400.865	4043
400.944	3596
401.023	5416
401.102	3957
401.180	4036
401.259	4006
401.338	4146
401.416	4430
401.495	3909
401.574	4020
401.652	2894
401.731	4612
401.810	2766
401.888	3959
401.967	3029
402.046	3800
402.124	4933
402.203	2220
402.281	4647
402.360	3257
402.438	4372
402.517	2408
402.596	4011
402.674	3247
402.753	2921
402.831	4546
402.910	4750
402.988	3904
403.066	6227
403.145	6542
403.223	5663
403.302	5774
403.380	6450
403.459	5919
403.537	5628
403.615	4871
403.694	3751
403.772	5388
403.850	5260
403.929	3317
404.007	3719
404.085	5314
404.164	3968
404.242	4299
404.320	5668
404.398	6039
404.477	6105
404.555	11767
404.633	9293
404.711	5689
404.789	4345
404.868	2724
404.946	3223
405.024	3657
405.102	2784
405.180	2836
405.258	2644
405.336	4477
405.415	2102
405.493	3968
405.571	3735
405.649	3266
405.727	2919
405.805	5030
405.883	4315
405.961	4632
406.039	2862
406.117	1975
406.195	3538
406.273	4149
406.351	7894
406.429	5588
406.507	1938
406.585	2887
406.663	3496
406.740	3592
406.818	2744
406.896	2503
406.974	4065
407.052	2937
407.130	5810
407.208	5978
407.285	4130
407.363	2548
407.441	2901
407.519	2813
407.596	5987
407.674	19179
407.752	58156
407.830	39564
407.907	7912
407.985	3685
408.063	4049
408.141	3456
408.218	3731
408.296	1717
408.373	3704
408.451	4796
408.529	4175
408.606	4489
408.684	5007
408.762	4919
408.839	6061
408.917	5393
408.994	5823
409.072	6368
409.149	9685
409.227	15805
409.304	20407
409.382	23476
409.459	27217
409.537	33227
409.614	30419
409.692	25831
409.769	26379
409.846	35290
409.924	40210
410.001	30154
410.079	22878
410.156	17095
410.233	13526
410.311	10255
410.388	10205
410.465	9624
410.543	8366
410.620	8526
410.697	8328
410.775	8017
410.852	6564
410.929	9306
411.006	8515
411.083	7007
411.161	7110
411.238	6254
411.315	5611
411.392	6010
411.469	6066
411.547	4841
411.624	3847
411.701	4835
411.778	4444
411.855	4259
411.932	3606
412.009	3771
412.086	4662
412.163	3828
412.240	3437
412.317	3851
412.394	3768
412.471	3791
412.548	3428
412.625	3746
412.702	3830
412.779	3339
412.856	3712
412.933	2291
413.010	3776
413.087	3380
413.164	2792
413.241	4502
413.318	2183
413.395	3793
413.471	3159
413.548	2878
413.625	3751
413.702	1703
413.779	2955
413.855	3322
413.932	1942
414.009	1469
414.086	2146
414.162	2862
414.239	3215
414.316	3390
414.393	5111
414.469	2721
414.546	1888
414.623	2417
414.699	3071
414.776	1744
414.853	2087
414.929	2264
415.006	2263
415.082	2255
415.159	2397
415.236	2637
415.312	2958
415.389	3128
415.465	2019
415.542	2383
415.618	1371
415.695	3076
415.771	2368
415.848	1712
415.924	3190
416.000	2348
416.077	3845
416.153	1504
416.230	1894
416.306	1762
416.383	1946
416.459	3012
416.535	1988
416.612	1801
416.688	2711
416.764	1778
416.841	1781
416.917	2412
416.993	2515
417.069	3131
417.146	1698
417.222	1701
417.298	2679
417.374	1881
417.451	2095
417.527	1649
417.603	1724
417.679	2326
417.755	2539
417.831	1886
417.908	2714
417.984	2105
418.060	1998
418.136	2938
418.212	2808
418.288	1873
418.364	1851
418.440	1888
418.516	3256
418.592	1927
418.668	3187
418.744	2796
418.820	3148
418.896	3410
418.972	2544
419.048	3113
419.124	3550
419.200	2110
419.276	3113
419.352	2441
419.428	3670
419.504	3466
419.579	3130
419.655	3410
419.731	4866
419.807	4304
419.883	5075
419.959	4347
420.034	4709
420.110	4946
420.186	5207
420.262	5774
420.337	5499
420.413	4996
420.489	5977
420.565	6703
420.640	6384
420.716	8041
420.792	6318
420.867	9062
420.943	7822
421.019	8783
421.094	8662
421.170	9423
421.245	9551
421.321	11740
421.397	13764
421.472	26810
421.548	47153
421.623	33015
421.699	19817
421.774	23277
421.850	24364
421.925	29403
422.001	34725
422.076	42791
422.152	53475
422.227	69616
422.302	92178
422.378	130420
422.453	187533
422.529	255544
422.604	271591
422.679	234619
422.755	262566
422.830	242509
422.905	177174
422.981	128238
423.056	93939
423.131	73461
423.207	56163
423.282	44997
423.357	37493
423.432	31320
423.508	28273
423.583	24218
423.658	21742
423.733	19575
423.808	17726
423.883	17659
423.959	19127
424.034	21273
424.109	20167
424.184	15196
424.259	11535
424.334	10454
424.409	9660
424.484	7790
424.559	8395
424.634	6588
424.709	6582
424.784	6411
424.859	6463
424.934	6244
425.009	6502
425.084	6489
425.159	5634
425.234	5693
425.309	4054
425.384	4922
425.459	4528
425.534	4931
425.609	3630
425.683	4317
425.758	4326
425.833	3945
425.908	4742
425.983	3261
426.058	4160
426.132	3795
426.207	3719
426.282	3788
426.357	3350
426.431	3812
426.506	3703
426.581	3236
426.655	3403
426.730	3242
426.805	2346
426.879	3043
426.954	2691
427.029	3502
427.103	4261
427.178	6247
427.253	4240
427.327	2831
427.402	3313
427.476	3213
427.551	3039
427.625	3151
427.700	3527
427.774	2941
427.849	3322
427.923	2522
427.998	4521
428.072	5519
428.147	14083
428.221	55654
428.296	128079
428.370	69381
428.444	13642
428.519	6050
428.593	4183
428.667	5332
428.742	7342
428.816	24032
428.890	87822
428.965	111786
429.039	31284
429.113	7493
429.188	4000
429.262	3642
429.336	4406
429.410	3996
429.485	4191
429.559	4275
429.633	4788
429.707	7341
429.781	21835
429.855	84069
429.930	99594
430.004	30796
430.078	23132
430.152	70131
430.226	178976
430.300	156080
430.374	44016
430.448	15431
430.522	11340
430.596	12344
430.670	35210
430.744	106065
430.818	98636
430.892	22542
430.966	6251
431.040	4132
431.114	2673
431.188	2417
431.262	2758
431.336	1678
431.410	2556
431.484	2399
431.557	3967
431.631	4427
431.705	10551
431.779	47361
431.853	126768
431.927	78778
432.000	15815
432.074	4961
432.148	2752
432.222	3074
432.295	2169
432.369	1621
432.443	1416
432.516	3154
432.590	4868
432.664	2272
432.737	1345
432.811	906
432.885	464
432.958	1309
433.032	591
433.106	1321
433.179	1417
433.253	1753
433.326	1042
433.400	1122
433.473	1007
433.547	1155
433.620	1450
433.694	1103
433.767	1384
433.841	1081
433.914	2346
433.988	1425
434.061	1968
434.134	1775
434.208	1545
434.281	770
434.355	809
434.428	1716
434.501	1412
434.575	1142
434.648	1807
434.721	1667
434.795	1546
434.868	1212
434.941	1217
435.014	1703
435.088	2368
435.161	3541
435.234	3034
435.307	4396
435.381	6453
435.454	10363
435.527	16149
435.600	18309
435.673	16553
435.746	12069
435.819	9478
435.892	7738
435.966	5716
436.039	4389
436.112	4248
436.185	3493
436.258	3495
436.331	1303
436.404	2258
436.477	2047
436.550	1730
436.623	1743
436.696	1272
436.769	1682
436.842	2285
436.915	1792
436.987	1164
437.060	1209
437.133	1727
437.206	1040
437.279	2130
437.352	806
437.425	745
437.498	1075
437.570	1489
437.643	411
437.716	1410
437.789	867
437.861	852
437.934	1435
438.007	59
438.080	502
438.152	1211
438.225	1501
438.298	4245
438.370	8450
438.443	3752
438.516	784
438.588	1190
438.661	954
438.734	961
438.806	956
438.879	1107
438.951	1691
439.024	1163
439.096	293
439.169	423
439.241	1024
439.314	611
439.386	938
439.459	821
439.531	1005
439.604	1314
439.676	1638
439.749	1638
439.821	546
439.893	1147
439.966	1299
440.038	1269
440.110	1389
440.183	410
440.255	910
440.327	1663
440.400	2036
440.472	5135
440.544	3762
440.617	1205
440.689	2508
440.761	1396
440.833	2169
440.905	2056
440.978	1233
441.050	777
441.122	1572
441.194	1304
441.266	1709
441.338	1377
441.411	1940
441.483	2717
441.555	2729
441.627	2191
441.699	2854
441.771	2275
441.843	2227
441.915	3070
441.987	3240
442.059	3681
442.131	4337
442.203	5889
442.275	8003
442.347	13436
442.419	35638
442.491	127420
442.563	207573
442.635	94272
442.706	26426
442.778	12825
442.850	9096
442.922	7973
442.994	7266
443.066	8778
443.137	11208
443.209	15649
443.281	24421
443.353	53596
443.425	152752
443.496	316214
443.568	301751
443.640	146082
443.711	47249
443.783	21267
443.855	13752
443.926	9777
443.998	7621
444.070	7413
444.141	5209
444.213	5214
444.285	4242
444.356	4280
444.428	4464
444.499	4723
444.571	5439
444.642	5372
444.714	5641
444.785	5387
444.857	7307
444.928	8032
445.000	9787
445.071	12603
445.143	16875
445.214	25596
445.285	44221
445.357	103166
445.428	253938
445.500	354820
445.571	306290
445.642	213235
445.714	89714
445.785	35863
445.856	18389
445.928	12261
445.999	8902
446.070	7141
446.141	5983
446.213	5152
446.284	4302
446.355	3646
446.426	2891
446.497	3215
446.569	2972
446.640	2126
446.711	2071
446.782	2647
446.853	2632
446.924	1819
446.995	1774
447.066	1593
447.138	1668
447.209	2075
447.280	1092
447.351	1603
447.422	604
447.493	1255
447.564	973
447.635	478
447.706	982
447.777	478
447.847	983
447.918	383
447.989	497
448.060	1179
448.131	614
448.202	973
448.273	244
448.344	711
448.414	446
448.485	534
448.556	1385
448.627	1517
448.698	1401
448.768	709
448.839	459
448.910	459
448.981	1019
449.051	37
449.122	912
449.193	854
449.263	515
449.334	613
449.405	511
449.475	971
449.546	991
449.616	1010
449.687	1523
449.758	1314
449.828	327
449.899	809
449.969	129
450.040	1074
450.110	882
450.181	1545
450.251	23
450.322	52
450.392	764
450.463	1114
450.533	706
450.604	1176
450.674	653
450.744	2245
450.815	2134
450.885	3069
450.955	2705
451.026	2286
451.096	1760
451.166	2301
451.237	2744
451.307	4459
451.377	3317
451.447	2046
451.518	1901
451.588	1247
451.658	765
451.728	1466
451.799	1409
451.869	1454
451.939	749
452.009	719
452.079	1094
452.149	1800
452.219	1823
452.289	2139
452.360	2020
452.430	3066
452.500	4560
452.570	8872
452.640	20435
452.710	43230
452.780	48592
452.850	30545
452.920	16120
452.990	10080
453.060	6616
453.129	4340
453.199	3273
453.269	3555
453.339	3436
453.409	3335
453.479	2717
453.549	3298
453.619	2606
453.688	1459
453.758	1034
453.828	1181
453.898	528
453.968	95
454.037	857
454.087	558
454.107	401
454.168	537
454.177	514
454.247	1256
454.249	1272
454.316	849
454.330	981
454.386	1322
454.411	1344
454.456	1256
454.492	1351
454.525	1408
454.574	1632
454.595	1674
454.655	1032
454.665	887
454.734	1629
454.736	1671
454.804	1235
454.817	1395
454.873	1902
454.898	1854
454.943	1673
454.979	1581
455.013	1493
455.060	1492
455.082	1398
455.141	1149
455.152	1072
455.221	2440
455.222	2488
455.291	2718
455.303	2784
455.360	2775
455.384	3616
455.430	4566
455.465	3993
455.499	3674
455.546	2621
455.569	2003
455.627	1756
455.638	1689
455.707	1807
455.708	1849
455.777	2026
455.789	2137
455.846	2557
455.869	2502
455.916	2159
455.950	2398
455.985	2628
456.031	2515
456.054	2437
456.112	2573
456.124	2536
456.193	2780
456.193	2738
456.262	3251
456.274	3407
456.332	4033
456.355	3874
456.401	3519
456.436	3832
456.470	3898
456.516	3755
456.540	3672
456.597	3494
456.609	3440
456.678	4791
456.678	4749
456.747	4054
456.759	3981
456.817	3933
456.840	4109
456.886	4057
456.920	4690
456.955	5388
457.001	5549
457.024	5450
457.082	5863
457.093	5949
457.162	6348
457.163	6401
457.232	6585
457.243	6748
457.301	7727
457.324	7932
457.370	8147
457.405	9263
457.439	10722
457.485	11910
457.508	12802
457.566	16406
457.577	18260
457.646	30640
457.647	30945
457.715	66415
457.727	74157
457.784	119344
457.808	146971
457.853	171202
457.889	190103
457.922	184618
457.969	144690
457.991	151308
458.050	182046
458.060	188718
458.129	280850
458.130	283946
458.198	242181
458.211	221565
458.267	143485
458.292	107503
458.336	88338
458.372	86308
458.405	112107
458.453	160511
458.474	190381
458.533	296938
458.543	301386
458.611	380588
458.614	382524
458.680	238931
458.694	197217
458.749	112399
458.775	81470
458.818	53930
458.855	41068
458.887	34334
458.936	27650
458.955	25328
459.016	20667
459.024	20260
459.093	17761
459.097	17650
459.162	15078
459.177	14826
459.230	14422
459.257	14109
459.299	13404
459.338	12864
459.368	12644
459.418	12225
459.437	11907
459.499	11037
459.505	10972
459.574	11475
459.579	11462
459.643	10747
459.659	10742
459.711	10872
459.740	10986
459.780	10949
459.820	11094
459.849	11384
459.900	11443
459.917	11150
459.981	10626
459.986	10622
460.054	10220
460.061	10238
460.123	10148
460.141	10183
460.191	10375
460.222	10416
460.260	10594
460.302	10994
460.328	11263
460.382	11860
460.397	12356
460.462	14666
460.465	15358
460.534	31685
460.543	33842
460.602	66767
460.623	79548
460.671	117796
460.703	149454
460.739	118057
460.783	70212
460.808	59493
460.864	21095
460.876	17989
460.944	11862
460.945	11795
461.013	10718
461.024	10613
461.081	10344
461.104	10492
461.150	10719
461.184	10647
461.218	10844
461.264	11115
461.286	11107
461.345	11140
461.355	10954
461.423	10202
461.425	10162
461.491	10281
461.505	10510
461.559	10508
461.585	10362
461.628	11107
461.665	11961
461.696	11617
461.745	10652
461.764	10537
461.825	10298
461.832	10355
461.901	10930
461.905	10991
461.969	10520
461.985	10308
462.037	11273
462.065	11788
462.105	10773
462.145	10017
462.173	10344
462.225	10501
462.241	10710
462.305	11835
462.310	11808
462.378	11421
462.385	11347
462.446	12015
462.465	12260
462.514	11586
462.545	11261
462.582	11026
462.625	10543
462.650	10393
462.705	10092
462.718	10242
462.785	11159
462.786	11159
462.854	10869
462.865	10761
462.922	11312
462.945	11645
462.990	11437
463.025	11094
463.058	11299
463.104	11733
463.126	11551
463.184	10943
463.194	10986
463.262	11269
463.264	11270
463.330	11082
463.344	11061
463.398	11755
463.424	12003
463.466	11210
463.504	10431
463.533	10906
463.583	11702
463.601	11495
463.663	10760
463.669	10828
463.737	11593
463.743	11629
463.805	11472
463.823	11518
463.873	11937
463.903	12113
463.940	12205
463.982	12229
464.008	12027
464.062	11632
464.076	11673
464.142	11365
464.144	11378
464.211	11589
464.221	11641
464.279	11872
464.301	11873
464.347	11989
464.381	12105
464.414	11662
464.461	10949
464.482	11192
464.540	11855
464.550	11868
464.617	11734
464.620	11715
464.685	11854
464.699	11875
464.753	12083
464.779	12159
464.820	12302
464.859	12394
464.888	12282
464.938	11916
464.956	12236
465.018	13368
465.023	13385
465.091	13516
465.098	13499
465.158	13158
465.177	13004
465.226	12677
465.257	12347
465.293	12561
465.336	12987
465.361	13204
465.416	13513
465.428	13442
465.495	12933
465.496	12959
465.563	13499
465.575	13561
465.631	13701
465.654	13753
465.698	13094
465.734	12487
465.765	12739
465.813	12953
465.833	12979
465.893	13116
465.900	13126
465.968	13009
465.972	12971
466.035	13854
466.052	14066
466.102	13333
466.131	12878
466.170	13316
466.210	13714
466.237	13826
466.290	13997
466.304	13902
466.369	13245
466.372	13285
466.439	13777
466.449	13815
466.506	14118
466.528	14195
466.573	14367
466.607	14442
466.641	14932
466.687	15577
466.708	16088
466.766	17310
466.775	17095
466.842	15285
466.845	15168
466.909	14609
466.925	14430
466.977	14965
467.004	15209
467.044	15368
467.083	15465
467.111	15780
467.163	16282
467.178	16653
467.242	18014
467.245	18047
467.312	17931
467.321	17878
467.379	18763
467.400	19025
467.446	19121
467.480	19119
467.559	19946
467.638	20478
467.717	21331
467.796	22942
467.875	24020
467.955	26587
468.034	30869
468.113	35514
468.192	43973
468.271	55486
468.350	72764
468.429	88094
468.508	85219
468.588	56064
468.667	38355
468.746	31130
468.825	27652
468.904	23319
468.983	22127
469.062	21867
469.141	21069
469.220	18622
469.299	19252
469.378	17805
469.456	19094
469.535	18139
469.614	17984
469.693	16151
469.772	18755
469.851	17611
469.930	17502
470.009	17404
470.088	17924
470.166	18690
470.245	19077
470.324	19145
470.403	19677
470.482	17376
470.560	17838
470.639	17899
470.718	18037
470.797	17150
470.875	15800
470.954	16042
471.033	16761
471.111	15747
471.190	15940
471.269	15152
471.347	15611
471.426	15978
471.505	17028
471.583	16108
471.662	15961
471.740	15572
471.819	15865
471.898	15601
471.976	16825
472.055	16150
472.133	18339
472.212	22244
472.290	16757
472.369	15027
472.447	15733
472.526	16045
472.604	16139
472.683	15572
472.761	15805
472.839	16516
472.918	18062
472.996	16566
473.075	16878
473.153	16561
473.231	17774
473.310	18278
473.388	17491
473.466	17585
473.545	17687
473.623	17891
473.701	18829
473.780	18496
473.858	18082
473.936	19248
474.014	19681
474.093	21259
474.171	23997
474.249	19579
474.327	17788
474.405	17838
474.484	18766
474.562	18162
474.640	17762
474.718	17010
474.796	17280
474.874	17582
474.952	16892
475.030	16061
475.108	16832
475.187	15982
475.265	17693
475.343	17387
475.421	18096
475.499	16372
475.577	16323
475.655	16428
475.733	15853
475.811	16478
475.889	17283
475.966	16569
476.044	15799
476.122	15614
476.200	15451
476.278	14175
476.356	14924
476.434	14941
476.512	16630
476.590	17411
476.667	17130
476.745	14800
476.823	15776
476.901	15611
476.979	15556
477.056	15172
477.134	14896
477.212	14730
477.290	15412
477.367	15097
477.445	14947
477.523	15048
477.601	14821
477.678	15483
477.756	15633
477.834	15564
477.911	15020
477.989	15029
478.066	14844
478.144	15931
478.222	17053
478.299	17818
478.377	19675
478.454	17787
478.532	16123
478.609	15668
478.687	15868
478.764	15323
478.842	15429
478.919	15611
478.997	15240
479.074	14576
479.152	15003
479.229	15995
479.307	15646
479.384	14865
479.461	16295
479.539	15450
479.616	16817
479.694	15287
479.771	16842
479.848	16076
479.926	15736
480.003	17563
480.080	17644
480.157	17015
480.235	16905
480.312	17404
480.389	18067
480.467	17883
480.544	19689
480.621	21064
480.698	21579
480.775	20458
480.853	19662
480.930	18314
481.007	21246
481.084	28719
481.161	37556
481.238	22161
481.315	19146
481.392	19145
481.470	21374
481.547	21166
481.624	21129
481.701	20846
481.778	21804
481.855	22580
481.932	24788
482.009	26567
482.086	29132
482.163	32075
482.240	35411
482.317	34434
482.393	30804
482.470	30078
482.547	28458
482.624	27474
482.701	27092
482.778	27442
482.855	27092
482.932	28174
483.009	30375
483.085	37416
483.162	46101
483.239	42905
483.316	38028
483.393	36421
483.469	32862
483.546	29384
483.623	27502
483.699	25412
483.776	24400
483.853	22514
483.930	23082
484.006	23827
484.083	26557
484.160	24284
484.236	27198
484.313	27403
484.389	29452
484.466	35557
484.543	42514
484.619	48133
484.696	47861
484.772	33095
484.849	26975
484.925	24577
485.002	23940
485.078	21499
485.155	20147
485.231	19567
485.308	19421
485.384	19909
485.461	20734
485.537	19115
485.614	19140
485.690	17578
485.766	17881
485.843	17203
485.919	17549
485.995	18665
486.072	18786
486.148	17634
486.224	18581
486.301	18094
486.377	18862
486.453	18132
486.530	19810
486.606	20321
486.682	21411
486.758	22857
486.835	26232
486.911	25282
486.987	29864
487.063	33589
487.139	42457
487.215	52353
487.292	54279
487.368	61023
487.444	76620
487.520	112214
487.596	193063
487.672	450793
487.748	1013393
487.824	1198703
487.900	544816
487.976	202163
488.052	108964
488.128	72476
488.204	52782
488.280	43396
488.356	37539
488.432	33230
488.508	30763
488.584	26356
488.660	25339
488.736	24322
488.812	20965
488.888	20830
488.964	21616
489.039	22215
489.115	24745
489.191	22426
489.267	20096
489.343	18396
489.418	18827
489.494	18418
489.570	17377
489.646	19133
489.722	18486
489.797	19061
489.873	21103
489.949	21263
490.024	19013
490.100	18335
490.176	19053
490.251	17240
490.327	18961
490.403	17514
490.478	18029
490.554	17594
490.629	18292
490.705	17053
490.781	18137
490.856	17229
490.932	17909
491.007	16482
491.083	16215
491.158	15071
491.234	16241
491.309	16109
491.385	15032
491.460	14281
491.536	16364
491.611	13966
491.686	14462
491.762	14303
491.837	15334
491.913	17276
491.988	18222
492.063	17008
492.139	15885
492.214	13242
492.289	14110
492.365	13097
492.440	14469
492.515	12852
492.590	12934
492.666	12490
492.741	14288
492.816	13625
492.891	13355
492.967	13597
493.042	13477
493.117	12473
493.192	13723
493.267	15771
493.342	21295
493.418	20450
493.493	14304
493.568	12781
493.643	13679
493.718	12885
493.793	12995
493.868	12075
493.943	13092
494.018	12873
494.093	13089
494.168	12521
494.243	12645
494.318	12680
494.393	12856
494.468	12136
494.543	13093
494.618	11838
494.693	13270
494.768	11615
494.842	12134
494.917	12379
494.992	13400
495.067	11804
495.142	12593
495.217	12513
495.292	12541
495.366	11978
495.441	11414
495.516	13071
495.591	13545
495.665	18103
495.740	22084
495.815	13728
495.890	13262
495.964	10902
496.039	15679
496.114	19050
496.188	30611
496.263	18903
496.338	13090
496.412	12045
496.487	12274
496.561	12614
496.636	12939
496.710	12505
496.785	14922
496.860	12026
496.934	11841
497.009	12368
497.083	10995
497.158	11815
497.232	12335
497.307	11514
497.381	12005
497.455	12598
497.530	12395
497.604	11737
497.679	12761
497.753	13047
497.827	12379
497.902	11443
497.976	13538
498.050	16985
498.125	27985
498.199	20611
498.273	12870
498.348	12190
498.422	11982
498.496	12618
498.570	13400
498.645	11857
498.719	11823
498.793	12515
498.867	13525
498.941	13268
499.016	19364
499.090	26502
499.164	15023
499.238	13319
499.312	14037
499.386	13753
499.460	14450
499.534	12899
499.609	14489
499.683	13791
499.757	14540
499.831	16306
499.905	22709
499.979	16952
500.053	13939
500.127	13021
500.201	13748
500.275	13730
500.349	14061
500.422	13342
500.496	14888
500.570	15942
500.644	20899
500.718	20254
500.792	15717
500.866	15456
500.940	14563
501.013	14921
501.087	15571
501.161	16983
501.235	15720
501.309	20030
501.382	22791
501.456	19720
501.530	17124
501.603	15033
501.677	14849
501.751	13531
501.825	17056
501.898	14604
501.972	16890
502.046	14261
502.119	13782
502.193	14728
502.266	15471
502.340	14129
502.413	15675
502.487	16584
502.561	15023
502.634	14759
502.708	16737
502.781	15113
502.855	16555
502.928	14472
503.002	16136
503.075	15905
503.149	16486
503.222	17131
503.295	17977
503.369	20644
503.442	23087
503.516	28862
503.589	33513
503.662	37242
503.736	43748
503.809	59295
503.882	79292
503.956	132988
504.029	282921
504.102	621090
504.175	705464
504.249	312027
504.322	142325
504.395	83891
504.468	56360
504.542	39438
504.615	31287
504.688	27875
504.761	22364
504.834	22146
504.907	20274
504.980	18287
505.053	16996
505.127	14198
505.200	17607
505.273	13552
505.346	12804
505.419	12913
505.492	15382
505.565	12945
505.638	13830
505.711	10893
505.784	10854
505.857	10615
505.930	12551
506.003	9446
506.076	12607
506.149	10724
506.221	9566
506.294	12904
506.367	10942
506.440	13786
506.513	11489
506.586	10792
506.659	9602
506.731	9543
506.804	9812
506.877	8989
506.950	10998
507.022	10771
507.095	9084
507.168	10876
507.241	10939
507.313	8902
507.386	8445
507.459	10338
507.531	9020
507.604	9215
507.677	10232
507.749	8002
507.822	10896
507.894	9260
507.967	9966
508.040	8697
508.112	9797
508.185	9287
508.257	8216
508.330	11067
508.402	8944
508.475	7862
508.547	9943
508.620	8804
508.692	9805
508.765	9479
508.837	9300
508.909	9535
508.982	9287
509.054	9414
509.127	9544
509.199	8595
509.271	8486
509.344	8393
509.416	9837
509.488	8587
509.560	9220
509.633	8930
509.705	9645
509.777	8144
509.849	10515
509.922	7907
509.994	8999
510.066	9849
510.138	7950
510.210	10875
510.283	9411
510.355	9237
510.427	9714
510.499	8733
510.571	9268
510.643	7903
510.715	10609
510.787	7777
510.859	9742
510.931	8288
511.003	9002
511.076	8998
511.148	9205
511.219	8464
511.291	9258
511.363	9571
511.435	9021
511.507	7875
511.579	10299
511.651	10087
511.723	8999
511.795	9133
511.867	9160
511.939	9858
512.010	9375
512.082	9547
512.154	8711
512.226	9204
512.298	10312
512.369	8516
512.441	10187
512.513	10084
512.585	8297
512.656	9759
512.728	8403
512.800	9047
512.871	10028
512.943	9113
513.015	8321
513.086	8872
513.158	10508
513.230	8855
513.301	8304
513.373	10003
513.444	9795
513.516	9152
513.588	9336
513.659	9664
513.731	8673
513.802	8126
513.874	11443
513.945	10008
514.016	8793
514.088	9831
514.159	7889
514.231	10339
514.302	9753
514.374	9505
514.445	8047
514.516	11805
514.588	9160
514.659	8627
514.730	9379
514.802	10003
514.873	8174
514.944	11452
515.016	9458
515.087	9319
515.158	9487
515.229	9830
515.301	8449
515.372	10499
515.443	8943
515.514	10002
515.585	10019
515.656	11207
515.728	10407
515.799	8449
515.870	10898
515.941	10029
516.012	9110
516.083	11583
516.154	10099
516.225	10907
516.296	12598
516.367	10306
516.438	11191
516.509	11842
516.580	13989
516.651	28448
516.722	50827
516.793	20561
516.864	13602
516.935	13753
517.006	15395
517.077	16436
517.148	30428
517.219	89673
517.289	83279
517.360	19553
517.431	15923
517.502	12909
517.573	15551
517.643	14884
517.714	15350
517.785	17662
517.856	18389
517.926	21744
517.997	25330
518.068	26361
518.138	33903
518.209	45116
518.280	104927
518.350	206047
518.421	87290
518.492	77203
518.562	101660
518.633	148289
518.703	258377
518.774	550175
518.845	961796
518.915	689078
518.986	256352
519.056	127563
519.127	82312
519.197	60756
519.268	46219
519.338	36770
519.408	29625
519.479	25101
519.549	21982
519.620	20977
519.690	19109
519.760	16657
519.831	15960
519.901	14695
519.971	15026
520.042	13139
520.112	12781
520.182	12736
520.253	14152
520.323	11952
520.393	11666
520.463	13754
520.534	11137
520.604	14323
520.674	12726
520.744	11473
520.814	11938
520.885	12221
520.955	12563
521.025	13963
521.095	12192
521.165	12711
521.235	11378
521.305	9912
521.375	10889
521.445	11293
521.515	10735
521.585	11876
521.655	10536
521.725	11305
521.795	11935
521.865	9294
521.935	13134
522.005	9969
522.075	10957
522.145	11984
522.215	12294
522.285	11663
522.355	11849
522.424	12990
522.494	12934
522.564	12550
522.634	11913
522.704	16085
522.774	11557
522.843	12391
522.913	13216
522.983	11688
523.053	11663
523.122	12550
523.192	11955
523.262	13289
523.331	11765
523.401	12285
523.471	12541
523.540	12747
523.610	11961
523.680	13617
523.749	14783
523.819	16861
523.888	16035
523.958	13671
524.027	14259
524.097	13076
524.166	13857
524.236	12686
524.305	15989
524.375	13085
524.444	12857
524.514	16174
524.583	13652
524.653	13325
524.722	15867
524.791	13355
524.861	17919
524.930	15653
524.999	16038
525.069	18341
525.138	18136
525.207	18893
525.277	22466
525.346	22849
525.415	26904
525.484	30723
525.554	36006
525.623	45114
525.692	55240
525.761	62270
525.830	78819
525.900	106275
525.969	193165
526.038	359038
526.107	799007
526.176	1301212
526.245	877947
526.314	429374
526.383	934172
526.452	959344
526.522	1245413
526.591	850338
526.660	223767
526.729	154702
526.797	176991
526.867	304436
526.935	814535
527.004	1419707
527.073	819425
527.142	203369
527.211	100415
527.280	67625
527.349	49791
527.418	37538
527.487	35589
527.555	26328
527.624	24266
527.693	22713
527.762	24001
527.831	20500
527.899	20975
527.968	18139
528.037	16273
528.106	17382
528.174	17708
528.243	16630
528.312	16014
528.380	14954
528.449	14715
528.518	15822
528.586	14199
528.655	15489
528.723	14457
528.792	14033
528.861	12866
528.929	12276
528.998	14604
529.066	12538
529.135	14208
529.203	12997
529.272	13285
529.340	13651
529.409	14286
529.477	11431
529.545	12531
529.614	15044
529.682	12599
529.751	14062
529.819	18576
529.887	14383
529.956	13891
530.024	15169
530.092	12203
530.161	14193
530.229	14461
530.297	12741
530.365	15069
530.434	13690
530.502	13557
530.570	13873
530.638	13042
530.707	14358
530.775	16241
530.843	13638
530.911	14697
530.979	14671
531.047	14554
531.115	15303
531.183	14258
531.252	14360
531.320	14444
531.388	13823
531.456	15841
531.524	13060
531.592	16152
531.660	16335
531.728	13890
531.796	14065
531.864	14492
531.932	15300
532.000	14310
532.067	14273
532.135	16350
532.203	18266
532.271	18714
532.339	19589
532.407	19625
532.475	18171
532.542	18026
532.610	17711
532.678	17909
532.746	24289
532.814	26371
532.881	18448
532.949	18843
533.017	18247
533.084	17485
533.152	16885
533.220	17162
533.287	16454
533.355	16443
533.423	18431
533.490	17995
533.558	18444
533.625	18922
533.693	18123
533.761	19541
533.828	19372
533.896	17233
533.963	21996
534.031	23307
534.098	28815
534.166	30532
534.233	29384
534.300	34908
534.368	34144
534.435	33294
534.503	37461
534.570	41653
534.637	47537
534.705	57259
534.772	85622
534.840	225708
534.907	793700
534.974	534723
535.041	83230
535.109	45947
535.176	37023
535.243	34479
535.310	31297
535.378	28214
535.445	29534
535.512	29935
535.579	29767
535.646	28704
535.714	28582
535.781	32377
535.848	31765
535.915	29622
535.982	26330
536.049	28047
536.116	28426
536.183	27216
536.250	26528
536.317	27469
536.384	29484
536.451	30457
536.518	30335
536.585	27881
536.652	30893
536.719	30619
536.786	26837
536.853	27287
536.920	30566
536.987	29620
537.053	28376
537.120	33896
537.187	34052
537.254	32270
537.321	32452
537.388	32986
537.454	29752
537.521	32254
537.588	31603
537.654	32710
537.721	33954
537.788	33059
537.855	31431
537.921	32853
537.988	30207
538.055	29797
538.121	26409
538.188	27770
538.254	27273
538.321	27442
538.388	31442
538.454	35345
538.521	34312
538.587	34128
538.654	32913
538.720	33358
538.787	32389
538.853	32700
538.920	29925
538.986	28946
539.053	27246
539.119	30764
539.185	29239
539.252	32152
539.318	32860
539.385	37087
539.451	30801
539.517	32942
539.583	32369
539.650	33253
539.716	31555
539.782	30017
539.849	29737
539.915	30440
539.981	30503
540.047	30050
540.114	30389
540.180	32798
540.246	34012
540.312	34579
540.378	33124
540.444	34949
540.510	34399
540.576	34647
540.643	31752
540.709	29912
540.775	30585
540.841	30102
540.907	29532
540.973	31730
541.039	30365
541.105	31828
541.171	34420
541.237	34342
541.303	33255
541.369	35201
541.435	33093
541.500	31537
541.566	28816
541.632	30609
541.698	31745
541.764	33694
541.830	32115
541.896	29885
541.961	30879
542.027	31703
542.093	34378
542.159	33063
542.224	30865
542.290	32510
542.356	30863
542.421	30817
542.487	28766
542.553	28168
542.618	29565
542.684	31575
542.750	30368
542.815	33409
542.881	30732
542.947	35012
543.012	32338
543.078	30574
543.143	29061
543.209	30598
543.274	29443
543.340	32234
543.405	33286
543.471	33286
543.536	32678
543.602	32144
543.667	30615
543.732	33364
543.798	32809
543.863	34008
543.928	32361
543.994	32119
544.059	34205
544.124	34131
544.190	33955
544.255	36384
544.320	35008
544.386	34560
544.451	37054
544.516	35422
544.581	35068
544.646	37608
544.712	37926
544.777	36791
544.842	36501
544.907	35913
544.972	35545
545.037	38634
545.102	40034
545.168	40086
545.233	41246
545.298	40615
545.363	40086
545.428	43478
545.493	44308
545.558	42274
545.623	42185
545.688	42987
545.753	44858
545.818	46433
545.883	50033
545.947	50204
546.012	51633
546.077	53154
546.142	56905
546.207	58063
546.272	62420
546.337	61949
546.401	65559
546.466	65897
546.531	68252
546.596	75007
546.661	77347
546.725	82365
546.790	87017
546.855	96290
546.919	104346
546.984	113720
547.049	124238
547.113	142189
547.178	157217
547.243	176958
547.307	203333
547.372	215506
547.436	218521
547.501	237837
547.565	239528
547.630	217670
547.695	215129
547.759	216838
547.823	219011
547.888	224725
547.952	230466
548.017	241970
548.081	245897
548.146	239969
548.210	250517
548.274	268649
548.339	251364
548.403	230111
548.468	219989
548.532	221621
548.596	225080
548.660	229854
548.725	254857
548.789	266361
548.853	249902
548.917	245672
548.982	231011
549.046	209943
549.110	194005
549.174	211146
549.238	242830
549.303	258708
549.367	258793
549.431	242173
549.495	233261
549.559	241667
549.623	281740
549.687	285076
549.751	296022
549.815	346382
549.879	333089
549.943	330753
550.007	346156
550.071	329153
550.135	296425
550.199	292385
550.263	282419
550.327	272097
550.391	288117
550.455	316583
550.519	326242
550.582	355475
550.646	391112
550.710	389601
550.774	385652
550.838	397743
550.901	413972
550.965	437878
551.029	470190
551.093	509803
551.156	569208
551.220	627360
551.284	608230
551.347	481693
551.411	416193
551.475	402160
551.538	403561
551.602	371403
551.666	350939
551.729	333084
551.793	324897
551.856	317860
551.920	315100
551.983	312582
552.047	309386
552.110	315261
552.174	319104
552.237	316037
552.301	293640
552.364	284460
552.428	278812
552.491	289875
552.554	287963
552.618	290538
552.681	293490
552.745	279689
552.808	296720
552.871	305176
552.934	295493
552.998	287670
553.061	279828
553.124	270093
553.187	273735
553.251	278771
553.314	277903
553.377	284737
553.440	302993
553.503	305695
553.567	298177
553.630	297231
553.693	292152
553.756	293816
553.819	281078
553.882	271927
553.945	277902
554.008	277888
554.071	279080
554.134	273984
554.197	258545
554.260	256514
554.323	262571
554.386	271418
554.449	280199
554.512	272028
554.575	264174
554.638	263595
554.701	262323
554.764	257204
554.827	247403
554.889	238502
554.952	226425
555.015	224834
555.078	229128
555.141	230705
555.203	221786
555.266	223405
555.329	221029
555.391	216328
555.454	211542
555.517	207430
555.580	199376
555.642	193628
555.705	189474
555.768	188317
555.830	180340
555.893	172193
555.955	168493
556.018	167186
556.080	171060
556.143	175580
556.206	169531
556.268	167439
556.330	161918
556.393	160415
556.455	154619
556.518	150814
556.580	145049
556.643	142669
556.705	139629
556.767	138900
556.830	135490
556.892	133217
556.955	130655
557.017	128808
557.079	128635
557.142	126679
557.204	126235
557.266	127099
557.328	116177
557.391	110626
557.453	109052
557.515	110553
557.577	112508
557.639	112013
557.701	112575
557.764	112764
557.826	115685
557.888	120682
557.950	127933
558.012	148512
558.074	224034
558.136	545803
558.198	744364
558.260	221470
558.322	135600
558.384	133918
558.446	139373
558.508	151904
558.570	169456
558.632	204726
558.694	290377
558.756	542205
558.818	1172462
558.880	1356301
558.942	848209
559.003	862495
559.065	325393
559.127	189864
559.189	180405
559.251	213947
559.312	343602
559.374	798229
559.436	1219653
559.498	542862
559.559	215665
559.621	183980
559.683	226634
559.744	414090
559.806	996069
559.868	852406
559.929	255473
559.991	227759
560.052	444620
560.114	829603
560.176	427025
560.237	635455
560.299	580165
560.360	129307
560.422	77538
560.483	66529
560.545	60873
560.606	57170
560.667	54131
560.729	51214
560.790	48369
560.852	47200
560.913	45665
560.974	45297
561.036	43435
561.097	45577
561.158	43375
561.220	42470
561.281	39140
561.342	39561
561.403	39965
561.465	39752
561.526	39513
561.587	39293
561.648	37399
561.709	36610
561.771	35814
561.832	35584
561.893	34001
561.954	34878
562.015	34223
562.076	32413
562.137	32386
562.198	32737
562.259	33994
562.320	34060
562.381	32668
562.442	33448
562.503	32111
562.564	31449
562.625	31296
562.686	31094
562.747	30174
562.808	30606
562.869	29511
562.930	29790
562.991	28234
563.051	28477
563.112	28692
563.173	28473
563.234	27428
563.294	28908
563.355	27046
563.416	27798
563.477	27593
563.537	27250
563.598	27180
563.659	27124
563.720	25438
563.780	26686
563.841	26204
563.901	26617
563.962	26725
564.023	25091
564.083	26426
564.144	25598
564.204	24708
564.265	25168
564.325	24187
564.386	25158
564.446	25103
564.507	24137
564.567	22734
564.628	24690
564.688	22998
564.749	24450
564.809	24414
564.869	23492
564.930	23525
564.990	23609
565.050	23419
565.111	23714
565.171	23551
565.231	24183
565.292	24432
565.352	22661
565.412	23946
565.472	22263
565.532	23956
565.593	23318
565.653	22456
565.713	23798
565.773	23256
565.833	24580
565.893	24597
565.953	22819
566.013	21916
566.074	21608
566.134	21623
566.194	21506
566.254	20832
566.314	21899
566.374	21068
566.434	21245
566.494	20313
566.554	21122
566.614	23003
566.673	23406
566.733	22824
566.793	22921
566.853	22372
566.913	23612
566.973	22790
567.033	23142
567.092	22449
567.152	22448
567.212	22600
567.272	23573
567.331	23235
567.391	24225
567.451	25251
567.511	24564
567.570	23629
567.630	23822
567.690	23017
567.749	23041
567.809	21999
567.868	22278
567.928	22181
567.988	22861
568.047	24023
568.107	22922
568.166	22507
568.226	23112
568.285	23588
568.345	24884
568.404	23972
568.464	22400
568.523	23009
568.582	23454
568.642	23766
568.701	22059
568.761	20049
568.820	21743
568.879	21483
568.939	23021
568.998	22798
569.057	21194
569.116	22228
569.176	22989
569.235	23299
569.294	22750
569.353	21836
569.413	22079
569.472	21973
569.531	22357
569.590	20503
569.649	21813
569.708	21165
569.767	22402
569.827	21214
569.886	21500
569.945	20709
570.004	21122
570.063	21582
570.122	22243
570.181	22599
570.240	22772
570.299	23470
570.358	23195
570.417	23276
570.475	22619
570.534	23190
570.593	23572
570.652	23652
570.711	23894
570.770	22318
570.829	22939
570.887	22581
570.946	23690
571.005	23699
571.064	23821
571.122	23134
571.181	23775
571.240	23070
571.299	22378
571.357	22201
571.416	21718
571.475	23612
571.533	24388
571.592	25382
571.650	25276
571.709	26103
571.768	30665
571.826	31476
571.885	27680
571.943	23934
572.002	23136
572.060	22993
572.119	22323
572.177	22428
572.236	23688
572.294	23547
572.352	25378
572.411	25785
572.469	22930
572.528	21958
572.586	21860
572.644	21503
572.703	21634
572.761	20931
572.819	21041
572.877	19529
572.936	20804
572.994	19736
573.052	21269
573.110	21925
573.169	23539
573.227	22850
573.285	22162
573.343	21836
573.401	21937
573.459	22695
573.517	23459
573.576	25085
573.634	24818
573.692	24706
573.750	25347
573.808	22015
573.866	22599
573.924	21340
573.982	21980
574.040	21716
574.098	22436
574.155	22556
574.213	21845
574.271	22878
574.329	25518
574.387	22742
574.445	21135
574.503	19670
574.560	21245
574.618	20732
574.676	22065
574.734	19562
574.792	20517
574.849	18757
574.907	17145
574.965	16688
575.022	17268
575.080	15146
575.138	16307
575.195	15498
575.253	16173
575.311	16342
575.368	15918
575.426	15917
575.483	17121
575.541	17507
575.598	17120
575.656	17636
575.713	19589
575.771	19339
575.828	18767
575.886	16938
575.943	16551
576.001	15560
576.058	15457
576.115	14965
576.173	16523
576.230	17154
576.287	17097
576.345	17384
576.402	18705
576.459	18387
576.517	16405
576.574	15320
576.631	16436
576.688	14539
576.746	15193
576.803	13648
576.860	14359
576.917	15480
576.974	15880
577.031	15258
577.089	14941
577.146	14356
577.203	14452
577.260	14602
577.317	14411
577.374	13713
577.431	13773
577.488	13972
577.545	13904
577.602	14998
577.659	13971
577.716	14543
577.773	14713
577.830	13962
577.886	13633
577.943	13801
578.000	14169
578.057	13419
578.114	14496
578.171	13856
578.227	13868
578.284	13430
578.341	14693
578.398	13841
578.454	14816
578.511	14226
578.568	14887
578.625	13622
578.681	15291
578.738	13720
578.794	13655
578.851	14116
578.908	14593
578.964	14000
579.021	14155
579.077	14026
579.134	14754
579.190	14715
579.247	15223
579.303	14281
579.360	13679
579.416	12398
579.473	14243
579.529	14173
579.586	14225
579.642	14534
579.698	15012
579.755	14088
579.811	14850
579.867	14575
579.924	14059
579.980	14254
580.036	14559
580.093	14842
580.149	15561
580.205	15580
580.261	16073
580.317	17202
580.374	17240
580.430	16945
580.486	16345
580.542	15876
580.598	16542
580.619	16720
580.654	17053
580.692	15869
580.710	15314
580.765	16803
580.767	16869
580.823	16953
580.838	16974
580.879	17097
580.911	16494
580.935	16084
580.984	16003
580.991	16016
581.047	16977
581.057	16777
581.103	15955
581.130	15991
581.159	16061
581.203	16114
581.215	16154
581.270	15268
581.276	15264
581.326	15301
581.349	15609
581.382	16155
581.422	15373
581.438	15070
581.494	15451
581.494	15428
581.550	14217
581.567	14348
581.606	14647
581.640	14568
581.661	14557
581.713	16234
581.717	16377
581.773	14786
581.786	14774
581.829	14760
581.859	14292
581.885	13934
581.932	14991
581.940	15214
581.996	14708
582.004	14748
582.052	14813
582.077	14949
582.107	15159
582.150	14576
582.163	14411
582.219	14373
582.223	14288
582.274	13434
582.296	13620
582.330	13889
582.368	14732
582.386	15158
582.441	15433
582.441	15438
582.497	14863
582.514	14599
582.552	14280
582.587	14794
582.608	15062
582.659	14247
582.663	14185
582.719	14899
582.732	14763
582.774	14415
582.805	14594
582.830	14725
582.877	14871
582.885	14895
582.941	14310
582.950	14286
582.996	14228
583.023	14384
583.052	14511
583.095	14738
583.107	14844
583.162	14538
583.168	14544
583.218	14496
583.240	14502
583.273	14418
583.313	13963
583.328	13807
583.384	13884
583.385	13867
583.439	13507
583.458	13993
583.494	14835
583.531	14358
583.549	14166
583.603	14257
583.605	14257
583.660	14428
583.676	14599
583.715	14940
583.748	14881
583.770	14862
583.820	14359
583.825	14303
583.881	14253
583.893	14286
583.936	14532
583.965	14391
583.991	14188
584.038	14458
584.046	14524
584.101	14741
584.110	14831
584.156	15198
584.183	15193
584.211	15165
584.255	15703
584.266	15857
584.321	15685
584.328	15716
584.376	16085
584.400	16424
584.431	16669
584.472	16653
584.486	16625
584.541	16684
584.545	16771
584.596	18313
584.617	18140
584.651	17914
584.689	18738
584.706	18914
584.761	19435
584.762	19449
584.816	20899
584.834	21442
584.871	22052
584.906	22855
584.926	23498
584.978	25756
584.980	25835
585.035	28475
585.051	29494
585.090	32087
585.123	34619
585.145	36535
585.195	40394
585.200	40788
585.254	47702
585.267	49589
585.309	56539
585.340	63274
585.364	68827
585.412	81697
585.419	83829
585.473	110718
585.484	119020
585.528	160462
585.556	206521
585.583	272314
585.628	438813
585.637	486477
585.692	890877
585.700	925540
585.747	1018383
585.772	884062
585.801	602911
585.845	297831
585.856	247971
585.910	123215
585.917	111829
585.965	78171
585.989	66378
586.019	57921
586.061	48405
586.074	46032
586.128	40426
586.133	39940
586.183	35583
586.205	34477
586.237	33293
586.277	31732
586.292	31330
586.346	30763
586.349	30761
586.401	30109
586.421	29708
586.455	29154
586.493	29188
586.509	29311
586.564	29480
586.565	29531
586.618	32178
586.637	33851
586.672	38322
586.709	44265
586.727	47280
586.781	51663
586.781	51628
586.835	40446
586.853	37882
586.889	33362
586.925	29843
586.944	28699
586.996	27280
586.998	27258
587.052	25964
587.068	26051
587.106	26323
587.140	26546
587.161	26426
587.212	26036
587.215	26028
587.269	26002
587.284	26175
587.323	26536
587.356	26609
587.377	26716
587.427	27701
587.431	27761
587.485	28530
587.499	28669
587.539	28745
587.571	28980
587.593	29414
587.643	31480
587.648	31601
587.702	31292
587.715	31414
587.755	30968
587.786	30843
587.810	31147
587.858	31408
587.864	31429
587.917	31457
587.930	31638
587.971	31508
588.001	31482
588.025	31711
588.073	31889
588.079	31844
588.133	31142
588.145	31193
588.187	31409
588.217	31384
588.241	31313
588.288	32042
588.295	32205
588.348	32967
588.360	33196
588.402	33073
588.431	32997
588.456	33196
588.503	33752
588.510	33908
588.564	35458
588.575	35968
588.617	37304
588.646	38027
588.671	38637
588.718	40349
588.725	40843
588.778	46824
588.789	48746
588.832	64821
588.861	79152
588.886	110737
588.932	188107
588.939	197037
588.993	236090
589.004	233988
589.047	118845
589.075	61973
589.100	51739
589.147	38164
589.154	37820
589.207	35194
589.218	34918
589.261	36589
589.290	37667
589.314	37973
589.361	39618
589.368	40419
589.421	48728
589.433	51335
589.475	78422
589.504	102582
589.528	134965
589.576	193872
589.582	188131
589.635	96554
589.647	81557
589.689	52804
589.718	35586
589.742	34752
589.790	32863
589.795	32780
589.849	32237
589.861	32260
589.902	32596
589.932	32561
589.955	31961
590.004	31248
590.009	31230
590.062	30868
590.075	30911
590.115	30543
590.146	30193
590.168	30456
590.218	31181
590.222	31194
590.275	31990
590.289	32129
590.328	33122
590.360	34029
590.381	33793
590.431	33502
590.435	33522
590.488	33961
590.503	34196
590.541	34341
590.574	34445
590.594	34742
590.645	35903
590.647	35918
590.700	36773
590.716	37223
590.753	38402
590.787	39159
590.806	39359
590.859	40402
590.859	40380
590.912	40534
590.930	40769
590.965	41108
591.001	41201
591.018	41056
591.071	40774
591.072	40801
591.124	39904
591.143	39803
591.177	39703
591.214	39594
591.230	40032
591.283	41724
591.285	41809
591.336	40662
591.356	40301
591.389	40160
591.427	39985
591.442	39909
591.495	39872
591.498	39894
591.547	40190
591.569	40572
591.600	41089
591.640	41399
591.653	41307
591.706	41282
591.711	41334
591.759	42678
591.782	43444
591.811	44002
591.853	44644
591.864	44842
591.917	46169
591.924	46386
591.969	45645
591.995	45297
592.022	45064
592.066	44849
592.075	45131
592.127	47133
592.137	47542
592.180	48184
592.208	48671
592.233	48813
592.279	49308
592.285	49460
592.338	51108
592.350	51529
592.390	50600
592.421	49977
592.443	50575
592.491	52096
592.495	52148
592.548	53477
592.562	53891
592.600	53273
592.633	52823
592.653	52425
592.704	51249
592.705	51562
592.775	52769
592.846	55463
592.916	56242
592.987	56059
593.058	57076
593.128	57483
593.199	57230
593.270	58330
593.341	58502
593.411	61243
593.482	64008
593.553	65665
593.623	65834
593.694	69168
593.764	69240
593.835	68649
593.906	68787
593.976	71028
594.047	74306
594.117	76619
594.188	79423
594.258	77963
594.329	78446
594.399	81174
594.470	84203
594.540	86946
594.611	88259
594.681	86311
594.751	86799
594.822	91868
594.892	94415
594.963	95925
595.033	99366
595.103	102435
595.174	103933
595.244	106128
595.314	108839
595.384	111585
595.455	116031
595.525	117616
595.595	122407
595.665	123248
595.736	120315
595.806	122211
595.876	123743
595.946	125231
596.016	130138
596.087	134818
596.157	135483
596.227	136396
596.297	141949
596.367	151903
596.437	160358
596.507	158812
596.577	158028
596.647	163878
596.717	170896
596.787	173752
596.857	175148
596.927	175734
596.997	176965
597.067	179909
597.137	180568
597.207	180795
597.277	183395
597.347	176360
597.417	169745
597.487	169408
597.557	175473
597.626	177911
597.696	181262
597.766	179870
597.836	168331
597.906	160498
597.975	157088
598.045	161125
598.115	166523
598.185	179742
598.254	200876
598.324	216952
598.394	220544
598.464	214646
598.533	210003
598.603	196233
598.672	191240
598.742	194580
598.812	194948
598.881	202102
598.951	200088
599.020	204069
599.090	210981
599.159	212562
599.229	203408
599.299	199667
599.368	207370
599.437	203532
599.507	187910
599.576	179678
599.646	178295
599.715	172804
599.785	174017
599.854	169119
599.924	165296
599.993	162710
600.062	169043
600.132	173919
600.201	182296
600.270	210423
600.340	223815
600.409	218000
600.478	217984
600.547	222573
600.617	200829
600.686	159564
600.755	144693
600.824	135508
600.894	132884
600.963	134524
601.032	133015
601.101	127512
601.170	119915
601.239	117334
601.308	115197
601.378	115510
601.447	114894
601.516	116625
601.585	118340
601.654	120553
601.723	121476
601.792	122688
601.861	128068
601.930	131536
601.999	133347
602.068	133632
602.137	133585
602.206	136134
602.275	137316
602.343	140021
602.412	141460
602.481	142741
602.550	143697
602.619	149080
602.688	149791
602.756	150557
602.825	152539
602.894	156437
602.963	159498
603.032	162412
603.100	162384
603.169	163049
603.238	165523
603.307	165672
603.375	169557
603.444	171348
603.513	175815
603.581	178616
603.650	180461
603.719	179179
603.787	182192
603.856	187456
603.924	192526
603.993	199483
604.061	208456
604.130	216052
604.198	219600
604.267	224858
604.335	227553
604.404	231222
604.472	231523
604.541	236017
604.609	239249
604.678	237207
604.746	241367
604.815	244376
604.883	252764
604.951	251791
605.020	256315
605.088	259641
605.156	264565
605.225	269046
605.293	269060
605.361	270303
605.429	272503
605.498	278327
605.566	285032
605.634	296536
605.702	309067
605.771	316840
605.839	315041
605.907	312310
605.975	300295
606.043	294206
606.111	296237
606.180	293562
606.248	290112
606.316	286789
606.384	284157
606.452	291778
606.520	298887
606.588	308149
606.656	311864
606.724	303231
606.792	289541
606.860	263852
606.928	241253
606.996	232661
607.064	227531
607.132	234713
607.200	247354
607.267	254916
607.335	258597
607.403	266197
607.471	257621
607.539	250627
607.607	253303
607.674	226353
607.742	224112
607.810	222584
607.878	222447
607.946	227030
608.013	237882
608.081	240586
608.149	243770
608.216	252142
608.284	258716
608.352	260108
608.419	257236
608.487	251466
608.555	247325
608.622	254858
608.690	270629
608.757	297327
608.825	304540
608.893	295051
608.960	280037
609.028	265464
609.095	266968
609.163	265386
609.230	240319
609.298	218977
609.365	231704
609.432	247768
609.500	267132
609.567	303361
609.635	342038
609.702	355760
609.769	339948
609.837	272920
609.904	241536
609.971	252386
610.039	280929
610.106	357958
610.173	614193
610.241	1148683
610.308	829926
610.375	354942
610.442	279294
610.509	257144
610.577	253793
610.644	253777
610.711	261679
610.778	265887
610.845	277132
610.912	291609
610.980	300589
611.047	303387
611.114	297076
611.181	289024
611.248	286341
611.315	302248
611.382	308246
611.449	319230
611.516	324949
611.583	319372
611.650	323361
611.717	327341
611.784	335042
611.851	352793
611.918	372108
611.984	431074
612.051	568193
612.118	932261
612.185	1499205
612.252	1269655
612.319	630103
612.386	465944
612.452	407908
612.519	375773
612.586	361687
612.653	363769
612.719	373536
612.786	358760
612.853	334086
612.919	327301
612.986	332943
613.053	313324
613.120	296899
613.186	285160
613.253	288780
613.319	287798
613.386	289085
613.453	293348
613.519	293990
613.586	287915
613.652	292389
613.719	287349
613.785	294466
613.852	297569
613.918	294310
613.985	295290
614.051	310177
614.118	305615
614.184	294187
614.250	291867
614.317	301219
614.383	297557
614.449	300491
614.516	296928
614.582	299756
614.648	294937
614.715	292132
614.781	285327
614.847	286289
614.914	285802
614.980	277400
615.046	278446
615.112	288277
615.179	288219
615.245	290879
615.311	288510
615.377	292373
615.443	298012
615.509	300168
615.575	313327
615.642	313605
615.708	321592
615.774	336214
615.840	359608
615.906	387860
615.972	462361
616.038	647827
616.104	1092852
616.170	1598801
616.236	1506926
616.302	891876
616.368	667042
616.434	490541
616.500	421461
616.565	461723
616.631	584959
616.697	501273
616.763	488199
616.829	697406
616.895	1132833
616.961	1135727
617.026	624036
617.092	393807
617.158	339148
617.224	316643
617.289	288127
617.355	270336
617.421	263971
617.487	261133
617.552	247072
617.618	245401
617.684	245018
617.749	246142
617.815	232868
617.880	226528
617.946	226623
618.012	232041
618.077	238704
618.143	226168
618.208	225324
618.274	244001
618.339	242168
618.405	203353
618.470	199056
618.536	200468
618.601	198450
618.667	182907
618.732	173978
618.798	170016
618.863	170352
618.928	170256
618.994	170924
619.059	169732
619.124	171869
619.190	169374
619.255	166767
619.320	167180
619.386	168209
619.451	166529
619.516	161648
619.581	164311
619.647	169383
619.712	171027
619.777	161112
619.842	160093
619.907	164865
619.972	168772
620.038	167339
620.103	161057
620.168	160918
620.233	164648
620.298	164683
620.363	169120
620.428	172808
620.493	175516
620.558	177217
620.623	180874
620.688	179211
620.753	177829
620.818	183101
620.883	181574
620.948	184420
621.013	179138
621.078	176176
621.143	180553
621.207	183413
621.272	178738
621.337	172282
621.402	170472
621.467	167472
621.532	167580
621.596	169260
621.661	163793
621.726	162022
621.791	164566
621.855	162880
621.920	163447
621.985	165231
622.049	167922
622.114	167161
622.179	173038
622.243	175277
622.308	182329
622.373	189645
622.437	185197
622.502	172794
622.566	171739
622.631	170779
622.695	176700
622.760	176203
622.824	173821
622.889	175978
622.953	175542
623.018	186468
623.082	190357
623.147	187208
623.211	181208
623.276	181719
623.340	173467
623.404	168841
623.469	168628
623.533	171604
623.597	166305
623.662	165409
623.726	153952
623.790	143251
623.854	140814
623.919	141917
623.983	146084
624.047	147508
624.111	149386
624.176	152676
624.240	152470
624.304	158894
624.368	153867
624.432	152119
624.496	158075
624.560	165746
624.625	167858
624.689	166582
624.753	174439
624.817	165519
624.881	161979
624.945	145731
625.009	141710
625.073	144279
625.137	147894
625.201	155624
625.265	157411
625.329	148983
625.393	153071
625.456	153396
625.520	159993
625.584	161438
625.648	165536
625.712	169498
625.776	169415
625.839	158331
625.903	135849
625.967	126555
626.031	134615
626.095	161423
626.158	152415
626.222	117031
626.286	109055
626.349	104780
626.413	97655
626.477	97634
626.540	99849
626.604	99296
626.668	98650
626.731	94843
626.795	96499
626.858	97175
626.922	94466
626.986	95695
627.049	95428
627.113	100251
627.176	96637
627.240	93781
627.303	94629
627.366	93482
627.430	96700
627.493	94352
627.557	92388
627.620	95844
627.684	100546
627.747	100357
627.810	91978
627.874	84389
627.937	79863
628.000	84029
628.064	80592
628.127	70554
628.190	71187
628.253	70741
628.317	65813
628.380	63258
628.443	61115
628.506	61223
628.569	58896
628.632	56065
628.696	55518
628.759	55537
628.822	53083
628.885	52243
628.948	52026
629.011	50114
629.074	49988
629.137	48099
629.200	45710
629.263	46611
629.326	44348
629.389	46039
629.452	46187
629.515	44765
629.578	44888
629.641	45177
629.704	45987
629.767	45209
629.830	43770
629.892	43086
629.955	41652
630.018	45332
630.081	41813
630.144	44603
630.207	42192
630.269	44419
630.332	42541
630.395	41451
630.458	41221
630.520	38035
630.583	41354
630.646	40027
630.708	41483
630.771	41849
630.834	46366
630.896	44145
630.959	43641
631.021	41900
631.084	43164
631.146	44615
631.209	45073
631.272	43699
631.334	46677
631.397	47130
631.459	49373
631.522	52103
631.584	54110
631.646	59448
631.709	63990
631.771	62245
631.834	60496
631.896	55614
631.958	51275
632.021	48918
632.083	45472
632.145	44901
632.208	43917
632.270	42846
632.332	41652
632.395	41102
632.457	42227
632.519	40814
632.581	42207
632.643	39673
632.706	41462
632.768	39323
632.830	40678
632.892	41710
632.954	40964
633.016	42267
633.078	41365
633.141	42043
633.203	41734
633.265	41788
633.327	42586
633.389	42426
633.451	43220
633.513	43264
633.575	44919
633.637	43866
633.698	45853
633.760	48389
633.822	50429
633.884	52798
633.946	55031
634.008	57306
634.070	62486
634.132	67724
634.193	74577
634.255	83808
634.317	85743
634.379	82017
634.441	73643
634.502	65253
634.564	57769
634.626	52733
634.687	50385
634.749	46308
634.811	45954
634.873	43740
634.934	44703
634.996	43890
635.057	43933
635.119	44788
635.181	46529
635.242	48989
635.304	46222
635.365	48729
635.427	47226
635.488	47467
635.550	46957
635.611	49038
635.673	48447
635.734	56732
635.796	58861
635.857	67012
635.918	71782
635.980	81348
636.041	89186
636.102	95909
636.164	96711
636.225	92241
636.286	78923
636.348	69170
636.409	59427
636.470	53533
636.531	49499
636.593	46494
636.654	45222
636.715	40840
636.776	40433
636.838	39897
636.899	37902
636.960	36448
637.021	36070
637.082	34977
637.143	33509
637.204	33305
637.265	33072
637.326	35079
637.387	35072
637.448	33317
637.509	34445
637.570	34863
637.631	34260
637.692	30123
637.753	29298
637.814	31088
637.875	30039
637.936	30131
637.997	30429
638.058	29159
638.119	30199
638.179	29265
638.240	30192
638.301	30223
638.362	27057
638.423	26493
638.483	27877
638.544	25523
638.605	27399
638.666	26940
638.726	28243
638.787	26205
638.848	25900
638.908	25545
638.969	25239
639.030	24136
639.090	24479
639.151	25774
639.211	26554
639.272	25939
639.332	27193
639.393	29040
639.453	31790
639.514	35194
639.574	28843
639.635	24884
639.695	26166
639.756	23681
639.816	23160
639.877	22794
639.937	26024
639.997	24319
640.058	22866
640.118	23432
640.178	25556
640.239	24396
640.299	24916
640.359	24592
640.420	28770
640.480	33047
640.540	40152
640.600	41992
640.661	37383
640.721	33822
640.781	36333
640.841	30719
640.901	27403
640.961	25664
641.021	29074
641.082	31890
641.142	27374
641.202	24804
641.262	21171
641.322	22887
641.382	21490
641.442	22064
641.502	21869
641.562	22596
641.622	23700
641.682	26916
641.742	34342
641.802	31087
641.861	24480
641.921	21708
641.981	22082
642.041	20740
642.101	20991
642.161	19026
642.221	20935
642.280	20887
642.340	20193
642.400	20057
642.460	23084
642.519	21758
642.579	22153
642.639	22537
642.698	20272
642.758	25207
642.818	22658
642.877	21926
642.937	22896
642.997	22371
643.056	22620
643.116	21001
643.175	25500
643.235	24134
643.294	25247
643.354	27794
643.414	31625
643.473	35578
643.532	43909
643.592	60926
643.651	92771
643.711	158146
643.770	292955
643.830	634125
643.889	1002061
643.948	416571
644.008	117162
644.067	63346
644.126	45039
644.186	36544
644.245	32157
644.304	27635
644.363	28624
644.423	24601
644.482	26789
644.541	28268
644.600	27744
644.659	38342
644.719	47101
644.778	71809
644.837	124671
644.896	251601
644.955	523711
645.014	199917
645.073	54093
645.132	37396
645.191	32324
645.250	30348
645.309	33363
645.368	36174
645.427	50908
645.486	93598
645.545	170065
645.604	50124
645.663	28136
645.722	26098
645.781	28130
645.840	33498
645.898	40449
645.957	56789
646.016	84673
646.075	148283
646.134	276787
646.192	637574
646.251	824151
646.310	233540
646.369	80010
646.427	59991
646.486	41647
646.545	30771
646.603	26693
646.662	25040
646.721	23164
646.779	22379
646.838	24345
646.896	32288
646.955	44152
647.014	73431
647.072	144758
647.131	377948
647.189	192879
647.248	33941
647.306	24013
647.365	19948
647.423	17244
647.481	18159
647.540	16329
647.598	16479
647.657	15802
647.715	16779
647.773	14513
647.832	16115
647.890	13036
647.948	14009
648.007	14023
648.065	12342
648.123	12721
648.181	14764
648.240	14215
648.298	12318
648.356	13326
648.414	13536
648.472	13222
648.531	13557
648.589	12437
648.647	12371
648.705	12071
648.763	13294
648.821	14637
648.879	14419
648.937	16501
648.995	20238
649.053	26116
649.111	40473
649.169	68217
649.227	122696
649.285	254586
649.343	611484
649.401	332780
649.459	63253
649.516	32089
649.574	24753
649.632	25364
649.690	26887
649.748	36088
649.806	52585
649.863	101577
649.921	283071
649.979	195016
650.037	29905
650.094	15302
650.152	14488
650.210	12807
650.268	11801
650.325	12317
650.383	14666
650.440	9767
650.498	9788
650.556	9389
650.613	7645
650.671	9326
650.728	9973
650.786	11931
650.843	19037
650.901	13179
650.958	9334
651.016	7701
651.073	7415
651.131	7544
651.188	7369
651.246	7899
651.303	6806
651.360	7755
651.418	6864
651.475	7332
651.532	6549
651.590	8599
651.647	6581
651.704	7104
651.762	7001
651.819	6799
651.876	6208
651.933	6248
651.990	7444
652.048	5948
652.105	5811
652.162	7368
652.219	5867
652.276	6928
652.333	6988
652.390	4642
652.448	6114
652.505	7054
652.562	6328
652.619	6632
652.676	5923
652.733	7006
652.790	6022
652.847	5569
652.904	5359
652.961	5033
653.017	5126
653.074	6498
653.131	5762
653.188	4421
653.245	5651
653.302	5472
653.359	5347
653.415	6392
653.472	4777
653.529	5467
653.586	5212
653.642	5953
653.699	6922
653.756	5148
653.813	4840
653.869	8390
653.926	6931
653.983	5444
654.039	6242
654.096	5464
654.152	6561
654.209	5545
654.266	5249
654.322	4289
654.379	4713
654.435	6183
654.492	4867
654.548	5764
654.605	5576
654.661	6709
654.717	4753
654.774	5006
654.830	5466
654.887	5966
654.943	5685
655.000	7510
655.056	5785
655.112	5526
655.168	4621
655.225	5984
655.281	7020
655.337	5837
655.394	5163
655.450	4881
655.506	5459
655.562	5408
655.618	6368
655.675	5014
655.731	5990
655.787	4965
655.843	6201
655.899	5528
655.955	6303
656.011	6336
656.067	5751
656.123	7103
656.179	6379
656.235	8372
656.291	5919
656.347	7939
656.403	6565
656.459	6275
656.515	5718
656.571	5134
656.627	5223
656.683	5561
656.739	4742
656.795	5887
656.850	4609
656.906	5161
656.962	6620
657.018	5815
657.074	7791
657.129	12052
657.185	18766
657.241	46245
657.297	23931
657.352	6506
657.408	3785
657.464	4849
657.519	3644
657.575	3654
657.630	4489
657.686	4880
657.742	3897
657.797	4279
657.853	4030
657.908	4773
657.964	3684
658.019	4012
658.075	4386
658.130	4825
658.186	3359
658.241	5020
658.297	3854
658.352	4042
658.407	5117
658.463	3184
658.518	4139
658.573	4498
658.629	3520
658.684	3090
658.739	4728
658.795	3099
658.850	4052
658.905	3078
658.960	2909
659.016	3520
659.071	3372
659.126	4048
659.181	2577
659.236	4700
659.291	3949
659.346	3611
659.401	3825
659.457	4430
659.512	2999
659.567	4771
659.622	3897
659.677	3394
659.732	1987
659.787	3621
659.842	2384
659.897	3165
659.952	3838
660.007	2677
660.061	3996
660.116	3068
660.171	2694
660.226	4062
660.281	3678
660.336	2831
660.391	4191
660.445	2890
660.500	3607
660.555	3526
660.610	2279
660.664	3493
660.719	3470
660.774	3478
660.828	3451
660.883	3543
660.938	3170
660.992	2584
661.047	3300
661.101	3042
661.156	3037
661.211	2917
661.265	3169
661.320	2814
661.374	3673
661.429	2930
661.483	3668
661.538	2519
661.592	2535
661.647	4554
661.701	4770
661.755	4005
661.810	3013
661.864	2256
661.919	2392
661.973	3347
662.027	3148
662.081	2119
662.136	2696
662.190	3289
662.244	3491
662.299	2900
662.353	3733
662.407	2783
662.461	2361
662.515	3385
662.569	2988
662.624	3047
662.678	3094
662.732	3040
662.786	3055
662.840	3462
662.894	2215
662.948	2526
663.002	3303
663.056	3012
663.110	2197
663.164	2844
663.218	2840
663.272	3135
663.326	3277
663.380	3917
663.434	2666
663.488	2528
663.542	2748
663.595	3448
663.649	3267
663.703	3162
663.757	3375
663.811	2642
663.864	2079
663.918	3516
663.972	2892
664.026	2842
664.079	2871
664.133	3465
664.187	3329
664.240	3697
664.294	3451
664.348	3831
664.401	3542
664.455	3224
664.508	2147
664.562	2789
664.615	3467
664.669	3507
664.722	2953
664.776	3324
664.829	3023
664.883	2914
664.936	2447
664.990	3471
665.043	2845
665.097	2501
665.150	3798
665.203	2725
665.257	3219
665.310	3963
665.363	3907
665.417	4030
665.470	4210
665.523	3376
665.576	3735
665.630	4251
665.683	3778
665.736	4087
665.789	4325
665.842	3848
665.895	3588
665.949	3587
666.002	2978
666.055	3835
666.108	3941
666.161	4024
666.214	3455
666.267	3716
666.320	3425
666.373	4230
666.426	4834
666.479	3915
666.532	4062
666.585	4497
666.638	4551
666.691	4283
666.744	4167
666.796	4131
666.849	3216
666.902	3532
666.955	3176
667.008	3372
667.060	3421
667.113	3372
667.166	3916
667.219	5021
667.271	4062
667.324	3960
667.377	3728
667.430	3957
667.482	4093
667.535	3343
667.587	4040
667.640	4190
667.693	2908
667.745	3963
667.798	4702
667.850	4139
667.903	3890
667.955	3726
668.008	3247
668.060	3963
668.113	3279
668.165	3766
668.218	3247
668.270	3636
668.322	4168
668.375	4220
668.427	4338
668.479	3074
668.532	3601
668.584	3439
668.636	3675
668.689	3749
668.741	3703
668.793	2913
668.845	4125
668.898	3995
668.950	3422
669.002	3285
669.054	3195
669.106	3916
669.158	3494
669.211	2981
669.263	3161
669.315	4061
669.367	3350
669.419	2941
669.471	3074
669.523	2921
669.575	3414
669.627	2528
669.679	2911
669.731	3407
669.783	3013
669.835	3802
669.886	3350
669.938	3180
669.990	3118
670.042	2680
670.094	3119
670.146	2656
670.197	3052
670.249	3240
670.301	4085
670.353	3530
670.404	4061
670.456	4261
670.508	4605
670.560	7026
670.611	10099
670.663	15241
670.715	34927
670.766	54830
670.818	16906
670.869	6101
670.921	5431
670.972	6245
671.024	4763
671.075	3655
671.127	3754
671.178	4850
671.230	5817
671.281	6728
671.333	8828
671.384	9681
671.436	13043
671.487	19158
671.538	28347
671.590	44718
671.641	74551
671.692	132145
671.744	238038
671.795	196398
671.846	84745
671.897	41285
671.949	25523
672.000	17522
672.051	13027
672.102	10003
672.153	7650
672.204	7220
672.256	6941
672.307	5419
672.358	5612
672.409	4906
672.460	4558
672.511	4066
672.562	3317
672.613	3742
672.664	2856
672.715	4327
672.766	2953
672.817	2538
672.868	2784
672.919	2797
672.970	2588
673.021	2581
673.071	2759
673.122	3315
673.173	2296
673.224	3388
673.275	2724
673.326	1783
673.376	2694
673.427	2249
673.478	2398
673.528	3199
673.579	1927
673.630	2464
673.680	3153
673.731	2370
673.782	2352
673.832	3196
673.883	2013
673.934	2328
673.984	2691
674.035	1624
674.085	2546
674.136	3267
674.186	2926
674.237	2669
674.287	2331
674.338	2975
674.388	3267
674.438	3209
674.489	3764
674.539	4129
674.589	3569
674.640	3751
674.690	3362
674.740	3338
674.791	3442
674.841	2645
674.891	2754
674.942	2955
674.992	1921
675.042	2306
675.092	1915
675.142	1195
675.193	1792
675.243	2560
675.293	2962
675.343	1985
675.393	2312
675.443	2767
675.493	2260
675.543	2200
675.593	2271
675.643	2482
675.693	2156
675.743	2503
675.793	1923
675.843	1723
675.893	1503
675.943	1591
675.993	2548
676.043	441
676.093	1422
676.142	2048
676.192	1260
676.242	1566
676.292	1680
676.341	1063
676.391	1687
676.441	1163
676.491	904
676.540	953
676.590	1043
676.640	1118
676.689	1214
676.739	1500
676.789	586
676.838	1902
676.888	955
676.937	1471
676.987	1468
677.037	614
677.086	1133
677.136	1502
677.185	757
677.235	1382
677.284	953
677.333	734
677.383	584
677.432	1047
677.482	1239
677.531	1299
677.580	-313
677.630	888
677.679	1404
677.728	1066
677.778	1429
677.827	1509
677.876	920
677.925	1302
677.975	1377
678.024	1319
678.073	1610
678.122	1433
678.171	1786
678.220	2432
678.269	3539
678.319	4083
678.368	3993
678.417	3479
678.466	1556
678.515	1712
678.564	1031
678.613	1105
678.662	1022
678.711	1233
678.760	873
678.809	823
678.857	1171
678.906	2289
678.955	552
679.004	1813
679.053	826
679.102	917
679.151	1050
679.199	1280
679.248	499
679.297	920
679.346	524
679.394	717
679.443	455
679.492	214
679.540	1209
679.589	1405
679.638	1080
679.686	2303
679.735	2012
679.784	2804
679.832	3288
679.881	2449
679.929	738
679.978	858
680.026	1495
680.075	982
680.123	229
680.172	769
680.220	755
680.268	1218
680.317	670
680.365	226
680.414	414
680.462	350
680.510	841
680.559	566
680.607	748
680.655	1046
680.703	1728
680.752	382
680.800	571
680.848	1050
680.896	349
680.945	343
680.993	80
681.041	344
681.089	308
681.137	-156
681.185	377
681.233	-52
681.258	29
681.281	83
681.329	-236
681.377	149
681.380	221
681.425	1084
681.473	696
681.502	625
681.521	537
681.569	1394
681.617	912
681.624	934
681.665	871
681.713	1530
681.745	1441
681.761	1364
681.809	1075
681.857	1693
681.867	1685
681.904	1552
681.952	1536
681.989	1819
682.000	1876
682.048	1138
682.096	1278
682.111	1380
682.143	1520
682.191	2143
682.233	2236
682.239	2227
682.286	1378
682.334	1546
682.354	1531
682.382	1437
682.430	2241
682.476	1963
682.477	1936
682.525	1647
682.572	2264
682.598	2182
682.620	2059
682.667	2408
682.715	2305
682.720	2363
682.763	2693
682.810	1922
682.841	1939
682.857	1919
682.905	2139
682.952	1900
682.963	1981
683.000	2179
683.047	1695
683.085	3086
683.095	3430
683.142	2492
683.190	2322
683.206	2488
683.237	2749
683.284	2222
683.328	2386
683.332	2378
683.379	2179
683.426	2348
683.449	2403
683.473	2491
683.521	3059
683.568	2966
683.571	2958
683.615	2464
683.662	2581
683.693	2827
683.709	2954
683.757	2917
683.804	2761
683.814	2689
683.851	2340
683.898	2662
683.936	3526
683.945	3728
683.992	3102
684.039	2978
684.057	3014
684.086	3026
684.133	2301
684.179	3143
684.180	3157
684.227	3909
684.274	2807
684.300	2741
684.321	2638
684.368	3082
684.415	3306
684.422	3352
684.462	3702
684.509	3199
684.543	3325
684.556	3306
684.603	3348
684.649	4045
684.665	3915
684.696	3704
684.743	4270
684.786	3907
684.790	3844
684.837	4262
684.883	4189
684.908	3890
684.930	3742
684.977	4412
685.023	4413
685.029	4392
685.070	3876
685.117	4342
685.150	3966
685.164	3883
685.210	4247
685.257	4562
685.272	4703
685.303	4851
685.350	4142
685.393	4505
685.396	4515
685.443	4079
685.490	4547
685.514	4205
685.536	3986
685.583	4122
685.629	4010
685.636	4065
685.675	4377
685.722	4104
685.757	4619
685.768	4734
685.815	4798
685.861	4235
685.878	4214
685.908	4301
685.954	4661
686.000	4618
686.000	4611
686.047	4821
686.093	5349
686.121	5836
686.139	6153
686.185	5227
686.232	5253
686.242	5214
686.278	4959
686.324	5162
686.363	4965
686.370	4942
686.416	5297
686.463	5322
686.484	5344
686.509	5285
686.555	4461
686.601	5264
686.606	5237
686.647	5116
686.693	5355
686.727	5040
686.739	4921
686.785	5616
686.831	5266
686.848	5587
686.877	6010
686.923	5350
686.969	5217
686.969	5217
687.015	5177
687.061	5671
687.090	5902
687.107	5991
687.153	6069
687.199	6049
687.211	5935
687.245	5454
687.291	5602
687.332	5541
687.336	5586
687.382	6591
687.428	6855
687.453	6810
687.474	6573
687.520	6725
687.565	6804
687.574	6705
687.611	6736
687.657	7849
687.695	8004
687.702	8107
687.748	9494
687.794	11251
687.816	11415
687.839	10678
687.885	9510
687.931	8299
687.937	8176
687.976	7820
688.022	7580
688.058	7128
688.067	7094
688.113	6855
688.158	6865
688.179	6828
688.204	6846
688.249	7001
688.295	6853
688.300	6809
688.340	6733
688.386	7335
688.421	7354
688.431	7307
688.477	7130
688.522	7557
688.542	7504
688.567	7679
688.613	7905
688.658	8027
688.663	8081
688.703	8067
688.749	7618
688.784	7714
688.794	7848
688.839	7758
688.884	8235
688.905	8413
688.930	8349
688.975	7784
689.020	7604
689.026	7579
689.065	7847
689.110	7323
689.146	7992
689.155	8159
689.201	8204
689.246	8406
689.267	8176
689.291	7883
689.336	8125
689.381	8199
689.388	8228
689.426	8465
689.471	8021
689.509	8034
689.516	8055
689.561	8153
689.606	7970
689.630	8263
689.651	8437
689.696	7635
689.741	8010
689.750	7896
689.785	7904
689.830	8131
689.871	8348
689.875	8336
689.920	8149
689.965	8051
689.992	7732
690.010	7623
690.054	8122
690.099	7785
690.112	7945
690.144	8290
690.189	7685
690.233	7545
690.233	7558
690.278	8232
690.323	8249
690.354	8412
690.367	8451
690.412	8745
690.457	8583
690.474	8654
690.501	8509
690.546	8276
690.590	7895
690.595	7788
690.635	7353
690.680	7597
690.716	7878
690.724	7933
690.769	7303
690.813	7889
690.836	7724
690.857	7987
690.902	8549
690.946	9468
690.957	9498
690.991	9423
691.035	10492
691.077	10495
691.080	10471
691.124	10290
691.168	9787
691.198	9450
691.213	9443
691.257	9480
691.301	9164
691.318	9299
691.346	9419
691.390	8677
691.434	8403
691.439	8375
691.478	8719
691.522	9158
691.559	9082
691.567	9068
691.611	9360
691.655	9507
691.680	9327
691.699	9198
691.743	9776
691.787	9378
691.800	9404
691.831	9481
691.875	9381
691.919	9534
691.921	9500
691.964	9036
692.008	9537
692.041	9217
692.052	9160
692.096	9188
692.139	9406
692.162	9415
692.183	9398
692.227	9195
692.271	9045
692.282	9028
692.315	9079
692.359	8759
692.402	9013
692.403	9038
692.447	9334
692.490	9657
692.523	10054
692.534	10093
692.578	9740
692.622	9585
692.643	9515
692.666	9500
692.709	9380
692.753	9161
692.763	9167
692.797	9295
692.840	9095
692.884	8934
692.884	8956
692.928	9041
692.971	9657
693.004	9468
693.015	9388
693.059	9552
693.102	9918
693.124	9617
693.146	9412
693.189	9648
693.233	9892
693.245	9797
693.276	9562
693.320	9836
693.363	9543
693.365	9520
693.407	9848
693.450	10076
693.485	10263
693.493	10209
693.537	10242
693.580	9597
693.605	9401
693.624	9644
693.667	10055
693.710	10426
693.725	10587
693.753	11095
693.797	11620
693.840	12444
693.845	12479
693.883	12189
693.926	11974
693.966	11968
693.970	11986
694.013	11185
694.056	11204
694.086	10787
694.099	10676
694.142	10566
694.185	10557
694.206	10329
694.229	10357
694.272	10634
694.315	10797
694.326	10841
694.358	10850
694.401	10760
694.444	10558
694.446	10528
694.487	10617
694.530	10662
694.566	10845
694.573	10917
694.616	10662
694.659	10759
694.686	10909
694.702	11007
694.745	11081
694.787	10938
694.806	10904
694.830	10996
694.873	11257
694.916	11300
694.926	11274
694.959	11413
695.002	11796
695.044	12026
695.046	12010
695.087	12457
695.130	12718
695.166	12977
695.172	12980
695.215	13014
695.258	12713
695.286	12592
695.301	12813
695.343	13143
695.386	13766
695.406	13996
695.428	14438
695.471	14951
695.514	15807
695.526	16067
695.556	17492
695.599	19188
695.641	20708
695.646	20833
695.684	19313
695.726	17687
695.766	16030
695.769	16077
695.811	16168
695.854	16429
695.886	16484
695.896	16508
695.938	16380
695.981	16281
696.005	16260
696.023	16944
696.065	18524
696.108	19971
696.125	20513
696.150	20615
696.192	20706
696.235	20931
696.245	20883
696.277	21057
696.319	21424
696.361	21669
696.365	21637
696.404	21324
696.446	21010
696.485	20611
696.488	20663
696.530	20545
696.572	20487
696.604	20495
696.614	20552
696.656	20544
696.698	20407
696.724	20254
696.740	20355
696.783	20587
696.825	20997
696.844	20999
696.867	21050
696.909	21106
696.951	21120
696.964	21119
696.992	21472
697.034	21845
697.076	22154
697.083	22166
697.118	22402
697.160	22562
697.202	22728
697.203	22676
697.244	22654
697.286	22534
697.323	22265
697.327	22320
697.369	22390
697.411	22471
697.442	22477
697.453	22540
697.494	22523
697.536	22503
697.562	22441
697.578	22448
697.620	22289
697.661	22159
697.682	21991
697.703	22632
697.744	23909
697.786	25273
697.801	25646
697.828	25406
697.869	24936
697.911	24488
697.921	24299
697.952	23938
697.994	23485
698.035	22962
698.040	22844
698.077	23230
698.118	23553
698.160	23904
698.160	23842
698.201	24642
698.243	25443
698.279	26064
698.284	26204
698.325	26898
698.367	27537
698.399	28018
698.408	28200
698.449	28658
698.491	29100
698.518	29330
698.532	29360
698.573	29241
698.614	29123
698.638	28960
698.656	29253
698.697	29760
698.738	30300
698.757	30463
698.779	30300
698.820	29851
698.862	29395
698.877	29148
698.903	29299
698.944	29428
698.985	29551
698.996	29511
699.026	29349
699.067	29015
699.116	28543
699.235	29680
699.354	28048
699.474	27197
699.593	26108
699.713	27424
699.832	25459
699.951	29007
700.070	28088
700.190	26613
700.309	24025
700.428	24038
700.547	23390
700.667	23290
700.786	23704
700.905	23894
701.024	22664
701.143	23120
701.262	24634
701.381	25719
701.500	25394
701.619	24666
701.738	25149
701.857	24841
701.976	22921
702.095	22881
702.214	23998
702.333	23163
702.452	23612
702.571	24820
702.690	24314
702.809	24797
702.928	21946
703.047	21917
703.165	21685
703.284	22614
703.403	21270
703.522	21785
703.640	20144
703.759	21527
703.878	20380
703.997	21682
704.115	21860
704.234	22421
704.353	22400
704.471	20074
704.590	19431
704.708	19567
704.827	18729
704.946	19209
705.064	19147
705.183	18551
705.301	19181
705.420	18382
705.538	17700
705.656	17068
705.775	16426
705.893	18591
706.012	17639
706.130	17125
706.249	18038
706.367	17632
706.485	17111
706.604	17205
706.722	17203
706.840	20372
706.958	26956
707.077	21191
707.195	16552
707.313	16590
707.431	14499
707.549	15687
707.668	14152
707.786	16831
707.904	14484
708.022	17122
708.140	15545
708.258	14614
708.376	16400
708.494	14510
708.612	16673
708.730	17960
708.848	15853
708.966	16874
709.084	16062
709.202	15992
709.320	13733
709.438	14990
709.556	13757
709.674	13399
709.791	13300
709.909	13091
710.027	12654
710.145	13422
710.263	12974
710.380	12961
710.498	12883
710.616	13119
710.733	11256
710.851	12143
710.969	12726
711.086	12138
711.204	12385
711.322	12791
711.439	12247
711.557	11418
711.674	11842
711.792	11840
711.909	11639
712.027	11605
712.144	11687
712.262	11491
712.379	12180
712.497	12873
712.614	11051
712.732	12375
712.849	11349
712.966	12384
713.084	13253
713.201	10578
713.318	12773
713.436	14697
713.553	14297
713.670	16283
713.787	15088
713.905	14060
714.022	15751
714.139	16886
714.256	23489
714.373	38376
714.490	75921
714.608	211482
714.725	788405
714.842	789437
714.959	104571
715.076	37515
715.193	23442
715.310	20142
715.427	14666
715.544	14222
715.661	13662
715.778	13008
715.895	12113
716.011	12889
716.128	12557
716.245	11721
716.362	10741
716.479	9858
716.596	9772
716.713	11087
716.829	9355
716.946	8494
717.063	9069
717.180	8542
717.296	8845
717.413	9839
717.530	9683
717.646	8585
717.763	8565
717.880	8468
717.996	7869
718.113	7699
718.229	8086
718.346	7567
718.462	7837
718.579	9012
718.695	8843
718.812	9325
718.928	8668
719.045	8704
719.161	7613
719.277	9285
719.394	8887
719.510	10221
719.626	12350
719.743	16526
719.859	30157
719.975	72173
720.092	292889
720.208	634587
720.324	90768
720.440	21646
720.557	13848
720.673	12171
720.789	9404
720.905	9713
721.021	8788
721.137	8245
721.253	7898
721.369	7641
721.486	8102
721.602	7050
721.718	6398
721.834	6818
721.950	6185
722.066	6853
722.181	6289
722.297	7190
722.413	7172
722.529	7294
722.645	6395
722.761	6967
722.877	7621
722.993	10048
723.108	15925
723.224	12308
723.340	7304
723.456	7834
723.571	5671
723.687	6542
723.803	6617
723.918	6650
724.034	5761
724.150	5399
724.265	5969
724.381	5161
724.497	5425
724.612	6644
724.728	5319
724.843	6604
724.959	5241
725.074	6706
725.190	6031
725.305	6328
725.421	5949
725.536	6902
725.651	6138
725.767	5980
725.882	5986
725.997	5376
726.113	5563
726.228	5793
726.343	4995
726.459	5502
726.574	6133
726.689	5823
726.804	4971
726.920	4899
727.035	6000
727.150	6556
727.265	4406
727.380	6016
727.495	5719
727.610	4580
727.725	5321
727.841	6340
727.956	5693
728.071	5362
728.186	5540
728.301	4892
728.416	6530
728.531	5911
728.645	4893
728.760	5696
728.875	4529
728.990	5364
729.105	5334
729.220	5169
729.335	6093
729.449	5381
729.564	5699
729.679	5008
729.794	5589
729.908	5473
730.023	4723
730.138	6373
730.253	6789
730.367	6298
730.482	5909
730.596	6528
730.711	8108
730.826	11508
730.940	12382
731.055	9174
731.169	7799
731.284	9337
731.398	9608
731.513	10164
731.627	11146
731.742	15661
731.856	18647
731.970	22100
732.085	30166
732.199	49732
732.313	93844
732.428	246389
732.542	646769
732.656	388617
732.771	82894
732.885	38550
732.999	28658
733.113	26722
733.227	23730
733.342	22198
733.456	20684
733.570	19235
733.684	17229
733.798	17398
733.912	16356
734.026	17668
734.140	16735
734.254	16100
734.368	15475
734.482	15357
734.596	16105
734.710	15890
734.824	15554
734.938	14972
735.052	14671
735.166	14586
735.280	14605
735.393	14090
735.507	14419
735.621	13587
735.735	12516
735.849	14143
735.962	12434
736.076	13430
736.190	13399
736.303	13725
736.417	13069
736.531	12634
736.644	12935
736.758	13099
736.872	12015
736.985	13171
737.099	11975
737.212	12754
737.326	12201
737.439	13266
737.553	11243
737.666	12369
737.780	11319
737.893	13164
738.007	10591
738.120	13929
738.233	10616
738.347	11561
738.460	10629
738.573	12235
738.687	10220
738.800	11858
738.913	12043
739.026	11344
739.140	9680
739.253	11663
739.366	11139
739.479	10851
739.592	9678
739.705	10306
739.818	11012
739.932	10504
740.045	10533
740.158	10959
740.271	10545
740.384	11472
740.497	9154
740.610	10423
740.723	9294
740.836	10247
740.949	9838
741.062	11728
741.174	9783
741.287	10368
741.400	10188
741.513	8631
741.626	9868
741.739	9889
741.851	8657
741.964	11126
742.077	8907
742.189	9042
742.302	10549
742.415	10563
742.527	7635
742.640	9546
742.753	8069
742.865	9774
742.978	9023
743.090	8311
743.203	8394
743.316	8920
743.428	7523
743.541	8695
743.653	7652
743.766	8705
743.878	8276
743.990	7503
744.103	9464
744.215	12102
744.327	7988
744.440	10293
744.552	8332
744.664	7552
744.777	8667
744.889	8315
745.001	7775
745.113	8248
745.226	7678
745.338	7728
745.450	8431
745.562	7919
745.674	6718
745.786	8872
745.898	7504
746.010	7936
746.122	7262
746.234	9029
746.347	7357
746.459	8326
746.570	6449
746.682	10601
746.794	14807
746.906	8660
747.018	7388
747.130	8425
747.242	6910
747.354	6870
747.466	7583
747.577	6534
747.689	6969
747.801	7970
747.913	6511
748.024	7066
748.136	5782
748.248	6814
748.359	6415
748.471	7785
748.583	6308
748.694	5880
748.806	7047
748.918	6501
749.029	5914
749.141	5705
749.252	6789
749.364	5616
749.475	5455
749.587	5881
749.698	6018
749.809	7099
749.921	6060
750.032	5881
750.144	5273
750.255	6236
750.366	5485
750.478	5874
750.589	6038
750.700	4902
750.811	6111
750.923	5878
751.034	4934
751.145	6920
751.256	6126
751.367	4746
751.479	5582
751.590	5293
751.701	4740
751.812	5171
751.923	4568
752.034	7133
752.145	5356
752.256	6169
752.367	5353
752.478	5474
752.589	5316
752.700	5325
752.811	5022
752.922	6574
753.032	6330
753.143	5682
753.254	4821
753.365	8141
753.476	6644
753.586	5964
753.697	5120
753.808	5833
753.919	4380
754.029	5530
754.140	4650
754.251	5248
754.361	5001
754.472	5584
754.582	4671
754.693	5018
754.804	6050
754.914	5293
755.025	4245
755.135	5247
755.246	5808
755.356	5547
755.466	4257
755.577	5023
755.687	4643
755.798	4570
755.908	3548
756.018	4374
756.129	5065
756.239	5694
756.349	5272
756.460	6207
756.570	7187
756.680	5031
756.790	5185
756.900	5161
757.011	3409
757.121	5038
757.231	4310
757.341	5269
757.451	4299
757.561	4618
757.671	4275
757.781	4927
757.891	4704
758.001	4640
758.111	5058
758.221	5970
758.331	6449
758.441	5852
758.551	6185
758.661	7667
758.771	7830
758.880	6271
758.990	5655
759.100	6552
759.210	5534
759.320	6331
759.429	7138
759.539	7990
759.649	8495
759.758	10847
759.868	10837
759.978	11005
760.087	12482
760.197	13145
760.307	11678
760.416	10794
760.526	8831
760.635	11405
760.745	10989
760.854	12543
760.964	15571
761.073	15161
761.182	13550
761.292	12209
761.401	8296
761.511	7563
761.620	6241
761.729	6805
761.839	4106
761.948	5839
762.057	5062
762.166	5616
762.276	4297
762.385	5503
762.494	5013
762.603	4933
762.712	5175
762.822	4325
762.931	4670
763.040	2810
763.149	3829
763.258	4587
763.367	4176
763.476	4377
763.585	3327
763.694	4087
763.803	3417
763.912	4324
764.021	3978
764.130	3864
764.238	4651
764.347	5661
764.456	5089
764.565	4801
764.674	4394
764.783	4310
764.891	3883
765.000	4783
765.109	4038
765.217	4047
765.326	4201
765.435	5140
765.543	5086
765.652	5440
765.761	6702
765.869	8233
765.978	9698
766.086	18144
766.195	32204
766.303	83322
766.412	231789
766.520	195730
766.629	52249
766.737	20924
766.846	12295
766.954	8175
767.062	7799
767.171	6456
767.279	5268
767.387	4792
767.496	4406
767.604	3411
767.712	3820
767.820	4525
767.928	4381
768.037	3190
768.145	3400
768.253	4746
768.361	2872
768.469	4395
768.577	3741
768.685	4071
768.793	4465
768.901	3981
769.009	4563
769.117	3924
769.225	5559
769.333	6577
769.441	8349
769.549	14254
769.657	29751
769.765	96890
769.873	198358
769.981	70138
770.088	17464
770.196	8934
770.304	8070
770.412	6891
770.519	6027
770.627	5280
770.735	4864
770.842	5070
770.950	4885
771.058	5692
771.165	6554
771.273	7565
771.380	7272
771.488	9532
771.595	11424
771.703	10071
771.810	9291
771.918	9280
772.025	10726
772.133	13344
772.240	11380
772.348	14486
772.455	12672
772.562	11837
772.670	10972
772.777	11782
772.884	11475
772.991	11185
773.099	12231
773.206	9968
773.313	11457
773.420	11013
773.528	10348
773.635	11213
773.742	11132
773.849	9883
773.956	10387
774.063	10052
774.170	10841
774.277	11721
774.384	9221
774.491	9912
774.598	10162
774.705	8757
774.812	9428
774.919	10334
775.026	10466
775.133	9699
775.239	9676
775.346	10512
775.453	9585
775.560	9804
775.667	9296
775.773	9057
775.880	8708
775.987	10521
776.093	9285
776.200	10392
776.307	7066
776.413	8147
776.520	9962
776.627	8807
776.733	7741
776.840	7730
776.946	12893
777.053	12227
777.159	19470
777.266	12535
777.372	16971
777.478	15972
777.585	10610
777.691	7491
777.798	9362
777.904	7993
778.010	7496
778.117	8479
778.223	7336
778.329	9122
778.435	6722
778.542	8585
778.648	7173
778.754	7295
778.860	6844
778.966	8310
779.072	7560
779.178	7165
779.284	6138
779.391	6213
779.497	6834
779.603	8307
779.708	5316
779.815	6893
779.920	8907
780.026	8461
780.132	6326
780.238	6392
780.344	5565
780.450	8888
780.556	5699
780.661	5743
780.767	7151
780.873	5388
780.979	5343
781.085	6032
781.190	5677
781.296	5824
781.402	6507
781.507	5964
781.613	4750
781.719	5940
781.824	6783
781.930	5850
782.035	5227
782.141	7294
782.246	4668
782.352	5994
782.457	5313
782.563	5786
782.668	5120
782.773	5531
782.879	4453
782.984	6179
783.090	5363
783.195	5986
783.300	6724
783.405	5984
783.511	4059
783.616	5312
783.721	4897
783.826	5206
783.932	4396
784.037	5244
784.142	5367
784.247	4947
784.352	5627
784.457	4638
784.562	4868
784.667	5612
784.772	4667
784.877	2981
784.982	4918
785.087	5669
785.192	4411
785.297	4870
785.402	5500
785.507	5448
785.611	4381
785.716	4082
785.821	4619
785.926	5153
786.031	4599
786.135	4170
786.240	4276
786.345	2904
786.450	3939
786.554	4714
786.659	3675
786.763	4790
786.868	4205
786.973	5160
787.077	3227
787.182	3508
787.286	4300
787.391	5685
787.495	2802
787.600	2253
787.704	3797
787.809	5128
787.913	4465
788.017	4431
788.122	4985
788.226	4879
788.330	2559
788.435	4168
788.539	4423
788.643	4264
788.747	2879
788.852	3927
788.956	4163
789.060	5074
789.164	3717
789.268	3442
789.372	4697
789.476	3216
789.580	2474
789.684	3065
789.788	4222
789.892	4260
789.996	2978
790.100	2781
790.204	3558
790.308	4953
790.412	2599
790.516	2253
790.620	3186
790.724	5052
790.828	3478
790.931	1550
791.035	4191
791.139	2945
791.242	3019
791.346	3362
791.450	3138
791.554	3610
791.657	1257
791.761	3950
791.864	4042
791.968	3909
792.072	3726
792.175	2993
792.279	2527
792.382	3326
792.486	1932
792.589	2946
792.693	4040
792.796	2570
792.899	3297
793.003	4450
793.106	1381
793.209	3053
793.313	2615
793.416	1960
793.519	2555
793.623	4420
793.726	3381
793.829	2774
793.932	1365
794.035	2167
794.138	3880
794.242	4233
794.345	2024
794.448	2670
794.551	1186
794.654	4013
794.757	4923
794.860	2274
794.963	2794
795.066	2635
795.169	3477
795.272	1673
795.375	2841
795.477	1859
795.580	1155
795.683	1476
795.786	3064
795.889	1724
795.991	2397
796.094	3430
796.197	1493
796.300	4181
796.402	2976
796.505	3089
796.608	2339
796.710	3567
796.813	3265
796.915	4230
797.018	3597
797.120	3367
797.223	2375
797.326	4523
797.428	1965
797.530	2500
797.633	2896
797.735	4623
797.838	2930
797.940	4462
798.042	2833
798.145	2400
798.247	2863
798.349	1449
798.452	2649
798.554	3473
798.656	3038
798.758	6237
798.860	3588
798.962	2998
799.065	1976
799.167	2028
799.269	3334
799.371	4277
799.473	6247
799.575	4193
799.677	2964
799.779	3624
799.881	2127
799.983	3923
800.085	2652
800.187	2939
800.289	844
800.390	2511
800.492	2855
800.594	2599
800.696	1081
800.798	3295
800.899	1949
801.001	2219
801.103	3369
801.205	3669
801.306	3033
801.408	2899
801.509	1764
801.611	2804
801.713	2079
801.814	1808
801.916	1521
802.017	2104
802.119	930
802.220	2746
802.322	1114
802.423	3355
802.525	439
802.626	2650
802.727	2278
802.829	2448
802.930	-710
803.031	3647
803.133	1646
803.234	2209
803.335	2140
803.436	1691
803.538	1986
803.639	1493
803.740	2287
803.841	1592
803.942	3306
804.043	2727
804.144	1101
804.245	2288
804.346	1388
804.447	1926
804.548	1748
804.649	3162
804.750	897
804.851	1647
804.952	1591
805.053	1278
805.154	386
805.255	2862
805.355	1058
805.456	1844
805.557	1307
805.658	-196
805.758	1453
805.859	2586
805.960	1518
806.061	163
806.161	1267
806.262	1425
806.362	839
806.463	1205
806.564	2625
806.664	2450
806.765	902
806.865	1723
806.966	-145
807.066	1226
807.166	2541
807.267	2326
807.367	1479
807.468	1312
807.568	318
807.668	1585
807.769	2245
807.869	867
807.969	1025
808.069	2216
808.170	942
808.270	1311
808.370	1549
808.470	1708
808.570	808
808.670	1457
808.770	1426
808.870	1038
808.970	1235
809.070	949
809.170	1543
809.271	2285
809.370	562
809.470	1716
809.570	1095
809.670	1014
809.770	1490
809.870	1713
809.970	1691
810.070	2452
810.169	1378
810.269	-126
810.369	2463
810.469	1487
810.568	711
810.668	1175
810.768	729
810.867	1933
810.967	1034
811.066	1659
811.166	1316
811.265	2020
811.365	507
811.464	1317
811.564	965
811.663	1892
811.763	312
811.862	2315
811.962	1952
812.061	1223
812.160	1177
812.260	1595
812.359	1399
812.458	1176
812.557	2071
812.657	1380
812.756	1501
812.855	1617
812.954	1010
813.053	2185
813.153	845
813.252	573
813.351	1475
813.450	2027
813.549	946
813.648	1510
813.747	1099
813.846	2228
813.945	789
814.044	1443
814.143	1504
814.242	1812
814.341	960
814.439	2148
814.538	2024
814.637	2100
814.736	1968
814.835	2676
814.933	2263
815.032	3599
815.131	2826
815.229	8067
815.328	11288
815.427	8200
815.525	7016
815.624	6897
815.722	6491
815.821	7630
815.919	6126
816.018	6899
816.116	7117
816.215	7047
816.313	7550
816.412	9276
816.510	9309
816.609	11163
816.707	10722
816.805	10963
816.904	9394
817.002	11331
817.100	10269
817.198	11236
817.296	10252
817.395	10261
817.493	9895
817.591	8419
817.689	8431
817.787	9064
817.885	7719
817.983	7745
818.081	8483
818.179	8809
818.277	10887
818.375	10190
818.473	8297
818.571	8742
818.669	8724
818.767	10374
818.865	7688
818.963	6885
819.061	8153
819.158	7076
819.256	10076
819.354	7793
819.452	10391
819.549	8385
819.647	8585
819.745	6606
819.842	7796
819.940	8220
820.038	6612
820.135	6987
820.233	8449
820.330	7441
820.428	5594
820.525	7326
820.623	6046
820.720	6044
820.818	6862
820.915	7368
821.012	6884
821.110	6372
821.207	6649
821.304	6091
821.402	7045
821.499	9121
821.596	9239
821.693	8430
821.791	7206
821.888	6106
821.985	7907
822.082	5520
822.179	7606
822.276	8682
822.373	5925
822.470	5742
822.567	6617
822.664	5064
822.761	5769
822.858	6205
822.955	6092
823.052	5599
823.149	5468
823.246	6759
823.343	4667
823.440	4658
823.536	5915
823.633	6057
823.730	4690
823.827	5928
823.923	5201
824.020	6046
824.117	5927
824.213	7405
824.310	5532
824.407	4472
824.503	6299
824.600	5419
824.696	4491
824.793	8066
824.889	6481
824.986	6127
825.082	4218
825.179	5261
825.275	5601
825.371	6530
825.468	4468
825.564	2927
825.660	5682
825.757	6897
825.853	5400
825.949	4834
826.045	3394
826.142	5091
826.238	5425
826.334	5587
826.430	4590
826.526	3780
826.622	2190
826.718	5780
826.814	5739
826.910	5026
827.006	2410
827.102	3215
827.198	4980
827.294	5543
827.390	5768
827.486	4407
827.582	2089
827.678	4177
827.774	5278
827.869	3700
827.965	3431
828.061	3147
828.157	5311
828.252	5044
828.348	3875
828.444	4106
828.539	2901
828.635	4766
828.731	4795
828.826	3733
828.922	5007
829.017	5509
829.113	6026
829.208	4827
829.304	3962
829.399	6868
829.495	4767
829.590	4442
829.685	4206
829.781	4898
829.876	5171
829.971	2558
830.066	2142
830.162	4002
830.257	5699
830.352	4814
830.447	3674
830.543	4710
830.638	2905
830.733	7048
830.828	3891
830.923	4339
831.018	4033
831.113	4937
831.208	2511
831.303	2661
831.398	2071
831.493	3517
831.588	6340
831.683	3987
831.778	2404
831.873	3054
831.967	4861
832.062	3965
832.157	3594
832.252	4220
832.346	3395
832.441	4755
832.536	3142
832.631	4094
832.725	3073
832.820	2121
832.914	3285
833.009	2845
833.104	2301
833.198	2989
833.293	3186
833.387	4561
833.482	3492
833.576	4255
833.670	4679
833.765	4997
833.859	4755
833.954	5017
834.048	3692
834.142	3342
834.237	1442
834.331	3256
834.425	3468
834.519	3112
834.613	2462
834.708	3054
834.802	2322
834.896	2598
834.990	2907
835.084	2587
835.178	1702
835.272	2365
835.366	3449
835.460	4641
835.554	3025
835.648	2500
835.742	1168
835.836	2154
835.930	1696
836.024	3425
836.117	3245
836.211	2850
836.305	2135
836.399	2371
836.493	1814
836.586	2941
836.680	1976
836.774	1991
836.867	2380
836.961	2265
837.055	1187
837.148	1232
837.242	2198
837.335	1745
837.429	2184
837.522	1432
837.616	1684
837.709	2388
837.803	1883
837.896	3916
837.989	2500
838.083	944
838.176	581
838.269	1555
838.363	1414
838.456	1751
838.549	2838
838.642	2337
838.735	1563
838.829	2844
838.922	1335
839.015	1996
839.108	1072
839.201	2433
839.294	2843
839.387	2471
839.480	858
839.573	1141
839.666	815
839.759	1903
839.852	1755
839.945	2859
840.038	366
840.131	1682
840.223	1427
840.316	2364
840.409	2650
840.502	2351
840.594	2313
840.687	1194
840.780	1556
840.873	185
840.965	1160
841.058	1710
841.150	2192
841.243	865
841.336	1741
841.428	884
841.521	769
841.613	1385
841.706	1692
841.798	2266
841.890	1218
841.983	1091
842.075	1475
842.167	1488
842.260	2606
842.352	2529
842.444	1336
842.537	1413
842.629	689
842.721	1423
842.813	1113
842.905	585
842.997	2032
843.090	1991
843.182	1611
843.274	1092
843.366	1813
843.458	607
843.550	2482
843.642	1399
843.734	1934
843.826	692
843.918	855
844.009	1856
844.101	1135
844.193	1629
844.285	2095
844.377	3043
844.469	3590
844.560	3000
844.652	2732
844.744	2526
844.835	1612
844.927	2011
845.019	1783
845.110	1001
845.202	1856
845.293	1809
845.385	754
845.476	1013
845.568	2940
845.659	1333
845.751	1311
845.842	881
845.934	1710
846.025	803
846.116	1049
846.208	1529
846.299	627
846.390	841
846.482	599
846.573	1602
846.664	1793
846.755	465
846.846	1836
846.937	610
847.029	699
847.120	1300
847.211	977
847.302	2587
847.393	731
847.484	1542
847.575	795
847.666	842
847.757	718
847.847	1350
847.938	1947
848.029	2409
848.120	1144
848.211	1254
848.302	636
848.392	797
848.483	1570
848.574	816
848.664	1590
848.755	899
848.846	1758
848.936	1304
849.027	2792
849.118	1667
849.208	2425
849.299	7033
849.389	9587
849.480	21078
849.570	40796
849.661	79168
849.751	122766
849.841	51296
849.932	10259
850.022	4468
850.112	2908
850.203	3420
850.293	965
850.383	2750
850.474	590
850.564	991
850.654	859
850.744	888
850.834	1924
850.924	1553
851.014	2249
851.104	1724
851.194	1243
851.284	2092
851.374	1204
851.464	1466
851.554	603
851.644	1084
851.734	2358
851.824	2261
851.914	1063
852.004	1837
852.094	1804
852.183	1276
852.273	1565
852.363	1641
852.452	1188
852.542	2483
852.632	1165
852.721	2261
852.811	1311
852.901	3681
852.990	3273
853.080	3991
853.169	3768
853.259	5430
853.348	5944
853.438	7370
853.527	10559
853.617	15349
853.706	24958
853.795	44101
853.885	82159
853.974	138306
854.063	228329
854.152	275082
854.242	150272
854.331	56652
854.420	26290
854.509	17575
854.598	12282
854.687	9824
854.777	6378
854.866	5389
854.955	5216
855.044	3767
855.133	3509
855.222	2674
855.311	2851
855.400	2543
855.488	1097
855.577	1912
855.666	1374
855.755	2197
855.844	1656
855.933	2059
856.021	1318
856.110	1800
856.199	616
856.288	1474
856.376	450
856.465	880
856.554	1454
856.642	2015
856.731	2677
856.819	2418
856.908	1722
856.996	1146
857.085	574
857.173	1523
857.262	1142
857.350	1561
857.438	661
857.527	1418
857.615	783
857.703	2141
857.792	1294
857.880	498
857.968	415
858.056	347
858.145	411
858.233	1583
858.321	892
858.409	1447
858.497	1134
858.585	1568
858.673	651
858.761	907
858.849	441
858.937	832
859.025	696
859.113	1564
859.201	694
859.289	2044
859.377	1588
859.465	1219
859.552	-588
859.640	385
859.728	1618
859.816	1216
859.903	1004
859.991	1306
860.079	1557
860.166	1025
860.254	1229
860.342	1515
860.429	461
860.517	983
860.604	898
860.692	798
860.779	881
860.867	634
860.954	1345
861.042	1616
861.129	1504
861.216	861
861.304	858
861.391	1644
861.478	1278
861.565	934
861.653	1555
861.740	545
861.827	213
861.914	1181
862.001	231
862.089	1328
862.176	933
862.263	-135
862.350	970
862.437	807
862.524	1323
862.611	1544
862.698	2188
862.785	2647
862.871	3213
862.958	1850
863.045	1160
863.132	1679
863.219	1318
863.306	693
863.392	1505
863.479	1653
863.566	1555
863.652	2492
863.739	1613
863.826	2167
863.912	1540
863.999	1264
864.086	2340
864.172	2173
864.259	2266
864.345	2471
864.432	2594
864.518	2823
864.604	2297
864.691	2119
864.777	3083
864.863	4237
864.950	5193
865.036	7359
865.122	12942
865.209	14608
865.295	13166
865.381	13066
865.467	14546
865.553	16712
865.639	20722
865.726	29937
865.812	50134
865.898	83164
865.984	120297
866.070	188274
866.156	187216
866.242	82786
866.328	33245
866.414	20046
866.499	16318
866.585	14206
866.671	12398
866.757	11283
866.843	10912
866.928	9897
867.014	8947
867.100	10298
867.186	8919
867.271	8125
867.357	8556
867.442	8535
867.528	8302
867.614	9348
867.699	9510
867.785	10747
867.870	9762
867.956	11329
868.041	9514
868.127	8832
868.212	8679
868.297	8235
868.383	7804
868.468	8756
868.553	7934
868.639	7008
868.724	6508
868.809	8028
868.894	6510
868.979	7837
869.065	6656
869.150	6311
869.235	6566
869.320	7305
869.405	5573
869.490	6891
869.575	7397
869.660	5190
869.745	7314
869.830	8156
869.915	5711
870.000	5965
870.085	5388
870.169	8410
870.254	8016
870.339	4708
870.424	5409
870.509	6885
870.593	7324
870.678	7649
870.763	6086
870.847	5208
870.932	7016
871.016	7944
871.101	4745
871.186	6488
871.270	7454
871.355	6114
871.439	6054
871.523	6496
871.608	5177
871.692	5420
871.777	7081
871.861	6720
871.945	5440
872.030	5802
872.114	5433
872.198	6003
872.282	4293
872.367	5478
872.451	4926
872.535	5063
872.619	5271
872.703	5381
872.787	6377
872.871	5705
872.955	4171
873.039	3981
873.123	4810
873.207	5812
873.291	3348
873.375	4241
873.459	6481
873.543	4471
873.627	4107
873.711	4640
873.794	6106
873.878	4554
873.962	2939
874.045	3766
874.129	3891
874.137	3983
874.213	4904
874.245	4964
874.296	5062
874.352	3881
874.380	3304
874.460	4523
874.464	4572
874.547	4637
874.568	4669
874.631	4779
874.676	4758
874.714	4733
874.784	5747
874.798	5946
874.881	4601
874.892	4419
874.965	3232
874.999	3810
875.048	4554
875.107	4569
875.131	4571
875.215	3359
875.215	3359
875.298	3823
875.323	4007
875.381	4496
875.430	5345
875.465	5861
875.538	4979
875.548	4864
875.631	3074
875.646	3105
875.714	3255
875.753	3212
875.798	3263
875.861	4378
875.881	4663
875.964	4309
875.968	4269
876.047	3754
876.076	3774
876.130	3741
876.183	4367
876.213	4755
876.291	4987
876.296	4997
876.379	4037
876.398	3853
876.462	3190
876.506	3125
876.545	3105
876.613	3354
876.628	3422
876.711	4026
876.721	4031
876.794	4099
876.828	4156
876.877	4079
876.935	3174
876.960	2808
877.043	3318
877.043	3317
877.125	3326
877.150	3884
877.208	4920
877.258	3946
877.291	3306
877.365	3106
877.374	3093
877.456	3501
877.472	3364
877.539	2740
877.579	3052
877.622	3376
877.687	3449
877.704	3479
877.787	3585
877.794	3645
877.869	4363
877.901	4405
877.952	4152
878.008	2772
878.034	2265
878.115	1827
878.117	1822
878.199	3201
878.222	3374
878.282	4075
878.329	4553
878.364	4603
878.437	4091
878.447	3998
878.529	2886
878.544	2808
878.611	2919
878.651	3394
878.694	3959
878.758	4050
878.776	4010
878.858	4078
878.865	4033
878.941	3351
878.972	3146
879.023	2865
879.078	2776
879.105	2987
879.185	4246
879.187	4260
879.269	3869
879.292	3925
879.351	4126
879.399	3602
879.433	3132
879.506	3067
879.516	3118
879.598	3668
879.613	3649
879.680	3040
879.720	3316
879.762	3976
879.827	3579
879.844	3408
879.926	3515
879.933	3512
880.007	3458
880.040	3097
880.089	2439
880.147	3304
880.171	3920
880.253	4729
880.254	4724
880.335	3227
880.360	3464
880.417	4283
880.467	4173
880.499	4016
880.574	3632
880.580	3646
880.662	4803
880.680	4616
880.744	3024
880.787	2761
880.825	2937
880.893	3274
880.907	3314
880.989	3206
881.000	3195
881.070	3550
881.106	3531
881.152	3109
881.213	2766
881.233	2714
881.315	2969
881.319	2977
881.396	3699
881.426	3680
881.478	3158
881.532	3528
881.559	3925
881.639	3676
881.641	3655
881.722	3396
881.745	3313
881.803	4030
881.852	4422
881.885	4151
881.958	3310
881.966	3247
882.047	3106
882.064	3082
882.129	3204
882.171	2923
882.210	2493
882.277	2423
882.291	2585
882.372	3310
882.383	3444
882.454	4240
882.489	4249
882.535	3949
882.596	4170
882.616	4233
882.697	3884
882.702	3839
882.778	3306
882.808	3194
882.859	2680
882.914	2850
882.940	3219
883.020	3431
883.021	3435
883.102	3768
883.127	3903
883.183	4578
883.233	4884
883.264	4198
883.339	2436
883.345	2405
883.426	1935
883.445	1885
883.507	2222
883.551	2794
883.587	3281
883.657	3974
883.668	4104
883.749	4932
883.763	4921
883.830	3319
883.869	2752
883.910	2772
883.975	2607
883.991	2698
884.072	3815
884.081	3869
884.152	4440
884.187	4890
884.233	5394
884.292	5145
884.314	4372
884.394	1753
884.398	1641
884.475	1890
884.504	2051
884.555	1976
884.610	1773
884.636	2168
884.716	3460
884.716	3471
884.797	4531
884.821	4623
884.877	4247
884.927	3856
884.958	3620
885.033	3335
885.038	3291
885.118	2191
885.139	2070
885.199	2525
885.244	2627
885.279	2886
885.350	3817
885.359	4019
885.439	5445
885.456	5649
885.520	4352
885.561	3314
885.600	2576
885.667	2323
885.680	2592
885.760	3556
885.773	3660
885.840	2588
885.878	2156
885.920	2475
885.984	3100
886.000	3257
886.080	3768
886.089	3839
886.160	4440
886.195	4470
886.240	4101
886.300	3964
886.320	3968
886.400	3776
886.406	3751
886.480	2980
886.511	2648
886.560	2635
886.616	2800
886.640	2911
886.720	3085
886.722	3088
886.800	3193
886.827	3108
886.879	3234
886.932	3541
886.959	3880
887.038	4665
887.039	4665
887.119	3928
887.143	3745
887.198	3847
887.248	4035
887.278	3933
887.354	3352
887.358	3348
887.437	3213
887.459	3227
887.517	3973
887.564	4449
887.596	4241
887.669	3554
887.676	3464
887.755	2543
887.774	2293
887.835	2219
887.880	2257
887.914	2517
887.985	2771
887.994	2904
888.073	4429
888.090	4657
888.153	5342
888.195	5794
888.232	4831
888.300	3112
888.311	3040
888.391	2512
888.405	2401
888.470	2459
888.510	2485
888.549	2673
888.615	3037
888.628	3196
888.708	4196
888.720	4310
888.787	4583
888.825	4764
888.866	3882
888.930	2528
888.945	2607
889.024	3009
889.035	3044
889.103	3683
889.140	4068
889.182	3897
889.245	3631
889.261	3642
889.340	3636
889.349	3630
889.419	3401
889.454	3282
889.498	3064
889.559	2770
889.577	2835
889.656	3105
889.664	3131
889.735	3532
889.768	3713
889.814	3426
889.873	3029
889.978	3456
890.083	3219
890.187	3260
890.292	4428
890.397	3262
890.501	3033
890.606	3260
890.710	3475
890.815	4821
890.919	4297
891.024	4103
891.128	3861
891.233	2211
891.337	3127
891.442	4147
891.546	3613
891.650	3572
891.755	2600
891.859	4916
891.963	4521
892.068	3556
892.172	2379
892.276	1212
892.380	2056
892.484	4618
892.589	4962
892.693	4480
892.797	1987
892.901	1741
893.005	2423
893.109	3689
893.213	3881
893.317	3101
893.421	1734
893.525	2021
893.629	2954
893.733	3895
893.837	2618
893.941	2458
894.045	2465
894.148	1686
894.252	2217
894.356	3429
894.460	5821
894.564	3336
894.667	3056
894.771	1472
894.875	1742
894.978	2211
895.082	3251
895.186	3646
895.289	3509
895.393	2649
895.496	3436
895.600	2401
895.703	2523
895.807	2749
895.910	3185
896.014	3124
896.117	3143
896.221	3451
896.324	3504
896.427	2031
896.531	2397
896.634	3039
896.737	2327
896.840	4032
896.944	3595
897.047	3394
897.150	2820
897.253	1722
897.356	1571
897.460	1257
897.563	2878
897.666	4005
897.769	3044
897.872	1805
897.975	1982
898.078	2862
898.181	2232
898.284	2462
898.387	3928
898.490	3827
898.593	2264
898.695	2831
898.798	2214
898.901	1774
899.004	2266
899.107	3150
899.209	2426
899.312	4790
899.415	2904
899.518	1264
899.620	1769
899.723	1592
899.826	1878
899.928	2395
900.031	2143
900.133	4228
900.236	2637
900.338	1283
900.441	1955
900.543	2239
900.646	3022
900.748	2826
900.851	3332
900.953	2646
901.055	2051
901.158	1485
901.260	861
901.362	1859
901.465	1320
901.567	3125
901.669	3322
901.771	2273
901.873	3303
901.976	2123
902.078	2980
902.180	2361
902.282	1239
902.384	2481
902.486	3348
902.588	3625
902.690	1677
902.792	2415
902.894	2431
902.996	3660
903.098	3025
903.200	2383
903.302	1825
903.404	1404
903.505	2097
903.607	1913
903.709	3835
903.811	3969
903.913	1819
904.014	1116
904.116	1622
904.218	1802
904.319	3015
904.421	4443
904.523	5062
904.624	2328
904.726	2065
904.827	1699
904.929	2210
905.030	1648
905.132	3130
905.233	3396
905.335	2918
905.436	2311
905.537	1117
905.639	1134
905.740	2036
905.841	3869
905.943	2989
906.044	2173
906.145	1716
906.247	1324
906.348	2023
906.449	2068
906.550	3197
906.651	2150
906.752	2146
906.854	2088
906.955	1822
907.056	1556
907.157	3666
907.258	3538
907.359	1477
907.460	1419
907.561	1110
907.662	1560
907.762	2339
907.863	3061
907.964	3483
908.065	2715
908.166	1991
908.267	2618
908.367	1327
908.468	1298
908.569	1794
908.670	2675
908.770	1813
908.871	2462
908.971	2316
909.072	1986
909.173	1174
909.273	1885
909.374	2634
909.474	2645
909.575	1449
909.675	1028
909.776	2846
909.876	1248
909.977	1980
910.077	2638
910.177	2797
910.278	2181
910.378	1986
910.478	2476
910.579	3558
910.679	2928
910.779	3410
910.879	3369
910.980	1379
911.080	3563
911.180	1569
911.280	2138
911.380	1356
911.480	1252
911.580	2144
911.680	2432
911.780	2310
911.880	2295
911.980	1373
912.080	1010
912.180	2592
912.280	1511
912.380	1987
912.480	1932
912.580	1570
912.679	1470
912.779	2889
912.879	1785
912.979	1808
913.078	1384
913.178	1965
913.278	1892
913.377	1734
913.477	1726
913.577	1897
913.676	2524
913.776	3660
913.875	2003
913.975	2066
914.074	1960
914.174	2551
914.273	1625
914.373	3027
914.472	1231
914.572	1197
914.671	1593
914.770	2277
914.870	1590
914.969	1587
915.068	2832
915.167	2404
915.267	2196
915.366	1638
915.465	2105
915.564	1238
915.663	1922
915.763	1741
915.862	3225
915.961	2722
916.060	1091
916.159	2020
916.258	1079
916.357	1402
916.456	2836
916.555	2125
916.654	1779
916.752	2300
916.851	2553
916.950	1690
917.049	1134
917.148	1354
917.247	1804
917.345	1256
917.444	1422
917.543	2900
917.642	1944
917.740	1638
917.839	4645
917.937	3378
918.036	2612
918.135	1930
918.233	1921
918.332	1203
918.430	1934
918.529	2123
918.627	2123
918.726	2834
918.824	2974
918.923	1836
919.021	2361
919.119	1925
919.218	1813
919.316	2385
919.414	2213
919.512	3918
919.611	2791
919.709	2314
919.807	3855
919.905	4842
920.003	3450
920.102	3686
920.200	3175
920.298	3705
920.396	3448
920.494	3753
920.592	2843
920.690	2918
920.788	2855
920.886	2962
920.984	4252
921.082	3271
921.180	5294
921.277	4493
921.375	5420
921.473	6916
921.571	6397
921.669	6317
921.766	5825
921.864	5983
921.962	6242
922.060	5681
922.157	6261
922.255	7005
922.352	6994
922.450	7571
922.548	6699
922.645	8238
922.743	10939
922.840	15718
922.938	19687
923.035	16735
923.133	16737
923.230	18218
923.327	23389
923.425	20915
923.522	20010
923.619	19102
923.717	17995
923.814	17259
923.911	16454
924.008	17594
924.106	17080
924.203	15828
924.300	17407
924.397	16623
924.494	15340
924.591	16286
924.688	15121
924.786	16420
924.883	16849
924.979	15601
925.077	16352
925.173	15008
925.270	15882
925.367	15591
925.464	16461
925.561	16616
925.658	17483
925.755	15055
925.852	17929
925.948	15791
926.045	15981
926.142	16567
926.239	17854
926.335	13270
926.432	15852
926.529	17605
926.625	18671
926.722	14747
926.818	13977
926.915	16688
927.011	14988
927.108	14594
927.204	14381
927.301	13613
927.397	14976
927.494	18339
927.590	12322
927.687	12118
927.783	16337
927.879	15998
927.976	13756
928.072	12562
928.168	14775
928.264	15156
928.361	12948
928.457	16351
928.553	11956
928.649	13177
928.745	14838
928.841	12411
928.937	13733
929.033	14205
929.129	12214
929.225	15335
929.321	14136
929.417	10961
929.513	15079
929.609	13036
929.705	11502
929.801	14074
929.897	11399
929.993	12104
930.089	13081
930.184	11067
930.280	12162
930.376	15380
930.471	12779
930.567	9292
930.663	12057
930.758	9819
930.854	10922
930.950	11049
931.045	10749
931.141	10323
931.236	13786
931.332	12206
931.427	9288
931.523	14295
931.618	13207
931.714	8096
931.809	9872
931.905	12939
932.000	9512
932.095	7582
932.191	12958
932.286	14918
932.381	11287
932.476	8217
932.572	10909
932.667	9744
932.762	9370
932.857	11390
932.952	13455
933.047	11000
933.142	9627
933.237	10829
933.332	11874
933.427	11971
933.522	10296
933.617	8713
933.712	9860
933.807	11800
933.902	13810
933.997	12924
934.092	8589
934.187	8784
934.282	10580
934.376	10538
934.471	12282
934.566	9077
934.661	8782
934.755	11429
934.850	11816
934.945	9495
935.039	8602
935.134	7306
935.228	8472
935.323	13936
935.417	9693
935.512	5548
935.606	6350
935.701	9757
935.795	10538
935.890	10106
935.984	8604
936.079	6656
936.173	8906
936.267	8876
936.362	7143
936.456	8477
936.550	12651
936.644	9707
936.738	7233
936.833	7517
936.927	5810
937.021	8179
937.115	8342
937.209	9522
937.303	8508
937.397	6348
937.491	8328
937.585	10114
937.679	8947
937.773	6880
937.867	6135
937.961	5986
938.055	10070
938.149	10092
938.243	5907
938.337	5224
938.430	6568
938.524	10417
938.618	8870
938.712	7008
938.805	6927
938.899	8140
938.993	11010
939.086	7988
939.180	6254
939.274	8392
939.367	9212
939.461	9984
939.554	7381
939.648	6224
939.741	6596
939.835	7322
939.928	10708
940.022	9417
940.115	6393
940.208	9219
940.302	10390
940.395	11862
940.488	6799
940.582	6912
940.675	5467
940.768	5798
940.861	9059
940.954	10544
941.048	5411
941.141	4479
941.234	5821
941.327	6814
941.420	7537
941.513	8188
941.606	6644
941.699	5624
941.792	7545
941.885	8069
941.978	7611
942.071	7041
942.164	5216
942.257	4549
942.349	6172
942.442	7015
942.535	5087
942.628	5322
942.721	6138
942.813	5519
942.906	7852
942.999	6187
943.091	4224
943.184	6078
943.277	6112
943.369	5895
943.462	3589
943.554	6107
943.647	6153
943.739	7339
943.832	8460
943.924	3511
944.017	3934
944.109	4470
944.201	5818
944.294	5818
944.386	5590
944.478	5037
944.571	3159
944.663	5694
944.755	6460
944.847	6148
944.940	6379
945.032	3655
945.124	4294
945.216	6014
945.308	5674
945.400	6553
945.492	4622
945.584	7355
945.676	7131
945.768	5890
945.860	6124
945.952	7684
946.044	6722
946.136	4316
946.228	5424
946.320	5050
946.412	6273
946.503	6675
946.595	7168
946.687	4496
946.779	3656
946.870	4143
946.962	5172
947.054	5105
947.145	6347
947.237	3783
947.329	4678
947.420	5043
947.512	5171
947.603	2771
947.695	4735
947.786	3446
947.878	4092
947.969	6207
948.061	5347
948.152	5380
948.243	3559
948.335	3004
948.426	2896
948.517	4685
948.609	5593
948.700	5145
948.791	4534
948.882	2819
948.973	2353
949.065	4295
949.156	5225
949.247	2155
949.338	4734
949.429	1438
949.520	3107
949.611	4079
949.702	5989
949.793	3907
949.884	4972
949.975	3514
950.066	2378
950.157	2716
950.247	3277
950.338	2627
950.429	2865
950.520	4774
950.611	2828
950.701	3597
950.792	6030
950.883	5366
950.973	3363
951.064	5219
951.155	5357
951.245	5244
951.336	4560
951.427	5391
951.517	6689
951.608	4781
951.698	4428
951.788	2772
951.879	2952
951.969	2943
952.060	3166
952.150	4346
952.240	6486
952.331	4189
952.421	4846
952.511	2259
952.602	2442
952.692	2676
952.782	2651
952.872	2718
952.962	3841
953.052	2761
953.143	2744
953.233	3639
953.323	3148
953.413	3874
953.503	5546
953.593	3743
953.683	3746
953.773	2337
953.863	2268
953.953	2047
954.042	3557
954.132	4058
954.222	4098
954.312	3351
954.402	3227
954.492	4043
954.581	3224
954.671	3264
954.761	3615
954.850	3844
954.940	1958
955.030	2356
955.119	1727
955.209	2586
955.298	2688
955.388	3470
955.477	5240
955.567	2051
955.656	3051
955.746	3453
955.835	2354
955.925	1897
956.014	3791
956.103	3652
956.193	6382
956.282	4054
956.371	3018
956.461	2857
956.550	1968
956.639	2873
956.728	2673
956.817	3066
956.906	3147
956.995	4041
957.085	2738
957.174	2492
957.263	3115
957.352	2489
957.441	2787
957.530	2823
957.619	2872
957.708	2725
957.796	2036
957.885	2342
957.974	3029
958.063	2384
958.152	1764
958.241	2527
958.329	2797
958.418	2541
958.507	2463
958.596	3791
958.684	2213
958.773	3486
958.861	2227
958.950	1850
959.039	1985
959.127	1513
959.216	3083
959.304	2025
959.393	2824
959.481	3674
959.570	1544
959.658	1166
959.746	1156
959.835	2532
959.923	1375
960.011	1142
960.100	3063
960.188	3608
960.276	2020
960.365	2169
960.453	2077
960.541	1354
960.629	2121
960.717	1497
960.805	1037
960.893	2435
960.981	2064
961.069	4774
961.158	4194
961.245	4862
961.333	4678
961.421	2531
961.509	2618
961.597	2570
961.685	2091
961.773	2152
961.861	2262
961.949	3166
962.036	2166
962.124	1917
962.212	1217
962.299	2188
962.387	1634
962.475	1468
962.562	1159
962.650	2770
962.738	2412
962.825	1476
962.913	1448
963.000	443
963.088	1464
963.175	2900
963.263	2285
963.350	1783
963.438	1449
963.525	558
963.612	2697
963.700	1952
963.787	1875
963.874	1749
963.962	1351
964.049	1541
964.136	1588
964.223	884
964.310	1422
964.398	1449
964.485	2016
964.572	2280
964.659	2137
964.746	1513
964.833	1599
964.920	1107
965.007	1253
965.094	2266
965.181	1111
965.268	2527
965.355	2098
965.441	1967
965.528	1401
965.615	2665
965.702	1856
965.789	1082
965.875	1986
965.962	3052
966.049	1550
966.136	3555
966.222	3346
966.309	3487
966.395	3731
966.482	3172
966.569	2189
966.655	2853
966.742	1298
966.828	2024
966.915	1089
967.001	987
967.087	351
967.174	1466
967.260	1107
967.347	828
967.433	2071
967.519	2103
967.605	2204
967.692	1731
967.778	2664
967.864	1310
967.950	1453
968.036	1389
968.123	1717
968.209	1955
968.295	1155
968.381	2046
968.467	1703
968.553	666
968.639	2027
968.725	1077
968.811	3403
968.897	3055
968.983	1988
969.069	39
969.154	827
969.240	1255
969.326	392
969.412	238
969.497	1201
969.583	838
969.669	2258
969.755	1390
969.840	2169
969.926	4063
970.012	5920
970.097	7244
970.183	6793
970.268	2999
970.354	2409
970.439	515
970.525	2214
970.610	178
970.696	3164
970.781	1548
970.866	578
970.952	1620
971.037	491
971.122	1811
971.208	1902
971.293	1497
971.378	939
971.463	1084
971.549	1689
971.634	1023
971.719	1052
971.804	1983
971.889	2317
971.974	827
972.059	1083
972.144	1393
972.229	1470
972.314	1780
972.399	1932
972.484	-5
972.569	1288
972.654	1018
972.739	1727
972.824	544
972.908	1068
972.993	743
973.078	457
973.163	880
973.247	1389
973.332	-634
973.417	1845
973.501	1432
973.586	1851
973.671	1134
973.755	1357
973.840	1111
973.924	1793
974.009	3142
974.093	3160
974.178	4227
974.262	2166
974.346	2237
974.431	1563
974.515	1402
974.600	1233
974.684	2634
974.768	531
974.852	2044
974.937	1506
975.021	1242
975.105	1559
975.189	525
975.273	1600
975.358	133
975.442	170
975.526	1739
975.610	610
975.694	642
975.778	2240
975.862	1261
975.946	-686
976.030	2710
976.114	1173
976.198	993
976.281	1653
976.365	2322
976.449	1395
976.533	1441
976.617	920
976.700	1157
976.784	357
976.868	-69
976.951	1060
977.035	617
977.119	995
977.202	1274
977.286	2266
977.369	2291
977.453	4794
977.536	4328
977.620	3500
977.703	3131
977.787	1989
977.870	2910
977.953	3567
978.037	727
978.120	1800
978.203	1761
978.287	2763
978.370	2240
978.453	1307
978.536	792
978.620	1991
978.703	1905
978.786	952
978.869	20
978.952	519
979.035	2512
979.118	2192
979.201	608
979.284	2095
979.367	1716
979.450	2198
979.533	1173
979.616	410
979.699	1350
979.782	1293
979.865	1786
979.948	1557
980.030	1020
980.113	1039
980.196	1374
980.279	2027
980.361	931
980.444	1610
980.526	2404
980.609	3511
980.692	5457
980.774	4777
980.857	2956
980.939	3933
981.022	3263
981.104	1944
981.187	2088
981.269	3151
981.352	2346
981.434	1607
981.516	1756
981.599	2963
981.681	1622
981.763	2056
981.846	1953
981.928	2050
982.010	1867
982.092	2074
982.174	2514
982.256	1757
982.339	2805
982.421	1317
982.503	1625
982.585	852
982.667	1003
982.749	2125
982.831	2072
982.913	1297
982.995	2445
983.077	1781
983.158	3324
983.240	2480
983.322	2821
983.404	6414
983.486	5099
983.568	5041
983.649	3658
983.731	4065
983.813	2683
983.894	2606
983.976	2968
984.058	2773
984.139	3421
984.221	1872
984.302	3230
984.384	2790
984.465	2214
984.547	2051
984.628	2326
984.710	3305
984.791	3014
984.872	3290
984.954	3241
985.035	2780
985.116	2950
985.198	2063
985.279	4541
985.360	2141
985.441	3246
985.522	3669
985.604	3402
985.685	1217
985.766	4359
985.847	3495
985.928	2855
986.009	3793
986.090	3307
986.171	3958
986.252	3368
986.333	3030
986.414	2808
986.495	3272
986.576	3233
986.656	3753
986.737	3840
986.818	3685
986.899	3624
986.980	3295
987.060	3907
987.141	3784
987.222	4481
987.302	5823
987.383	5443
987.464	4518
987.544	6272
987.625	4196
987.705	5610
987.786	5789
987.866	4906
987.947	4688
988.027	5153
988.108	4710
988.188	4190
988.268	3539
988.349	4363
988.429	4116
988.509	4054
988.589	4271
988.670	2933
988.750	5076
988.830	3436
988.910	4783
988.990	4676
989.070	4661
989.151	4309
989.231	3270
989.311	3583
989.391	3416
989.471	3758
989.551	3138
989.631	2452
989.711	3901
989.791	4294
989.870	3633
989.950	4070
990.030	2845
990.110	2813
990.190	2791
990.269	3279
990.349	2873
990.429	3977
990.509	2999
990.588	2011
990.668	2897
990.747	3556
990.827	2656
990.907	2712
990.986	3611
991.066	3712
991.145	1750
991.225	3850
991.304	3276
991.383	2828
991.463	2522
991.542	2718
991.622	1716
991.701	2513
991.780	2838
991.859	1678
991.939	1954
992.018	2934
992.097	3055
992.176	1950
992.256	2327
992.335	2882
992.414	3731
992.493	2213
992.572	1406
992.651	3249
992.730	2136
992.809	2096
992.888	845
992.967	1805
993.046	1675
993.125	1196
993.203	2157
993.282	2336
993.361	1379
993.440	1767
993.519	2481
993.597	2120
993.676	1180
993.755	2970
993.834	1416
993.912	1076
993.991	2432
994.069	1361
994.148	2206
994.226	1430
994.305	797
994.384	1364
994.462	2562
994.540	918
994.619	973
994.697	1351
994.776	1082
994.854	2367
994.932	937
995.011	1219
995.089	820
995.167	506
995.245	1020
995.324	1079
995.402	1218
995.480	929
995.558	539
995.636	824
995.714	929
995.792	1171
995.870	1215
995.948	1060
996.026	1261
996.104	898
996.182	2251
996.260	53
996.338	316
996.416	-161
996.494	1521
996.572	2260
996.649	1393
996.727	-29
996.805	1638
996.883	523
996.960	-128
997.038	1111
997.116	1469
997.193	373
997.271	733
997.348	-298
997.426	795
997.504	196
997.581	1288
997.658	791
997.736	-1013
997.813	-695
997.891	1054
997.968	-46
998.046	107
998.123	-66
998.200	1045
998.277	838
998.355	1309
998.432	-1666
998.509	375
998.586	868
998.663	124
998.741	-521
998.818	211
998.895	-367
998.972	159
999.049	1075
999.126	301
999.203	951
999.280	-441
999.357	16
999.434	-510
999.511	89
999.587	872
999.664	-301
999.741	359
999.818	6
999.895	96
999.971	-429
1000.048	248
1000.125	-635
1000.202	-48
1000.278	-37
1000.355	539
1000.431	-296
1000.508	-1268
1000.584	-203
1000.661	-325
1000.738	-650
1000.814	-337
1000.890	66
1000.967	655
1001.043	-339
1001.120	-766
1001.196	-20
1001.272	-467
1001.349	-201
1001.425	15
1001.501	-344
1001.577	-334
1001.654	834
1001.730	-607
1001.806	-523
1001.882	-912
1001.958	-17
1002.034	-279
1002.110	-172
1002.186	-1000
1002.262	-1574
1002.338	-292
1002.414	202
1002.490	191
1002.566	-1063
1002.642	-1454
1002.718	-50
1002.794	-937
1002.870	-245
1002.945	-893
1003.021	-989
1003.097	-1528
1003.173	-799
1003.248	-1476
1003.324	7
1003.400	84
1003.475	-1307
1003.551	-941
1003.626	-758
1003.702	-933
1003.777	-980
1003.853	-934
1003.928	-1447
1004.004	-895
1004.079	-262
1004.155	414
1004.230	-1283
1004.305	39
1004.381	-1331
1004.456	-1439
1004.531	-1307
1004.607	-1364
1004.682	-504
1004.757	-926
1004.832	-664
1004.907	-1896
1004.982	-1279
1005.057	-832
1005.133	-937
1005.208	-2139
1005.283	-1264
1005.358	-1023
1005.433	-1875
1005.508	-853
1005.583	-952
1005.657	-540
1005.732	-390
1005.807	-1472
1005.882	-1870
1005.957	-922
1006.032	-1537
1006.106	-1779
1006.181	-1194
1006.256	-646
1006.331	-815
1006.405	-1080
1006.480	-752
1006.554	-1469
1006.629	-901
1006.704	-1647
1006.778	-1157
1006.853	-1413
1006.927	-1732
1007.002	-1609
1007.076	-1930
1007.150	-1842
1007.225	-975
1007.299	-798
1007.373	-2335
1007.448	-1627
1007.522	-694
1007.596	-1457
1007.671	-1457
1007.745	-1070
1007.819	-1828
1007.893	-980
1007.967	-1102
1008.041	-2775
1008.115	-1026
1008.190	-1497
1008.264	-1353
1008.338	-2520
1008.412	-1910
1008.486	-1467
1008.560	-1169
1008.633	-2033
1008.707	-1307
1008.781	-589
1008.855	-1438
1008.929	-403
1009.003	-1991
1009.076	-1645
1009.150	-1640
1009.224	-1091
1009.298	-1992
1009.371	-1635
1009.445	-1519
1009.519	-1408
1009.592	-1854
1009.666	-1618
1009.739	-1474
1009.813	-2436
1009.886	-1152
1009.960	-1987
1010.033	-1079
1010.107	-1747
1010.180	-1963
1010.253	-2030
1010.327	-2574
1010.400	-1591
1010.473	-2309
1010.547	-551
1010.620	-2510
1010.693	-620
1010.766	-2113
1010.840	-1671
1010.913	-1945
1010.986	-2214
1011.059	-2054
1011.132	-1619
1011.205	-535
1011.278	-2566
1011.351	-1510
1011.424	-2443
1011.497	-2156
1011.570	-1632
1011.643	-1441
1011.716	-1962
1011.789	-2030
1011.862	-1604
1011.934	-1607
1012.007	-2703
1012.080	-2113
1012.153	-2494
1012.225	-1079
1012.298	-2678
1012.371	-1598
1012.443	-1164
1012.516	-1997
1012.588	-2658
1012.661	-1829
1012.733	-2911
1012.806	-1391
1012.879	-2739
1012.951	-2179
1013.023	-1391
1013.096	-1604
1013.168	-2059
1013.241	-1066
1013.313	-1281
1013.385	-1932
1013.458	-2102
1013.530	-1945
1013.602	-1988
1013.674	-649
1013.746	-3278
1013.819	-2420
1013.891	-1480
1013.963	-2480
1014.035	-1662
1014.107	-1401
1014.179	-1449
1014.251	-2965
1014.323	-1849
1014.395	-2541
1014.467	-2239
1014.539	-1664
1014.611	-2773
1014.683	-1961
1014.754	-1803
1014.826	-3613
1014.898	-1654
1014.970	-2187
1015.042	-1569
1015.113	-1484
1015.185	-1983
1015.257	-2339
1015.328	-1734
1015.400	-1266
1015.471	-1790
1015.543	-2502
1015.615	-1291
1015.686	-2381
1015.757	-2164
1015.829	-1629
1015.901	-2091
1015.972	-2050
1016.043	-1733
1016.115	-2199
1016.186	-2353
1016.257	-2502
1016.328	-1692
1016.400	-1768
1016.471	-2382
1016.542	-2742
1016.613	-1947
1016.685	-2060
1016.756	-1361
1016.827	-1872
1016.898	-3143
1016.969	-1499
1017.040	-1942
1017.111	-1468
1017.182	-2692
1017.253	-1575
1017.324	-1877
1017.395	-2022
1017.466	-2257
1017.537	-2124
1017.608	-1933
1017.678	-2222
1017.749	-2346
1017.820	-2359
1017.891	-2284
1017.961	-2411
1018.032	-1945
1018.103	-2344
1018.173	-2364
1018.244	-2648
1018.315	-2202
1018.385	-1731
1018.456	-2282
1018.526	-2308
1018.597	-2255
1018.667	-2649
1018.738	-1602
1018.808	-2703
1018.878	-2152
1018.949	-1654
1019.019	-1545
1019.089	-2555
1019.160	-1572
1019.230	-2945
1019.300	-2229
1019.371	-2744
1019.441	-2093
1019.511	-1969
1019.581	-2817
1019.651	-2164
1019.721	-1946
1019.791	-2947
1019.861	-1963
1019.931	-2405
1020.001	-2141
1020.071	-2352
1020.141	-2373
1020.211	-2233
1020.281	-2567
1020.351	-1842
1020.421	-2398
1020.491	-1888
1020.560	-3079
1020.630	-2239
1020.700	-2355
1020.770	-1772
1020.839	-2071
1020.909	-2370
1020.979	-2447
1021.048	-2228
1021.118	-3012
1021.187	-1677
1021.257	-2668
1021.326	-2696
1021.396	-2990
1021.465	-2365
1021.535	-1525
1021.604	-2239
1021.674	-3301
1021.743	-1968
1021.812	-2140
1021.882	-2825
1021.951	-1904
1022.020	-2361
1022.089	-1822
1022.159	-2787
1022.228	-2284
1022.297	-2953
1022.366	-2363
1022.435	-1961
1022.504	-2244
1022.573	-2479
1022.642	-1643
1022.711	-2896
1022.781	-2459
1022.849	-3098
1022.918	-3348
1022.987	-3121
1023.056	-3000
1023.125	-2399
1023.194	-2247
1023.263	-2037
1023.331	-1836
1023.400	-2886
1023.469	-2449
1023.538	-3227
1023.606	-2792
1023.675	-2249
1023.744	-2048
1023.812	-2435
1023.881	-1601
1023.949	-1963
1024.018	-2522
1024.086	-2722
1024.155	-2675
1024.223	-2488
1024.292	-2261
1024.360	-2463
1024.429	-2133
1024.497	-2822
1024.565	-2285
1024.634	-2619
1024.702	-2815
1024.770	-2503
1024.838	-2634
1024.907	-2709
1024.975	-2543
1025.043	-2527
1025.111	-2255
1025.179	-2804
1025.247	-2952
1025.315	-2953
1025.383	-2605
1025.451	-2859
1025.519	-2468
1025.587	-2825
1025.655	-2511
1025.723	-2690
1025.791	-2568
1025.859	-3132
1025.927	-2466
1025.995	-2317
1026.062	-2791
1026.130	-1970
1026.198	-3394
1026.266	-2260
1026.333	-1428
1026.401	-1646
1026.469	-2381
1026.536	-2561
1026.604	-2837
1026.671	-2819
1026.739	-2490
1026.806	-2610
1026.874	-1992
1026.941	-2035
1027.009	-2952
1027.076	-2106
1027.144	-2705
1027.211	-2458
1027.278	-1890
1027.345	-2797
1027.413	-2847
1027.480	-2899
1027.547	-3000
1027.614	-2344
1027.682	-2308
1027.749	-2185
1027.816	-2817
1027.883	-2840
1027.950	-2220
1028.017	-3137
1028.084	-2216
1028.151	-3082
1028.218	-1698
1028.285	-2525
1028.352	-2854
1028.419	-2981
1028.486	-2655
1028.553	-2598
1028.619	-3215
1028.686	-2256
1028.753	-2711
1028.820	-2782
1028.886	-2492
1028.953	-2437
1029.020	-3104
1029.086	-2445
1029.153	-2810
1029.220	-3309
1029.286	-2642
1029.353	-2622
1029.419	-2974
1029.486	-2488
1029.552	-2957
1029.619	-2846
1029.685	-2904
1029.751	-2737
1029.818	-2117
1029.884	-2909
1029.951	-2041
1030.017	-2446
1030.083	-2657
1030.149	-1923
1030.216	-2864
1030.282	-2873
1030.348	-2067
1030.414	-2274
1030.480	-2879
1030.546	-2359
1030.612	-1918
1030.678	-3293
1030.744	-2376
1030.810	-2840
1030.876	-2964
1030.942	-2930
1031.008	-2890
1031.074	-2734
1031.140	-2765
1031.206	-2374
1031.272	-3700
1031.337	-2169
1031.403	-2169
1031.469	-2869
1031.534	-3021
1031.600	-2532
1031.666	-2987
1031.731	-3692
1031.797	-2047
1031.863	-2010
1031.928	-2517
1031.994	-2094
1032.059	-2931
1032.125	-2882
1032.190	-2160
1032.256	-3764
1032.321	-3228
1032.386	-1882
1032.452	-2329
1032.517	-2552
1032.582	-2800
1032.647	-2530
1032.713	-2611
1032.778	-2680
1032.843	-3004
1032.908	-3273
1032.974	-2511
1033.039	-3671
1033.104	-2777
1033.169	-3203
1033.234	-2388
1033.299	-2815
1033.364	-2514
1033.429	-1931
1033.494	-1966
1033.559	-1903
1033.624	-3257
1033.688	-2479
1033.753	-3459
1033.818	-1536
1033.883	-1798
1033.948	-1750
1034.013	-1305
1034.077	-987
1034.142	250
1034.207	606
1034.271	1717
1034.336	3932
1034.400	1652
1034.465	11
1034.530	-1643
1034.594	-1808
1034.658	-2100
1034.723	-2704
1034.787	-2130
1034.852	-2635
1034.916	-2206
1034.981	-2865
1035.045	-2753
1035.109	-2183
1035.173	-1873
1035.238	-3261
1035.302	-2508
1035.366	-2241
1035.430	-2654
1035.495	-2805
1035.559	-2609
1035.623	-2825
1035.687	-2751
1035.751	-3040
1035.815	-2151
1035.879	-2956
1035.943	-2700
1036.007	-2396
1036.071	-2254
1036.135	-2045
1036.198	-2683
1036.262	-3015
1036.326	-1949
1036.390	-2803
1036.454	-2551
1036.517	-2573
1036.581	-2327
1036.645	-4222
1036.709	-2496
1036.772	-2924
1036.836	-2932
1036.900	-3425
1036.963	-3795
1037.026	-1985
1037.090	-2491
1037.154	-1909
1037.217	-2341
1037.280	-2939
1037.344	-2951
1037.407	-2993
1037.471	-2073
1037.534	-2057
1037.597	-2302
1037.661	-2777
1037.724	-2399
1037.787	-2310
1037.850	-1641
1037.913	-2484
1037.977	-1853
1038.040	-2125
1038.103	-3112
1038.166	-2525
1038.229	-2071
1038.292	-3531
1038.355	-3034
1038.418	-2469
1038.481	-2367
1038.544	-3202
1038.607	-2959
1038.670	-2496
1038.732	-3003
1038.795	-2566
1038.858	-1395
1038.921	-2768
1038.984	-1860
1039.046	-2706
1039.109	-3053
1039.172	-2218
1039.234	-2561
1039.297	-2645
1039.360	-2488
1039.422	-3050
1039.485	-1969
1039.547	-3280
1039.610	-2433
1039.672	-2583
1039.734	-2160
1039.797	-2758
1039.859	-2457
1039.922	-3144
1039.984	-2767
1040.046	-2569
1040.109	-2252
1040.171	-3479
1040.233	-2598
1040.295	-2181
1040.358	-2777
1040.420	-2499
1040.482	-2202
1040.544	-2610
1040.606	-2398
1040.668	-2584
1040.730	-2837
1040.792	-2297
1040.854	-1901
1040.916	-2560
1040.978	-2036
1041.040	-1898
1041.102	-2903
1041.164	-2459
1041.225	-2495
1041.287	-2932
1041.349	-3170
1041.411	-3420
1041.472	-2207
1041.534	-2194
1041.596	-2790
1041.657	-3215
1041.719	-1967
1041.781	-3191
1041.842	-2528
1041.904	-2511
1041.965	-2742
1042.027	-3294
1042.088	-3070
1042.150	-3127
1042.211	-2062
1042.272	-1915
1042.334	-2806
1042.395	-2685
1042.456	-2400
1042.518	-2171
1042.579	-2532
1042.640	-2301
1042.701	-2284
1042.763	-2407
1042.824	-2712
1042.885	-2766
1042.946	-2663
1043.007	-2520
1043.068	-2424
1043.129	-2411
1043.190	-3152
1043.251	-2292
1043.312	-2438
1043.373	-2474
1043.434	-2990
1043.495	-1723
1043.556	-2269
1043.616	-3171
1043.677	-2320
1043.738	-2645
1043.799	-2670
1043.859	-3105
1043.920	-2648
1043.981	-2491
1044.041	-1866
1044.102	-2227
1044.162	-2562
1044.223	-3122
1044.284	-2435
1044.344	-2722
1044.405	-2467
1044.465	-1886
1044.525	-2909
1044.586	-2728
1044.646	-2422
1044.707	-1800
1044.767	-1781
1044.827	-2565
1044.887	-2212
1044.948	-1277
1045.008	-1636
1045.068	-2620
1045.128	-2386
1045.188	-2821
1045.249	-1548
1045.309	-2787
1045.369	-2722
1045.429	-2217
1045.489	-1992
1045.549	-2584
1045.609	-2027
1045.669	-2756
1045.729	-2862
1045.789	-2373
1045.848	-2280
1045.908	-2453
1045.968	-1343
1046.028	-1699
1046.088	-2310
1046.147	-1521
1046.207	-2341
1046.267	-1798
1046.326	-1846
1046.386	-1126
1046.446	-2296
1046.505	-2447
1046.565	-497
1046.624	-1647
1046.684	-970
1046.743	-1435
1046.803	-952
1046.862	-428
1046.922	0
