'Start Wavelength	183.907
'End Wavelength	1046.922
'Gate Delay	5.000
'Gate Width (ms)	1.050
'Laser Output Level	0.000
'X Position	0.000
'Y Position	0.000
'Z Position	0.000
'Grid Point Number	1.000
'Shot Number	100.000
183.907	282.000
183.977	157.000
184.047	-67
184.116	625
184.186	555
184.256	205
184.325	-210
184.395	94
184.465	1168
184.534	106
184.604	-862
184.674	373
184.743	-91
184.813	-158
184.883	52
184.952	54
185.022	-365
185.092	-616
185.161	-431
185.231	120
185.301	-303
185.370	209
185.440	584
185.509	-572
185.579	-75
185.649	-182
185.718	308
185.788	-19
185.857	127
185.927	-2
185.996	81
186.066	51
186.136	-120
186.205	-148
186.275	-255
186.344	393
186.414	-107
186.483	-240
186.553	747
186.622	207
186.692	565
186.761	-284
186.831	641
186.900	-281
186.970	874
187.039	522
187.109	970
187.178	-251
187.248	468
187.317	157
187.387	443
187.456	977
187.526	618
187.595	621
187.664	-130
187.734	-192
187.803	-350
187.873	234
187.942	593
188.012	-94
188.081	28
188.150	-215
188.220	419
188.289	284
188.358	52
188.428	-289
188.497	-282
188.567	-46
188.636	53
188.705	326
188.775	498
188.844	-308
188.913	784
188.983	-334
189.052	-251
189.121	123
189.191	-727
189.260	511
189.329	-19
189.399	-459
189.468	757
189.537	375
189.606	-592
189.676	-191
189.745	-345
189.814	399
189.883	-131
189.953	-399
190.022	1032
190.091	181
190.161	910
190.230	-379
190.299	48
190.368	-324
190.437	2
190.507	-503
190.576	-69
190.645	-170
190.714	305
190.783	-573
190.853	750
190.922	1145
190.991	558
191.060	-333
191.129	-847
191.198	263
191.268	-398
191.337	204
191.406	316
191.475	-167
191.544	-373
191.613	-161
191.682	529
191.752	222
191.821	175
191.890	-187
191.959	957
192.028	126
192.097	159
192.166	211
192.235	-580
192.304	535
192.373	-30
192.442	539
192.511	589
192.580	-266
192.650	158
192.719	-380
192.788	365
192.857	306
192.926	385
192.995	796
193.064	315
193.133	240
193.202	522
193.271	628
193.340	872
193.409	-87
193.478	417
193.547	1158
193.615	814
193.684	493
193.753	668
193.822	377
193.891	-127
193.960	498
194.029	-632
194.098	-169
194.167	187
194.236	406
194.305	351
194.374	-423
194.443	439
194.512	836
194.580	1041
194.649	482
194.718	-314
194.787	452
194.856	-472
194.925	38
194.994	-151
195.062	577
195.131	-409
195.200	87
195.269	518
195.338	292
195.407	50
195.475	-157
195.544	-77
195.613	87
195.682	-171
195.751	381
195.819	-54
195.888	-147
195.957	245
196.026	764
196.094	680
196.163	-40
196.232	318
196.301	174
196.369	382
196.438	-103
196.507	-1111
196.576	90
196.644	-433
196.713	643
196.782	47
196.850	1178
196.919	443
196.988	72
197.056	-133
197.125	532
197.194	-18
197.262	763
197.331	-423
197.400	-423
197.468	262
197.537	11
197.606	-127
197.674	534
197.743	522
197.812	357
197.880	1122
197.949	-254
198.017	707
198.086	101
198.155	-446
198.223	737
198.292	-107
198.360	332
198.429	162
198.497	640
198.566	597
198.635	990
198.703	74
198.772	825
198.840	945
198.909	1070
198.977	361
199.046	225
199.114	1080
199.183	545
199.251	693
199.320	297
199.388	-22
199.457	-369
199.525	180
199.594	-366
199.662	352
199.731	201
199.799	610
199.867	403
199.936	311
200.004	420
200.073	517
200.141	-171
200.210	-108
200.278	-181
200.346	165
200.415	647
200.483	168
200.552	1229
200.620	450
200.688	141
200.757	-528
200.825	262
200.893	411
200.962	405
201.030	-19
201.098	207
201.167	-11
201.235	146
201.303	72
201.372	976
201.440	822
201.508	-365
201.577	570
201.645	1149
201.713	112
201.781	-207
201.850	-18
201.918	134
201.986	55
202.055	-213
202.123	507
202.191	-298
202.259	99
202.327	345
202.396	232
202.464	-318
202.532	-709
202.600	151
202.669	422
202.737	-166
202.805	-105
202.873	546
202.941	588
203.009	266
203.078	196
203.146	884
203.214	319
203.282	-26
203.350	-185
203.418	169
203.487	90
203.555	-76
203.623	-259
203.691	-34
203.759	10
203.827	-697
203.895	154
203.963	158
204.031	582
204.099	72
204.168	-606
204.236	982
204.304	-122
204.372	113
204.440	382
204.508	-28
204.576	-206
204.644	381
204.712	-887
204.780	-435
204.848	67
204.916	-143
204.984	-18
205.052	396
205.120	-34
205.188	143
205.256	-46
205.324	-135
205.392	-280
205.460	-323
205.528	309
205.596	797
205.664	228
205.732	-179
205.799	714
205.867	1660
205.935	134
206.003	593
206.071	369
206.139	-374
206.207	95
206.275	102
206.343	-688
206.411	-17
206.478	613
206.546	308
206.614	-137
206.682	-190
206.750	-80
206.818	436
206.885	837
206.953	-764
207.021	1350
207.089	366
207.157	-271
207.225	385
207.292	723
207.360	-161
207.428	903
207.496	202
207.563	-85
207.631	463
207.699	470
207.767	-124
207.834	258
207.902	223
207.970	459
208.038	-71
208.105	-196
208.173	182
208.241	-240
208.309	986
208.376	-7
208.444	1045
208.512	-54
208.579	-532
208.647	851
208.715	1156
208.782	247
208.850	-47
208.918	328
208.985	-78
209.053	784
209.120	327
209.188	366
209.256	166
209.323	-15
209.391	566
209.459	2137
209.526	644
209.594	529
209.661	356
209.729	737
209.796	-1
209.864	395
209.932	-562
209.999	432
210.067	1264
210.134	-384
210.202	-307
210.269	1427
210.337	1299
210.404	430
210.472	156
210.539	379
210.607	92
210.674	-250
210.742	13
210.809	-154
210.877	657
210.944	921
211.012	142
211.079	2509
211.146	544
211.214	587
211.281	1115
211.349	883
211.416	522
211.484	669
211.551	114
211.618	458
211.686	428
211.753	319
211.821	1116
211.888	845
211.955	534
212.023	478
212.090	33
212.157	376
212.225	427
212.292	940
212.359	2020
212.427	4486
212.494	1383
212.561	1130
212.629	562
212.696	311
212.763	531
212.831	-209
212.898	724
212.965	366
213.032	46
213.100	164
213.167	192
213.234	1009
213.301	667
213.369	273
213.436	52
213.503	82
213.570	693
213.638	-246
213.705	-352
213.772	293
213.839	205
213.906	-121
213.973	-114
214.041	544
214.108	1203
214.175	90
214.242	478
214.309	409
214.376	430
214.444	657
214.511	292
214.578	242
214.645	367
214.712	687
214.779	594
214.846	193
214.913	68
214.980	1625
215.048	405
215.115	1064
215.182	1059
215.249	1044
215.316	496
215.383	519
215.450	342
215.517	137
215.584	339
215.651	228
215.718	961
215.785	644
215.852	-581
215.919	785
215.986	1174
216.053	-116
216.120	-173
216.187	1019
216.254	471
216.321	262
216.388	262
216.455	823
216.522	1153
216.589	458
216.656	487
216.722	841
216.789	-163
216.856	984
216.923	1015
216.990	1089
217.057	283
217.124	806
217.191	405
217.258	1631
217.324	1278
217.391	1088
217.458	1243
217.525	1175
217.592	633
217.659	-301
217.725	496
217.792	677
217.859	592
217.926	714
217.993	676
218.059	344
218.126	171
218.193	62
218.260	532
218.327	-255
218.393	589
218.460	-94
218.527	266
218.594	249
218.660	353
218.727	1072
218.794	-99
218.860	963
218.927	-73
218.994	247
219.061	376
219.127	1176
219.194	856
219.261	-300
219.327	122
219.394	1054
219.461	-942
219.527	954
219.594	592
219.661	-336
219.727	-325
219.794	564
219.860	114
219.927	656
219.994	1290
220.060	1620
220.127	1844
220.193	1790
220.260	807
220.326	1602
220.393	2100
220.460	1792
220.526	1754
220.593	557
220.659	1628
220.726	1198
220.792	2553
220.859	2160
220.925	3467
220.992	5226
221.058	4509
221.125	3722
221.191	2192
221.258	370
221.324	855
221.391	531
221.457	297
221.524	974
221.590	1195
221.657	2652
221.723	1260
221.789	1898
221.856	1597
221.922	789
221.989	475
222.055	761
222.121	-1107
222.188	2000
222.254	675
222.321	686
222.387	-174
222.453	-21
222.520	-214
222.586	-233
222.652	61
222.719	-1351
222.785	406
222.851	-577
222.918	194
222.984	-225
223.050	-273
223.116	-1363
223.183	1463
223.249	-327
223.315	-420
223.382	-119
223.448	-40
223.514	-584
223.580	489
223.647	-173
223.713	-365
223.779	-215
223.845	-205
223.911	670
223.978	-15
224.044	329
224.110	-245
224.176	309
224.242	426
224.309	-898
224.375	132
224.441	-219
224.507	-615
224.573	-1275
224.639	-73
224.705	182
224.772	544
224.838	-250
224.904	-50
224.970	-140
225.036	-247
225.102	-1533
225.168	672
225.234	-416
225.300	393
225.366	-175
225.432	1091
225.499	56
225.565	-284
225.631	-290
225.697	18
225.763	541
225.829	24
225.895	633
225.961	494
226.027	1337
226.093	-259
226.159	879
226.225	2410
226.291	4809
226.357	7649
226.423	3846
226.489	2098
226.554	655
226.620	1315
226.686	1109
226.752	1809
226.818	3693
226.884	8806
226.950	8143
227.016	3216
227.082	1759
227.148	251
227.214	1657
227.279	227
227.345	553
227.411	820
227.477	1277
227.543	4055
227.609	3519
227.674	1804
227.740	620
227.806	631
227.872	-864
227.938	526
228.003	1172
228.069	270
228.135	-453
228.201	59
228.267	-530
228.332	-118
228.398	-448
228.464	44
228.530	-313
228.595	197
228.661	-501
228.727	457
228.792	956
228.858	-306
228.924	-1146
228.990	1427
229.055	-989
229.121	-118
229.187	-95
229.252	-395
229.318	-284
229.384	771
229.449	171
229.515	-1073
229.581	-763
229.646	1454
229.712	594
229.777	160
229.843	-27
229.909	793
229.974	861
230.040	444
230.105	563
230.171	383
230.236	715
230.302	844
230.368	135
230.433	528
230.499	339
230.564	1343
230.630	-108
230.695	791
230.761	1130
230.826	-1453
230.892	1478
230.957	-334
231.023	-452
231.088	-226
231.154	165
231.219	572
231.284	65
231.350	-404
231.415	-1023
231.481	352
231.546	-452
231.612	641
231.677	-625
231.742	-682
231.808	842
231.873	-460
231.939	-1179
232.004	1289
232.069	554
232.135	-171
232.200	-321
232.265	612
232.331	-791
232.396	-305
232.461	329
232.527	-1373
232.592	-347
232.657	-129
232.723	-375
232.788	-174
232.853	1353
232.918	-164
232.984	-266
233.049	-435
233.114	-1353
233.179	-285
233.245	579
233.310	278
233.375	-521
233.440	570
233.506	-142
233.571	-359
233.636	-250
233.701	275
233.766	-100
233.832	-381
233.897	23
233.962	-1113
234.027	940
234.092	67
234.157	-618
234.222	126
234.288	1378
234.353	462
234.418	1082
234.483	945
234.548	553
234.613	-30
234.678	234
234.743	-316
234.808	1950
234.873	-958
234.938	876
235.004	295
235.069	334
235.134	-290
235.199	787
235.264	-292
235.329	-992
235.394	866
235.459	667
235.524	-437
235.589	-149
235.654	165
235.719	-985
235.784	13
235.849	26
235.913	50
235.978	409
236.043	89
236.108	661
236.173	-280
236.238	466
236.303	215
236.368	-90
236.433	1392
236.498	286
236.563	1985
236.627	3302
236.692	12623
236.757	9838
236.822	3174
236.887	1385
236.952	1574
237.017	353
237.081	2767
237.146	964
237.211	5689
237.276	12305
237.341	18622
237.405	7466
237.470	3428
237.535	1493
237.600	1474
237.664	1219
237.729	-23
237.794	968
237.859	4361
237.923	1191
237.988	1084
238.053	876
238.118	396
238.182	1551
238.247	2997
238.312	-52
238.376	997
238.441	-1059
238.506	1607
238.570	-600
238.635	803
238.700	578
238.764	-637
238.829	319
238.893	-128
238.958	905
239.023	929
239.087	-229
239.152	411
239.216	314
239.281	-177
239.346	144
239.410	-347
239.475	135
239.539	2504
239.604	751
239.668	1050
239.733	638
239.797	2773
239.862	8172
239.926	5074
239.991	1797
240.055	427
240.120	151
240.184	-176
240.249	-572
240.313	709
240.378	288
240.442	193
240.507	1875
240.571	75
240.635	-243
240.700	381
240.764	291
240.829	-428
240.893	-1222
240.957	213
241.022	750
241.086	572
241.151	-562
241.215	-547
241.279	612
241.344	-201
241.408	926
241.472	-908
241.537	1113
241.601	630
241.665	-635
241.730	-893
241.794	1202
241.858	-178
241.922	1126
241.987	692
242.051	-442
242.115	-549
242.179	288
242.244	-302
242.308	835
242.372	619
242.436	-134
242.501	705
242.565	-641
242.629	72
242.693	392
242.757	-1250
242.822	451
242.886	61
242.950	538
243.014	-1147
243.078	217
243.142	77
243.206	164
243.271	582
243.335	-319
243.399	2521
243.463	5212
243.527	15916
243.591	3956
243.655	1183
243.719	-348
243.783	1414
243.847	1898
243.911	1299
243.975	-266
244.040	-773
244.104	1465
244.168	-106
244.232	-125
244.296	1158
244.360	2402
244.424	-357
244.488	-178
244.552	32
244.615	-1513
244.679	42
244.743	-610
244.807	-366
244.871	-234
244.935	152
244.999	-357
245.063	-636
245.127	878
245.191	303
245.255	329
245.319	470
245.383	-1422
245.446	1630
245.510	-674
245.574	-471
245.638	460
245.702	-1314
245.766	562
245.829	641
245.893	-956
245.957	-455
246.021	848
246.085	381
246.149	-642
246.212	1124
246.276	1580
246.340	437
246.404	391
246.467	663
246.531	-1116
246.595	833
246.659	1513
246.722	-283
246.786	-331
246.850	322
246.913	-644
246.977	-1268
247.041	208
247.104	-353
247.168	647
247.232	898
247.295	2658
247.359	1468
247.423	93
247.486	788
247.550	1077
247.614	-499
247.677	-469
247.741	-320
247.804	-493
247.868	686
247.932	41
247.995	2765
248.059	960
248.122	-854
248.186	794
248.249	1020
248.313	5115
248.376	4672
248.440	2804
248.503	-638
248.567	2005
248.630	-527
248.694	313
248.757	2210
248.821	4811
248.884	3387
248.948	1861
249.011	3791
249.075	5639
249.138	5236
249.202	1310
249.265	384
249.328	1703
249.392	169
249.455	1440
249.519	1490
249.582	1443
249.645	1783
249.709	1127
249.772	1013
249.835	2090
249.899	452
249.962	973
250.025	650
250.089	731
250.152	2878
250.215	1154
250.279	-13
250.342	1143
250.405	837
250.468	894
250.532	1004
250.595	3609
250.658	13156
250.721	24547
250.785	6310
250.848	4934
250.911	1040
250.974	1712
251.038	1596
251.101	4363
251.164	1799
251.227	2081
251.290	2436
251.354	5236
251.417	21319
251.480	20591
251.543	13328
251.606	38350
251.669	28023
251.732	9643
251.795	8568
251.859	9033
251.922	24928
251.985	13376
252.048	5801
252.111	2577
252.174	1880
252.237	4402
252.300	8558
252.363	10308
252.426	30025
252.489	9737
252.552	4472
252.615	2231
252.678	3080
252.741	6589
252.804	11929
252.867	31585
252.930	13515
252.993	5775
253.056	3537
253.119	1997
253.182	1177
253.245	3750
253.308	2560
253.371	1452
253.434	1393
253.497	1755
253.559	3519
253.622	1625
253.685	1328
253.748	1036
253.811	-298
253.874	941
253.937	287
254.000	652
254.062	1008
254.125	2917
254.188	2947
254.251	901
254.314	287
254.376	302
254.439	1245
254.502	970
254.565	1111
254.628	3795
254.690	660
254.753	-129
254.816	288
254.878	-275
254.941	1914
255.004	1990
255.067	-20
255.129	-727
255.192	-440
255.255	-311
255.317	290
255.380	106
255.443	-552
255.505	278
255.568	-106
255.631	-565
255.693	147
255.756	-783
255.819	1055
255.881	39
255.944	-102
256.006	182
256.069	195
256.132	-124
256.194	-22
256.257	891
256.319	948
256.382	334
256.444	2100
256.507	1143
256.569	187
256.632	495
256.694	1284
256.757	6812
256.819	21734
256.882	7432
256.944	1767
257.007	2359
257.069	696
257.132	533
257.194	1847
257.257	362
257.319	84
257.381	1279
257.444	4949
257.506	24774
257.569	22921
257.631	6998
257.693	2887
257.756	1644
257.818	-248
257.880	393
257.943	1374
258.005	-503
258.067	510
258.130	423
258.192	588
258.254	-284
258.317	234
258.379	861
258.441	749
258.503	2124
258.566	429
258.628	2430
258.690	-1354
258.753	406
258.815	350
258.877	-12
258.939	261
259.001	1077
259.064	-574
259.126	-373
259.188	621
259.250	514
259.312	55
259.375	1195
259.437	-40
259.499	459
259.561	292
259.623	564
259.685	-392
259.747	125
259.809	1358
259.872	2010
259.934	5261
259.996	4905
260.058	1977
260.120	157
260.182	-11
260.244	-526
260.306	-484
260.368	477
260.430	-661
260.492	1274
260.554	3043
260.616	-60
260.678	911
260.740	2346
260.802	-371
260.864	290
260.926	-992
260.988	1304
261.050	88
261.112	2021
261.174	5185
261.236	2016
261.298	143
261.359	775
261.421	1142
261.483	-154
261.545	543
261.607	-633
261.669	4
261.731	756
261.793	1534
261.854	-1122
261.916	483
261.978	697
262.040	632
262.102	1607
262.164	-658
262.225	-223
262.287	-539
262.349	-737
262.411	173
262.472	311
262.534	-72
262.596	962
262.658	945
262.719	-576
262.781	625
262.843	37
262.904	575
262.966	981
263.028	637
263.090	5685
263.151	19122
263.213	5174
263.275	1034
263.336	807
263.398	1057
263.459	-342
263.521	212
263.583	1201
263.644	707
263.706	-701
263.767	-1127
263.829	104
263.891	-130
263.952	105
264.014	-587
264.075	1136
264.137	3196
264.198	1138
264.260	-640
264.321	390
264.383	909
264.444	4686
264.506	88
264.567	-287
264.629	1950
264.690	3205
264.752	1168
264.813	1284
264.875	-126
264.936	164
264.998	18
265.059	-23
265.120	1093
265.182	715
265.243	11472
265.305	12016
265.366	2742
265.427	736
265.489	838
265.550	-1655
265.611	145
265.673	-226
265.734	928
265.795	352
265.857	-43
265.918	532
265.979	2917
266.040	17797
266.102	14986
266.163	3286
266.224	1426
266.286	898
266.347	-449
266.408	647
266.469	-252
266.530	-291
266.592	-464
266.653	471
266.714	396
266.775	-196
266.836	361
266.898	-505
266.959	498
267.020	-150
267.081	1032
267.142	-305
267.203	-474
267.264	-630
267.326	438
267.387	-784
267.448	-173
267.509	381
267.570	176
267.631	-294
267.692	-1204
267.753	-183
267.814	-973
267.875	200
267.936	402
267.997	877
268.058	92
268.119	-70
268.180	-265
268.241	-995
268.302	-113
268.363	-603
268.424	-4
268.485	-23
268.546	-1201
268.607	-78
268.668	-650
268.729	-106
268.790	-106
268.851	-653
268.912	163
268.972	167
269.033	-682
269.094	-39
269.155	-50
269.216	-812
269.277	-342
269.338	-82
269.398	-239
269.459	-722
269.520	-287
269.581	-283
269.642	-178
269.702	-1182
269.763	436
269.824	40
269.885	135
269.945	64
270.006	-546
270.067	-1149
270.128	385
270.188	-349
270.249	-1414
270.310	-297
270.370	426
270.431	-490
270.492	-514
270.553	-20
270.613	32
270.674	610
270.734	-292
270.795	-2
270.856	-334
270.916	-996
270.977	-619
271.038	-177
271.098	-390
271.159	-328
271.219	94
271.280	-316
271.340	-429
271.401	-1058
271.462	-602
271.522	-121
271.583	-142
271.643	204
271.704	-890
271.764	-202
271.825	312
271.885	3598
271.946	5427
272.006	1142
272.066	3139
272.127	5034
272.187	3885
272.248	-194
272.308	502
272.369	2907
272.429	835
272.489	291
272.550	712
272.610	1072
272.671	238
272.731	484
272.791	393
272.852	-428
272.912	853
272.972	-780
273.033	-816
273.093	-382
273.153	373
273.214	186
273.274	-686
273.334	2256
273.394	4396
273.455	549
273.515	1594
273.575	2883
273.635	365
273.696	1934
273.756	3278
273.816	1023
273.876	472
273.936	1563
273.997	2840
274.057	124
274.117	-164
274.177	200
274.237	5248
274.297	3657
274.358	1553
274.418	2613
274.478	1742
274.538	-96
274.598	-423
274.658	2267
274.718	1341
274.778	573
274.838	-735
274.898	773
274.958	2279
275.018	5290
275.078	2016
275.138	1580
275.198	-147
275.258	-273
275.318	-34
275.378	574
275.438	-68
275.498	490
275.558	1377
275.618	3807
275.678	2068
275.738	763
275.798	408
275.858	-241
275.918	189
275.978	-339
276.038	64
276.098	-1072
276.157	-175
276.217	1838
276.277	261
276.337	-359
276.397	-548
276.457	53
276.517	-894
276.576	-17
276.636	-799
276.696	-387
276.756	1090
276.815	390
276.875	582
276.935	-65
276.995	91
277.055	296
277.114	370
277.174	-641
277.234	1135
277.293	455
277.353	-6
277.413	-29
277.472	-299
277.532	-320
277.592	1140
277.651	4272
277.711	6911
277.771	1626
277.830	7366
277.890	5877
277.950	4533
278.009	17529
278.069	5742
278.128	5701
278.188	7290
278.248	2579
278.307	8242
278.367	4640
278.426	136
278.486	-108
278.545	-246
278.605	73
278.664	22
278.724	866
278.783	1249
278.843	5800
278.902	1612
278.962	223
279.021	840
279.081	1020
279.140	765
279.199	668
279.259	644
279.318	1839
279.378	2740
279.437	3212
279.496	9910
279.556	45863
279.615	33522
279.675	7452
279.734	4698
279.793	4524
279.853	4745
279.912	2813
279.971	1565
280.031	1560
280.090	2505
280.149	4362
280.208	5707
280.268	31656
280.327	31581
280.386	6614
280.445	3655
280.505	2576
280.564	1157
280.623	884
280.682	1065
280.742	2192
280.801	146
280.860	-341
280.919	313
280.978	-262
281.037	-280
281.097	-564
281.156	588
281.215	69
281.274	634
281.333	2953
281.392	1955
281.451	-337
281.510	482
281.569	-905
281.628	-184
281.688	427
281.747	10
281.806	-155
281.865	238
281.924	-823
281.983	196
282.042	-127
282.101	-731
282.160	-122
282.219	-366
282.278	-896
282.337	1158
282.396	103
282.454	73
282.513	307
282.572	1127
282.631	765
282.690	-499
282.749	-481
282.808	-308
282.867	160
282.926	214
282.985	-625
283.043	-456
283.102	-1031
283.161	-242
283.220	1069
283.279	2406
283.338	155
283.396	-383
283.455	40
283.514	-12
283.573	129
283.631	183
283.690	587
283.749	-812
283.808	-15
283.866	761
283.925	302
283.984	-821
284.043	122
284.101	-494
284.160	109
284.219	1440
284.277	523
284.336	85
284.395	2459
284.453	1816
284.512	621
284.570	1670
284.629	465
284.688	95
284.746	1036
284.805	2584
284.863	2556
284.922	3620
284.981	4201
285.039	7028
285.098	11948
285.156	28749
285.215	52022
285.273	47619
285.332	29421
285.390	14845
285.449	8626
285.507	5823
285.566	4009
285.624	3223
285.683	2585
285.741	2440
285.799	1426
285.858	1518
285.916	919
285.975	919
286.033	524
286.091	354
286.150	131
286.208	229
286.267	191
286.325	281
286.383	488
286.442	-181
286.500	-66
286.558	-24
286.616	-630
286.675	286
286.733	175
286.791	-139
286.850	762
286.908	-70
286.966	-44
287.024	-850
287.083	-427
287.141	-770
287.199	-65
287.257	-66
287.315	-440
287.374	226
287.432	896
287.490	574
287.548	-413
287.606	-93
287.664	1041
287.723	41
287.781	1375
287.839	621
287.897	1579
287.955	1547
288.013	2641
288.071	6960
288.129	29708
288.187	74532
288.245	33547
288.303	10681
288.361	6369
288.419	3485
288.477	3093
288.535	1540
288.593	360
288.651	-298
288.709	-644
288.767	149
288.825	179
288.883	14
288.941	-649
288.999	-881
289.057	8
289.115	-509
289.173	-186
289.231	-153
289.289	-586
289.346	-622
289.404	729
289.462	-198
289.520	-349
289.578	-122
289.636	-111
289.694	-403
289.751	-966
289.809	-800
289.867	-605
289.925	-254
289.983	-110
290.040	-250
290.098	351
290.156	-185
290.214	-1398
290.271	-217
290.329	-56
290.387	-771
290.444	-615
290.502	-698
290.560	-493
290.617	-367
290.675	-468
290.733	-147
290.790	-497
290.848	114
290.906	-43
290.963	-377
291.021	142
291.078	-274
291.136	-880
291.194	1357
291.251	2890
291.309	60
291.366	-9
291.424	-444
291.481	-4
291.539	-279
291.596	613
291.654	-286
291.711	-552
291.769	219
291.826	272
291.884	-693
291.941	-524
291.999	-553
292.056	-684
292.114	-87
292.171	-320
292.228	717
292.286	-184
292.343	-252
292.401	-291
292.458	-394
292.515	-796
292.573	409
292.630	-460
292.687	-1
292.745	-864
292.802	-475
292.859	2077
292.917	2811
292.974	115
293.031	161
293.089	-108
293.146	192
293.203	-125
293.260	240
293.318	-31
293.375	808
293.432	-655
293.489	408
293.546	-149
293.604	101
293.661	1264
293.718	5367
293.775	2418
293.832	713
293.889	754
293.947	-76
294.004	-635
294.061	-756
294.118	198
294.175	2950
294.232	6774
294.289	2163
294.346	585
294.403	504
294.460	-314
294.517	-515
294.574	83
294.631	-496
294.688	557
294.745	1442
294.802	6569
294.859	8689
294.916	2596
294.973	523
295.030	17
295.087	-700
295.144	35
295.201	-13
295.258	-524
295.315	155
295.372	1982
295.429	4266
295.486	1590
295.542	416
295.599	4653
295.656	8629
295.713	3063
295.770	3893
295.827	1323
295.883	753
295.940	824
295.997	-126
296.054	-255
296.111	-725
296.167	132
296.224	-541
296.281	-736
296.338	115
296.394	-576
296.451	-329
296.508	1118
296.564	2587
296.621	1889
296.678	4519
296.734	5649
296.791	1319
296.848	717
296.904	-270
296.961	935
297.018	3359
297.074	2858
297.131	571
297.187	313
297.244	906
297.301	3734
297.357	8832
297.414	1890
297.470	987
297.527	195
297.583	-176
297.640	259
297.696	-102
297.753	-191
297.809	160
297.866	-792
297.922	-490
297.979	-76
298.035	21
298.092	-138
298.148	2036
298.204	2088
298.261	595
298.317	1288
298.374	5853
298.430	2092
298.486	227
298.543	-253
298.599	-222
298.656	1310
298.712	2142
298.768	5379
298.824	5543
298.881	498
298.937	-424
298.993	463
299.050	-604
299.106	256
299.162	86
299.218	122
299.275	-154
299.331	436
299.387	1367
299.443	5177
299.500	10916
299.556	6342
299.612	1832
299.668	1641
299.724	6318
299.780	8200
299.837	2615
299.893	1983
299.949	7340
300.005	8797
300.061	7424
300.117	14442
300.173	4814
300.229	1352
300.285	1151
300.341	2010
300.397	330
300.453	524
300.510	239
300.566	576
300.622	2052
300.678	11785
300.734	15769
300.790	6671
300.845	6456
300.901	7171
300.957	10219
301.013	4516
301.069	381
301.125	1537
301.181	785
301.237	26
301.293	-408
301.349	-202
301.405	-152
301.461	-158
301.516	568
301.572	764
301.628	649
301.684	-77
301.740	1242
301.796	3112
301.851	897
301.907	1256
301.963	1324
302.019	3905
302.074	14466
302.130	13420
302.186	6063
302.242	2120
302.297	1025
302.353	844
302.409	1552
302.464	1017
302.520	982
302.576	3247
302.631	4603
302.687	1154
302.743	215
302.798	-20
302.854	160
302.910	443
302.965	-327
303.021	1617
303.076	751
303.132	686
303.187	895
303.243	-322
303.299	207
303.354	2
303.410	-73
303.465	146
303.521	-58
303.576	157
303.632	315
303.687	886
303.743	3701
303.798	3185
303.853	897
303.909	410
303.964	-41
304.020	53
304.075	1019
304.130	22
304.186	758
304.241	1469
304.297	601
304.352	-791
304.358	-752
304.407	-437
304.449	-143
304.463	-43
304.518	-166
304.539	-66
304.573	75
304.629	544
304.630	551
304.684	864
304.720	2138
304.739	2758
304.794	5726
304.811	4722
304.850	2337
304.902	506
304.905	388
304.960	498
304.992	787
305.015	967
305.071	422
305.083	471
305.126	747
305.173	177
305.181	65
305.236	278
305.264	517
305.292	788
305.347	375
305.354	404
305.402	606
305.445	581
305.457	567
305.512	1680
305.535	1509
305.567	1265
305.622	678
305.626	743
305.678	2329
305.716	4231
305.733	4756
305.788	5705
305.807	4811
305.843	3487
305.897	5261
305.898	5283
305.953	4326
305.988	2961
306.008	2222
306.063	1540
306.078	1331
306.118	771
306.168	811
306.173	839
306.228	357
306.259	519
306.283	493
306.338	1079
306.349	1096
306.393	1590
306.440	1449
306.448	1357
306.503	1376
306.530	1535
306.558	2074
306.613	3224
306.620	3342
306.668	3725
306.711	4295
306.723	4301
306.778	3433
306.801	2666
306.833	1907
306.888	1682
306.892	1660
306.943	1606
306.982	1301
306.997	1167
307.052	1003
307.072	1064
307.107	1460
307.162	2109
307.163	2113
307.217	2522
307.253	2202
307.272	2150
307.327	3364
307.343	3169
307.381	2670
307.434	2335
307.436	2360
307.491	4058
307.524	5143
307.546	5345
307.600	4794
307.614	4336
307.655	3150
307.704	2501
307.710	2514
307.765	3085
307.795	3742
307.819	4270
307.874	5916
307.885	5889
307.929	5580
307.975	5947
307.984	6407
308.038	9822
308.065	11956
308.093	20093
308.148	41235
308.156	45691
308.202	60945
308.246	67222
308.257	65241
308.312	36228
308.336	24923
308.366	17946
308.421	10462
308.426	9867
308.475	6919
308.517	5262
308.530	4972
308.585	4473
308.607	4434
308.639	4557
308.694	4666
308.697	4687
308.748	6560
308.787	8722
308.803	8784
308.857	7424
308.877	6664
308.912	6518
308.967	7198
308.967	7205
309.021	10175
309.058	12477
309.076	16061
309.130	28043
309.148	32814
309.185	53458
309.238	90361
309.239	90531
309.293	88634
309.328	77427
309.348	67831
309.402	36302
309.418	28623
309.457	20861
309.508	13242
309.511	13042
309.566	11136
309.598	10473
309.620	11055
309.674	13083
309.688	13718
309.729	12907
309.778	10239
309.783	10037
309.837	7872
309.868	6714
309.892	6838
309.946	7783
309.959	8089
310.001	9302
310.049	10162
310.055	9881
310.109	6760
310.139	5081
310.163	4619
310.218	3812
310.229	3653
310.272	3571
310.319	3620
310.326	3594
310.381	3042
310.409	2970
310.435	3213
310.489	3064
310.499	3133
310.543	3561
310.589	3903
310.598	3857
310.652	3522
310.679	3146
310.706	3211
310.760	3474
310.769	3521
310.814	3348
310.859	2991
310.868	3070
310.923	3581
310.948	3771
310.977	3725
311.031	3584
311.038	3575
311.085	3640
311.128	3459
311.139	3533
311.193	3933
311.218	4070
311.247	4129
311.301	4331
311.308	4315
311.356	3909
311.398	3583
311.410	3621
311.464	3690
311.488	3703
311.518	3627
311.572	3511
311.578	3477
311.626	4125
311.668	4650
311.680	4575
311.734	4181
311.758	3966
311.788	4149
311.842	4465
311.847	4482
311.896	5111
311.937	5587
311.950	5395
312.004	4488
312.027	4057
312.058	4087
312.112	4140
312.117	4131
312.165	4390
312.207	4584
312.297	3718
312.386	4915
312.476	4096
312.566	4841
312.656	4165
312.745	3519
312.835	4246
312.925	4756
313.015	4249
313.104	4936
313.194	4968
313.284	4805
313.374	5471
313.463	5683
313.553	5746
313.643	5562
313.732	6163
313.822	5886
313.912	6501
314.001	6785
314.091	7100
314.180	7755
314.270	7662
314.360	7736
314.449	6790
314.539	7599
314.628	6524
314.718	7281
314.808	7687
314.897	7325
314.987	8654
315.076	7942
315.166	8204
315.255	8644
315.345	8071
315.434	7535
315.524	7883
315.613	8693
315.703	10004
315.792	23322
315.881	60443
315.971	18794
316.060	11114
316.150	10788
316.239	9521
316.328	7808
316.418	7245
316.507	8075
316.597	8684
316.686	10191
316.775	9978
316.865	10639
316.954	7065
317.043	7199
317.133	6715
317.222	6682
317.311	5521
317.400	5531
317.490	7467
317.579	6966
317.668	7039
317.757	12209
317.847	34510
317.936	89132
318.025	26436
318.114	25359
318.203	12389
318.293	10338
318.382	15439
318.471	15616
318.560	16850
318.649	20922
318.738	8513
318.828	7173
318.917	5878
319.006	6271
319.095	9704
319.184	21935
319.273	9892
319.362	7562
319.451	4975
319.540	5569
319.629	5722
319.718	8392
319.807	6344
319.896	10961
319.985	25523
320.074	10791
320.163	6591
320.252	7610
320.341	8082
320.430	8143
320.519	7684
320.608	7465
320.697	9531
320.786	9273
320.875	10388
320.964	11886
321.053	11201
321.142	13447
321.230	14903
321.319	16006
321.408	19170
321.497	15433
321.586	14762
321.675	14687
321.764	14481
321.852	13497
321.941	14221
322.030	13287
322.119	14490
322.207	19437
322.296	19419
322.385	19396
322.474	20244
322.562	22795
322.651	17466
322.740	14453
322.829	13941
322.917	12867
323.006	10588
323.095	10355
323.183	9961
323.272	10443
323.361	13123
323.449	20736
323.538	10158
323.626	15549
323.715	10134
323.804	9905
323.892	13748
323.981	8332
324.069	8167
324.158	11104
324.246	8380
324.335	7312
324.424	6995
324.512	7440
324.601	5506
324.689	6447
324.778	7268
324.866	7633
324.954	5991
325.043	5446
325.131	5890
325.220	8689
325.308	7742
325.397	7653
325.485	6267
325.574	5472
325.662	5154
325.750	4839
325.839	6483
325.927	5922
326.015	5344
326.104	5562
326.192	5764
326.280	5281
326.369	5749
326.457	5750
326.545	5644
326.634	5258
326.722	5398
326.810	5959
326.898	6426
326.987	7012
327.075	7089
327.163	7858
327.251	5782
327.340	7285
327.428	8838
327.516	9628
327.604	7945
327.692	7008
327.781	5955
327.869	6496
327.957	5299
328.045	5185
328.133	4826
328.221	5243
328.309	5491
328.397	5924
328.485	5861
328.574	9979
328.662	12992
328.750	10453
328.838	6984
328.926	6802
329.014	5504
329.102	5994
329.190	8288
329.278	6600
329.366	5270
329.454	5366
329.542	4904
329.630	4776
329.718	5273
329.806	4891
329.893	5909
329.981	5720
330.069	5210
330.157	7588
330.245	9172
330.333	7184
330.421	5134
330.509	6170
330.597	7774
330.684	6678
330.772	5713
330.860	7468
330.948	7625
331.036	6050
331.123	4576
331.211	5838
331.299	5566
331.387	8288
331.475	8400
331.562	6302
331.650	5827
331.738	5457
331.825	5995
331.913	5639
332.001	5505
332.089	6273
332.176	6082
332.264	9984
332.352	7638
332.439	5960
332.527	5896
332.614	5342
332.702	5635
332.790	6136
332.877	7469
332.965	8817
333.052	6770
333.140	7365
333.228	9186
333.315	6698
333.403	6138
333.490	8784
333.578	8135
333.665	11515
333.753	8997
333.840	8358
333.928	10100
334.015	12952
334.103	18647
334.190	31743
334.278	21195
334.365	24004
334.452	22656
334.540	18414
334.627	18755
334.715	24474
334.802	34639
334.889	61390
334.977	58428
335.064	35180
335.151	21503
335.239	17066
335.326	16253
335.413	26908
335.501	25171
335.588	16837
335.675	17779
335.762	22783
335.850	29905
335.937	38871
336.024	58789
336.111	86151
336.199	62539
336.286	34079
336.373	21451
336.460	16077
336.547	13019
336.635	12056
336.722	10429
336.809	9607
336.896	9992
336.983	14911
337.070	24081
337.157	28784
337.245	19081
337.332	14191
337.419	8419
337.506	8378
337.593	8349
337.680	13898
337.767	20534
337.854	9478
337.941	9812
338.028	9422
338.115	6852
338.202	8682
338.289	10564
338.376	15824
338.463	9734
338.550	15693
338.637	12858
338.724	8442
338.811	9010
338.898	6814
338.984	5836
339.071	6250
339.158	6226
339.245	7316
339.332	6773
339.419	8757
339.506	6318
339.593	5619
339.679	5692
339.766	5709
339.853	6414
339.940	6640
340.027	5748
340.113	5644
340.200	5708
340.287	5504
340.374	5880
340.460	6099
340.547	4454
340.634	6652
340.720	8411
340.807	6944
340.894	6240
340.980	5980
341.067	5326
341.154	7126
341.240	6253
341.327	7239
341.414	6958
341.500	5380
341.587	6711
341.674	6401
341.760	6957
341.847	7202
341.933	6485
342.020	4326
342.106	5448
342.193	6096
342.279	6070
342.366	5561
342.452	6412
342.539	5380
342.625	6154
342.712	8114
342.798	5520
342.885	5387
342.971	5520
343.058	5754
343.144	4747
343.230	5423
343.317	5306
343.403	5525
343.490	5066
343.576	5201
343.662	5325
343.749	5275
343.835	6196
343.921	6743
344.008	18670
344.094	25685
344.180	8712
344.267	6043
344.353	10968
344.439	9946
344.525	7267
344.612	13072
344.698	13822
344.784	9057
344.870	5608
344.957	5240
345.043	6438
345.129	5607
345.215	6456
345.301	4872
345.387	4887
345.474	5717
345.560	5104
345.646	5165
345.732	5813
345.818	5466
345.904	4783
345.990	5749
346.076	5231
346.162	5981
346.249	5527
346.335	4846
346.421	5250
346.507	7740
346.593	12712
346.679	5826
346.765	8160
346.851	9818
346.937	7815
347.023	7497
347.108	6196
347.194	5288
347.280	5816
347.366	7955
347.452	19308
347.538	27424
347.624	17506
347.710	11734
347.796	7418
347.882	6206
347.967	6227
348.053	6510
348.139	6448
348.225	5261
348.311	4899
348.397	5415
348.482	6886
348.568	6760
348.654	9466
348.740	22832
348.825	25841
348.911	14295
348.997	12974
349.083	15471
349.168	7033
349.254	6927
349.340	5770
349.425	5538
349.511	6505
349.597	6184
349.682	6724
349.768	11028
349.854	7337
349.939	6690
350.025	6076
350.110	6998
350.196	5273
350.282	5413
350.367	5757
350.453	6471
350.538	5729
350.624	5050
350.709	6137
350.795	4613
350.880	5030
350.966	6436
351.051	5866
351.137	5575
351.222	5825
351.308	7599
351.393	8540
351.479	6210
351.564	4850
351.649	5997
351.735	5287
351.820	5060
351.906	5086
351.991	4597
352.076	6889
352.162	8873
352.247	5221
352.332	6402
352.418	5364
352.503	6733
352.588	11956
352.673	8712
352.759	5520
352.844	4673
352.929	5793
353.014	4575
353.100	5391
353.185	5503
353.270	5397
353.355	6047
353.441	5237
353.526	5595
353.611	5413
353.696	5886
353.781	5891
353.866	4184
353.952	5733
354.037	5715
354.122	7088
354.207	6731
354.292	5529
354.377	5316
354.462	5602
354.547	5292
354.632	6223
354.717	6829
354.802	4327
354.887	4939
354.972	5364
355.057	4104
355.142	4976
355.227	5792
355.312	5698
355.397	5280
355.482	7732
355.567	6363
355.652	7128
355.737	6149
355.822	10971
355.907	9652
355.991	5912
356.076	4996
356.161	5994
356.246	6136
356.331	5699
356.416	7365
356.501	19629
356.585	14379
356.670	6881
356.755	7950
356.840	6991
356.924	15325
357.009	30509
357.094	13428
357.179	6770
357.263	6464
357.348	7154
357.433	6809
357.517	6212
357.602	6463
357.687	5164
357.771	8758
357.856	15565
357.941	10873
358.025	14728
358.110	35776
358.195	15761
358.279	6851
358.364	7473
358.448	10888
358.533	16770
358.617	13397
358.702	13068
358.787	8204
358.871	7071
358.956	6393
359.040	5887
359.125	6535
359.209	6394
359.294	11973
359.378	17272
359.462	9945
359.547	6629
359.631	6254
359.716	5074
359.800	6499
359.885	7258
359.969	5045
360.053	6604
360.138	6355
360.222	5997
360.306	7233
360.391	7541
360.475	10566
360.559	14104
360.644	9788
360.728	7808
360.812	14513
360.896	23609
360.981	11504
361.065	8571
361.149	8212
361.233	7077
361.318	6865
361.402	6840
361.486	8040
361.570	7881
361.654	8536
361.739	9796
361.823	21961
361.907	25863
361.991	13613
362.075	13856
362.159	19419
362.243	32864
362.327	67995
362.411	80239
362.495	36503
362.580	22368
362.664	21353
362.748	25365
362.832	38208
362.916	73118
363.000	153475
363.084	174781
363.168	85316
363.252	33980
363.336	21855
363.420	19406
363.503	31660
363.587	28182
363.671	14852
363.755	14167
363.839	17483
363.923	17107
364.007	24098
364.091	31165
364.175	52093
364.258	109010
364.342	182387
364.426	239253
364.510	136126
364.594	56168
364.677	33760
364.761	32997
364.845	24004
364.929	14373
365.013	12794
365.096	11109
365.180	10508
365.264	17726
365.347	34426
365.431	15577
365.515	9130
365.598	6863
365.682	9887
365.766	9669
365.849	10487
365.933	7916
366.017	10950
366.100	7830
366.184	7664
366.267	9296
366.351	8048
366.435	7499
366.518	6679
366.602	7427
366.685	8068
366.769	7479
366.852	8395
366.936	8707
367.019	7381
367.103	8368
367.186	10907
367.270	8501
367.353	7056
367.436	9023
367.520	8946
367.603	7509
367.687	7820
367.770	8339
367.853	9101
367.937	12239
368.020	13036
368.104	6648
368.187	7512
368.270	8217
368.353	7749
368.437	8653
368.520	12005
368.603	8774
368.687	10464
368.770	13999
368.853	7742
368.936	8745
369.020	9224
369.103	5524
369.186	6414
369.269	6666
369.352	7059
369.436	6977
369.519	6695
369.602	4865
369.685	7764
369.768	5667
369.851	7135
369.934	6021
370.018	5745
370.101	6305
370.184	9147
370.267	7241
370.350	8218
370.433	8925
370.516	21393
370.599	36852
370.682	16634
370.765	11715
370.848	13227
370.931	15786
371.014	10525
371.097	5008
371.180	7099
371.263	6579
371.346	5231
371.429	6980
371.511	5719
371.594	5842
371.677	7610
371.760	9111
371.843	8542
371.926	20268
372.009	29432
372.091	13974
372.174	11287
372.257	18574
372.340	10674
372.423	10618
372.505	11815
372.588	7014
372.671	10377
372.754	15568
372.836	12020
372.919	13347
373.002	18161
373.085	8712
373.167	8743
373.250	11281
373.332	19106
373.415	27323
373.498	38828
373.580	24670
373.663	56122
373.746	51570
373.828	13787
373.911	10856
373.993	10841
374.076	21306
374.159	17208
374.241	10447
374.324	15995
374.406	13216
374.489	18515
374.571	32177
374.654	15450
374.736	13346
374.819	24281
374.901	33300
374.983	29810
375.066	12226
375.148	10888
375.231	20784
375.313	27857
375.395	14356
375.478	10383
375.560	9926
375.643	9923
375.725	14524
375.807	28253
375.890	23291
375.972	12432
376.054	11676
376.136	12691
376.219	9116
376.301	14574
376.383	21638
376.465	12862
376.548	8797
376.630	11938
376.712	19678
376.794	11550
376.877	6965
376.959	6322
377.041	6542
377.123	8043
377.205	8476
377.287	6355
377.369	7303
377.452	6959
377.534	7053
377.616	6721
377.698	7018
377.780	6088
377.862	7387
377.944	8462
378.026	6692
378.108	7522
378.190	6145
378.272	7004
378.354	6323
378.436	5500
378.518	6838
378.600	10927
378.682	9229
378.764	12212
378.846	10512
378.928	6624
379.010	6704
379.091	7331
379.173	6486
379.255	5419
379.337	6492
379.419	8326
379.501	14937
379.583	8833
379.664	6278
379.746	7034
379.828	12476
379.910	12897
379.991	11877
380.073	6514
380.155	6313
380.237	6639
380.318	6030
380.400	5906
380.482	7027
380.564	6812
380.645	6093
380.727	6691
380.809	7342
380.890	6201
380.972	4788
381.053	5681
381.135	6777
381.217	7016
381.298	11556
381.380	8511
381.461	9018
381.543	20699
381.624	21065
381.706	8675
381.787	8027
381.869	8854
381.951	14796
382.032	30894
382.113	20272
382.195	7855
382.276	9950
382.358	10858
382.439	19131
382.521	23778
382.602	29602
382.684	17706
382.765	25469
382.846	34023
382.928	50428
383.009	29438
383.090	30447
383.172	83382
383.253	99082
383.334	37251
383.416	30230
383.497	18893
383.578	14794
383.659	27061
383.741	84635
383.822	157543
383.903	72482
383.984	27785
384.066	32724
384.147	20788
384.228	13248
384.309	12030
384.390	11642
384.471	12125
384.553	10899
384.634	10535
384.715	10058
384.796	10157
384.877	9346
384.958	14538
385.039	13368
385.120	10248
385.201	10272
385.282	10171
385.363	10639
385.444	11203
385.525	13826
385.606	20749
385.687	17411
385.768	12642
385.849	13069
385.930	24630
386.011	29179
386.092	14756
386.173	11992
386.254	11663
386.335	11623
386.416	11373
386.496	14451
386.577	15696
386.658	12137
386.739	11746
386.820	13475
386.901	11246
386.981	12648
387.062	13733
387.143	14357
387.224	19531
387.304	20745
387.385	18930
387.466	15872
387.547	18270
387.627	17144
387.708	20079
387.789	27707
387.869	27861
387.950	18278
388.031	14122
388.111	12535
388.192	17811
388.273	18804
388.353	15217
388.434	11150
388.514	13457
388.595	21737
388.676	21519
388.756	14356
388.837	14062
388.917	10883
388.998	8755
389.078	9828
389.159	8745
389.239	7331
389.320	10505
389.400	7580
389.480	11971
389.561	14147
389.641	11521
389.722	9655
389.802	8675
389.883	11378
389.963	17675
390.043	13522
390.124	8786
390.204	10145
390.284	14643
390.365	12150
390.445	20773
390.525	37045
390.605	29267
390.686	11778
390.766	10117
390.846	10692
390.927	9406
391.007	8864
391.087	10605
391.167	9191
391.247	8976
391.328	10410
391.408	12441
391.488	12066
391.568	9976
391.648	9749
391.728	12400
391.808	12375
391.888	13020
391.969	15374
392.049	17721
392.129	16464
392.209	17448
392.289	23422
392.369	21947
392.449	22201
392.529	21458
392.609	22359
392.689	27274
392.769	35519
392.849	39299
392.929	49737
393.009	68684
393.089	92223
393.169	159576
393.248	334150
393.328	524928
393.408	464234
393.488	281920
393.568	140435
393.648	80873
393.728	52984
393.807	37836
393.887	32154
393.967	27406
394.047	23275
394.127	22679
394.206	27361
394.286	65556
394.366	169982
394.446	150117
394.525	49781
394.605	22192
394.685	19089
394.764	25891
394.844	38192
394.924	40575
395.003	19656
395.083	14275
395.163	13332
395.242	12996
395.322	12671
395.402	12147
395.481	14940
395.561	21793
395.640	52823
395.720	82918
395.799	59463
395.879	33261
395.958	32577
396.038	87999
396.117	211041
396.197	195362
396.276	78543
396.356	41554
396.435	39600
396.515	45360
396.594	63136
396.673	125896
396.753	298049
396.832	466885
396.912	342297
396.991	153804
397.070	72660
397.150	43863
397.229	39296
397.308	65928
397.388	107438
397.467	60258
397.546	24974
397.625	15562
397.705	17247
397.784	13712
397.863	12236
397.942	12217
398.022	11600
398.101	16371
398.180	24218
398.259	16003
398.338	10162
398.417	9392
398.497	8927
398.576	9441
398.655	7311
398.734	8561
398.813	8689
398.892	14110
398.971	24414
399.050	13842
399.129	6661
399.208	7484
399.287	8206
399.366	7170
399.445	6507
399.524	6612
399.603	5792
399.682	7934
399.761	11738
399.840	25905
399.919	19019
399.998	7485
400.077	5359
400.156	5190
400.235	8758
400.313	5509
400.392	5179
400.471	8872
400.550	9962
400.629	5855
400.708	6857
400.786	5693
400.865	7279
400.944	6634
401.023	7796
401.102	5289
401.180	5477
401.259	5222
401.338	5038
401.416	5535
401.495	4304
401.574	6891
401.652	4623
401.731	6449
401.810	4558
401.888	4631
401.967	4819
402.046	5190
402.124	5603
402.203	4376
402.281	5567
402.360	5576
402.438	9073
402.517	6897
402.596	5450
402.674	4875
402.753	5303
402.831	5440
402.910	6361
402.988	5602
403.066	8843
403.145	8456
403.223	8390
403.302	8921
403.380	8456
403.459	8775
403.537	6621
403.615	6040
403.694	5186
403.772	7216
403.850	5700
403.929	6269
404.007	5585
404.085	7241
404.164	6327
404.242	8032
404.320	20688
404.398	41314
404.477	37524
404.555	34200
404.633	30778
404.711	32235
404.789	24081
404.868	9423
404.946	5990
405.024	6334
405.102	4890
405.180	4975
405.258	3970
405.336	4990
405.415	4069
405.493	6429
405.571	5120
405.649	4293
405.727	4487
405.805	7077
405.883	5732
405.961	6701
406.039	5561
406.117	4191
406.195	4974
406.273	7696
406.351	18618
406.429	12849
406.507	4401
406.585	3819
406.663	5193
406.740	5001
406.818	3721
406.896	3965
406.974	5586
407.052	4264
407.130	12174
407.208	15495
407.285	6824
407.363	4590
407.441	4930
407.519	4333
407.596	6113
407.674	12584
407.752	31830
407.830	25075
407.907	8069
407.985	4087
408.063	4817
408.141	4359
408.218	5375
408.296	4355
408.373	5080
408.451	5808
408.529	6236
408.606	6566
408.684	6327
408.762	6431
408.839	6711
408.917	7343
408.994	7716
409.072	8120
409.149	10419
409.227	15589
409.304	20627
409.382	23578
409.459	25595
409.537	31640
409.614	30731
409.692	27045
409.769	25506
409.846	32834
409.924	38752
410.001	32068
410.079	25133
410.156	20223
410.233	15887
410.311	13110
410.388	11429
410.465	11051
410.543	9717
410.620	10350
410.697	8899
410.775	9631
410.852	7492
410.929	10411
411.006	9935
411.083	7783
411.161	9394
411.238	10193
411.315	8303
411.392	7136
411.469	7850
411.547	7811
411.624	5841
411.701	6134
411.778	6139
411.855	6971
411.932	5383
412.009	5267
412.086	5512
412.163	5506
412.240	5449
412.317	6537
412.394	4424
412.471	6176
412.548	4508
412.625	4680
412.702	4718
412.779	6015
412.856	5555
412.933	4350
413.010	5248
413.087	5248
413.164	6213
413.241	8518
413.318	4315
413.395	5958
413.471	4424
413.548	4474
413.625	4959
413.702	4316
413.779	5001
413.855	4663
413.932	3354
414.009	3959
414.086	4030
414.162	4539
414.239	5185
414.316	6964
414.393	9636
414.469	4575
414.546	3755
414.623	4694
414.699	3371
414.776	3985
414.853	3363
414.929	4856
415.006	3463
415.082	4315
415.159	4316
415.236	4673
415.312	4897
415.389	4732
415.465	3483
415.542	4258
415.618	3034
415.695	3818
415.771	3735
415.848	3809
415.924	4310
416.000	4906
416.077	4483
416.153	2756
416.230	3151
416.306	4548
416.383	3652
416.459	3606
416.535	3413
416.612	3611
416.688	3320
416.764	3046
416.841	3170
416.917	3418
416.993	3746
417.069	4068
417.146	4356
417.222	5049
417.298	3514
417.374	3655
417.451	3697
417.527	3197
417.603	3230
417.679	3591
417.755	3376
417.831	3224
417.908	3873
417.984	3707
418.060	3094
418.136	5115
418.212	3239
418.288	4541
418.364	3448
418.440	3321
418.516	4685
418.592	4792
418.668	5240
418.744	5076
418.820	5814
418.896	3567
418.972	3920
419.048	4939
419.124	5628
419.200	3871
419.276	4585
419.352	4556
419.428	4897
419.504	4940
419.579	5242
419.655	5747
419.731	5680
419.807	6280
419.883	6816
419.959	7337
420.034	7067
420.110	8114
420.186	10226
420.262	10314
420.337	7315
420.413	8699
420.489	8062
420.565	10403
420.640	9110
420.716	10375
420.792	8969
420.867	11423
420.943	10634
421.019	12884
421.094	12906
421.170	14283
421.245	14030
421.321	16260
421.397	17162
421.472	24324
421.548	35033
421.623	31161
421.699	26625
421.774	29570
421.850	32595
421.925	39697
422.001	45339
422.076	54369
422.152	65998
422.227	84014
422.302	107787
422.378	139327
422.453	175158
422.529	205045
422.604	196643
422.679	161979
422.755	162591
422.830	188179
422.905	174754
422.981	143826
423.056	113307
423.131	91408
423.207	71307
423.282	58551
423.357	50015
423.432	41115
423.508	37362
423.583	31986
423.658	28907
423.733	25848
423.808	23225
423.883	22673
423.959	22586
424.034	23327
424.109	21738
424.184	18192
424.259	15934
424.334	14895
424.409	11972
424.484	12380
424.559	11759
424.634	9959
424.709	9742
424.784	10536
424.859	8487
424.934	8998
425.009	9687
425.084	11092
425.159	7867
425.234	7791
425.309	7048
425.384	11232
425.459	11671
425.534	8656
425.609	5882
425.683	6400
425.758	6333
425.833	6302
425.908	6971
425.983	6839
426.058	9650
426.132	6912
426.207	5746
426.282	7363
426.357	5262
426.431	5005
426.506	5044
426.581	5956
426.655	5089
426.730	5575
426.805	4007
426.879	5586
426.954	4286
427.029	4605
427.103	9364
427.178	15016
427.253	8968
427.327	5895
427.402	5637
427.476	10120
427.551	6737
427.625	5478
427.700	4824
427.774	4769
427.849	5491
427.923	4453
427.998	5594
428.072	7189
428.147	14719
428.221	51304
428.296	111424
428.370	62075
428.444	15135
428.519	8597
428.593	9361
428.667	9314
428.742	11314
428.816	24274
428.890	80041
428.965	101331
429.039	33483
429.113	11558
429.188	6730
429.262	5793
429.336	5680
429.410	6678
429.485	6441
429.559	7597
429.633	6921
429.707	8728
429.781	21514
429.855	76376
429.930	93147
430.004	38296
430.078	35945
430.152	71141
430.226	151046
430.300	131891
430.374	44079
430.448	18113
430.522	16383
430.596	26261
430.670	37335
430.744	93103
430.818	89631
430.892	22780
430.966	6916
431.040	6252
431.114	3620
431.188	4061
431.262	3523
431.336	4435
431.410	6221
431.484	6643
431.557	6185
431.631	5270
431.705	10497
431.779	40926
431.853	107818
431.927	70166
432.000	15988
432.074	5577
432.148	4042
432.222	2918
432.295	3344
432.369	2994
432.443	2496
432.516	8077
432.590	14143
432.664	5113
432.737	2122
432.811	1851
432.885	1387
432.958	3137
433.032	2120
433.106	1718
433.179	1438
433.253	2469
433.326	2608
433.400	2275
433.473	2112
433.547	1783
433.620	1590
433.694	2205
433.767	2544
433.841	2928
433.914	2005
433.988	2434
434.061	2544
434.134	2927
434.208	1919
434.281	2049
434.355	2417
434.428	2548
434.501	2018
434.575	1875
434.648	1227
434.721	1975
434.795	2437
434.868	2389
434.941	2334
435.014	2695
435.088	3241
435.161	3825
435.234	4161
435.307	5505
435.381	5821
435.454	8480
435.527	13452
435.600	14566
435.673	13924
435.746	11628
435.819	9961
435.892	7109
435.966	6050
436.039	4821
436.112	4869
436.185	3286
436.258	2955
436.331	2963
436.404	2986
436.477	2910
436.550	2613
436.623	2496
436.696	2198
436.769	2883
436.842	1764
436.915	2848
436.987	2648
437.060	2553
437.133	1983
437.206	2219
437.279	2690
437.352	1742
437.425	1657
437.498	2697
437.570	2614
437.643	2086
437.716	2114
437.789	1840
437.861	2436
437.934	3784
438.007	3068
438.080	1913
438.152	2216
438.225	3820
438.298	9768
438.370	20878
438.443	8506
438.516	3668
438.588	2565
438.661	2461
438.734	2367
438.806	2723
438.879	2605
438.951	2687
439.024	2554
439.096	2333
439.169	2108
439.241	1669
439.314	1671
439.386	1966
439.459	2640
439.531	2696
439.604	1328
439.676	1645
439.749	1766
439.821	1442
439.893	1627
439.966	1406
440.038	1624
440.110	2392
440.183	1909
440.255	1407
440.327	3161
440.400	5116
440.472	11228
440.544	7692
440.617	2247
440.689	3126
440.761	2485
440.833	3787
440.905	3370
440.978	1626
441.050	1389
441.122	2519
441.194	1662
441.266	1985
441.338	1660
441.411	3262
441.483	4698
441.555	5100
441.627	3376
441.699	3949
441.771	2799
441.843	2519
441.915	3205
441.987	3675
442.059	3465
442.131	4823
442.203	6263
442.275	7832
442.347	13217
442.419	31166
442.491	99350
442.563	155745
442.635	72180
442.706	21431
442.778	12286
442.850	7924
442.922	7087
442.994	7120
443.066	7553
443.137	9872
443.209	14148
443.281	20523
443.353	44683
443.425	118785
443.496	223234
443.568	221308
443.640	107378
443.711	34612
443.783	15708
443.855	11223
443.926	7672
443.998	6721
444.070	6240
444.141	5618
444.213	4956
444.285	4333
444.356	4339
444.428	3950
444.499	3912
444.571	4140
444.642	4517
444.714	4877
444.785	6014
444.857	6868
444.928	8371
445.000	8791
445.071	11391
445.143	14955
445.214	20523
445.285	35730
445.357	82346
445.428	183615
445.500	242900
445.571	221927
445.642	153171
445.714	64988
445.785	27213
445.856	13683
445.928	9271
445.999	8030
446.070	5905
446.141	4719
446.213	4473
446.284	3247
446.355	3816
446.426	3113
446.497	2734
446.569	3101
446.640	2759
446.711	2572
446.782	2004
446.853	2961
446.924	2113
446.995	1802
447.066	2030
447.138	2629
447.209	2464
447.280	1328
447.351	842
447.422	1576
447.493	1581
447.564	1451
447.635	1298
447.706	1268
447.777	621
447.847	1148
447.918	361
447.989	1612
448.060	1079
448.131	3179
448.202	1732
448.273	926
448.344	1175
448.414	1414
448.485	269
448.556	1070
448.627	851
448.698	2028
448.768	662
448.839	672
448.910	949
448.981	1816
449.051	983
449.122	1579
449.193	554
449.263	2301
449.334	984
449.405	1514
449.475	1397
449.546	1563
449.616	2427
449.687	2046
449.758	1212
449.828	437
449.899	812
449.969	300
450.040	1039
450.110	2221
450.181	1541
450.251	1243
450.322	888
450.392	1707
450.463	887
450.533	956
450.604	1083
450.674	1624
450.744	1712
450.815	1798
450.885	2095
450.955	2550
451.026	1484
451.096	1879
451.166	1667
451.237	3885
451.307	5339
451.377	3386
451.447	1562
451.518	1276
451.588	636
451.658	957
451.728	1969
451.799	4520
451.869	3757
451.939	1710
452.009	380
452.079	1206
452.149	2082
452.219	2685
452.289	4594
452.360	3951
452.430	2561
452.500	2984
452.570	5198
452.640	12636
452.710	26783
452.780	31459
452.850	17682
452.920	9023
452.990	4917
453.060	4657
453.129	2344
453.199	3355
453.269	7231
453.339	11015
453.409	14838
453.479	16275
453.549	20836
453.619	20647
453.688	6856
453.758	1877
453.828	1890
453.898	1297
453.968	942
454.037	850
454.087	411
454.107	230
454.168	614
454.177	665
454.247	-152
454.249	-102
454.316	1002
454.330	911
454.386	529
454.411	1334
454.456	2632
454.492	2355
454.525	2135
454.574	1718
454.595	1541
454.655	693
454.665	559
454.734	1619
454.736	1642
454.804	2076
454.817	2525
454.873	4402
454.898	4062
454.943	3396
454.979	2444
455.013	1651
455.060	1348
455.082	1197
455.141	1385
455.152	1447
455.221	3069
455.222	3120
455.291	5383
455.303	5790
455.360	7171
455.384	9303
455.430	12962
455.465	9898
455.499	7054
455.546	4736
455.569	3699
455.627	2923
455.638	2773
455.707	1057
455.708	1064
455.777	1599
455.789	1466
455.846	945
455.869	1065
455.916	1175
455.950	1186
455.985	1191
456.031	925
456.054	834
456.112	1107
456.124	1178
456.193	1269
456.193	1261
456.262	1488
456.274	1504
456.332	1511
456.355	1636
456.401	1959
456.436	1632
456.470	1214
456.516	1161
456.540	1190
456.597	1514
456.609	1570
456.678	1972
456.678	1972
456.747	640
456.759	585
456.817	400
456.840	565
456.886	564
456.920	796
456.955	1230
457.001	1262
457.024	1310
457.082	1149
457.093	1034
457.162	1399
457.163	1404
457.232	1666
457.243	1687
457.301	1510
457.324	1425
457.370	1461
457.405	2066
457.439	2570
457.485	2197
457.508	2038
457.566	2991
457.577	3324
457.646	5073
457.647	5094
457.715	8470
457.727	9732
457.784	15601
457.808	22207
457.853	32745
457.889	39615
457.922	44511
457.969	30849
457.991	26838
458.050	26407
458.060	26308
458.129	49950
458.130	50459
458.198	63426
458.211	57247
458.267	32045
458.292	24103
458.336	14789
458.372	13422
458.405	14895
458.453	21033
458.474	23960
458.533	41502
458.543	43486
458.611	82249
458.614	82225
458.680	62366
458.694	52107
458.749	22697
458.775	16959
458.818	9034
458.855	7157
458.887	5901
458.936	4139
458.955	3507
459.016	3318
459.024	3311
459.093	3697
459.097	3657
459.162	2603
459.177	2458
459.230	2470
459.257	2605
459.299	2379
459.338	2040
459.368	1872
459.418	2312
459.437	2494
459.499	2193
459.505	2167
459.574	2215
459.579	2207
459.643	1608
459.659	1546
459.711	2104
459.740	2285
459.780	1905
459.820	1621
459.849	1681
459.900	1803
459.917	1877
459.981	2215
459.986	2192
460.054	1332
460.061	1341
460.123	1698
460.141	1755
460.191	2047
460.222	2176
460.260	2254
460.302	2229
460.328	2355
460.382	2498
460.397	2448
460.462	2601
460.465	2675
460.534	4851
460.543	5007
460.602	9224
460.623	11601
460.671	17041
460.703	24481
460.739	25724
460.783	19276
460.808	16824
460.864	5119
460.876	3346
460.944	1574
460.945	1564
461.013	1559
461.024	1671
461.081	1713
461.104	1669
461.150	1521
461.184	1614
461.218	1759
461.264	1470
461.286	1437
461.345	2019
461.355	2090
461.423	1809
461.425	1807
461.491	1498
461.505	1488
461.559	2306
461.585	2747
461.628	3674
461.665	4377
461.696	4536
461.745	5432
461.764	5089
461.825	2349
461.832	2328
461.901	2300
461.905	2347
461.969	1760
461.985	1653
462.037	2249
462.065	2474
462.105	2158
462.145	1984
462.173	2354
462.225	2715
462.241	2895
462.305	3927
462.310	3840
462.378	2891
462.385	2654
462.446	2028
462.465	2002
462.514	1838
462.545	1748
462.582	1810
462.625	1973
462.650	1814
462.705	1017
462.718	1034
462.785	1990
462.786	1998
462.854	1696
462.865	1692
462.922	2440
462.945	2939
462.990	2982
463.025	2377
463.058	2166
463.104	2111
463.126	1970
463.184	1933
463.194	1956
463.262	1643
463.264	1649
463.330	1388
463.344	1291
463.398	2251
463.424	2633
463.466	1683
463.504	1103
463.533	1726
463.583	2176
463.601	2127
463.663	2562
463.669	2535
463.737	1845
463.743	1808
463.805	3126
463.823	3464
463.873	4438
463.903	5112
463.940	5098
463.982	5108
464.008	4479
464.062	2802
464.076	2630
464.142	1642
464.144	1637
464.211	1767
464.221	1768
464.279	1813
464.301	1828
464.347	1647
464.381	1476
464.414	1677
464.461	2192
464.482	2443
464.540	2890
464.550	2757
464.617	1767
464.620	1732
464.685	2599
464.699	2810
464.753	2662
464.779	2548
464.820	3100
464.859	3820
464.888	3491
464.938	2455
464.956	2837
465.018	4490
465.023	4391
465.091	2885
465.098	2739
465.158	2932
465.177	3001
465.226	2957
465.257	2939
465.293	3161
465.336	3242
465.361	3111
465.416	2933
465.428	3111
465.495	4082
465.496	4093
465.563	4870
465.575	5001
465.631	6040
465.654	6507
465.698	4503
465.734	2681
465.765	2541
465.813	2255
465.833	2303
465.893	2696
465.900	2717
465.968	2866
465.972	2865
466.035	2795
466.052	2790
466.102	2739
466.131	2712
466.170	2959
466.210	3228
466.237	2952
466.290	2319
466.304	2404
466.369	2801
466.372	2806
466.439	2844
466.449	2853
466.506	3383
466.528	3568
466.573	4276
466.607	4789
466.641	5607
466.687	6773
466.708	7098
466.766	7967
466.775	7395
466.842	2962
466.845	2752
466.909	3616
466.925	3825
466.977	3195
467.004	2874
467.044	3388
467.083	3905
467.111	4063
467.163	4333
467.178	4290
467.242	4095
467.245	4106
467.312	4255
467.321	4272
467.379	4137
467.400	4077
467.446	4287
467.480	4434
467.559	4636
467.638	3501
467.717	3834
467.796	3989
467.875	4196
467.955	3831
468.034	6590
468.113	9239
468.192	12894
468.271	7488
468.350	8319
468.429	10034
468.508	10484
468.588	7509
468.667	4926
468.746	5406
468.825	3263
468.904	4242
468.983	4688
469.062	4879
469.141	6005
469.220	4404
469.299	4419
469.378	4230
469.456	4496
469.535	3914
469.614	4905
469.693	4220
469.772	5235
469.851	4856
469.930	4297
470.009	3723
470.088	3256
470.166	4697
470.245	4204
470.324	4809
470.403	4262
470.482	4117
470.560	3470
470.639	3533
470.718	4562
470.797	3433
470.875	3927
470.954	4453
471.033	5206
471.111	3596
471.190	3222
471.269	3020
471.347	3931
471.426	3059
471.505	3599
471.583	3788
471.662	4691
471.740	2847
471.819	3936
471.898	3837
471.976	3145
472.055	3540
472.133	3985
472.212	4896
472.290	4441
472.369	3272
472.447	3293
472.526	2872
472.604	4012
472.683	3046
472.761	3981
472.839	4002
472.918	3399
472.996	3451
473.075	3993
473.153	3608
473.231	3685
473.310	3454
473.388	3908
473.466	3341
473.545	3590
473.623	3525
473.701	3460
473.780	4609
473.858	2436
473.936	4994
474.014	3833
474.093	3510
474.171	5117
474.249	5740
474.327	4588
474.405	2128
474.484	3475
474.562	2551
474.640	2701
474.718	2643
474.796	3309
474.874	3362
474.952	3648
475.030	3126
475.108	3362
475.187	3619
475.265	2972
475.343	3544
475.421	4027
475.499	2892
475.577	3687
475.655	5033
475.733	5548
475.811	8775
475.889	7901
475.966	4990
476.044	3014
476.122	3390
476.200	3653
476.278	3374
476.356	2969
476.434	3273
476.512	3574
476.590	3664
476.667	4169
476.745	3254
476.823	4110
476.901	3930
476.979	3622
477.056	3215
477.134	3940
477.212	3141
477.290	3749
477.367	3583
477.445	3776
477.523	2607
477.601	2828
477.678	3111
477.756	3483
477.834	3338
477.911	2895
477.989	3921
478.066	3021
478.144	4067
478.222	3830
478.299	2578
478.377	3676
478.454	3595
478.532	2636
478.609	2546
478.687	3254
478.764	3264
478.842	3676
478.919	3274
478.997	2630
479.074	3052
479.152	3159
479.229	4023
479.307	3517
479.384	2612
479.461	3072
479.539	3043
479.616	3610
479.694	3095
479.771	3779
479.848	3545
479.926	2959
480.003	4612
480.080	3107
480.157	3506
480.235	2316
480.312	3257
480.389	2653
480.467	4655
480.544	5388
480.621	4643
480.698	3672
480.775	3829
480.853	4093
480.930	3264
481.007	3203
481.084	3236
481.161	4665
481.238	4253
481.315	3134
481.392	3414
481.470	3922
481.547	2718
481.624	3436
481.701	4024
481.778	3298
481.855	3786
481.932	4664
482.009	6097
482.086	4671
482.163	4488
482.240	5473
482.317	4797
482.393	5001
482.470	4286
482.547	4086
482.624	4213
482.701	3978
482.778	3424
482.855	4039
482.932	3299
483.009	4220
483.085	4466
483.162	5821
483.239	5931
483.316	5100
483.393	5053
483.469	4300
483.546	4367
483.623	3822
483.699	4178
483.776	3587
483.853	3391
483.930	5048
484.006	8877
484.083	13811
484.160	10742
484.236	14039
484.313	10033
484.389	8386
484.466	8893
484.543	8916
484.619	10478
484.696	11582
484.772	8840
484.849	9168
484.925	7182
485.002	7786
485.078	7531
485.155	6769
485.231	6586
485.308	6409
485.384	5737
485.461	7848
485.537	8938
485.614	11114
485.690	6013
485.766	6774
485.843	6141
485.919	5976
485.995	6549
486.072	6488
486.148	4897
486.224	5707
486.301	6259
486.377	6265
486.453	5271
486.530	8200
486.606	8951
486.682	9690
486.758	8982
486.835	10389
486.911	8977
486.987	11796
487.063	10529
487.139	9592
487.215	9338
487.292	9843
487.368	9602
487.444	12034
487.520	14836
487.596	20941
487.672	52616
487.748	134037
487.824	192814
487.900	76354
487.976	23840
488.052	14098
488.128	11563
488.204	9221
488.280	8757
488.356	8671
488.432	13033
488.508	14784
488.584	6382
488.660	6148
488.736	6321
488.812	5929
488.888	6523
488.964	6860
489.039	6897
489.115	9104
489.191	7280
489.267	5873
489.343	5439
489.418	5133
489.494	4988
489.570	3970
489.646	7682
489.722	5718
489.797	5242
489.873	8033
489.949	10500
490.024	9684
490.100	4983
490.176	5319
490.251	4604
490.327	6287
490.403	4840
490.478	5001
490.554	4186
490.629	5017
490.705	4767
490.781	5413
490.856	4693
490.932	5508
491.007	4002
491.083	3935
491.158	5216
491.234	5425
491.309	10248
491.385	9092
491.460	3667
491.536	4361
491.611	3151
491.686	4754
491.762	4553
491.837	5671
491.913	7113
491.988	9784
492.063	9448
492.139	6847
492.214	5566
492.289	3757
492.365	3951
492.440	4293
492.515	3175
492.590	3457
492.666	3974
492.741	4994
492.816	5019
492.891	4139
492.967	4530
493.042	2762
493.117	3947
493.192	4601
493.267	9144
493.342	22113
493.418	26725
493.493	5050
493.568	3180
493.643	3953
493.718	4268
493.793	4396
493.868	4331
493.943	2891
494.018	3609
494.093	3255
494.168	3857
494.243	3528
494.318	3876
494.393	3567
494.468	3143
494.543	3027
494.618	3359
494.693	2957
494.768	3783
494.842	2621
494.917	3107
494.992	3634
495.067	2585
495.142	2746
495.217	2866
495.292	3448
495.366	3535
495.441	2984
495.516	4369
495.591	4649
495.665	7542
495.740	12876
495.815	7057
495.890	4139
495.964	2144
496.039	5346
496.114	3570
496.188	6047
496.263	5103
496.338	3934
496.412	3569
496.487	4914
496.561	4361
496.636	4011
496.710	4391
496.785	3919
496.860	4069
496.934	2367
497.009	3692
497.083	3406
497.158	3994
497.232	4270
497.307	5147
497.381	5193
497.455	4679
497.530	6063
497.604	4207
497.679	4371
497.753	5856
497.827	5147
497.902	3762
497.976	7598
498.050	24687
498.125	69217
498.199	63644
498.273	6002
498.348	3826
498.422	4738
498.496	4243
498.570	3756
498.645	3676
498.719	3941
498.793	5332
498.867	7376
498.941	10944
499.016	33469
499.090	69594
499.164	23402
499.238	4819
499.312	4574
499.386	4834
499.460	5346
499.534	3766
499.609	5230
499.683	5691
499.757	7165
499.831	17535
499.905	47849
499.979	42718
500.053	7546
500.127	6826
500.201	3728
500.275	4525
500.349	3648
500.422	3697
500.496	5364
500.570	8994
500.644	27871
500.718	46825
500.792	10312
500.866	4457
500.940	4968
501.013	4011
501.087	4377
501.161	4569
501.235	6842
501.309	20392
501.382	42639
501.456	34522
501.530	9918
501.603	13068
501.677	5843
501.751	2716
501.825	4890
501.898	7942
501.972	17146
502.046	10406
502.119	3869
502.193	9503
502.266	18338
502.340	10176
502.413	10390
502.487	15977
502.561	8711
502.634	5242
502.708	3856
502.781	3142
502.855	4429
502.928	2786
503.002	3106
503.075	2639
503.149	3498
503.222	3452
503.295	4129
503.369	5433
503.442	5788
503.516	17134
503.589	33390
503.662	20027
503.736	11063
503.809	19322
503.882	18190
503.956	28694
504.029	43909
504.102	81490
504.175	112565
504.249	50221
504.322	20007
504.395	12434
504.468	7611
504.542	5935
504.615	4228
504.688	4599
504.761	1974
504.834	5703
504.907	3452
504.980	3418
505.053	3606
505.127	482
505.200	5855
505.273	3750
505.346	2459
505.419	1945
505.492	3815
505.565	2466
505.638	3721
505.711	1833
505.784	1639
505.857	2117
505.930	4187
506.003	810
506.076	4152
506.149	3219
506.221	2302
506.294	4857
506.367	7925
506.440	22498
506.513	12185
506.586	3509
506.659	1735
506.731	2921
506.804	2001
506.877	1755
506.950	2919
507.022	3893
507.095	2611
507.168	3172
507.241	3460
507.313	1883
507.386	2071
507.459	3159
507.531	2574
507.604	2184
507.677	2643
507.749	3
507.822	4190
507.894	4388
507.967	6192
508.040	2923
508.112	4098
508.185	2763
508.257	1115
508.330	5563
508.402	3092
508.475	3391
508.547	4058
508.620	2783
508.692	4290
508.765	3710
508.837	2321
508.909	2849
508.982	2071
509.054	3070
509.127	2707
509.199	2192
509.271	1938
509.344	2336
509.416	3242
509.488	3300
509.560	2739
509.633	1674
509.705	3564
509.777	3240
509.849	4488
509.922	2692
509.994	3385
510.066	4569
510.138	2085
510.210	6946
510.283	5329
510.355	4651
510.427	4620
510.499	3628
510.571	3937
510.643	2598
510.715	4588
510.787	3034
510.859	4026
510.931	4224
511.003	3750
511.076	5091
511.148	3249
511.219	3429
511.291	4996
511.363	5690
511.435	3286
511.507	3571
511.579	4201
511.651	4040
511.723	3633
511.795	3434
511.867	4298
511.939	4325
512.010	5658
512.082	5550
512.154	1912
512.226	3387
512.298	5912
512.369	4756
512.441	5612
512.513	4825
512.585	3226
512.656	4204
512.728	3423
512.800	2770
512.871	4073
512.943	3002
513.015	2133
513.086	3536
513.158	3699
513.230	3499
513.301	3384
513.373	3938
513.444	3622
513.516	3217
513.588	2616
513.659	3323
513.731	2961
513.802	1794
513.874	5398
513.945	4881
514.016	2813
514.088	3258
514.159	2080
514.231	4791
514.302	4748
514.374	4187
514.445	2803
514.516	7794
514.588	4735
514.659	4588
514.730	5257
514.802	5425
514.873	1498
514.944	4844
515.016	3255
515.087	3990
515.158	4036
515.229	6078
515.301	3024
515.372	3983
515.443	2263
515.514	3257
515.585	1541
515.656	4129
515.728	4209
515.799	1489
515.870	4348
515.941	3286
516.012	2670
516.083	4881
516.154	3768
516.225	5080
516.296	5553
516.367	3869
516.438	3916
516.509	4510
516.580	8032
516.651	23557
516.722	55280
516.793	24586
516.864	7004
516.935	6992
517.006	8465
517.077	10372
517.148	22798
517.219	87577
517.289	118844
517.360	33807
517.431	12715
517.502	4726
517.573	5523
517.643	5366
517.714	5316
517.785	5143
517.856	5814
517.926	8864
517.997	8758
518.068	6996
518.138	12455
518.209	18444
518.280	72824
518.350	198173
518.421	74249
518.492	16515
518.562	15599
518.633	19893
518.703	29582
518.774	74361
518.845	163864
518.915	146518
518.986	48356
519.056	21819
519.127	15154
519.197	16508
519.268	27952
519.338	19713
519.408	7352
519.479	6105
519.549	4703
519.620	6361
519.690	4415
519.760	3793
519.831	3970
519.901	3709
519.971	3733
520.042	3530
520.112	3770
520.182	4645
520.253	4179
520.323	3837
520.393	3827
520.463	8239
520.534	3455
520.604	11170
520.674	6226
520.744	5123
520.814	9549
520.885	8318
520.955	11874
521.025	31758
521.095	11524
521.165	4844
521.235	3416
521.305	3091
521.375	3001
521.445	4097
521.515	1990
521.585	3801
521.655	1855
521.725	3973
521.795	4227
521.865	1458
521.935	5384
522.005	3457
522.075	2536
522.145	4132
522.215	2595
522.285	5407
522.355	5435
522.424	9355
522.494	7071
522.564	4704
522.634	4704
522.704	8967
522.774	3028
522.843	3848
522.913	3551
522.983	3448
523.053	3047
523.122	3875
523.192	3180
523.262	4914
523.331	3848
523.401	3704
523.471	3331
523.540	2591
523.610	3188
523.680	4113
523.749	3454
523.819	4420
523.888	3795
523.958	2709
524.027	3162
524.097	2706
524.166	2637
524.236	2375
524.305	5276
524.375	2885
524.444	2096
524.514	5707
524.583	2299
524.653	2727
524.722	5134
524.791	2282
524.861	5333
524.930	2977
524.999	3341
525.069	4710
525.138	3512
525.207	4371
525.277	5007
525.346	5081
525.415	5880
525.484	6282
525.554	6388
525.623	8330
525.692	10388
525.761	11326
525.830	13144
525.900	16291
525.969	28331
526.038	56156
526.107	127788
526.176	330536
526.245	250427
526.314	80460
526.383	169642
526.452	231250
526.522	324369
526.591	279906
526.660	49367
526.729	27233
526.797	28891
526.867	47810
526.935	162605
527.004	479876
527.073	287297
527.142	40797
527.211	17694
527.280	12143
527.349	8132
527.418	5680
527.487	6689
527.555	4189
527.624	4389
527.693	3140
527.762	5827
527.831	2117
527.899	4664
527.968	4074
528.037	1995
528.106	4591
528.174	3503
528.243	5035
528.312	4247
528.380	4792
528.449	2822
528.518	4520
528.586	1975
528.655	4747
528.723	3784
528.792	2317
528.861	2635
528.929	1875
528.998	4510
529.066	4822
529.135	6993
529.203	5900
529.272	7714
529.340	10201
529.409	9898
529.477	7834
529.545	7166
529.614	10214
529.682	10137
529.751	10375
529.819	14640
529.887	14078
529.956	11881
530.024	12238
530.092	10303
530.161	12120
530.229	10586
530.297	11627
530.365	12214
530.434	13586
530.502	11661
530.570	11814
530.638	8590
530.707	9881
530.775	10628
530.843	9031
530.911	9954
530.979	10599
531.047	11925
531.115	12073
531.183	10293
531.252	10324
531.320	9770
531.388	9078
531.456	11708
531.524	10993
531.592	12607
531.660	15522
531.728	11636
531.796	11785
531.864	10766
531.932	11757
532.000	10484
532.067	12601
532.135	13792
532.203	15215
532.271	15486
532.339	16134
532.407	16467
532.475	15346
532.542	13756
532.610	13862
532.678	14346
532.746	19562
532.814	26083
532.881	15740
532.949	13588
533.017	13134
533.084	13255
533.152	12747
533.220	12529
533.287	11943
533.355	12286
533.423	13468
533.490	13795
533.558	13722
533.625	12997
533.693	12878
533.761	12217
533.828	12033
533.896	11040
533.963	15215
534.031	16132
534.098	16998
534.166	15596
534.233	13309
534.300	15419
534.368	14851
534.435	13632
534.503	14450
534.570	15615
534.637	16714
534.705	16985
534.772	20455
534.840	42435
534.907	167298
534.974	181890
535.041	27699
535.109	14043
535.176	11944
535.243	12933
535.310	10837
535.378	10654
535.445	11079
535.512	10257
535.579	10269
535.646	9801
535.714	10164
535.781	11045
535.848	11594
535.915	12203
535.982	11200
536.049	11764
536.116	12669
536.183	9827
536.250	10215
536.317	9429
536.384	10570
536.451	9605
536.518	9665
536.585	8837
536.652	10879
536.719	10654
536.786	8141
536.853	7992
536.920	10087
536.987	9030
537.053	8170
537.120	14700
537.187	13868
537.254	9182
537.321	9344
537.388	8929
537.454	8358
537.521	7928
537.588	7177
537.654	9177
537.721	8548
537.788	9148
537.855	7808
537.921	7910
537.988	7701
538.055	9067
538.121	7055
538.188	7117
538.254	7709
538.321	7897
538.388	8198
538.454	7739
538.521	8793
538.587	8003
538.654	7535
538.720	7624
538.787	8271
538.853	7867
538.920	7951
538.986	6650
539.053	7315
539.119	7347
539.185	6779
539.252	8237
539.318	7784
539.385	10380
539.451	6966
539.517	7523
539.583	8738
539.650	8810
539.716	10325
539.782	7556
539.849	6256
539.915	6662
539.981	6823
540.047	7179
540.114	6783
540.180	7919
540.246	7237
540.312	7492
540.378	7928
540.444	9087
540.510	9567
540.576	12130
540.643	7122
540.709	6080
540.775	6626
540.841	6483
540.907	8876
540.973	10267
541.039	7767
541.105	7542
541.171	7127
541.237	6362
541.303	7435
541.369	9817
541.435	8730
541.500	8481
541.566	5878
541.632	6848
541.698	7035
541.764	7449
541.830	6494
541.896	5868
541.961	7216
542.027	6690
542.093	7930
542.159	8071
542.224	6481
542.290	9427
542.356	6501
542.421	8369
542.487	7241
542.553	6526
542.618	6771
542.684	6429
542.750	6576
542.815	8174
542.881	7701
542.947	11962
543.012	9316
543.078	6770
543.143	5771
543.209	7345
543.274	5963
543.340	7173
543.405	8100
543.471	7948
543.536	8079
543.602	7445
543.667	5222
543.732	8277
543.798	7637
543.863	7156
543.928	6665
543.994	5959
544.059	7507
544.124	8184
544.190	7221
544.255	7473
544.320	8063
544.386	6798
544.451	9269
544.516	7459
544.581	7496
544.646	10085
544.712	11608
544.777	7840
544.842	8600
544.907	7821
544.972	7815
545.037	8325
545.102	8953
545.168	8764
545.233	8621
545.298	9282
545.363	8763
545.428	10490
545.493	11344
545.558	10915
545.623	9349
545.688	9022
545.753	10170
545.818	10145
545.883	11427
545.947	9990
546.012	11631
546.077	9728
546.142	12692
546.207	11668
546.272	13008
546.337	12681
546.401	13750
546.466	14379
546.531	13489
546.596	16147
546.661	15815
546.725	17651
546.790	17096
546.855	19443
546.919	20123
546.984	22772
547.049	24416
547.113	28486
547.178	30254
547.243	35512
547.307	41012
547.372	45170
547.436	45017
547.501	46949
547.565	50463
547.630	45837
547.695	45377
547.759	45059
547.823	45461
547.888	46419
547.952	46735
548.017	47725
548.081	51155
548.146	50430
548.210	52630
548.274	55434
548.339	53835
548.403	48634
548.468	45838
548.532	45855
548.596	47287
548.660	47056
548.725	52821
548.789	55452
548.853	53842
548.917	52451
548.982	49958
549.046	46174
549.110	40403
549.174	43538
549.238	49957
549.303	54344
549.367	56225
549.431	51840
549.495	49883
549.559	49395
549.623	58532
549.687	61877
549.751	63224
549.815	73742
549.879	74751
549.943	70978
550.007	75426
550.071	72344
550.135	65465
550.199	61731
550.263	61821
550.327	58242
550.391	61793
550.455	66204
550.519	70799
550.582	77104
550.646	86462
550.710	86953
550.774	84844
550.838	86125
550.901	89752
550.965	95940
551.029	100613
551.093	111112
551.156	125404
551.220	147728
551.284	151745
551.347	117244
551.411	104553
551.475	99933
551.538	94922
551.602	85231
551.666	81732
551.729	76297
551.793	74587
551.856	73599
551.920	71056
551.983	71627
552.047	71751
552.110	71760
552.174	71617
552.237	73683
552.301	68656
552.364	65914
552.428	63267
552.491	65438
552.554	67563
552.618	67147
552.681	68632
552.745	65162
552.808	69160
552.871	74738
552.934	71073
552.998	66848
553.061	65398
553.124	63873
553.187	62965
553.251	66325
553.314	65888
553.377	67068
553.440	75703
553.503	95616
553.567	104307
553.630	73258
553.693	69455
553.756	70897
553.819	68137
553.882	64988
553.945	67300
554.008	66098
554.071	66779
554.134	66627
554.197	62434
554.260	63640
554.323	63438
554.386	64232
554.449	66183
554.512	67636
554.575	63932
554.638	62941
554.701	62934
554.764	62265
554.827	60761
554.889	57238
554.952	55238
555.015	54891
555.078	54834
555.141	55808
555.203	54046
555.266	54337
555.329	53234
555.391	51837
555.454	51064
555.517	50479
555.580	49249
555.642	46065
555.705	46490
555.768	45122
555.830	44550
555.893	41974
555.955	41279
556.018	40196
556.080	40683
556.143	41569
556.206	41631
556.268	40510
556.330	40680
556.393	38254
556.455	38167
556.518	37778
556.580	36944
556.643	34579
556.705	34461
556.767	32473
556.830	33736
556.892	32839
556.955	31545
557.017	31775
557.079	31758
557.142	30127
557.204	31064
557.266	31616
557.328	28300
557.391	27358
557.453	26280
557.515	26560
557.577	27524
557.639	27401
557.701	27522
557.764	26861
557.826	28382
557.888	30380
557.950	31001
558.012	34730
558.074	49584
558.136	129521
558.198	261566
558.260	84884
558.322	35141
558.384	33953
558.446	36700
558.508	39452
558.570	43574
558.632	50610
558.694	67916
558.756	130686
558.818	390539
558.880	677544
558.942	281793
559.003	288195
559.065	120597
559.127	49257
559.189	45108
559.251	51016
559.312	81777
559.374	216328
559.436	536909
559.498	236520
559.559	57793
559.621	45298
559.683	54253
559.744	102221
559.806	319861
559.868	380847
559.929	82000
559.991	54158
560.052	101935
560.114	263368
560.176	149672
560.237	166994
560.299	223792
560.360	45560
560.422	19806
560.483	17660
560.545	15246
560.606	14737
560.667	13117
560.729	12954
560.790	13208
560.852	11813
560.913	11572
560.974	11285
561.036	11436
561.097	11242
561.158	11312
561.220	11040
561.281	9744
561.342	9431
561.403	10327
561.465	9720
561.526	11483
561.587	12635
561.648	9061
561.709	9190
561.771	9455
561.832	8988
561.893	9377
561.954	9433
562.015	8988
562.076	7742
562.137	8978
562.198	8250
562.259	8685
562.320	8793
562.381	8914
562.442	8822
562.503	8584
562.564	8320
562.625	8093
562.686	8283
562.747	7182
562.808	8512
562.869	7313
562.930	7990
562.991	7490
563.051	7731
563.112	6869
563.173	7585
563.234	7612
563.294	8150
563.355	7047
563.416	6441
563.477	7710
563.537	7156
563.598	7312
563.659	7903
563.720	6583
563.780	7849
563.841	7110
563.901	6742
563.962	7668
564.023	6393
564.083	6979
564.144	6569
564.204	6895
564.265	6568
564.325	7723
564.386	10472
564.446	8290
564.507	6279
564.567	6772
564.628	6539
564.688	6215
564.749	6095
564.809	7371
564.869	7377
564.930	6356
564.990	6283
565.050	5776
565.111	6569
565.171	5650
565.231	5141
565.292	6186
565.352	5875
565.412	6348
565.472	5945
565.532	6661
565.593	5649
565.653	6527
565.713	5061
565.773	6729
565.833	5640
565.893	7479
565.953	5871
566.013	5581
566.074	6617
566.134	7603
566.194	7786
566.254	8044
566.314	6560
566.374	5776
566.434	5773
566.494	5560
566.554	5605
566.614	5374
566.673	6523
566.733	6994
566.793	6435
566.853	6425
566.913	6551
566.973	5827
567.033	6716
567.092	6351
567.152	6435
567.212	7039
567.272	6068
567.331	6324
567.391	6756
567.451	7469
567.511	7929
567.570	8004
567.630	7237
567.690	6459
567.749	6279
567.809	5869
567.868	6187
567.928	6234
567.988	6049
568.047	6494
568.107	5907
568.166	5743
568.226	7075
568.285	6983
568.345	6959
568.404	6499
568.464	7362
568.523	5690
568.582	6455
568.642	6294
568.701	6527
568.761	6904
568.820	5911
568.879	6903
568.939	7446
568.998	6931
569.057	6355
569.116	7039
569.176	5636
569.235	6010
569.294	5844
569.353	5430
569.413	5797
569.472	5137
569.531	5555
569.590	5209
569.649	5802
569.708	5445
569.767	6787
569.827	6360
569.886	6386
569.945	5471
570.004	6401
570.063	5784
570.122	5883
570.181	5543
570.240	6122
570.299	6477
570.358	6022
570.417	6266
570.475	6673
570.534	6490
570.593	6483
570.652	6549
570.711	6223
570.770	6730
570.829	6693
570.887	6197
570.946	6213
571.005	6689
571.064	6698
571.122	6241
571.181	6695
571.240	6095
571.299	5381
571.357	6053
571.416	5826
571.475	7769
571.533	7500
571.592	6647
571.650	6739
571.709	6735
571.768	6916
571.826	8111
571.885	6933
571.943	6287
572.002	5773
572.060	6362
572.119	5998
572.177	5355
572.236	6037
572.294	5689
572.352	6563
572.411	5791
572.469	6380
572.528	5410
572.586	6206
572.644	5473
572.703	6189
572.761	6297
572.819	5159
572.877	5184
572.936	5680
572.994	5848
573.052	4325
573.110	4775
573.169	5816
573.227	5488
573.285	5908
573.343	5482
573.401	5707
573.459	6045
573.517	5783
573.576	5572
573.634	6382
573.692	6117
573.750	6871
573.808	4852
573.866	6111
573.924	6044
573.982	5567
574.040	5470
574.098	5750
574.155	5312
574.213	6119
574.271	5472
574.329	5259
574.387	4362
574.445	4362
574.503	4618
574.560	4025
574.618	4849
574.676	4949
574.734	4618
574.792	5175
574.849	4612
574.907	4539
574.965	4477
575.022	4617
575.080	4121
575.138	4468
575.195	4230
575.253	3617
575.311	3546
575.368	4084
575.426	3860
575.483	4811
575.541	4443
575.598	3755
575.656	3924
575.713	3886
575.771	4216
575.828	3767
575.886	4746
575.943	3913
576.001	4600
576.058	4370
576.115	3980
576.173	4267
576.230	4815
576.287	4405
576.345	4825
576.402	5053
576.459	4722
576.517	3354
576.574	4201
576.631	4394
576.688	3706
576.746	4417
576.803	3614
576.860	3597
576.917	4670
576.974	4311
577.031	3606
577.089	4133
577.146	3499
577.203	3487
577.260	3912
577.317	3466
577.374	4620
577.431	3567
577.488	3906
577.545	3775
577.602	3311
577.659	3736
577.716	4742
577.773	5003
577.830	3737
577.886	3844
577.943	4235
578.000	3896
578.057	4393
578.114	4795
578.171	6462
578.227	7923
578.284	7844
578.341	7467
578.398	5481
578.454	5185
578.511	4602
578.568	5203
578.625	4740
578.681	3627
578.738	3971
578.794	3967
578.851	3753
578.908	4434
578.964	3478
579.021	4840
579.077	4274
579.134	3574
579.190	3545
579.247	3909
579.303	4228
579.360	3684
579.416	3223
579.473	4188
579.529	3554
579.586	4667
579.642	4703
579.698	4391
579.755	3678
579.811	4718
579.867	5130
579.924	4487
579.980	5531
580.036	6303
580.093	9209
580.149	12711
580.205	12530
580.261	9285
580.317	8379
580.374	8508
580.430	6936
580.486	6403
580.542	5611
580.598	5725
580.619	5778
580.654	5860
580.692	5501
580.710	5308
580.765	4908
580.767	4881
580.823	4723
580.838	5073
580.879	5961
580.911	5725
580.935	5527
580.984	5675
580.991	5683
581.047	6411
581.057	6388
581.103	6221
581.130	6623
581.159	6979
581.203	8341
581.215	8684
581.270	7279
581.276	7286
581.326	7165
581.349	6770
581.382	6173
581.422	6048
581.438	5965
581.494	7200
581.494	7208
581.550	6383
581.567	6543
581.606	6854
581.640	6671
581.661	6533
581.713	7783
581.717	7870
581.773	6927
581.786	7122
581.829	7632
581.859	7660
581.885	7700
581.932	7745
581.940	7722
581.996	8466
582.004	8454
582.052	8342
582.077	8248
582.107	8039
582.150	8928
582.163	9196
582.219	8844
582.223	8907
582.274	9539
582.296	9508
582.330	9384
582.368	9794
582.386	10044
582.441	9937
582.441	9923
582.497	10399
582.514	10589
582.552	11011
582.587	11194
582.608	11322
582.659	11328
582.663	11290
582.719	12206
582.732	12082
582.774	11974
582.805	12121
582.830	12337
582.877	14028
582.885	14366
582.941	16016
582.950	16312
582.996	17784
583.023	18766
583.052	19908
583.095	21755
583.107	22057
583.162	23566
583.168	23593
583.218	22583
583.240	21884
583.273	20775
583.313	19648
583.328	19319
583.384	17353
583.385	17329
583.439	16646
583.458	16368
583.494	16245
583.531	15957
583.549	15754
583.603	15621
583.605	15635
583.660	16198
583.676	16310
583.715	16426
583.748	16392
583.770	16537
583.820	16831
583.825	16838
583.881	17365
583.893	17189
583.936	16776
583.965	16803
583.991	17082
584.038	18465
584.046	18658
584.101	18806
584.110	18783
584.156	18962
584.183	19170
584.211	19392
584.255	19857
584.266	20087
584.321	20858
584.328	20963
584.376	21477
584.400	21513
584.431	21768
584.472	21771
584.486	22010
584.541	23749
584.545	23794
584.596	24189
584.617	24275
584.651	24982
584.689	26029
584.706	26346
584.761	26986
584.762	26943
584.816	27502
584.834	27867
584.871	28776
584.906	29164
584.926	29368
584.978	30184
584.980	30274
585.035	31407
585.051	31684
585.090	32567
585.123	33103
585.145	33847
585.195	34649
585.200	34902
585.254	38463
585.267	39370
585.309	42983
585.340	45490
585.364	48137
585.412	53316
585.419	54556
585.473	65983
585.484	68595
585.528	87027
585.556	103877
585.583	140524
585.628	218536
585.637	248991
585.692	478654
585.700	510004
585.747	600442
585.772	563546
585.801	393509
585.845	189189
585.856	165729
585.910	90878
585.917	82437
585.965	66409
585.989	59234
586.019	56062
586.061	52014
586.074	51409
586.128	48221
586.133	47782
586.183	44955
586.205	44016
586.237	43634
586.277	42638
586.292	42391
586.346	41054
586.349	40871
586.401	40069
586.421	39591
586.455	38878
586.493	38163
586.509	38649
586.564	39308
586.565	39247
586.618	43256
586.637	43598
586.672	44327
586.709	46138
586.727	47558
586.781	50746
586.781	50882
586.835	45061
586.853	43496
586.889	41435
586.925	39232
586.944	38968
586.996	37962
586.998	38089
587.052	38507
587.068	38352
587.106	38242
587.140	37777
587.161	37834
587.212	37832
587.215	37998
587.269	39063
587.284	39183
587.323	39494
587.356	39281
587.377	39707
587.427	40801
587.431	41033
587.485	41979
587.499	42066
587.539	42646
587.571	42945
587.593	43907
587.643	45424
587.648	45644
587.702	46352
587.715	46279
587.755	46633
587.786	46748
587.810	47111
587.858	47515
587.864	47784
587.917	48701
587.930	48598
587.971	49193
588.001	49640
588.025	49642
588.073	48792
588.079	49146
588.133	51129
588.145	51364
588.187	52479
588.217	52591
588.241	53364
588.288	54625
588.295	55011
588.348	56443
588.360	56675
588.402	58700
588.431	59426
588.456	60597
588.503	62599
588.510	63561
588.564	69117
588.575	70046
588.617	73637
588.646	76014
588.671	80484
588.718	88496
588.725	91431
588.778	113813
588.789	118624
588.832	176179
588.861	217732
588.886	294766
588.932	449652
588.939	461015
588.993	514784
589.004	516676
589.047	338312
589.075	226320
589.100	183425
589.147	109234
589.154	107603
589.207	92304
589.218	88798
589.261	88555
589.290	88456
589.314	91244
589.361	96216
589.368	100092
589.421	131137
589.433	137795
589.475	221505
589.504	283377
589.528	353125
589.576	483324
589.582	469293
589.635	296401
589.647	260299
589.689	164792
589.718	99960
589.742	92385
589.790	76273
589.795	76083
589.849	71417
589.861	70140
589.902	69914
589.932	68861
589.955	68167
590.004	65883
590.009	66055
590.062	64948
590.075	64415
590.115	64353
590.146	63818
590.168	64229
590.218	64005
590.222	64322
590.275	64987
590.289	64818
590.328	66472
590.360	67212
590.381	67641
590.431	67807
590.435	68179
590.488	69074
590.503	69077
590.541	70341
590.574	70608
590.594	71613
590.645	73441
590.647	73880
590.700	76271
590.716	76629
590.753	77867
590.787	78270
590.806	79446
590.859	81588
590.859	81976
590.912	82186
590.930	81813
590.965	83622
591.001	84713
591.018	84757
591.071	83628
591.072	83223
591.124	84577
591.143	84522
591.177	84825
591.214	84438
591.230	85575
591.283	87833
591.285	87507
591.336	87110
591.356	86410
591.389	86961
591.427	86562
591.442	86869
591.495	86553
591.498	86112
591.547	87868
591.569	88113
591.600	89945
591.640	91257
591.653	91757
591.706	91887
591.711	91484
591.759	94433
591.782	95150
591.811	97576
591.853	99977
591.864	100509
591.917	100806
591.924	100341
591.969	101383
591.995	101227
592.022	102438
592.066	103105
592.075	103982
592.127	106278
592.137	106188
592.180	108653
592.208	109363
592.233	110895
592.279	112239
592.285	113136
592.338	116007
592.350	116092
592.390	116458
592.421	115727
592.443	117080
592.491	118204
592.495	118980
592.548	121560
592.562	121676
592.600	122076
592.633	121292
592.653	122228
592.704	122406
592.705	123175
592.775	126073
592.846	127932
592.916	130304
592.987	130794
593.058	132983
593.128	135535
593.199	134175
593.270	135793
593.341	137051
593.411	142758
593.482	144970
593.553	150138
593.623	151389
593.694	155864
593.764	158382
593.835	155479
593.906	158585
593.976	161302
594.047	165137
594.117	173925
594.188	176890
594.258	178237
594.329	177069
594.399	182888
594.470	186775
594.540	192043
594.611	198271
594.681	196201
594.751	194929
594.822	203530
594.892	208904
594.963	215845
595.033	221471
595.103	226845
595.174	230013
595.244	234286
595.314	244592
595.384	246346
595.455	253283
595.525	259158
595.595	268388
595.665	267336
595.736	264862
595.806	268556
595.876	271540
595.946	275220
596.016	286940
596.087	294224
596.157	294065
596.227	298132
596.297	309760
596.367	332545
596.437	346347
596.507	346968
596.577	344637
596.647	357061
596.717	372944
596.787	376423
596.857	377979
596.927	381909
596.997	381885
597.067	388042
597.137	394944
597.207	398181
597.277	397506
597.347	384526
597.417	378478
597.487	378266
597.557	387224
597.626	397444
597.696	403169
597.766	399400
597.836	386354
597.906	371762
597.975	365219
598.045	375142
598.115	386960
598.185	410256
598.254	446808
598.324	480488
598.394	489182
598.464	477871
598.533	472810
598.603	451589
598.672	442513
598.742	451008
598.812	452394
598.881	466950
598.951	467461
599.020	475742
599.090	489802
599.159	496992
599.229	483591
599.299	479720
599.368	493544
599.437	489253
599.507	464785
599.576	453360
599.646	453324
599.715	452903
599.785	454298
599.854	446768
599.924	447024
599.993	449427
600.062	460268
600.132	471057
600.201	491786
600.270	541982
600.340	567159
600.409	564605
600.478	565149
600.547	572326
600.617	545538
600.686	484189
600.755	460405
600.824	455332
600.894	455666
600.963	460468
601.032	463947
601.101	460380
601.170	457299
601.239	455504
601.308	458614
601.378	466048
601.447	473263
601.516	485057
601.585	493224
601.654	502237
601.723	512075
601.792	522648
601.861	539658
601.930	560159
601.999	573465
602.068	572601
602.137	574217
602.206	581082
602.275	584893
602.343	589028
602.412	595265
602.481	599475
602.550	599535
602.619	614442
602.688	615315
602.756	623719
602.825	617936
602.894	636375
602.963	630351
603.032	645703
603.100	643612
603.169	633032
603.238	654600
603.307	632326
603.375	640407
603.444	660708
603.513	626003
603.581	647881
603.650	668706
603.719	592579
603.787	581706
603.856	594563
603.924	604885
603.993	617370
604.061	636373
604.130	652727
604.198	665948
604.267	671628
604.335	681860
604.404	683822
604.472	701196
604.541	703625
604.609	718121
604.678	726793
604.746	735489
604.815	763186
604.883	745507
604.951	735384
605.020	749755
605.088	722204
605.156	711358
605.225	713922
605.293	710511
605.361	716061
605.429	710918
605.498	725254
605.566	723526
605.634	755922
605.702	760558
605.771	772119
605.839	782543
605.907	750336
605.975	760634
606.043	731539
606.111	723041
606.180	757275
606.248	716114
606.316	708353
606.384	738334
606.452	655425
606.520	614437
606.588	627901
606.656	633192
606.724	623403
606.792	592963
606.860	549529
606.928	509662
606.996	493881
607.064	484563
607.132	496554
607.200	521490
607.267	536651
607.335	544175
607.403	555524
607.471	541063
607.539	525610
607.607	529407
607.674	477453
607.742	475241
607.810	470566
607.878	471625
607.946	483061
608.013	500784
608.081	504365
608.149	509929
608.216	521980
608.284	535596
608.352	535857
608.419	532625
608.487	520176
608.555	511436
608.622	523412
608.690	548435
608.757	589238
608.825	599839
608.893	587986
608.960	557176
609.028	538541
609.095	541597
609.163	536478
609.230	487805
609.298	449693
609.365	474838
609.432	507380
609.500	541712
609.567	607072
609.635	677530
609.702	704034
609.769	673459
609.837	547936
609.904	483077
609.971	494872
610.039	525387
610.106	599059
610.173	850439
610.241	1390274
610.308	1086437
610.375	645299
610.442	539752
610.509	507348
610.577	506497
610.644	510748
610.711	524236
610.778	536856
610.845	554172
610.912	584693
610.980	602411
611.047	604612
611.114	595474
611.181	577858
611.248	574219
611.315	601794
611.382	616683
611.449	636057
611.516	642965
611.583	634852
611.650	636825
611.717	645267
611.784	650560
611.851	675064
611.918	693584
611.984	758719
612.051	889894
612.118	1213042
612.185	1792260
612.252	1521569
612.319	959638
612.386	824935
612.452	754103
612.519	721940
612.586	705081
612.653	713371
612.719	730959
612.786	710460
612.853	668943
612.919	656244
612.986	665505
613.053	633299
613.120	605732
613.186	583602
613.253	589104
613.319	588089
613.386	592907
613.453	601755
613.519	600368
613.586	593738
613.652	599099
613.719	592433
613.785	603242
613.852	609995
613.918	604834
613.985	608830
614.051	633470
614.118	633440
614.184	609535
614.250	606173
614.317	616330
614.383	609093
614.449	623151
614.516	615214
614.582	619584
614.648	606559
614.715	606483
614.781	594613
614.847	594711
614.914	592157
614.980	579121
615.046	581879
615.112	595100
615.179	598073
615.245	604028
615.311	597384
615.377	608167
615.443	611610
615.509	616765
615.575	630642
615.642	629399
615.708	639729
615.774	662140
615.840	687508
615.906	709278
615.972	779794
616.038	949285
616.104	1367672
616.170	1901207
616.236	1758621
616.302	1186584
616.368	980976
616.434	805542
616.500	741318
616.565	766183
616.631	876000
616.697	810027
616.763	796292
616.829	974752
616.895	1384780
616.961	1395753
617.026	908211
617.092	707379
617.158	657578
617.224	636286
617.289	595709
617.355	570413
617.421	563304
617.487	561873
617.552	539866
617.618	536681
617.684	538186
617.749	540492
617.815	521137
617.880	509231
617.946	513350
618.012	520367
618.077	529442
618.143	513887
618.208	513283
618.274	544354
618.339	544987
618.405	471187
618.470	473131
618.536	472047
618.601	464963
618.667	436301
618.732	423166
618.798	417297
618.863	418246
618.928	410878
618.994	415449
619.059	409669
619.124	415045
619.190	412072
619.255	409668
619.320	411539
619.386	415536
619.451	411766
619.516	400951
619.581	406377
619.647	424592
619.712	422528
619.777	403960
619.842	408036
619.907	413935
619.972	422760
620.038	419848
620.103	409312
620.168	410921
620.233	416266
620.298	417415
620.363	423158
620.428	432080
620.493	438937
620.558	442361
620.623	447917
620.688	448747
620.753	448246
620.818	451710
620.883	455620
620.948	456328
621.013	450277
621.078	444222
621.143	448487
621.207	456257
621.272	449788
621.337	437471
621.402	434844
621.467	434528
621.532	433585
621.596	434387
621.661	425242
621.726	421465
621.791	427399
621.855	427626
621.920	422494
621.985	428039
622.049	435065
622.114	436972
622.179	444153
622.243	446463
622.308	457759
622.373	473754
622.437	462047
622.502	446038
622.566	440779
622.631	440464
622.695	448810
622.760	448182
622.824	444419
622.889	447508
622.953	446654
623.018	467853
623.082	470898
623.147	467404
623.211	456304
623.276	457562
623.340	443209
623.404	434866
623.469	433757
623.533	439682
623.597	428738
623.662	425628
623.726	403835
623.790	387049
623.854	379310
623.919	386097
623.983	386541
624.047	390929
624.111	393544
624.176	400983
624.240	403919
624.304	412654
624.368	399034
624.432	397970
624.496	402334
624.560	420272
624.625	422825
624.689	420246
624.753	437071
624.817	417052
624.881	410357
624.945	378211
625.009	368234
625.073	371043
625.137	384001
625.201	392955
625.265	393318
625.329	381964
625.393	385028
625.456	382299
625.520	392499
625.584	397788
625.648	409792
625.712	418508
625.776	418279
625.839	397421
625.903	342042
625.967	322282
626.031	345235
626.095	392608
626.158	365717
626.222	302449
626.286	285435
626.349	275980
626.413	261100
626.477	258870
626.540	261836
626.604	259049
626.668	257283
626.731	251519
626.795	250353
626.858	251157
626.922	244421
626.986	244338
627.049	244839
627.113	254309
627.176	247731
627.240	240391
627.303	238712
627.366	233445
627.430	239036
627.493	235426
627.557	233199
627.620	238186
627.684	241989
627.747	240277
627.810	224443
627.874	207007
627.937	198970
628.000	208015
628.064	201735
628.127	181827
628.190	177474
628.253	174036
628.317	167908
628.380	164583
628.443	159388
628.506	158568
628.569	151037
628.632	145548
628.696	145463
628.759	143496
628.822	135909
628.885	134722
628.948	132508
629.011	131768
629.074	128013
629.137	127226
629.200	124935
629.263	122014
629.326	120357
629.389	120932
629.452	117698
629.515	116513
629.578	116131
629.641	117157
629.704	115543
629.767	114591
629.830	113700
629.892	109394
629.955	108226
630.018	113442
630.081	109817
630.144	110027
630.207	107153
630.269	110785
630.332	105534
630.395	104861
630.458	102865
630.520	98952
630.583	101379
630.646	101947
630.708	103579
630.771	105935
630.834	108230
630.896	107098
630.959	105063
631.021	102845
631.084	103188
631.146	104362
631.209	105417
631.272	103497
631.334	103931
631.397	105054
631.459	103609
631.522	106891
631.584	108465
631.646	113484
631.709	113295
631.771	113176
631.834	110384
631.896	107806
631.958	103308
632.021	103264
632.083	98771
632.145	100742
632.208	97291
632.270	98567
632.332	98098
632.395	96993
632.457	99456
632.519	96155
632.581	96332
632.643	95943
632.706	96495
632.768	94245
632.830	97322
632.892	97144
632.954	98539
633.016	100005
633.078	97464
633.141	98581
633.203	97922
633.265	96433
633.327	95216
633.389	96326
633.451	96897
633.513	96300
633.575	99065
633.637	98566
633.698	99302
633.760	103466
633.822	106101
633.884	106857
633.946	109899
634.008	109667
634.070	109630
634.132	114287
634.193	118625
634.255	125283
634.317	125392
634.379	124927
634.441	117040
634.502	109378
634.564	104201
634.626	98135
634.687	96257
634.749	94286
634.811	94382
634.873	91944
634.934	93839
634.996	94651
635.057	92734
635.119	95319
635.181	96283
635.242	96867
635.304	93845
635.365	97462
635.427	94391
635.488	95452
635.550	94344
635.611	95495
635.673	93855
635.734	98732
635.796	102065
635.857	107036
635.918	111450
635.980	119267
636.041	121241
636.102	126289
636.164	126945
636.225	122511
636.286	112161
636.348	104747
636.409	99036
636.470	95622
636.531	93928
636.593	92483
636.654	92188
636.715	86779
636.776	89962
636.838	86305
636.899	85888
636.960	83818
637.021	83565
637.082	82970
637.143	81374
637.204	80581
637.265	80746
637.326	82376
637.387	83007
637.448	81793
637.509	81576
637.570	81728
637.631	82032
637.692	79048
637.753	76935
637.814	78951
637.875	78731
637.936	78261
637.997	78784
638.058	76045
638.119	79077
638.179	77485
638.240	78435
638.301	77602
638.362	76486
638.423	74020
638.483	75166
638.544	72232
638.605	73024
638.666	73204
638.726	74582
638.787	74549
638.848	74184
638.908	73861
638.969	71259
639.030	68992
639.090	69377
639.151	70983
639.211	71517
639.272	72746
639.332	72217
639.393	73266
639.453	73844
639.514	75105
639.574	71110
639.635	68009
639.695	68977
639.756	66893
639.816	66400
639.877	65176
639.937	67392
639.997	67624
640.058	65954
640.118	66857
640.178	65602
640.239	65123
640.299	66208
640.359	67724
640.420	70272
640.480	72732
640.540	76727
640.600	79321
640.661	76154
640.721	73653
640.781	76006
640.841	70986
640.901	67472
640.961	66959
641.021	68688
641.082	71725
641.142	68067
641.202	66443
641.262	62517
641.322	65480
641.382	64082
641.442	65329
641.502	62814
641.562	64799
641.622	64813
641.682	66868
641.742	72593
641.802	70414
641.861	65343
641.921	61263
641.981	61850
642.041	59220
642.101	58983
642.161	57270
642.221	59405
642.280	59579
642.340	58858
642.400	59399
642.460	60740
642.519	61301
642.579	61630
642.639	61991
642.698	60727
642.758	64160
642.818	62412
642.877	62391
642.937	64196
642.997	63248
643.056	63170
643.116	60657
643.175	64115
643.235	62586
643.294	65052
643.354	66489
643.414	69216
643.473	76302
643.532	83113
643.592	100046
643.651	130336
643.711	192770
643.770	323321
643.830	637029
643.889	983555
643.948	440533
644.008	154300
644.067	99678
644.126	81167
644.186	72438
644.245	67160
644.304	61526
644.363	63275
644.423	59631
644.482	60205
644.541	62736
644.600	63997
644.659	72272
644.719	82402
644.778	105224
644.837	153416
644.896	273584
644.955	531088
645.014	227555
645.073	87877
645.132	70491
645.191	66355
645.250	65090
645.309	67113
645.368	69689
645.427	85158
645.486	126248
645.545	196546
645.604	82749
645.663	60743
645.722	59799
645.781	62571
645.840	64709
645.898	73040
645.957	90733
646.016	118664
646.075	179347
646.134	303800
646.192	640162
646.251	811144
646.310	261713
646.369	111841
646.427	91145
646.486	73888
646.545	61685
646.603	58524
646.662	55930
646.721	54744
646.779	53509
646.838	54785
646.896	61349
646.955	74133
647.014	101311
647.072	172430
647.131	393606
647.189	214241
647.248	62864
647.306	53083
647.365	47919
647.423	45157
647.481	46730
647.540	44863
647.598	45467
647.657	45931
647.715	45723
647.773	42947
647.832	42354
647.890	39231
647.948	39534
648.007	38945
648.065	38103
648.123	38431
648.181	38277
648.240	38604
648.298	38430
648.356	36855
648.414	38973
648.472	36852
648.531	37190
648.589	35625
648.647	35952
648.705	36199
648.763	36419
648.821	37428
648.879	36244
648.937	40167
648.995	43468
649.053	49642
649.111	63563
649.169	90766
649.227	143687
649.285	271879
649.343	606254
649.401	348019
649.459	86520
649.516	53393
649.574	45825
649.632	49380
649.690	54097
649.748	57506
649.806	76647
649.863	127776
649.921	297310
649.979	208301
650.037	48622
650.094	35122
650.152	34229
650.210	30242
650.268	31638
650.325	31190
650.383	30270
650.440	27144
650.498	27573
650.556	27208
650.613	26556
650.671	26862
650.728	26673
650.786	29239
650.843	35614
650.901	29468
650.958	25748
651.016	24983
651.073	25085
651.131	24105
651.188	23480
651.246	24266
651.303	23520
651.360	23240
651.418	22958
651.475	23474
651.532	22574
651.590	23359
651.647	22040
651.704	22282
651.762	21405
651.819	21668
651.876	21778
651.933	20787
651.990	23371
652.048	19969
652.105	20680
652.162	21547
652.219	20241
652.276	20539
652.333	21579
652.390	19459
652.448	20757
652.505	20367
652.562	19919
652.619	20870
652.676	21644
652.733	22620
652.790	19120
652.847	18501
652.904	19850
652.961	18074
653.017	18098
653.074	19328
653.131	18618
653.188	18146
653.245	19043
653.302	18925
653.359	17759
653.415	19610
653.472	18416
653.529	18945
653.586	19060
653.642	18306
653.699	19168
653.756	17892
653.813	18348
653.869	18893
653.926	18285
653.983	18409
654.039	18432
654.096	17579
654.152	18568
654.209	17400
654.266	18373
654.322	16792
654.379	18868
654.435	18140
654.492	17595
654.548	18551
654.605	17487
654.661	19523
654.717	17589
654.774	17234
654.830	17181
654.887	17176
654.943	17209
655.000	18186
655.056	17476
655.112	17637
655.168	16699
655.225	16879
655.281	18657
655.337	17918
655.394	17699
655.450	16830
655.506	16998
655.562	17166
655.618	18010
655.675	15837
655.731	15765
655.787	16161
655.843	17267
655.899	15762
655.955	16652
656.011	16691
656.067	16807
656.123	16801
656.179	16715
656.235	17598
656.291	15702
656.347	17456
656.403	15529
656.459	17129
656.515	16390
656.571	16565
656.627	16904
656.683	17013
656.739	16524
656.795	15959
656.850	15446
656.906	16353
656.962	16991
657.018	17205
657.074	20202
657.129	24229
657.185	37109
657.241	72404
657.297	42367
657.352	18783
657.408	16028
657.464	16327
657.519	15403
657.575	14389
657.630	15033
657.686	15479
657.742	15178
657.797	15360
657.853	14711
657.908	15851
657.964	14511
658.019	15213
658.075	15391
658.130	15077
658.186	14382
658.241	14925
658.297	13863
658.352	14506
658.407	14798
658.463	14484
658.518	14290
658.573	14846
658.629	13730
658.684	14932
658.739	14412
658.795	13483
658.850	14626
658.905	14112
658.960	13929
659.016	13689
659.071	12860
659.126	13719
659.181	13463
659.236	15646
659.291	15598
659.346	14446
659.401	14209
659.457	15778
659.512	15248
659.567	15600
659.622	14377
659.677	13427
659.732	12594
659.787	13650
659.842	14250
659.897	13366
659.952	14070
660.007	13659
660.061	13104
660.116	12714
660.171	12592
660.226	12841
660.281	14192
660.336	13008
660.391	13794
660.445	12716
660.500	11893
660.555	12913
660.610	12329
660.664	13352
660.719	12492
660.774	12615
660.828	12407
660.883	12765
660.938	13112
660.992	11555
661.047	13719
661.101	11702
661.156	12692
661.211	11735
661.265	13160
661.320	12234
661.374	12449
661.429	12299
661.483	13390
661.538	12210
661.592	12329
661.647	13562
661.701	13791
661.755	12653
661.810	12301
661.864	11723
661.919	11577
661.973	13396
662.027	12385
662.081	11485
662.136	11215
662.190	12456
662.244	12680
662.299	11270
662.353	13003
662.407	11752
662.461	11870
662.515	12198
662.569	11568
662.624	12245
662.678	11336
662.732	12415
662.786	12490
662.840	12324
662.894	12669
662.948	11538
663.002	12397
663.056	11462
663.110	10822
663.164	11987
663.218	12090
663.272	12052
663.326	12055
663.380	11877
663.434	12383
663.488	10809
663.542	11523
663.595	11880
663.649	10920
663.703	11797
663.757	10952
663.811	11501
663.864	10614
663.918	11747
663.972	11569
664.026	11128
664.079	11620
664.133	12372
664.187	11857
664.240	12331
664.294	11398
664.348	12420
664.401	11076
664.455	10824
664.508	11510
664.562	11637
664.615	11359
664.669	10426
664.722	10568
664.776	10149
664.829	12311
664.883	11560
664.936	11028
664.990	11387
665.043	11739
665.097	10691
665.150	12390
665.203	11696
665.257	11261
665.310	10889
665.363	11223
665.417	12089
665.470	12312
665.523	11473
665.576	12015
665.630	11772
665.683	11528
665.736	11407
665.789	11589
665.842	11588
665.895	11533
665.949	12114
666.002	12087
666.055	12068
666.108	12543
666.161	11494
666.214	12181
666.267	12197
666.320	11945
666.373	11707
666.426	12462
666.479	12713
666.532	11763
666.585	12646
666.638	13485
666.691	11704
666.744	13184
666.796	12160
666.849	12201
666.902	12498
666.955	12349
667.008	11830
667.060	11784
667.113	12075
667.166	12055
667.219	12593
667.271	13391
667.324	12757
667.377	12645
667.430	12752
667.482	13073
667.535	11624
667.587	12869
667.640	11928
667.693	11194
667.745	11770
667.798	12576
667.850	11751
667.903	12050
667.955	12063
668.008	12039
668.060	13404
668.113	12229
668.165	12113
668.218	11644
668.270	12270
668.322	12081
668.375	11371
668.427	12864
668.479	11292
668.532	12110
668.584	11937
668.636	11146
668.689	12125
668.741	10907
668.793	11319
668.845	11690
668.898	11633
668.950	11844
669.002	11463
669.054	11702
669.106	11635
669.158	11848
669.211	10754
669.263	10680
669.315	12130
669.367	12268
669.419	11271
669.471	11898
669.523	11677
669.575	12746
669.627	12377
669.679	11295
669.731	11573
669.783	11642
669.835	11751
669.886	11948
669.938	11349
669.990	11611
670.042	11746
670.094	12045
670.146	11781
670.197	12591
670.249	13353
670.301	15015
670.353	17198
670.404	21633
670.456	26974
670.508	36882
670.560	56475
670.611	88380
670.663	145769
670.715	295443
670.766	390617
670.818	166542
670.869	46857
670.921	28983
670.972	22640
671.024	18587
671.075	15251
671.127	14552
671.178	14730
671.230	14932
671.281	15180
671.333	15795
671.384	17562
671.436	21182
671.487	26283
671.538	34364
671.590	51149
671.641	78128
671.692	128020
671.744	216776
671.795	179523
671.846	83698
671.897	43919
671.949	30655
672.000	22556
672.051	18912
672.102	16190
672.153	14088
672.204	12620
672.256	11908
672.307	12119
672.358	11247
672.409	10766
672.460	11379
672.511	10984
672.562	9486
672.613	9684
672.664	9316
672.715	9627
672.766	8431
672.817	9168
672.868	9685
672.919	8163
672.970	8630
673.021	9067
673.071	8256
673.122	8714
673.173	8667
673.224	8793
673.275	9070
673.326	8382
673.376	8252
673.427	8507
673.478	8165
673.528	9360
673.579	7930
673.630	7931
673.680	9270
673.731	8083
673.782	8024
673.832	8975
673.883	8277
673.934	7392
673.984	8734
674.035	8072
674.085	8350
674.136	8120
674.186	8035
674.237	7974
674.287	8770
674.338	9095
674.388	8098
674.438	8279
674.489	8663
674.539	8857
674.589	9499
674.640	9200
674.690	9219
674.740	8788
674.791	8808
674.841	8739
674.891	7691
674.942	7261
674.992	6738
675.042	6660
675.092	6855
675.142	5775
675.193	7246
675.243	6720
675.293	7083
675.343	6812
675.393	7990
675.443	8044
675.493	7608
675.543	6911
675.593	7590
675.643	7167
675.693	7638
675.743	6797
675.793	6666
675.843	6495
675.893	6172
675.943	6332
675.993	7245
676.043	6049
676.093	7167
676.142	7201
676.192	7100
676.242	6879
676.292	6586
676.341	7157
676.391	6296
676.441	6360
676.491	6788
676.540	5217
676.590	5960
676.640	6503
676.689	6168
676.739	5693
676.789	6197
676.838	6219
676.888	5419
676.937	5363
676.987	6151
677.037	5180
677.086	6494
677.136	6549
677.185	5849
677.235	5266
677.284	6285
677.333	6788
677.383	6113
677.432	4987
677.482	6311
677.531	5804
677.580	5197
677.630	6291
677.679	5476
677.728	6311
677.778	5305
677.827	4993
677.876	6018
677.925	5779
677.975	6294
678.024	7542
678.073	6916
678.122	5541
678.171	6585
678.220	5718
678.269	8269
678.319	8090
678.368	7442
678.417	5943
678.466	6471
678.515	5688
678.564	6041
678.613	5547
678.662	5022
678.711	6540
678.760	6378
678.809	5842
678.857	6668
678.906	6189
678.955	6343
679.004	6298
679.053	5697
679.102	5518
679.151	7351
679.199	5223
679.248	5407
679.297	6054
679.346	4950
679.394	5623
679.443	5304
679.492	4402
679.540	6163
679.589	5296
679.638	5490
679.686	6506
679.735	5736
679.784	6399
679.832	7337
679.881	6508
679.929	5596
679.978	5165
680.026	5103
680.075	5776
680.123	5268
680.172	5209
680.220	4797
680.268	5590
680.317	4641
680.365	4995
680.414	4409
680.462	5466
680.510	5028
680.559	4506
680.607	5040
680.655	4296
680.703	5404
680.752	5653
680.800	4766
680.848	4463
680.896	5183
680.945	4394
680.993	5159
681.041	4388
681.089	5311
681.137	4206
681.185	4627
681.233	4854
681.258	4844
681.281	4819
681.329	4657
681.377	4605
681.380	4644
681.425	5027
681.473	5585
681.502	5038
681.521	4629
681.569	6041
681.617	4941
681.624	5002
681.665	5273
681.713	5825
681.745	5952
681.761	5988
681.809	5081
681.857	5373
681.867	5435
681.904	5570
681.952	5454
681.989	5589
682.000	5611
682.048	5113
682.096	5220
682.111	5385
682.143	5684
682.191	5556
682.233	6019
682.239	6070
682.286	5694
682.334	5684
682.354	5588
682.382	5408
682.430	5220
682.476	6026
682.477	6029
682.525	5504
682.572	5123
682.598	5425
682.620	5651
682.667	5910
682.715	5736
682.720	5732
682.763	5511
682.810	5828
682.841	5391
682.857	5160
682.905	6023
682.952	5782
682.963	5927
683.000	6329
683.047	4998
683.085	6246
683.095	6579
683.142	5960
683.190	6412
683.206	6231
683.237	5798
683.284	6006
683.328	5496
683.332	5449
683.379	5743
683.426	5771
683.449	5918
683.473	6013
683.521	6324
683.568	6417
683.571	6416
683.615	6248
683.662	6169
683.693	6320
683.709	6352
683.757	6265
683.804	5297
683.814	5234
683.851	5015
683.898	6471
683.936	6317
683.945	6272
683.992	6090
684.039	6287
684.057	6264
684.086	6163
684.133	6310
684.179	5865
684.180	5840
684.227	6246
684.274	6676
684.300	6586
684.321	6502
684.368	5821
684.415	6303
684.422	6330
684.462	6478
684.509	6608
684.543	6862
684.556	6923
684.603	7005
684.649	6621
684.665	6831
684.696	7199
684.743	6698
684.786	7432
684.790	7485
684.837	6167
684.883	6269
684.908	6500
684.930	6738
684.977	7566
685.023	7431
685.029	7394
685.070	6983
685.117	7511
685.150	7427
685.164	7394
685.210	6514
685.257	7772
685.272	7784
685.303	7671
685.350	7956
685.393	7428
685.396	7391
685.443	6601
685.490	7499
685.514	7518
685.536	7452
685.583	7011
685.629	7625
685.636	7568
685.675	7338
685.722	7697
685.757	6933
685.768	6640
685.815	7191
685.861	7144
685.878	7219
685.908	7537
685.954	7778
686.000	8010
686.000	8005
686.047	8186
686.093	8330
686.121	8229
686.139	8115
686.185	8283
686.232	7650
686.242	7702
686.278	7972
686.324	7730
686.363	8179
686.370	8235
686.416	8049
686.463	8176
686.484	8134
686.509	8169
686.555	7525
686.601	8147
686.606	8173
686.647	8229
686.693	7758
686.727	8007
686.739	8134
686.785	7942
686.831	8067
686.848	8001
686.877	7886
686.923	7841
686.969	8416
686.969	8418
687.015	8365
687.061	8524
687.090	8719
687.107	8812
687.153	8679
687.199	8739
687.211	8577
687.245	8112
687.291	8882
687.332	8445
687.336	8409
687.382	8767
687.428	8937
687.453	8950
687.474	8931
687.520	8702
687.565	8651
687.574	8685
687.611	8900
687.657	9169
687.695	9116
687.702	9153
687.748	10343
687.794	10708
687.816	10579
687.839	10123
687.885	10080
687.931	9650
687.937	9585
687.976	9372
688.022	9701
688.058	9375
688.067	9310
688.113	9168
688.158	9121
688.179	9107
688.204	9136
688.249	9076
688.295	9368
688.300	9343
688.340	9257
688.386	9602
688.421	9193
688.431	9051
688.477	8971
688.522	9491
688.542	9551
688.567	9810
688.613	9285
688.658	9785
688.663	9795
688.703	9556
688.749	9470
688.784	9535
688.794	9607
688.839	9807
688.884	9498
688.905	9548
688.930	9660
688.975	9886
689.020	9745
689.026	9739
689.065	9563
689.110	9879
689.146	9470
689.155	9430
689.201	9887
689.246	10069
689.267	10017
689.291	9893
689.336	10346
689.381	9968
689.388	9986
689.426	10139
689.471	10345
689.509	10238
689.516	10227
689.561	10196
689.606	10232
689.630	10247
689.651	10266
689.696	9841
689.741	10351
689.750	10345
689.785	10317
689.830	10259
689.871	10213
689.875	10234
689.920	10252
689.965	9784
689.992	9943
690.010	10068
690.054	10056
690.099	10539
690.112	10629
690.144	10870
690.189	10452
690.233	10486
690.233	10497
690.278	10561
690.323	10867
690.354	10707
690.367	10802
690.412	10922
690.457	11872
690.474	12034
690.501	11993
690.546	12093
690.590	11772
690.595	11771
690.635	12388
690.680	12450
690.716	13043
690.724	13373
690.769	15376
690.813	17237
690.836	18074
690.857	20254
690.902	25438
690.946	30983
690.957	32500
690.991	43633
691.035	60665
691.077	75560
691.080	75613
691.124	67187
691.168	59325
691.198	55258
691.213	51025
691.257	38907
691.301	27541
691.318	23269
691.346	21592
691.390	18636
691.434	15043
691.439	14752
691.478	14487
691.522	13845
691.559	12912
691.567	12867
691.611	13293
691.655	12943
691.680	12912
691.699	12826
691.743	12464
691.787	12608
691.800	12548
691.831	12504
691.875	12386
691.919	12143
691.921	12108
691.964	11565
692.008	11621
692.041	11582
692.052	11658
692.096	11555
692.139	11992
692.162	11886
692.183	11694
692.227	12131
692.271	11581
692.282	11551
692.315	11551
692.359	11541
692.402	11522
692.403	11540
692.447	11410
692.490	11528
692.523	11684
692.534	11805
692.578	11757
692.622	11887
692.643	11863
692.666	11713
692.709	11959
692.753	11927
692.763	11799
692.797	11672
692.840	12050
692.884	12133
692.884	12153
692.928	12217
692.971	12397
693.004	12366
693.015	12413
693.059	12472
693.102	12778
693.124	12984
693.146	13147
693.189	13216
693.233	13307
693.245	13353
693.276	14135
693.320	15072
693.363	15972
693.365	15974
693.407	17443
693.450	19380
693.485	20671
693.493	21317
693.537	24531
693.580	28271
693.605	30184
693.624	34683
693.667	45928
693.710	57705
693.725	61960
693.753	82107
693.797	115962
693.840	149516
693.845	152386
693.883	139830
693.926	124420
693.966	112543
693.970	110118
694.013	84073
694.056	58366
694.086	40685
694.099	38629
694.142	32061
694.185	25311
694.206	22265
694.229	21400
694.272	19572
694.315	17738
694.326	17204
694.358	16668
694.401	16284
694.444	15370
694.446	15310
694.487	15090
694.530	14514
694.566	14530
694.573	14551
694.616	13888
694.659	13560
694.686	13274
694.702	13268
694.745	13337
694.787	13225
694.806	13231
694.830	13196
694.873	12899
694.916	12531
694.926	12434
694.959	12451
695.002	12445
695.044	12640
695.046	12612
695.087	12678
695.130	13042
695.166	13054
695.172	13101
695.215	13125
695.258	13666
695.286	13704
695.301	13730
695.343	14114
695.386	14155
695.406	14226
695.428	14610
695.471	15180
695.514	16039
695.526	16176
695.556	16287
695.599	16471
695.641	16428
695.646	16413
695.684	16066
695.726	15559
695.766	15087
695.769	15101
695.811	14836
695.854	14748
695.886	14616
695.896	14678
695.938	14606
695.981	14709
696.005	14747
696.023	15047
696.065	15475
696.108	16294
696.125	16508
696.150	16768
696.192	17162
696.235	17500
696.245	17575
696.277	17759
696.319	17902
696.361	18121
696.365	18081
696.404	18022
696.446	18183
696.485	18214
696.488	18234
696.530	18092
696.572	17749
696.604	17598
696.614	17596
696.656	17223
696.698	17069
696.724	16798
696.740	16792
696.783	16893
696.825	17013
696.844	16956
696.867	16921
696.909	16819
696.951	16684
696.964	16658
696.992	16735
697.034	16656
697.076	16658
697.083	16609
697.118	16796
697.160	17097
697.202	17316
697.203	17284
697.244	17325
697.286	17561
697.323	17451
697.327	17493
697.369	17690
697.411	17908
697.442	17998
697.453	18036
697.494	18021
697.536	18052
697.562	17959
697.578	17844
697.620	17615
697.661	17229
697.682	17066
697.703	17329
697.744	17686
697.786	18119
697.801	18206
697.828	18282
697.869	18344
697.911	18421
697.921	18413
697.952	18308
697.994	18093
698.035	17782
698.040	17721
698.077	18270
698.118	18810
698.160	19289
698.160	19249
698.201	19324
698.243	19382
698.279	19414
698.284	19509
698.325	19948
698.367	20448
698.399	20771
698.408	20868
698.449	21125
698.491	21368
698.518	21485
698.532	21459
698.573	21232
698.614	21022
698.638	20845
698.656	20913
698.697	20990
698.738	21047
698.757	21027
698.779	21003
698.820	20882
698.862	20756
698.877	20670
698.903	20748
698.944	20784
698.985	20831
698.996	20800
699.026	20909
699.067	21000
699.116	21065
699.235	21274
699.354	20629
699.474	18990
699.593	20271
699.713	20739
699.832	19804
699.951	20167
700.070	20756
700.190	19157
700.309	17843
700.428	17897
700.547	17481
700.667	17393
700.786	18571
700.905	17812
701.024	18559
701.143	17742
701.262	19823
701.381	18354
701.500	18890
701.619	18577
701.738	17470
701.857	18695
701.976	18148
702.095	17580
702.214	18624
702.333	18319
702.452	18473
702.571	18245
702.690	18280
702.809	17446
702.928	17975
703.047	17460
703.165	17727
703.284	16141
703.403	16303
703.522	17474
703.640	17147
703.759	16478
703.878	17344
703.997	17174
704.115	16099
704.234	16427
704.353	16579
704.471	16014
704.590	15204
704.708	15189
704.827	15410
704.946	15952
705.064	15652
705.183	15088
705.301	15888
705.420	17274
705.538	16695
705.656	15609
705.775	16208
705.893	20143
706.012	21376
706.130	15906
706.249	16085
706.367	15220
706.485	15199
706.604	13886
706.722	15532
706.840	16294
706.958	17874
707.077	15222
707.195	14736
707.313	15413
707.431	13789
707.549	13997
707.668	14878
707.786	14463
707.904	13249
708.022	14131
708.140	14032
708.258	14676
708.376	14715
708.494	13493
708.612	14864
708.730	16635
708.848	15463
708.966	15719
709.084	15016
709.202	14748
709.320	14127
709.438	14218
709.556	14453
709.674	13365
709.791	14109
709.909	13114
710.027	13986
710.145	13408
710.263	13154
710.380	13319
710.498	12937
710.616	13570
710.733	13926
710.851	12526
710.969	13907
711.086	13700
711.204	13435
711.322	12395
711.439	12989
711.557	11980
711.674	12382
711.792	12880
711.909	13103
712.027	13439
712.144	12538
712.262	13427
712.379	12540
712.497	14936
712.614	15304
712.732	13806
712.849	12959
712.966	13094
713.084	14548
713.201	12879
713.318	12958
713.436	13598
713.553	13466
713.670	14685
713.787	15168
713.905	14177
714.022	14324
714.139	14472
714.256	17712
714.373	23690
714.490	41758
714.608	106416
714.725	424393
714.842	349561
714.959	37442
715.076	18861
715.193	16618
715.310	14979
715.427	12784
715.544	13023
715.661	12363
715.778	12271
715.895	12133
716.011	12245
716.128	12428
716.245	12358
716.362	12183
716.479	11476
716.596	11744
716.713	11765
716.829	11948
716.946	10507
717.063	12107
717.180	10779
717.296	11800
717.413	10848
717.530	10539
717.646	10413
717.763	10696
717.880	10538
717.996	9980
718.113	10150
718.229	9993
718.346	9372
718.462	10325
718.579	10341
718.695	10822
718.812	11288
718.928	10467
719.045	10015
719.161	10525
719.277	10443
719.394	11829
719.510	11502
719.626	11063
719.743	14520
719.859	20866
719.975	41214
720.092	160203
720.208	289894
720.324	35453
720.440	13370
720.557	11998
720.673	12141
720.789	13176
720.905	17453
721.021	10836
721.137	9631
721.253	10113
721.369	9664
721.486	9309
721.602	10916
721.718	9874
721.834	8555
721.950	8735
722.066	8540
722.181	9085
722.297	8638
722.413	9059
722.529	9842
722.645	8796
722.761	8547
722.877	9314
722.993	9370
723.108	10421
723.224	8925
723.340	9029
723.456	8672
723.571	8106
723.687	8560
723.803	9011
723.918	8587
724.034	8239
724.150	8950
724.265	8581
724.381	10753
724.497	10202
724.612	8285
724.728	7905
724.843	8590
724.959	8052
725.074	9928
725.190	10195
725.305	8789
725.421	7465
725.536	9005
725.651	9397
725.767	7776
725.882	8490
725.997	7668
726.113	8118
726.228	7812
726.343	7766
726.459	7324
726.574	8704
726.689	6980
726.804	7335
726.920	9045
727.035	8131
727.150	8757
727.265	7675
727.380	8037
727.495	7830
727.610	6948
727.725	7510
727.841	8452
727.956	11582
728.071	9055
728.186	8181
728.301	6998
728.416	7330
728.531	7670
728.645	6801
728.760	7243
728.875	7491
728.990	6487
729.105	7163
729.220	6603
729.335	7668
729.449	6338
729.564	6396
729.679	7311
729.794	7503
729.908	7787
730.023	8452
730.138	7100
730.253	8486
730.367	6999
730.482	7455
730.596	7684
730.711	8576
730.826	9465
730.940	9164
731.055	8490
731.169	8042
731.284	8842
731.398	8698
731.513	9393
731.627	9265
731.742	12275
731.856	13258
731.970	12842
732.085	16566
732.199	22002
732.313	37408
732.428	97572
732.542	254410
732.656	120040
732.771	28340
732.885	17338
732.999	16738
733.113	16607
733.227	17028
733.342	15467
733.456	15253
733.570	14205
733.684	14450
733.798	12809
733.912	12945
734.026	12988
734.140	13364
734.254	12982
734.368	15174
734.482	14038
734.596	13200
734.710	12523
734.824	12575
734.938	13061
735.052	12121
735.166	12739
735.280	12443
735.393	12589
735.507	12977
735.621	12396
735.735	13041
735.849	12128
735.962	11389
736.076	12436
736.190	11922
736.303	12685
736.417	13453
736.531	11221
736.644	12250
736.758	10984
736.872	12137
736.985	11793
737.099	11555
737.212	10818
737.326	11140
737.439	11236
737.553	10323
737.666	11723
737.780	10449
737.893	11395
738.007	10525
738.120	10816
738.233	11727
738.347	10740
738.460	10670
738.573	11620
738.687	10907
738.800	10113
738.913	11658
739.026	10376
739.140	10382
739.253	10562
739.366	11221
739.479	9974
739.592	10586
739.705	9352
739.818	10836
739.932	8666
740.045	10046
740.158	10436
740.271	10400
740.384	9207
740.497	9227
740.610	10460
740.723	10117
740.836	9704
740.949	10855
741.062	10634
741.174	9510
741.287	10592
741.400	9611
741.513	9606
741.626	10134
741.739	9205
741.851	10216
741.964	10381
742.077	8743
742.189	8272
742.302	9729
742.415	9373
742.527	9575
742.640	8807
742.753	8493
742.865	8890
742.978	9486
743.090	9477
743.203	8873
743.316	7892
743.428	9088
743.541	9366
743.653	7903
743.766	8558
743.878	9420
743.990	8249
744.103	9531
744.215	9247
744.327	7777
744.440	9648
744.552	8499
744.664	8219
744.777	9729
744.889	8065
745.001	9674
745.113	8423
745.226	8289
745.338	8476
745.450	10108
745.562	8011
745.674	8498
745.786	9211
745.898	8620
746.010	8946
746.122	7862
746.234	8713
746.347	8059
746.459	8369
746.570	7624
746.682	8836
746.794	9601
746.906	8330
747.018	8179
747.130	8315
747.242	7504
747.354	7903
747.466	9042
747.577	8443
747.689	8479
747.801	8655
747.913	7846
748.024	8587
748.136	7969
748.248	7584
748.359	7722
748.471	8415
748.583	6694
748.694	8140
748.806	9484
748.918	7858
749.029	8130
749.141	8522
749.252	8849
749.364	7447
749.475	8190
749.587	7815
749.698	7805
749.809	8359
749.921	7812
750.032	7916
750.144	7291
750.255	8160
750.366	8098
750.478	7697
750.589	8491
750.700	7009
750.811	8328
750.923	8109
751.034	8691
751.145	8451
751.256	8004
751.367	7825
751.479	6771
751.590	7465
751.701	8358
751.812	6742
751.923	7657
752.034	8207
752.145	8351
752.256	8066
752.367	7600
752.478	7406
752.589	8621
752.700	8771
752.811	8849
752.922	7957
753.032	8314
753.143	8816
753.254	8510
753.365	8181
753.476	8667
753.586	9042
753.697	8360
753.808	8511
753.919	8913
754.029	7778
754.140	8898
754.251	7644
754.361	8661
754.472	8478
754.582	8928
754.693	9244
754.804	8272
754.914	8254
755.025	8066
755.135	8404
755.246	8796
755.356	8083
755.466	8634
755.577	8558
755.687	8576
755.798	8604
755.908	8626
756.018	8671
756.129	9350
756.239	9389
756.349	9926
756.460	9561
756.570	9704
756.680	9642
756.790	9820
756.900	9439
757.011	9301
757.121	8774
757.231	9445
757.341	8769
757.451	9193
757.561	9527
757.671	9699
757.781	9520
757.891	11223
758.001	9457
758.111	10450
758.221	10293
758.331	11135
758.441	11148
758.551	10953
758.661	11296
758.771	11650
758.880	11364
758.990	11738
759.100	11865
759.210	11930
759.320	12308
759.429	12396
759.539	12851
759.649	13825
759.758	13355
759.868	14558
759.978	13553
760.087	14647
760.197	14852
760.307	15017
760.416	14203
760.526	14035
760.635	15917
760.745	15911
760.854	16013
760.964	17383
761.073	18004
761.182	16917
761.292	16776
761.401	17109
761.511	17346
761.620	17679
761.729	17727
761.839	17806
761.948	18426
762.057	19456
762.166	19954
762.276	19812
762.385	20773
762.494	20585
762.603	22151
762.712	22057
762.822	23759
762.931	24988
763.040	24501
763.149	26001
763.258	26681
763.367	28001
763.476	29368
763.585	31401
763.694	33510
763.803	35384
763.912	36916
764.021	38896
764.130	40729
764.238	44105
764.347	48658
764.456	50370
764.565	54069
764.674	59673
764.783	65240
764.891	72444
765.000	82234
765.109	92247
765.217	103939
765.326	120678
765.435	141039
765.543	168079
765.652	203682
765.761	250991
765.869	314846
765.978	403239
766.086	502192
766.195	597373
766.303	568988
766.412	359957
766.520	434834
766.629	601916
766.737	568205
766.846	469748
766.954	369719
767.062	292470
767.171	232145
767.279	188150
767.387	155432
767.496	130750
767.604	113336
767.712	100859
767.820	90037
767.928	83181
768.037	75427
768.145	71861
768.253	67748
768.361	67398
768.469	67056
768.577	68174
768.685	71718
768.793	75622
768.901	84326
769.009	96953
769.117	115703
769.225	145315
769.333	191122
769.441	267182
769.549	382936
769.657	522882
769.765	520293
769.873	383344
769.981	525211
770.088	488526
770.196	365700
770.304	270432
770.412	205099
770.519	161681
770.627	131282
770.735	109612
770.842	93364
770.950	80663
771.058	70727
771.165	64511
771.273	58493
771.380	54538
771.488	51138
771.595	47506
771.703	42366
771.810	40322
771.918	38478
772.025	37523
772.133	37268
772.240	34213
772.348	34416
772.455	32996
772.562	29665
772.670	29958
772.777	29322
772.884	27432
772.991	26401
773.099	25172
773.206	24278
773.313	25874
773.420	23026
773.528	22250
773.635	21051
773.742	21590
773.849	20678
773.956	20616
774.063	19225
774.170	19373
774.277	19683
774.384	19342
774.491	18335
774.598	18974
774.705	17858
774.812	16913
774.919	17205
775.026	17101
775.133	15657
775.239	15824
775.346	15610
775.453	15851
775.560	15263
775.667	15864
775.773	13965
775.880	15323
775.987	14562
776.093	14817
776.200	14643
776.307	12210
776.413	13628
776.520	14232
776.627	13426
776.733	12386
776.840	11575
776.946	14794
777.053	12553
777.159	12271
777.266	11152
777.372	13450
777.478	12339
777.585	11826
777.691	10684
777.798	12583
777.904	11790
778.010	11171
778.117	11137
778.223	11389
778.329	10167
778.435	10257
778.542	11387
778.648	10593
778.754	9592
778.860	10546
778.966	10643
779.072	9717
779.178	10132
779.284	11385
779.391	10258
779.497	10781
779.603	13433
779.708	15542
779.815	30765
779.920	94437
780.026	136575
780.132	28239
780.238	12069
780.344	10358
780.450	12171
780.556	7952
780.661	8589
780.767	9183
780.873	7387
780.979	7953
781.085	8378
781.190	7996
781.296	7563
781.402	8528
781.507	7875
781.613	7477
781.719	7502
781.824	7972
781.930	7719
782.035	8699
782.141	9061
782.246	6847
782.352	6456
782.457	7379
782.563	7863
782.668	7698
782.773	6593
782.879	5978
782.984	6812
783.090	7015
783.195	7014
783.300	6981
783.405	6046
783.511	6048
783.616	6205
783.721	7065
783.826	6190
783.932	6581
784.037	6431
784.142	6802
784.247	6067
784.352	6418
784.457	6252
784.562	6489
784.667	5728
784.772	5093
784.877	4531
784.982	7133
785.087	6035
785.192	6714
785.297	4981
785.402	7139
785.507	5595
785.611	6588
785.716	5182
785.821	7333
785.926	5491
786.031	5846
786.135	6213
786.240	5405
786.345	4063
786.450	5167
786.554	5547
786.659	5406
786.763	4943
786.868	5487
786.973	6203
787.077	4620
787.182	4845
787.286	6040
787.391	5879
787.495	4102
787.600	3671
787.704	5101
787.809	5826
787.913	4176
788.017	5440
788.122	4969
788.226	4540
788.330	3493
788.435	4679
788.539	4497
788.643	4416
788.747	3921
788.852	4229
788.956	3550
789.060	4683
789.164	4459
789.268	3860
789.372	5032
789.476	4101
789.580	4496
789.684	3872
789.788	4372
789.892	4150
789.996	4179
790.100	3061
790.204	4870
790.308	4346
790.412	4058
790.516	3055
790.620	3710
790.724	5031
790.828	3926
790.931	2422
791.035	4071
791.139	3807
791.242	3537
791.346	3747
791.450	4027
791.554	2497
791.657	2474
791.761	4137
791.864	4947
791.968	4211
792.072	3672
792.175	3017
792.279	3932
792.382	3696
792.486	3437
792.589	3304
792.693	4462
792.796	2968
792.899	4795
793.003	4356
793.106	2514
793.209	3595
793.313	3915
793.416	2102
793.519	4386
793.623	3921
793.726	3569
793.829	3329
793.932	3124
794.035	2533
794.138	4825
794.242	4944
794.345	4690
794.448	7367
794.551	14546
794.654	53143
794.757	83167
794.860	14611
794.963	4721
795.066	3936
795.169	4738
795.272	3165
795.375	3813
795.477	2565
795.580	2910
795.683	1725
795.786	4340
795.889	1965
795.991	3418
796.094	4298
796.197	2546
796.300	3649
796.402	2437
796.505	2625
796.608	3098
796.710	2941
796.813	3011
796.915	2920
797.018	2657
797.120	3686
797.223	1509
797.326	4226
797.428	2008
797.530	2289
797.633	2428
797.735	3668
797.838	2834
797.940	3267
798.042	1690
798.145	2278
798.247	3060
798.349	1733
798.452	2576
798.554	2834
798.656	2270
798.758	3520
798.860	2630
798.962	2613
799.065	1909
799.167	1485
799.269	3449
799.371	3368
799.473	3602
799.575	2184
799.677	2379
799.779	2917
799.881	1481
799.983	3087
800.085	2472
800.187	2850
800.289	1103
800.390	2439
800.492	3360
800.594	3194
800.696	2011
800.798	2575
800.899	2306
801.001	2181
801.103	2233
801.205	1714
801.306	1554
801.408	1344
801.509	2489
801.611	2064
801.713	2580
801.814	1754
801.916	1780
802.017	1502
802.119	1516
802.220	2241
802.322	204
802.423	3026
802.525	307
802.626	1760
802.727	2331
802.829	2462
802.930	429
803.031	2358
803.133	2409
803.234	1169
803.335	1827
803.436	759
803.538	1624
803.639	438
803.740	2934
803.841	1273
803.942	1671
804.043	2802
804.144	833
804.245	985
804.346	1339
804.447	1634
804.548	1569
804.649	2583
804.750	1703
804.851	897
804.952	1492
805.053	2278
805.154	1162
805.255	2404
805.355	2252
805.456	1663
805.557	1490
805.658	979
805.758	2196
805.859	2370
805.960	1656
806.061	1886
806.161	2044
806.262	1173
806.362	881
806.463	1369
806.564	1958
806.664	1362
806.765	1413
806.865	1781
806.966	1502
807.066	619
807.166	1502
807.267	2106
807.367	560
807.468	2837
807.568	-53
807.668	2074
807.769	2217
807.869	1018
807.969	1070
808.069	2095
808.170	1766
808.270	1143
808.370	1323
808.470	2098
808.570	1100
808.670	1336
808.770	1322
808.870	1046
808.970	1941
809.070	464
809.170	1011
809.271	1597
809.370	1632
809.470	2271
809.570	1354
809.670	398
809.770	1242
809.870	1767
809.970	1569
810.070	1326
810.169	2307
810.269	499
810.369	2409
810.469	1684
810.568	1513
810.668	785
810.768	1384
810.867	1140
810.967	831
811.066	1221
811.166	308
811.265	2087
811.365	978
811.464	629
811.564	2497
811.663	1105
811.763	-528
811.862	2161
811.962	1732
812.061	2132
812.160	626
812.260	1551
812.359	1189
812.458	1499
812.557	3868
812.657	3988
812.756	2509
812.855	745
812.954	715
813.053	1654
813.153	1655
813.252	1134
813.351	1927
813.450	1675
813.549	1534
813.648	1192
813.747	1059
813.846	1624
813.945	1130
814.044	1285
814.143	2620
814.242	1275
814.341	1266
814.439	1180
814.538	1674
814.637	1204
814.736	1590
814.835	2140
814.933	573
815.032	1892
815.131	3710
815.229	4872
815.328	7293
815.427	4972
815.525	4650
815.624	4065
815.722	4113
815.821	4058
815.919	4669
816.018	4221
816.116	4785
816.215	3815
816.313	5233
816.412	5774
816.510	5758
816.609	7199
816.707	6172
816.805	5029
816.904	6171
817.002	6231
817.100	6338
817.198	6075
817.296	4847
817.395	4874
817.493	5818
817.591	4939
817.689	5515
817.787	5523
817.885	4898
817.983	4755
818.081	5759
818.179	6989
818.277	12030
818.375	10347
818.473	6441
818.571	5226
818.669	5650
818.767	5539
818.865	4849
818.963	4684
819.061	5637
819.158	5198
819.256	8394
819.354	9997
819.452	19893
819.549	12775
819.647	7444
819.745	4241
819.842	4990
819.940	4400
820.038	4820
820.135	3525
820.233	5375
820.330	4406
820.428	3718
820.525	5785
820.623	4209
820.720	3385
820.818	4810
820.915	4621
821.012	4324
821.110	3321
821.207	5039
821.304	3482
821.402	4091
821.499	4709
821.596	3584
821.693	3684
821.791	5014
821.888	3979
821.985	4324
822.082	2775
822.179	3864
822.276	3770
822.373	3306
822.470	3259
822.567	3450
822.664	2869
822.761	4090
822.858	3226
822.955	3736
823.052	2949
823.149	3114
823.246	4068
823.343	3109
823.440	3419
823.536	3837
823.633	3455
823.730	3491
823.827	4558
823.923	2974
824.020	3672
824.117	3885
824.213	2988
824.310	3000
824.407	2195
824.503	3454
824.600	3136
824.696	2413
824.793	3398
824.889	3478
824.986	2139
825.082	2832
825.179	2750
825.275	4245
825.371	2991
825.468	2395
825.564	1360
825.660	3598
825.757	4015
825.853	3645
825.949	1360
826.045	2318
826.142	1928
826.238	3164
826.334	3157
826.430	2547
826.526	2483
826.622	1559
826.718	2199
826.814	3441
826.910	3313
827.006	2071
827.102	1383
827.198	3297
827.294	2277
827.390	2537
827.486	2052
827.582	852
827.678	668
827.774	3690
827.869	767
827.965	2768
828.061	1057
828.157	2702
828.252	2292
828.348	1455
828.444	2464
828.539	766
828.635	2720
828.731	2503
828.826	1545
828.922	2747
829.017	2991
829.113	2529
829.208	1609
829.304	1407
829.399	3269
829.495	2311
829.590	2580
829.685	1312
829.781	2530
829.876	2039
829.971	1250
830.066	1431
830.162	1500
830.257	2924
830.352	1855
830.447	1711
830.543	1903
830.638	519
830.733	3350
830.828	2164
830.923	2448
831.018	2248
831.113	1667
831.208	1205
831.303	1613
831.398	2017
831.493	2489
831.588	3475
831.683	1578
831.778	1758
831.873	1326
831.967	2840
832.062	1797
832.157	1136
832.252	1804
832.346	1221
832.441	2239
832.536	2190
832.631	2542
832.725	1501
832.820	1464
832.914	762
833.009	526
833.104	1469
833.198	1782
833.293	1338
833.387	2016
833.482	1539
833.576	1243
833.670	2423
833.765	1916
833.859	1276
833.954	2376
834.048	831
834.142	1334
834.237	671
834.331	2023
834.425	1815
834.519	908
834.613	1995
834.708	1080
834.802	2141
834.896	519
834.990	1589
835.084	1090
835.178	1236
835.272	1173
835.366	1403
835.460	1956
835.554	924
835.648	1102
835.742	-404
835.836	1080
835.930	952
836.024	1192
836.117	1592
836.211	753
836.305	922
836.399	805
836.493	-328
836.586	2558
836.680	1379
836.774	468
836.867	1284
836.961	469
837.055	-60
837.148	1246
837.242	1866
837.335	1101
837.429	716
837.522	581
837.616	592
837.709	1668
837.803	955
837.896	2019
837.989	1221
838.083	677
838.176	1657
838.269	850
838.363	1241
838.456	-116
838.549	1496
838.642	509
838.735	1283
838.829	2027
838.922	555
839.015	505
839.108	783
839.201	1085
839.294	1372
839.387	1336
839.480	701
839.573	1070
839.666	796
839.759	881
839.852	437
839.945	482
840.038	732
840.131	-617
840.223	-27
840.316	1474
840.409	1021
840.502	726
840.594	1627
840.687	-1035
840.780	-128
840.873	378
840.965	375
841.058	1465
841.150	1711
841.243	671
841.336	1322
841.428	32
841.521	345
841.613	-193
841.706	225
841.798	299
841.890	762
841.983	235
842.075	1002
842.167	619
842.260	690
842.352	1135
842.444	1059
842.537	844
842.629	1472
842.721	761
842.813	1069
842.905	-416
842.997	863
843.090	572
843.182	608
843.274	697
843.366	2652
843.458	4250
843.550	3537
843.642	140
843.734	1138
843.826	293
843.918	758
844.009	767
844.101	-44
844.193	538
844.285	770
844.377	1116
844.469	691
844.560	-95
844.652	1350
844.744	819
844.835	576
844.927	595
845.019	79
845.110	186
845.202	1051
845.293	555
845.385	-183
845.476	1249
845.568	1289
845.659	-43
845.751	645
845.842	-51
845.934	455
846.025	1158
846.116	934
846.208	691
846.299	28
846.390	697
846.482	-18
846.573	292
846.664	1085
846.755	-411
846.846	1292
846.937	-38
847.029	545
847.120	-359
847.211	751
847.302	1335
847.393	276
847.484	1057
847.575	-321
847.666	-257
847.757	-85
847.847	-105
847.938	823
848.029	526
848.120	10
848.211	981
848.302	-755
848.392	738
848.483	750
848.574	373
848.664	-185
848.755	-200
848.846	305
848.936	584
849.027	1177
849.118	896
849.208	-150
849.299	575
849.389	2282
849.480	4513
849.570	9337
849.661	17946
849.751	27479
849.841	7881
849.932	987
850.022	120
850.112	1906
850.203	669
850.293	4
850.383	417
850.474	-138
850.564	-63
850.654	18
850.744	-507
850.834	1115
850.924	54
851.014	1126
851.104	366
851.194	435
851.284	373
851.374	879
851.464	540
851.554	841
851.644	139
851.734	1499
851.824	1655
851.914	2230
852.004	4152
852.094	3048
852.183	837
852.273	1073
852.363	454
852.452	906
852.542	-114
852.632	216
852.721	-82
852.811	439
852.901	707
852.990	414
853.080	660
853.169	556
853.259	1154
853.348	598
853.438	372
853.527	1809
853.617	2997
853.706	6214
853.795	11015
853.885	24616
853.974	44030
854.063	80874
854.152	107538
854.242	38670
854.331	8343
854.420	3146
854.509	2324
854.598	1667
854.687	1677
854.777	636
854.866	210
854.955	801
855.044	-80
855.133	1210
855.222	531
855.311	769
855.400	405
855.488	-238
855.577	-284
855.666	143
855.755	539
855.844	172
855.933	301
856.021	222
856.110	245
856.199	-723
856.288	-776
856.376	401
856.465	49
856.554	837
856.642	-360
856.731	861
856.819	428
856.908	117
856.996	-293
857.085	-969
857.173	669
857.262	-1148
857.350	-30
857.438	434
857.527	204
857.615	-297
857.703	1048
857.792	813
857.880	-531
857.968	-684
858.056	-352
858.145	633
858.233	243
858.321	593
858.409	541
858.497	-434
858.585	-262
858.673	157
858.761	-1094
858.849	-518
858.937	305
859.025	44
859.113	-269
859.201	392
859.289	-10
859.377	-568
859.465	-659
859.552	-460
859.640	-233
859.728	24
859.816	325
859.903	341
859.991	-926
860.079	303
860.166	-940
860.254	44
860.342	225
860.429	-596
860.517	-330
860.604	345
860.692	31
860.779	33
860.867	-279
860.954	127
861.042	-70
861.129	478
861.216	85
861.304	-20
861.391	258
861.478	-267
861.565	-4
861.653	334
861.740	-356
861.827	-719
861.914	289
862.001	351
862.089	250
862.176	837
862.263	-257
862.350	-315
862.437	-461
862.524	101
862.611	-844
862.698	778
862.785	511
862.871	1069
862.958	44
863.045	710
863.132	299
863.219	-499
863.306	-1143
863.392	513
863.479	-237
863.566	393
863.652	42
863.739	228
863.826	956
863.912	972
863.999	-750
864.086	-153
864.172	-15
864.259	120
864.345	479
864.432	1101
864.518	172
864.604	304
864.691	-355
864.777	-104
864.863	1337
864.950	2678
865.036	2097
865.122	5336
865.209	6268
865.295	3799
865.381	4491
865.467	4693
865.553	5262
865.639	6130
865.726	8814
865.812	15483
865.898	25863
865.984	36358
866.070	65158
866.156	61063
866.242	17165
866.328	7245
866.414	4065
866.499	4760
866.585	4061
866.671	3041
866.757	4278
866.843	4172
866.928	2984
867.014	2950
867.100	3439
867.186	3675
867.271	3772
867.357	3558
867.442	2784
867.528	3288
867.614	3192
867.699	4276
867.785	3428
867.870	3171
867.956	1722
868.041	3457
868.127	2570
868.212	2874
868.297	2501
868.383	3638
868.468	3171
868.553	3441
868.639	3785
868.724	3262
868.809	3644
868.894	2515
868.979	2176
869.065	3238
869.150	2279
869.235	3048
869.320	3312
869.405	1597
869.490	2855
869.575	2383
869.660	1299
869.745	2748
869.830	2725
869.915	2102
870.000	2438
870.085	2573
870.169	3287
870.254	3897
870.339	1412
870.424	2429
870.509	2828
870.593	2850
870.678	2224
870.763	1987
870.847	1723
870.932	2237
871.016	2749
871.101	1459
871.186	3187
871.270	2729
871.355	1956
871.439	1998
871.523	2577
871.608	1912
871.692	1829
871.777	1626
871.861	2873
871.945	1529
872.030	2330
872.114	1342
872.198	2338
872.282	1743
872.367	1312
872.451	1785
872.535	1630
872.619	2282
872.703	1016
872.787	1922
872.871	2273
872.955	1081
873.039	477
873.123	1527
873.207	2510
873.291	1470
873.375	1303
873.459	1611
873.543	2096
873.627	694
873.711	1652
873.794	1361
873.878	2173
873.962	1758
874.045	482
874.129	1050
874.137	1079
874.213	1363
874.245	1385
874.296	1428
874.352	687
874.380	325
874.460	1502
874.464	1548
874.547	1576
874.568	1653
874.631	1908
874.676	1512
874.714	1177
874.784	1581
874.798	1658
874.881	1612
874.892	1471
874.965	540
874.999	817
875.048	1181
875.107	1532
875.131	1674
875.215	1149
875.215	1149
875.298	1442
875.323	1312
875.381	985
875.430	1130
875.465	1267
875.538	1184
875.548	1159
875.631	599
875.646	432
875.714	-305
875.753	114
875.798	596
875.861	1274
875.881	1493
875.964	926
875.968	980
876.047	1901
876.076	1675
876.130	1234
876.183	1138
876.213	1090
876.291	1762
876.296	1804
876.379	411
876.398	416
876.462	580
876.506	555
876.545	484
876.613	1079
876.628	1185
876.711	1370
876.721	1355
876.794	1384
876.828	1440
876.877	1429
876.935	826
876.960	636
877.043	883
877.043	885
877.125	1198
877.150	1430
877.208	2087
877.258	1594
877.291	1114
877.365	292
877.374	230
877.456	1150
877.472	1055
877.539	522
877.579	962
877.622	1489
877.687	1271
877.704	1171
877.787	913
877.794	909
877.869	1199
877.901	937
877.952	220
878.008	173
878.034	275
878.115	423
878.117	417
878.199	443
878.222	476
878.282	939
878.329	1381
878.364	1640
878.437	1086
878.447	1003
878.529	293
878.544	326
878.611	401
878.651	465
878.694	637
878.758	873
878.776	928
878.858	1184
878.865	1150
878.941	734
878.972	659
879.023	422
879.078	383
879.105	445
879.185	663
879.187	665
879.269	786
879.292	890
879.351	1146
879.399	911
879.433	749
879.506	733
879.516	751
879.598	691
879.613	659
879.680	426
879.720	723
879.762	1041
879.827	1057
879.844	941
879.926	215
879.933	164
880.007	716
880.040	923
880.089	648
880.147	520
880.171	625
880.253	1273
880.254	1270
880.335	461
880.360	604
880.417	1274
880.467	2100
880.499	2599
880.574	2154
880.580	2041
880.662	1446
880.680	1150
880.744	247
880.787	173
880.825	430
880.893	854
880.907	816
880.989	247
881.000	258
881.070	1034
881.106	951
881.152	563
881.213	333
881.233	326
881.315	842
881.319	848
881.396	481
881.426	310
881.478	432
881.532	979
881.559	1119
881.639	636
881.641	628
881.722	474
881.745	466
881.803	477
881.852	502
881.885	374
881.958	88
881.966	68
882.047	188
882.064	117
882.129	340
882.171	719
882.210	650
882.277	148
882.291	178
882.372	880
882.383	869
882.454	235
882.489	109
882.535	248
882.596	883
882.616	1003
882.697	686
882.702	654
882.778	451
882.808	431
882.859	93
882.914	-159
882.940	-44
883.020	514
883.021	515
883.102	479
883.127	395
883.183	806
883.233	854
883.264	526
883.339	447
883.345	485
883.426	218
883.445	328
883.507	710
883.551	653
883.587	567
883.657	673
883.668	704
883.749	1162
883.763	1140
883.830	935
883.869	775
883.910	294
883.975	13
883.991	173
884.072	697
884.081	764
884.152	792
884.187	694
884.233	586
884.292	647
884.314	605
884.394	-63
884.398	-74
884.475	63
884.504	117
884.555	66
884.610	-183
884.636	-254
884.716	-173
884.716	-167
884.797	736
884.821	1036
884.877	1037
884.927	630
884.958	415
885.033	145
885.038	147
885.118	161
885.139	241
885.199	95
885.244	-2
885.279	341
885.350	888
885.359	870
885.439	959
885.456	802
885.520	549
885.561	766
885.600	547
885.667	-137
885.680	-131
885.760	230
885.773	275
885.840	367
885.878	312
885.920	429
885.984	698
886.000	650
886.080	602
886.089	557
886.160	301
886.195	248
886.240	19
886.300	-228
886.320	-16
886.400	660
886.406	703
886.480	558
886.511	631
886.560	877
886.616	822
886.640	823
886.720	963
886.722	963
886.800	1240
886.827	1372
886.879	1002
886.932	408
886.959	556
887.038	1242
887.039	1240
887.119	705
887.143	550
887.198	956
887.248	1294
887.278	1289
887.354	1123
887.358	1086
887.437	378
887.459	197
887.517	691
887.564	964
887.596	818
887.669	739
887.676	715
887.755	87
887.774	-2
887.835	353
887.880	553
887.914	432
887.985	221
887.994	352
888.073	1470
888.090	1685
888.153	1086
888.195	667
888.232	738
888.300	1059
888.311	977
888.391	213
888.405	79
888.470	563
888.510	854
888.549	758
888.615	665
888.628	632
888.708	255
888.720	219
888.787	416
888.825	493
888.866	477
888.930	507
888.945	561
889.024	762
889.035	801
889.103	552
889.140	365
889.182	356
889.245	422
889.261	462
889.340	611
889.349	628
889.419	511
889.454	464
889.498	677
889.559	973
889.577	914
889.656	661
889.664	638
889.735	1224
889.768	1505
889.814	1153
889.873	679
889.978	1300
890.083	797
890.187	778
890.292	739
890.397	1230
890.501	494
890.606	612
890.710	462
890.815	1139
890.919	387
891.024	68
891.128	1049
891.233	611
891.337	1062
891.442	1109
891.546	160
891.650	1011
891.755	324
891.859	1649
891.963	442
892.068	1178
892.172	504
892.276	812
892.380	194
892.484	983
892.589	990
892.693	1177
892.797	561
892.901	1291
893.005	871
893.109	1469
893.213	642
893.317	1812
893.421	-67
893.525	630
893.629	-663
893.733	846
893.837	586
893.941	441
894.045	856
894.148	441
894.252	1174
894.356	1152
894.460	902
894.564	1778
894.667	131
894.771	1043
894.875	17
894.978	123
895.082	-55
895.186	807
895.289	645
895.393	1696
895.496	594
895.600	919
895.703	-321
895.807	542
895.910	64
896.014	1011
896.117	43
896.221	530
896.324	493
896.427	1355
896.531	498
896.634	800
896.737	326
896.840	-88
896.944	-264
897.047	1579
897.150	216
897.253	462
897.356	539
897.460	206
897.563	839
897.666	505
897.769	68
897.872	850
897.975	42
898.078	738
898.181	830
898.284	344
898.387	622
898.490	1322
898.593	319
898.695	-216
898.798	-219
898.901	561
899.004	716
899.107	1072
899.209	-247
899.312	1181
899.415	-271
899.518	800
899.620	365
899.723	400
899.826	-12
899.928	-98
900.031	-699
900.133	413
900.236	284
900.338	690
900.441	923
900.543	296
900.646	-381
900.748	532
900.851	174
900.953	746
901.055	520
901.158	700
901.260	325
901.362	489
901.465	-373
901.567	385
901.669	472
901.771	577
901.873	389
901.976	1431
902.078	343
902.180	-273
902.282	370
902.384	689
902.486	-27
902.588	669
902.690	-173
902.792	752
902.894	666
902.996	755
903.098	-59
903.200	157
903.302	527
903.404	236
903.505	110
903.607	1209
903.709	870
903.811	1594
903.913	438
904.014	-130
904.116	-329
904.218	453
904.319	359
904.421	1228
904.523	208
904.624	166
904.726	31
904.827	-21
904.929	69
905.030	1195
905.132	844
905.233	330
905.335	2
905.436	487
905.537	341
905.639	-15
905.740	-250
905.841	-116
905.943	863
906.044	178
906.145	314
906.247	1382
906.348	64
906.449	369
906.550	-16
906.651	973
906.752	216
906.854	57
906.955	24
907.056	737
907.157	300
907.258	830
907.359	-608
907.460	473
907.561	828
907.662	841
907.762	368
907.863	667
907.964	258
908.065	675
908.166	-731
908.267	1078
908.367	455
908.468	545
908.569	-227
908.670	285
908.770	665
908.871	475
908.971	-642
909.072	1675
909.173	1048
909.273	281
909.374	132
909.474	1056
909.575	150
909.675	483
909.776	453
909.876	-293
909.977	20
910.077	749
910.177	410
910.278	31
910.378	-167
910.478	-104
910.579	-627
910.679	430
910.779	-266
910.879	872
910.980	207
911.080	826
911.180	-4
911.280	308
911.380	-388
911.480	869
911.580	-152
911.680	1418
911.780	-268
911.880	627
911.980	404
912.080	37
912.180	112
912.280	292
912.380	-516
912.480	697
912.580	545
912.679	48
912.779	295
912.879	923
912.979	361
913.078	403
913.178	-114
913.278	626
913.377	-51
913.477	199
913.577	491
913.676	451
913.776	95
913.875	910
913.975	488
914.074	237
914.174	771
914.273	553
914.373	480
914.472	504
914.572	-878
914.671	513
914.770	-454
914.870	546
914.969	-665
915.068	534
915.167	-238
915.267	204
915.366	178
915.465	673
915.564	249
915.663	665
915.763	364
915.862	626
915.961	527
916.060	-183
916.159	-346
916.258	-16
916.357	440
916.456	449
916.555	370
916.654	667
916.752	554
916.851	261
916.950	-813
917.049	790
917.148	-585
917.247	258
917.345	413
917.444	161
917.543	359
917.642	465
917.740	-282
917.839	351
917.937	902
918.036	-191
918.135	19
918.233	945
918.332	-287
918.430	651
918.529	-406
918.627	107
918.726	421
918.824	259
918.923	154
919.021	823
919.119	-595
919.218	-66
919.316	-115
919.414	723
919.512	244
919.611	328
919.709	844
919.807	1470
919.905	102
920.003	828
920.102	66
920.200	503
920.298	689
920.396	643
920.494	547
920.592	832
920.690	-40
920.788	120
920.886	421
920.984	799
921.082	200
921.180	1622
921.277	399
921.375	1198
921.473	763
921.571	398
921.669	531
921.766	627
921.864	-100
921.962	970
922.060	431
922.157	1518
922.255	513
922.352	533
922.450	1030
922.548	1217
922.645	1111
922.743	1593
922.840	2546
922.938	2763
923.035	2194
923.133	2621
923.230	2067
923.327	3715
923.425	3127
923.522	2112
923.619	2086
923.717	1947
923.814	2040
923.911	2214
924.008	2907
924.106	1837
924.203	1951
924.300	2388
924.397	1610
924.494	2756
924.591	2271
924.688	1452
924.786	2313
924.883	2431
924.979	1968
925.077	1568
925.173	1676
925.270	1701
925.367	2127
925.464	1583
925.561	2231
925.658	2637
925.755	2400
925.852	1706
925.948	1433
926.045	2242
926.142	1871
926.239	2291
926.335	182
926.432	1993
926.529	1932
926.625	3221
926.722	1572
926.818	1958
926.915	2512
927.011	1782
927.108	1743
927.204	2335
927.301	860
927.397	1527
927.494	2460
927.590	1483
927.687	809
927.783	2468
927.879	2102
927.976	1621
928.072	1825
928.168	1692
928.264	1412
928.361	1574
928.457	1941
928.553	1460
928.649	2204
928.745	2373
928.841	1254
928.937	1930
929.033	1744
929.129	1950
929.225	1038
929.321	2239
929.417	1657
929.513	1858
929.609	898
929.705	1511
929.801	1351
929.897	2176
929.993	1738
930.089	1464
930.184	1956
930.280	1852
930.376	2396
930.471	951
930.567	1520
930.663	2568
930.758	227
930.854	1572
930.950	149
931.045	2094
931.141	1472
931.236	1614
931.332	1005
931.427	2143
931.523	2100
931.618	1364
931.714	336
931.809	1452
931.905	1740
932.000	1868
932.095	-154
932.191	2461
932.286	1275
932.381	1172
932.476	1469
932.572	2211
932.667	1215
932.762	1426
932.857	1761
932.952	1850
933.047	1046
933.142	1983
933.237	765
933.332	1801
933.427	1546
933.522	1857
933.617	741
933.712	1677
933.807	1304
933.902	2100
933.997	1227
934.092	1698
934.187	971
934.282	2335
934.376	1188
934.471	1846
934.566	483
934.661	1706
934.755	1386
934.850	2451
934.945	949
935.039	797
935.134	849
935.228	1600
935.323	1976
935.417	1643
935.512	1354
935.606	1372
935.701	977
935.795	999
935.890	912
935.984	1083
936.079	217
936.173	1376
936.267	110
936.362	990
936.456	805
936.550	1145
936.644	691
936.738	572
936.833	931
936.927	1104
937.021	552
937.115	939
937.209	571
937.303	1913
937.397	768
937.491	752
937.585	1983
937.679	2030
937.773	615
937.867	815
937.961	937
938.055	1144
938.149	1627
938.243	1076
938.337	644
938.430	937
938.524	336
938.618	1175
938.712	874
938.805	1413
938.899	707
938.993	987
939.086	705
939.180	1688
939.274	804
939.367	2057
939.461	1326
939.554	1423
939.648	-67
939.741	1670
939.835	1642
939.928	914
940.022	1472
940.115	1373
940.208	1225
940.302	1333
940.395	1069
940.488	854
940.582	771
940.675	391
940.768	738
940.861	1675
940.954	1405
941.048	791
941.141	-13
941.234	409
941.327	384
941.420	1732
941.513	959
941.606	1241
941.699	1291
941.792	1534
941.885	1070
941.978	1809
942.071	643
942.164	471
942.257	590
942.349	757
942.442	985
942.535	739
942.628	403
942.721	1996
942.813	-93
942.906	1718
942.999	289
943.091	467
943.184	441
943.277	156
943.369	794
943.462	779
943.554	1213
943.647	79
943.739	722
943.832	743
943.924	-482
944.017	1354
944.109	180
944.201	835
944.294	794
944.386	894
944.478	-93
944.571	593
944.663	447
944.755	283
944.847	1285
944.940	687
945.032	-138
945.124	332
945.216	682
945.308	923
945.400	1404
945.492	404
945.584	334
945.676	821
945.768	146
945.860	764
945.952	764
946.044	1588
946.136	266
946.228	573
946.320	-117
946.412	644
946.503	713
946.595	1673
946.687	468
946.779	-168
946.870	729
946.962	796
947.054	-296
947.145	905
947.237	146
947.329	731
947.420	407
947.512	1024
947.603	184
947.695	1731
947.786	-425
947.878	188
947.969	462
948.061	578
948.152	31
948.243	711
948.335	438
948.426	28
948.517	-561
948.609	534
948.700	397
948.791	887
948.882	215
948.973	348
949.065	-177
949.156	1004
949.247	-799
949.338	793
949.429	67
949.520	758
949.611	-290
949.702	742
949.793	518
949.884	1060
949.975	-664
950.066	123
950.157	-368
950.247	321
950.338	-61
950.429	77
950.520	155
950.611	792
950.701	708
950.792	1058
950.883	134
950.973	807
951.064	763
951.155	1091
951.245	24
951.336	1004
951.427	-86
951.517	1319
951.608	756
951.698	65
951.788	149
951.879	386
951.969	327
952.060	189
952.150	669
952.240	1607
952.331	-965
952.421	1635
952.511	29
952.602	-39
952.692	-336
952.782	-67
952.872	-621
952.962	-485
953.052	-528
953.143	135
953.233	248
953.323	701
953.413	-990
953.503	1035
953.593	-843
953.683	1243
953.773	-701
953.863	770
953.953	-163
954.042	606
954.132	634
954.222	950
954.312	-109
954.402	480
954.492	591
954.581	950
954.671	146
954.761	556
954.850	1383
954.940	-271
955.030	-520
955.119	16
955.209	104
955.298	-439
955.388	318
955.477	867
955.567	129
955.656	1307
955.746	315
955.835	-695
955.925	1
956.014	1081
956.103	603
956.193	1023
956.282	692
956.371	1628
956.461	18
956.550	453
956.639	77
956.728	307
956.817	-248
956.906	521
956.995	323
957.085	111
957.174	-360
957.263	157
957.352	87
957.441	289
957.530	89
957.619	737
957.708	139
957.796	-80
957.885	-603
957.974	-420
958.063	971
958.152	-600
958.241	-412
958.329	-269
958.418	-702
958.507	535
958.596	1160
958.684	-509
958.773	414
958.861	506
958.950	913
959.039	585
959.127	548
959.216	644
959.304	-107
959.393	659
959.481	467
959.570	442
959.658	-647
959.746	193
959.835	-193
959.923	763
960.011	-1068
960.100	1713
960.188	717
960.276	892
960.365	-269
960.453	1261
960.541	-1150
960.629	497
960.717	-92
960.805	-234
960.893	-133
960.981	789
961.069	1471
961.158	-249
961.245	825
961.333	445
961.421	-314
961.509	845
961.597	157
961.685	152
961.773	-484
961.861	-678
961.949	342
962.036	-114
962.124	659
962.212	972
962.299	-677
962.387	-702
962.475	-127
962.562	-526
962.650	102
962.738	-214
962.825	-1203
962.913	705
963.000	200
963.088	192
963.175	-33
963.263	-374
963.350	44
963.438	524
963.525	-1035
963.612	954
963.700	252
963.787	2185
963.874	-235
963.962	528
964.049	1258
964.136	-496
964.223	-618
964.310	311
964.398	-474
964.485	-245
964.572	39
964.659	287
964.746	-1014
964.833	661
964.920	187
965.007	445
965.094	71
965.181	334
965.268	-615
965.355	675
965.441	-32
965.528	46
965.615	223
965.702	206
965.789	-1016
965.875	958
965.962	-110
966.049	-255
966.136	221
966.222	811
966.309	385
966.395	-217
966.482	-875
966.569	9
966.655	-336
966.742	232
966.828	-247
966.915	-601
967.001	-419
967.087	-539
967.174	-267
967.260	894
967.347	157
967.433	-207
967.519	699
967.605	-264
967.692	53
967.778	-351
967.864	339
967.950	347
968.036	-628
968.123	201
968.209	29
968.295	-714
968.381	661
968.467	114
968.553	-1738
968.639	629
968.725	-1
968.811	539
968.897	148
968.983	-604
969.069	-1051
969.154	361
969.240	259
969.326	-626
969.412	-634
969.497	21
969.583	-1105
969.669	1376
969.755	-280
969.840	376
969.926	-598
970.012	292
970.097	829
970.183	190
970.268	-359
970.354	37
970.439	-717
970.525	1184
970.610	-678
970.696	779
970.781	200
970.866	-801
970.952	-275
971.037	129
971.122	-218
971.208	-289
971.293	-616
971.378	-388
971.463	-132
971.549	142
971.634	-50
971.719	-97
971.804	-895
971.889	580
971.974	-584
972.059	770
972.144	-274
972.229	-396
972.314	-118
972.399	685
972.484	-446
972.569	720
972.654	-1265
972.739	883
972.824	-605
972.908	189
972.993	-1052
973.078	-46
973.163	196
973.247	756
973.332	-2168
973.417	1302
973.501	-417
973.586	-93
973.671	-20
973.755	94
973.840	48
973.924	1161
974.009	13
974.093	-882
974.178	689
974.262	525
974.346	-469
974.431	414
974.515	-1011
974.600	295
974.684	-476
974.768	24
974.852	-476
974.937	-1175
975.021	660
975.105	-6
975.189	-727
975.273	1202
975.358	-750
975.442	-327
975.526	1197
975.610	-663
975.694	-798
975.778	1475
975.862	-598
975.946	-1148
976.030	1043
976.114	-32
976.198	-966
976.281	313
976.365	73
976.449	252
976.533	-95
976.617	-599
976.700	2
976.784	367
976.868	-317
976.951	402
977.035	-817
977.119	794
977.202	-213
977.286	388
977.369	-48
977.453	153
977.536	-284
977.620	-620
977.703	384
977.787	-782
977.870	263
977.953	1568
978.037	-991
978.120	264
978.203	-1018
978.287	126
978.370	-379
978.453	54
978.536	-115
978.620	460
978.703	-27
978.786	-148
978.869	-1393
978.952	-109
979.035	1008
979.118	-25
979.201	-1089
979.284	-122
979.367	-971
979.450	976
979.533	-908
979.616	648
979.699	-710
979.782	100
979.865	-770
979.948	139
980.030	-1087
980.113	447
980.196	-1056
980.279	328
980.361	-1064
980.444	-75
980.526	-708
980.609	-29
980.692	-568
980.774	764
980.857	-1827
980.939	926
981.022	43
981.104	678
981.187	-315
981.269	11
981.352	-611
981.434	-667
981.516	-833
981.599	1760
981.681	-67
981.763	3
981.846	-664
981.928	109
982.010	-1258
982.092	39
982.174	176
982.256	605
982.339	285
982.421	-359
982.503	-330
982.585	-1286
982.667	-175
982.749	-236
982.831	-952
982.913	7
982.995	178
983.077	-494
983.158	658
983.240	-338
983.322	-839
983.404	65
983.486	-587
983.568	658
983.649	-117
983.731	-160
983.813	-320
983.894	313
983.976	-274
984.058	379
984.139	607
984.221	-865
984.302	62
984.384	-329
984.465	-1063
984.547	710
984.628	-551
984.710	764
984.791	-445
984.872	8
984.954	-622
985.035	-260
985.116	-176
985.198	-279
985.279	850
985.360	-405
985.441	-1501
985.522	215
985.604	-775
985.685	-1000
985.766	25
985.847	1403
985.928	-1345
986.009	-159
986.090	-598
986.171	306
986.252	-453
986.333	922
986.414	-677
986.495	-25
986.576	-878
986.656	391
986.737	-351
986.818	639
986.899	-321
986.980	-547
987.060	-125
987.141	-549
987.222	-169
987.302	-541
987.383	-779
987.464	921
987.544	443
987.625	304
987.705	44
987.786	434
987.866	-476
987.947	227
988.027	43
988.108	-68
988.188	-304
988.268	714
988.349	-1
988.429	66
988.509	-101
988.589	-373
988.670	-1257
988.750	1426
988.830	-829
988.910	76
988.990	-859
989.070	424
989.151	-577
989.231	-322
989.311	373
989.391	177
989.471	-656
989.551	-307
989.631	-1123
989.711	361
989.791	-936
989.870	-590
989.950	-134
990.030	-421
990.110	-752
990.190	-314
990.269	-1402
990.349	900
990.429	-864
990.509	699
990.588	-655
990.668	455
990.747	156
990.827	197
990.907	146
990.986	307
991.066	-182
991.145	-552
991.225	-697
991.304	1354
991.383	139
991.463	-907
991.542	-594
991.622	-545
991.701	-862
991.780	-715
991.859	21
991.939	-178
992.018	-1006
992.097	170
992.176	-321
992.256	-41
992.335	-1824
992.414	459
992.493	-1140
992.572	-380
992.651	896
992.730	105
992.809	-314
992.888	-604
992.967	-981
993.046	188
993.125	-1532
993.203	-774
993.282	-497
993.361	144
993.440	-156
993.519	-971
993.597	-1141
993.676	-750
993.755	500
993.834	-65
993.912	-646
993.991	1109
994.069	-1115
994.148	376
994.226	-1016
994.305	84
994.384	-564
994.462	1103
994.540	-1779
994.619	-1156
994.697	-615
994.776	-508
994.854	127
994.932	361
995.011	-480
995.089	-322
995.167	-567
995.245	-188
995.324	-738
995.402	-348
995.480	-1002
995.558	-810
995.636	-2155
995.714	-689
995.792	357
995.870	-604
995.948	-574
996.026	-111
996.104	-1669
996.182	491
996.260	-2234
996.338	-170
996.416	-1325
996.494	-729
996.572	0
996.649	-1076
996.727	-949
996.805	-607
996.883	-1475
996.960	-8
997.038	-265
997.116	-159
997.193	-1191
997.271	-184
997.348	-656
997.426	301
997.504	-846
997.581	-317
997.658	-1170
997.736	-914
997.813	-1204
997.891	789
997.968	-1676
998.046	183
998.123	-871
998.200	289
998.277	-1169
998.355	265
998.432	-1695
998.509	435
998.586	488
998.663	-225
998.741	-1509
998.818	-1374
998.895	-658
998.972	-539
999.049	-12
999.126	-758
999.203	-539
999.280	33
999.357	-900
999.434	-1034
999.511	-1126
999.587	-285
999.664	-1607
999.741	-949
999.818	-717
999.895	-1435
999.971	-1575
1000.048	-48
1000.125	-95
1000.202	-470
1000.278	-1252
1000.355	-130
1000.431	-927
1000.508	-832
1000.584	-558
1000.661	-386
1000.738	-1905
1000.814	-1342
1000.890	-913
1000.967	-649
1001.043	-819
1001.120	-1231
1001.196	-620
1001.272	-1141
1001.349	-1340
1001.425	-539
1001.501	-1221
1001.577	-972
1001.654	-1097
1001.730	-53
1001.806	-1181
1001.882	-1361
1001.958	-1059
1002.034	-155
1002.110	-1186
1002.186	-350
1002.262	-1079
1002.338	-1145
1002.414	-672
1002.490	-362
1002.566	-1694
1002.642	-830
1002.718	-380
1002.794	210
1002.870	-898
1002.945	-846
1003.021	-1788
1003.097	-737
1003.173	-583
1003.248	-1024
1003.324	-1053
1003.400	-246
1003.475	-1952
1003.551	-530
1003.626	-699
1003.702	-396
1003.777	-1030
1003.853	-343
1003.928	-953
1004.004	-1141
1004.079	-435
1004.155	-1321
1004.230	-2542
1004.305	786
1004.381	-1751
1004.456	-1062
1004.531	-919
1004.607	70
1004.682	-1119
1004.757	313
1004.832	-2026
1004.907	-834
1004.982	-725
1005.057	-1105
1005.133	-823
1005.208	-551
1005.283	-1404
1005.358	-68
1005.433	-1687
1005.508	-902
1005.583	-1880
1005.657	-487
1005.732	-1059
1005.807	-1394
1005.882	-1282
1005.957	-843
1006.032	-223
1006.106	-552
1006.181	-932
1006.256	-767
1006.331	-1740
1006.405	-1318
1006.480	-1407
1006.554	-1037
1006.629	-437
1006.704	-1315
1006.778	-1138
1006.853	524
1006.927	-916
1007.002	-601
1007.076	-1205
1007.150	-1098
1007.225	-1749
1007.299	-874
1007.373	-1812
1007.448	-774
1007.522	-854
1007.596	-634
1007.671	-1616
1007.745	-642
1007.819	-1838
1007.893	-292
1007.967	-1107
1008.041	-1634
1008.115	-1921
1008.190	-1475
1008.264	-1180
1008.338	-1228
1008.412	-1680
1008.486	-961
1008.560	-1530
1008.633	-1025
1008.707	-1576
1008.781	-28
1008.855	-1929
1008.929	-937
1009.003	-1467
1009.076	-971
1009.150	-1857
1009.224	-614
1009.298	-509
1009.371	-2174
1009.445	-537
1009.519	-374
1009.592	-2456
1009.666	-968
1009.739	-1166
1009.813	-1856
1009.886	-159
1009.960	-2167
1010.033	-1506
1010.107	-495
1010.180	-1913
1010.253	-1033
1010.327	-1056
1010.400	-1520
1010.473	-1119
1010.547	75
1010.620	-2212
1010.693	-1400
1010.766	-615
1010.840	-829
1010.913	-813
1010.986	-1703
1011.059	-1660
1011.132	-1899
1011.205	-569
1011.278	-1159
1011.351	-2225
1011.424	-686
1011.497	-1958
1011.570	-1607
1011.643	-1569
1011.716	-1464
1011.789	-1087
1011.862	-1017
1011.934	-840
1012.007	-1283
1012.080	-573
1012.153	-1415
1012.225	-873
1012.298	-913
1012.371	-1499
1012.443	-713
1012.516	-2224
1012.588	-578
1012.661	-994
1012.733	-2136
1012.806	-241
1012.879	-803
1012.951	-1693
1013.023	-1503
1013.096	-1282
1013.168	-1584
1013.241	-952
1013.313	-782
1013.385	-1477
1013.458	-1388
1013.530	-1315
1013.602	-1802
1013.674	-1071
1013.746	-1075
1013.819	-2163
1013.891	-828
1013.963	-2229
1014.035	-444
1014.107	-1346
1014.179	-419
1014.251	-1688
1014.323	-1128
1014.395	-1640
1014.467	-1069
1014.539	-318
1014.611	-1632
1014.683	-526
1014.754	-1047
1014.826	-2258
1014.898	-940
1014.970	-2108
1015.042	-454
1015.113	-1016
1015.185	-1185
1015.257	-2094
1015.328	-790
1015.400	-2076
1015.471	-1577
1015.543	-2709
1015.615	-1157
1015.686	-1643
1015.757	-568
1015.829	-1047
1015.901	-1464
1015.972	-1390
1016.043	-1095
1016.115	-1571
1016.186	-1544
1016.257	-1850
1016.328	-521
1016.400	-1109
1016.471	-1224
1016.542	-2300
1016.613	-1544
1016.685	-1165
1016.756	-319
1016.827	-1701
1016.898	-1436
1016.969	-1286
1017.040	-1459
1017.111	-1402
1017.182	-1129
1017.253	-1947
1017.324	-1147
1017.395	-1669
1017.466	-1139
1017.537	-1645
1017.608	-1218
1017.678	-1982
1017.749	-1758
1017.820	-1462
1017.891	-938
1017.961	-1044
1018.032	-1198
1018.103	-1510
1018.173	-659
1018.244	-1860
1018.315	-903
1018.385	-1134
1018.456	-1347
1018.526	-2902
1018.597	-1202
1018.667	-1755
1018.738	-1211
1018.808	-1321
1018.878	-863
1018.949	-1289
1019.019	-638
1019.089	-1381
1019.160	-1195
1019.230	-2066
1019.300	-247
1019.371	-1271
1019.441	-1382
1019.511	-1303
1019.581	-1446
1019.651	-823
1019.721	-893
1019.791	-1863
1019.861	-1551
1019.931	-908
1020.001	-1553
1020.071	-1290
1020.141	-976
1020.211	-1095
1020.281	-1683
1020.351	-1068
1020.421	-628
1020.491	-1759
1020.560	-1265
1020.630	-2125
1020.700	-928
1020.770	-1659
1020.839	-1700
1020.909	-1369
1020.979	-1882
1021.048	-1549
1021.118	-1013
1021.187	-1480
1021.257	-1476
1021.326	-1062
1021.396	-1354
1021.465	-1978
1021.535	-1078
1021.604	-2276
1021.674	-1022
1021.743	-1767
1021.812	-1633
1021.882	-1899
1021.951	-1521
1022.020	-1423
1022.089	-1141
1022.159	-1878
1022.228	-1371
1022.297	-3069
1022.366	-913
1022.435	-1592
1022.504	-931
1022.573	-1918
1022.642	-1642
1022.711	-2409
1022.781	-879
1022.849	-1732
1022.918	-1242
1022.987	-1463
1023.056	-1500
1023.125	-1987
1023.194	-1538
1023.263	-1390
1023.331	-823
1023.400	-2416
1023.469	-668
1023.538	-857
1023.606	-968
1023.675	-1548
1023.744	-1046
1023.812	-1733
1023.881	-627
1023.949	-1350
1024.018	-1966
1024.086	-982
1024.155	-1622
1024.223	-2343
1024.292	-1395
1024.360	-1351
1024.429	-1187
1024.497	-2647
1024.565	-1258
1024.634	-2158
1024.702	-1887
1024.770	-1241
1024.838	-1496
1024.907	-1785
1024.975	-1262
1025.043	-1159
1025.111	-844
1025.179	-1605
1025.247	-945
1025.315	-2342
1025.383	-1223
1025.451	-1905
1025.519	-927
1025.587	-2228
1025.655	-1988
1025.723	-1204
1025.791	-457
1025.859	-1350
1025.927	-1638
1025.995	-1437
1026.062	-723
1026.130	-948
1026.198	-788
1026.266	-1872
1026.333	-774
1026.401	-1213
1026.469	-1227
1026.536	-1536
1026.604	-1433
1026.671	-1678
1026.739	-1394
1026.806	-1977
1026.874	-1186
1026.941	-2351
1027.009	-973
1027.076	-1698
1027.144	-661
1027.211	-1942
1027.278	-1415
1027.345	-1489
1027.413	-1890
1027.480	-1781
1027.547	-1533
1027.614	-2121
1027.682	-1317
1027.749	-1414
1027.816	-1094
1027.883	-2116
1027.950	-1103
1028.017	-2295
1028.084	-1216
1028.151	-1912
1028.218	-812
1028.285	-1683
1028.352	-1114
1028.419	-2394
1028.486	-1460
1028.553	-2037
1028.619	-1424
1028.686	-2518
1028.753	-1759
1028.820	-1747
1028.886	-1706
1028.953	-2043
1029.020	-1098
1029.086	-1934
1029.153	-772
1029.220	-2008
1029.286	-891
1029.353	-1498
1029.419	-1119
1029.486	-2248
1029.552	-2218
1029.619	-2210
1029.685	-1697
1029.751	-1474
1029.818	-878
1029.884	-1445
1029.951	-839
1030.017	-2102
1030.083	-698
1030.149	-1371
1030.216	-1034
1030.282	-2132
1030.348	-1270
1030.414	-1949
1030.480	-1913
1030.546	-2321
1030.612	-1081
1030.678	-2191
1030.744	-1333
1030.810	-2247
1030.876	-1733
1030.942	-2214
1031.008	-1824
1031.074	-1318
1031.140	-1585
1031.206	-1725
1031.272	-2022
1031.337	-1977
1031.403	-251
1031.469	-1733
1031.534	-989
1031.600	-1985
1031.666	-2116
1031.731	-1939
1031.797	-2069
1031.863	-2424
1031.928	-1435
1031.994	-2356
1032.059	-1624
1032.125	-1329
1032.190	-1718
1032.256	-2377
1032.321	-1728
1032.386	-1504
1032.452	-485
1032.517	-1850
1032.582	-1035
1032.647	-1732
1032.713	-1734
1032.778	-1323
1032.843	-1164
1032.908	-2280
1032.974	-748
1033.039	-2049
1033.104	-651
1033.169	-2209
1033.234	-1120
1033.299	-1489
1033.364	-1046
1033.429	-2410
1033.494	-554
1033.559	-1661
1033.624	-1130
1033.688	-1230
1033.753	-1845
1033.818	-1281
1033.883	-1102
1033.948	-1931
1034.013	-669
1034.077	-1874
1034.142	-1108
1034.207	-1655
1034.271	-312
1034.336	-501
1034.400	-1189
1034.465	-1290
1034.530	-687
1034.594	-1814
1034.658	-1831
1034.723	-2731
1034.787	-1393
1034.852	-1823
1034.916	-877
1034.981	-2172
1035.045	-1730
1035.109	-1241
1035.173	-560
1035.238	-1978
1035.302	-1080
1035.366	-1871
1035.430	-1190
1035.495	-1959
1035.559	-1085
1035.623	-1983
1035.687	-654
1035.751	-1908
1035.815	-1514
1035.879	-1471
1035.943	-1326
1036.007	-2176
1036.071	-1267
1036.135	-1693
1036.198	-1065
1036.262	-1999
1036.326	-1210
1036.390	-1652
1036.454	-985
1036.517	-2361
1036.581	-1694
1036.645	-1199
1036.709	-759
1036.772	-2500
1036.836	-1492
1036.900	-2048
1036.963	-2216
1037.026	-2150
1037.090	-1007
1037.154	-2442
1037.217	-1161
1037.280	-2276
1037.344	-1894
1037.407	-2325
1037.471	-1704
1037.534	-1802
1037.597	-1597
1037.661	-1857
1037.724	-1437
1037.787	-1680
1037.850	-1946
1037.913	-2516
1037.977	-1040
1038.040	-2467
1038.103	-1130
1038.166	-3205
1038.229	-1189
1038.292	-2512
1038.355	-1834
1038.418	-2021
1038.481	-1397
1038.544	-1727
1038.607	-1831
1038.670	-1608
1038.732	-600
1038.795	-1673
1038.858	-1708
1038.921	-2141
1038.984	-1786
1039.046	-2088
1039.109	-1439
1039.172	-2344
1039.234	-1447
1039.297	-1602
1039.360	-1254
1039.422	-2448
1039.485	-1278
1039.547	-2076
1039.610	-1600
1039.672	-2091
1039.734	-1141
1039.797	-3007
1039.859	-943
1039.922	-2002
1039.984	-1502
1040.046	-2280
1040.109	-1521
1040.171	-1785
1040.233	-962
1040.295	-1892
1040.358	-1767
1040.420	-2393
1040.482	-2246
1040.544	-2305
1040.606	-1743
1040.668	-1942
1040.730	-1724
1040.792	-1696
1040.854	-2512
1040.916	-1543
1040.978	-1674
1041.040	-1906
1041.102	-1135
1041.164	-2522
1041.225	-1638
1041.287	-2270
1041.349	-1251
1041.411	-2020
1041.472	-1521
1041.534	-1316
1041.596	-1438
1041.657	-1804
1041.719	-1188
1041.781	-2080
1041.842	-1090
1041.904	-2475
1041.965	-1120
1042.027	-1915
1042.088	-1271
1042.150	-1812
1042.211	-1120
1042.272	-1460
1042.334	-2220
1042.395	-1961
1042.456	-1430
1042.518	-1651
1042.579	-1178
1042.640	-2098
1042.701	-1079
1042.763	-2297
1042.824	-1199
1042.885	-1980
1042.946	-1570
1043.007	-2494
1043.068	-1200
1043.129	-1825
1043.190	-1360
1043.251	-1410
1043.312	-1500
1043.373	-2284
1043.434	-856
1043.495	-2007
1043.556	-733
1043.616	-2032
1043.677	-1556
1043.738	-1760
1043.799	-2234
1043.859	-1430
1043.920	-1635
1043.981	-2269
1044.041	-1574
1044.102	-1376
1044.162	-967
1044.223	-1634
1044.284	-2003
1044.344	-1990
1044.405	-1750
1044.465	-2082
1044.525	-1120
1044.586	-1529
1044.646	-1459
1044.707	-1595
1044.767	-1502
1044.827	-2204
1044.887	-995
1044.948	-1141
1045.008	-1289
1045.068	-1930
1045.128	-1340
1045.188	-1851
1045.249	253
1045.309	-1644
1045.369	-1890
1045.429	-1944
1045.489	-1574
1045.549	-1603
1045.609	-1393
1045.669	-2780
1045.729	-2550
1045.789	-1566
1045.848	-1732
1045.908	-1042
1045.968	-1057
1046.028	-1058
1046.088	-735
1046.147	-924
1046.207	-1504
1046.267	-1152
1046.326	-1161
1046.386	-1370
1046.446	-1137
1046.505	-1061
1046.565	-499
1046.624	-675
1046.684	-191
1046.743	-292
1046.803	-246
1046.862	-400
1046.922	0
