'Start Wavelength	183.907
'End Wavelength	1046.922
'Gate Delay	5.000
'Gate Width (ms)	1.050
'Laser Output Level	0.000
'X Position	0.000
'Y Position	0.000
'Z Position	0.000
'Grid Point Number	1.000
'Shot Number	100.000
183.907	744.000
183.977	-841.000
184.047	-276
184.116	547
184.186	114
184.256	-241
184.325	1090
184.395	-1345
184.465	723
184.534	-139
184.604	-144
184.674	563
184.743	-550
184.813	827
184.883	587
184.952	274
185.022	-286
185.092	-231
185.161	-182
185.231	146
185.301	169
185.370	33
185.440	268
185.509	-234
185.579	-11
185.649	155
185.718	537
185.788	175
185.857	-593
185.927	-201
185.996	-294
186.066	-411
186.136	267
186.205	278
186.275	-243
186.344	69
186.414	340
186.483	212
186.553	1105
186.622	634
186.692	130
186.761	-198
186.831	342
186.900	-351
186.970	256
187.039	119
187.109	732
187.178	261
187.248	245
187.317	606
187.387	462
187.456	470
187.526	379
187.595	330
187.664	-42
187.734	798
187.803	-78
187.873	1866
187.942	560
188.012	-95
188.081	172
188.150	-314
188.220	362
188.289	37
188.358	-210
188.428	705
188.497	-212
188.567	489
188.636	-153
188.705	39
188.775	354
188.844	-58
188.913	951
188.983	151
189.052	101
189.121	178
189.191	-382
189.260	1031
189.329	306
189.399	-224
189.468	586
189.537	511
189.606	902
189.676	240
189.745	431
189.814	413
189.883	-312
189.953	-395
190.022	1591
190.091	1377
190.161	1940
190.230	953
190.299	1089
190.368	595
190.437	618
190.507	409
190.576	851
190.645	-221
190.714	-169
190.783	242
190.853	842
190.922	928
190.991	523
191.060	799
191.129	-48
191.198	454
191.268	-200
191.337	553
191.406	1258
191.475	-180
191.544	266
191.613	467
191.682	-325
191.752	476
191.821	918
191.890	369
191.959	457
192.028	660
192.097	1228
192.166	73
192.235	526
192.304	1291
192.373	807
192.442	845
192.511	35
192.580	425
192.650	442
192.719	387
192.788	9
192.857	267
192.926	852
192.995	180
193.064	1431
193.133	913
193.202	1539
193.271	646
193.340	1135
193.409	1188
193.478	643
193.547	1148
193.615	2201
193.684	1252
193.753	782
193.822	1375
193.891	-210
193.960	61
194.029	844
194.098	524
194.167	537
194.236	310
194.305	-18
194.374	255
194.443	647
194.512	-173
194.580	1158
194.649	967
194.718	463
194.787	705
194.856	562
194.925	415
194.994	819
195.062	207
195.131	1521
195.200	473
195.269	1076
195.338	758
195.407	448
195.475	-135
195.544	1301
195.613	450
195.682	1402
195.751	804
195.819	1076
195.888	1522
195.957	1177
196.026	1015
196.094	1165
196.163	718
196.232	1258
196.301	143
196.369	1371
196.438	582
196.507	1060
196.576	377
196.644	934
196.713	436
196.782	691
196.850	1593
196.919	687
196.988	723
197.056	291
197.125	798
197.194	945
197.262	705
197.331	124
197.400	678
197.468	513
197.537	595
197.606	555
197.674	1111
197.743	2127
197.812	932
197.880	1689
197.949	830
198.017	1845
198.086	1032
198.155	992
198.223	976
198.292	2286
198.360	181
198.429	1697
198.497	534
198.566	1166
198.635	2517
198.703	1618
198.772	300
198.840	1516
198.909	2129
198.977	1096
199.046	471
199.114	1183
199.183	426
199.251	608
199.320	173
199.388	452
199.457	161
199.525	873
199.594	1123
199.662	434
199.731	267
199.799	752
199.867	147
199.936	651
200.004	388
200.073	921
200.141	1038
200.210	980
200.278	-6
200.346	703
200.415	1487
200.483	1800
200.552	981
200.620	560
200.688	812
200.757	-41
200.825	808
200.893	578
200.962	355
201.030	438
201.098	293
201.167	1177
201.235	404
201.303	481
201.372	1221
201.440	900
201.508	1372
201.577	1116
201.645	769
201.713	806
201.781	855
201.850	1005
201.918	985
201.986	944
202.055	844
202.123	965
202.191	860
202.259	494
202.327	654
202.396	520
202.464	858
202.532	678
202.600	3609
202.669	2352
202.737	228
202.805	572
202.873	486
202.941	628
203.009	319
203.078	1155
203.146	1683
203.214	782
203.282	741
203.350	1582
203.418	573
203.487	1355
203.555	741
203.623	964
203.691	482
203.759	736
203.827	491
203.895	840
203.963	812
204.031	468
204.099	995
204.168	956
204.236	1370
204.304	1283
204.372	1024
204.440	716
204.508	147
204.576	493
204.644	1059
204.712	899
204.780	692
204.848	967
204.916	531
204.984	1140
205.052	1023
205.120	713
205.188	879
205.256	797
205.324	1089
205.392	1162
205.460	1248
205.528	1423
205.596	419
205.664	1428
205.732	652
205.799	2234
205.867	3524
205.935	1574
206.003	1428
206.071	1423
206.139	1061
206.207	758
206.275	1457
206.343	1606
206.411	1172
206.478	1822
206.546	1038
206.614	1002
206.682	1801
206.750	1694
206.818	1098
206.885	2185
206.953	275
207.021	3016
207.089	1265
207.157	786
207.225	1671
207.292	779
207.360	800
207.428	970
207.496	1134
207.563	1725
207.631	1093
207.699	984
207.767	896
207.834	1417
207.902	374
207.970	947
208.038	1184
208.105	2126
208.173	1225
208.241	1438
208.309	1754
208.376	1516
208.444	2845
208.512	1214
208.579	-224
208.647	1873
208.715	1805
208.782	1128
208.850	1266
208.918	1227
208.985	1515
209.053	1229
209.120	1505
209.188	1388
209.256	1273
209.323	1264
209.391	1060
209.459	2423
209.526	1799
209.594	1188
209.661	1382
209.729	1716
209.796	2022
209.864	1535
209.932	743
209.999	2888
210.067	912
210.134	1504
210.202	1855
210.269	2644
210.337	2647
210.404	1018
210.472	1955
210.539	2255
210.607	838
210.674	1797
210.742	2038
210.809	1901
210.877	1508
210.944	1986
211.012	765
211.079	2836
211.146	2423
211.214	1947
211.281	1682
211.349	1905
211.416	1447
211.484	2506
211.551	1669
211.618	2107
211.686	1131
211.753	1066
211.821	1833
211.888	1273
211.955	1569
212.023	2604
212.090	1674
212.157	2088
212.225	1815
212.292	3289
212.359	4027
212.427	11062
212.494	6124
212.561	3032
212.629	1823
212.696	2240
212.763	2454
212.831	2118
212.898	2240
212.965	1516
213.032	1810
213.100	1962
213.167	1809
213.234	2661
213.301	2228
213.369	2242
213.436	1385
213.503	1523
213.570	2197
213.638	1861
213.705	601
213.772	1737
213.839	1703
213.906	1757
213.973	1591
214.041	1957
214.108	1905
214.175	2264
214.242	1388
214.309	1923
214.376	2116
214.444	1676
214.511	2248
214.578	2522
214.645	2457
214.712	2917
214.779	1712
214.846	2133
214.913	2918
214.980	2401
215.048	2689
215.115	3280
215.182	2524
215.249	2664
215.316	1326
215.383	2572
215.450	2558
215.517	2968
215.584	882
215.651	2057
215.718	1443
215.785	2064
215.852	1336
215.919	3764
215.986	2079
216.053	1456
216.120	1999
216.187	2373
216.254	1810
216.321	1680
216.388	2193
216.455	2757
216.522	2780
216.589	2610
216.656	3553
216.722	3975
216.789	2582
216.856	2834
216.923	2284
216.990	3038
217.057	2256
217.124	3185
217.191	2469
217.258	3714
217.324	4629
217.391	4609
217.458	2509
217.525	2608
217.592	2213
217.659	1856
217.725	3262
217.792	2927
217.859	3650
217.926	2147
217.993	1542
218.059	2459
218.126	2032
218.193	1949
218.260	910
218.327	1695
218.393	1013
218.460	2114
218.527	1016
218.594	2515
218.660	2701
218.727	3788
218.794	1626
218.860	2838
218.927	1221
218.994	2987
219.061	1206
219.127	2411
219.194	3102
219.261	2096
219.327	1362
219.394	1817
219.461	467
219.527	1335
219.594	2925
219.661	2365
219.727	1243
219.794	2209
219.860	1250
219.927	1596
219.994	2881
220.060	4588
220.127	3615
220.193	3700
220.260	3145
220.326	4327
220.393	4461
220.460	7129
220.526	3734
220.593	3572
220.659	5171
220.726	4156
220.792	7597
220.859	6821
220.925	8481
220.992	10377
221.058	9328
221.125	9852
221.191	6782
221.258	4090
221.324	3651
221.391	2635
221.457	2344
221.524	2620
221.590	4139
221.657	9097
221.723	6471
221.789	5222
221.856	5043
221.922	3488
221.989	2969
222.055	2825
222.121	1578
222.188	4052
222.254	3343
222.321	2384
222.387	2131
222.453	1672
222.520	1913
222.586	1477
222.652	2161
222.719	1024
222.785	1859
222.851	1483
222.918	1446
222.984	1989
223.050	2076
223.116	825
223.183	2457
223.249	1565
223.315	616
223.382	1527
223.448	1841
223.514	960
223.580	1796
223.647	633
223.713	1312
223.779	2148
223.845	1599
223.911	1813
223.978	1263
224.044	2178
224.110	1119
224.176	1661
224.242	1122
224.309	736
224.375	2456
224.441	2004
224.507	1893
224.573	1127
224.639	1848
224.705	1083
224.772	1387
224.838	1298
224.904	2586
224.970	1330
225.036	1257
225.102	1434
225.168	1980
225.234	1586
225.300	1884
225.366	2185
225.432	1549
225.499	1423
225.565	3010
225.631	2454
225.697	2024
225.763	2459
225.829	2813
225.895	3164
225.961	3859
226.027	4555
226.093	3818
226.159	6380
226.225	6916
226.291	11476
226.357	16495
226.423	10431
226.489	7345
226.554	4676
226.620	5180
226.686	5593
226.752	8142
226.818	12155
226.884	19861
226.950	18599
227.016	10025
227.082	6409
227.148	3899
227.214	4665
227.279	3879
227.345	3724
227.411	4352
227.477	4394
227.543	6470
227.609	6541
227.674	5981
227.740	3954
227.806	3357
227.872	3053
227.938	4089
228.003	4837
228.069	3061
228.135	2478
228.201	2756
228.267	2799
228.332	1922
228.398	2739
228.464	2618
228.530	1496
228.595	2558
228.661	1372
228.727	2212
228.792	3109
228.858	2079
228.924	177
228.990	3978
229.055	1645
229.121	2615
229.187	1872
229.252	2420
229.318	1696
229.384	2403
229.449	2504
229.515	394
229.581	653
229.646	2525
229.712	2580
229.777	3482
229.843	3693
229.909	2865
229.974	3634
230.040	3915
230.105	3282
230.171	2710
230.236	4223
230.302	5793
230.368	4081
230.433	2191
230.499	3098
230.564	4400
230.630	2500
230.695	2157
230.761	3095
230.826	1313
230.892	3714
230.957	1540
231.023	1926
231.088	3123
231.154	2806
231.219	2829
231.284	3164
231.350	4023
231.415	2390
231.481	2334
231.546	2233
231.612	1224
231.677	1970
231.742	1247
231.808	2791
231.873	1604
231.939	-317
232.004	3581
232.069	3401
232.135	1857
232.200	2559
232.265	2833
232.331	1621
232.396	1329
232.461	1725
232.527	949
232.592	1572
232.657	2693
232.723	3179
232.788	2709
232.853	1805
232.918	2560
232.984	754
233.049	1430
233.114	2262
233.179	2942
233.245	4285
233.310	4310
233.375	1956
233.440	2606
233.506	1855
233.571	1622
233.636	2378
233.701	1548
233.766	2916
233.832	3708
233.897	2734
233.962	944
234.027	3333
234.092	2392
234.157	2800
234.222	3061
234.288	3412
234.353	7533
234.418	7491
234.483	4823
234.548	3810
234.613	4228
234.678	3943
234.743	2502
234.808	9024
234.873	4923
234.938	4701
235.004	2468
235.069	2764
235.134	2105
235.199	3206
235.264	3402
235.329	1382
235.394	3014
235.459	4387
235.524	2894
235.589	3062
235.654	1930
235.719	1222
235.784	2873
235.849	2980
235.913	5381
235.978	4847
236.043	6265
236.108	3706
236.173	2062
236.238	3486
236.303	2074
236.368	3201
236.433	5046
236.498	6615
236.563	6470
236.627	11288
236.692	28594
236.757	24825
236.822	12588
236.887	8863
236.952	8064
237.017	5472
237.081	7749
237.146	9062
237.211	17897
237.276	30068
237.341	39939
237.405	22846
237.470	11995
237.535	8923
237.600	6109
237.664	6303
237.729	4300
237.794	5373
237.859	10330
237.923	7755
237.988	4541
238.053	6038
238.118	5377
238.182	11169
238.247	10240
238.312	5039
238.376	4659
238.441	2544
238.506	4756
238.570	2190
238.635	3545
238.700	2925
238.764	2357
238.829	5683
238.893	6485
238.958	4524
239.023	4735
239.087	2966
239.152	3421
239.216	3144
239.281	3707
239.346	3559
239.410	3754
239.475	3146
239.539	10484
239.604	8870
239.668	5046
239.733	4064
239.797	6312
239.862	12658
239.926	13387
239.991	5945
240.055	4239
240.120	2855
240.184	3561
240.249	2188
240.313	3054
240.378	2761
240.442	6500
240.507	11187
240.571	3579
240.635	4969
240.700	6627
240.764	2654
240.829	2822
240.893	2093
240.957	2635
241.022	6864
241.086	9394
241.151	4408
241.215	1330
241.279	4342
241.344	5277
241.408	4715
241.472	3427
241.537	5318
241.601	4182
241.665	3537
241.730	3221
241.794	4928
241.858	4142
241.922	4391
241.987	3880
242.051	3571
242.115	2982
242.179	3815
242.244	2557
242.308	3734
242.372	3945
242.436	4712
242.501	2501
242.565	2469
242.629	3060
242.693	4858
242.757	2439
242.822	3425
242.886	3911
242.950	4173
243.014	2835
243.078	4094
243.142	3945
243.206	3908
243.271	4947
243.335	4032
243.399	5608
243.463	16129
243.527	38805
243.591	12781
243.655	5910
243.719	4602
243.783	4394
243.847	6807
243.911	7953
243.975	7976
244.040	5056
244.104	5689
244.168	4118
244.232	4359
244.296	5711
244.360	6906
244.424	4118
244.488	3655
244.552	3960
244.615	1677
244.679	2657
244.743	3117
244.807	3028
244.871	2892
244.935	2615
244.999	2067
245.063	2989
245.127	3945
245.191	4749
245.255	4655
245.319	4123
245.383	2792
245.446	4827
245.510	2220
245.574	2604
245.638	3439
245.702	2224
245.766	6850
245.829	5931
245.893	3372
245.957	3814
246.021	4197
246.085	3762
246.149	4469
246.212	9775
246.276	12383
246.340	6028
246.404	5173
246.467	5881
246.531	5230
246.595	5592
246.659	4596
246.722	3224
246.786	4881
246.850	4778
246.913	5889
246.977	3104
247.041	3144
247.104	3724
247.168	4050
247.232	8536
247.295	16594
247.359	9086
247.423	4774
247.486	7680
247.550	5549
247.614	3432
247.677	5945
247.741	4077
247.804	3876
247.868	4986
247.932	7342
247.995	16061
248.059	6751
248.122	3574
248.186	6189
248.249	9104
248.313	24901
248.376	25559
248.440	18350
248.503	6325
248.567	7502
248.630	7842
248.694	11900
248.757	14962
248.821	28300
248.884	18204
248.948	16311
249.011	22250
249.075	31705
249.138	26258
249.202	12268
249.265	8763
249.328	10433
249.392	7387
249.455	7481
249.519	6038
249.582	7070
249.645	10711
249.709	9247
249.772	8754
249.835	8000
249.899	6514
249.962	6783
250.025	5676
250.089	12841
250.152	15394
250.215	8298
250.279	7052
250.342	7013
250.405	6918
250.468	6313
250.532	8227
250.595	12968
250.658	37308
250.721	59237
250.785	22829
250.848	13496
250.911	8653
250.974	8655
251.038	10050
251.101	19727
251.164	11802
251.227	12303
251.290	11719
251.354	17701
251.417	54302
251.480	51835
251.543	37253
251.606	91688
251.669	68101
251.732	30157
251.795	28308
251.859	29103
251.922	59498
251.985	36218
252.048	16659
252.111	13444
252.174	10609
252.237	18478
252.300	33790
252.363	38176
252.426	72478
252.489	31646
252.552	18417
252.615	12959
252.678	13940
252.741	27567
252.804	35351
252.867	75510
252.930	43764
252.993	24382
253.056	14958
253.119	11590
253.182	8394
253.245	14244
253.308	11585
253.371	8776
253.434	9640
253.497	10124
253.559	15991
253.622	11627
253.685	12332
253.748	11297
253.811	6702
253.874	8760
253.937	8697
254.000	6597
254.062	11280
254.125	16624
254.188	17352
254.251	12974
254.314	6317
254.376	9813
254.439	11252
254.502	9120
254.565	11578
254.628	18920
254.690	9737
254.753	5536
254.816	5088
254.878	5487
254.941	12149
255.004	12415
255.067	5214
255.129	5594
255.192	3829
255.255	3156
255.317	3930
255.380	3421
255.443	2680
255.505	2885
255.568	2369
255.631	3742
255.693	3227
255.756	3259
255.819	3832
255.881	3437
255.944	3623
256.006	3272
256.069	3437
256.132	3666
256.194	4782
256.257	9040
256.319	6867
256.382	6509
256.444	5481
256.507	5245
256.569	4818
256.632	5058
256.694	7584
256.757	20248
256.819	49746
256.882	24085
256.944	10362
257.007	8746
257.069	7320
257.132	6510
257.194	5862
257.257	4890
257.319	5784
257.381	7674
257.444	16476
257.506	55775
257.569	58176
257.631	22659
257.693	14197
257.756	8007
257.818	6593
257.880	5070
257.943	5553
258.005	4629
258.067	4645
258.130	5260
258.192	5830
258.254	7523
258.317	5352
258.379	4830
258.441	8919
258.503	9328
258.566	11168
258.628	14018
258.690	4702
258.753	6020
258.815	8070
258.877	5913
258.939	5062
259.001	5049
259.064	5174
259.126	4255
259.188	6160
259.250	5707
259.312	5466
259.375	5956
259.437	5587
259.499	4769
259.561	4049
259.623	5446
259.685	5450
259.747	5380
259.809	11176
259.872	18562
259.934	27870
259.996	28065
260.058	9988
260.120	4734
260.182	3640
260.244	4477
260.306	3326
260.368	4489
260.430	3957
260.492	9751
260.554	12579
260.616	6147
260.678	13945
260.740	17374
260.802	5210
260.864	5459
260.926	2967
260.988	5165
261.050	5329
261.112	13655
261.174	27852
261.236	15918
261.298	6028
261.359	9247
261.421	11812
261.483	4660
261.545	5107
261.607	2497
261.669	4604
261.731	6497
261.793	12964
261.854	5307
261.916	5294
261.978	5944
262.040	5938
262.102	4287
262.164	5949
262.225	5158
262.287	4781
262.349	7577
262.411	6088
262.472	4088
262.534	6009
262.596	11223
262.658	5307
262.719	3539
262.781	5730
262.843	10818
262.904	6132
262.966	5541
263.028	6078
263.090	23328
263.151	55911
263.213	20543
263.275	12271
263.336	5658
263.398	5087
263.459	3315
263.521	3967
263.583	8034
263.644	5488
263.706	2602
263.767	1914
263.829	3213
263.891	3016
263.952	2981
264.014	3089
264.075	6376
264.137	16489
264.198	6421
264.260	3259
264.321	4161
264.383	7854
264.444	23216
264.506	8426
264.567	6131
264.629	10777
264.690	21881
264.752	8034
264.813	4446
264.875	3945
264.936	4833
264.998	3909
265.059	4461
265.120	4784
265.182	5705
265.243	27352
265.305	28991
265.366	9366
265.427	4720
265.489	4942
265.550	3460
265.611	3957
265.673	4972
265.734	4439
265.795	4557
265.857	3269
265.918	3733
265.979	9757
266.040	43211
266.102	37111
266.163	13789
266.224	9360
266.286	5759
266.347	3521
266.408	3516
266.469	3993
266.530	3898
266.592	2945
266.653	5273
266.714	8189
266.775	3252
266.836	2559
266.898	2786
266.959	5699
267.020	4252
267.081	5183
267.142	3474
267.203	3159
267.264	1862
267.326	4410
267.387	2564
267.448	1578
267.509	3614
267.570	2675
267.631	2130
267.692	1714
267.753	3718
267.814	2514
267.875	5619
267.936	10389
267.997	7354
268.058	4985
268.119	2935
268.180	3098
268.241	2113
268.302	2539
268.363	2971
268.424	2689
268.485	3791
268.546	2625
268.607	2363
268.668	1888
268.729	2197
268.790	2762
268.851	3182
268.912	6949
268.972	7542
269.033	4196
269.094	2651
269.155	2498
269.216	2365
269.277	2425
269.338	2974
269.398	2576
269.459	3550
269.520	3556
269.581	4736
269.642	4550
269.702	4283
269.763	3152
269.824	3122
269.885	3392
269.945	5046
270.006	3421
270.067	2542
270.128	3111
270.188	2836
270.249	2028
270.310	2472
270.370	3336
270.431	2522
270.492	1854
270.553	2317
270.613	4686
270.674	10524
270.734	4623
270.795	2557
270.856	4316
270.916	3564
270.977	2846
271.038	3519
271.098	3400
271.159	5172
271.219	4249
271.280	4184
271.340	2709
271.401	3558
271.462	6613
271.522	4149
271.583	3144
271.643	3179
271.704	3386
271.764	4462
271.825	8098
271.885	26011
271.946	33704
272.006	11930
272.066	16230
272.127	27675
272.187	11192
272.248	6667
272.308	5855
272.369	18959
272.429	10716
272.489	8606
272.550	8340
272.610	9018
272.671	6427
272.731	6067
272.791	8565
272.852	5732
272.912	5360
272.972	4838
273.033	3221
273.093	5050
273.153	6115
273.214	5621
273.274	5132
273.334	16794
273.394	26641
273.455	10869
273.515	10860
273.575	21583
273.635	10404
273.696	11567
273.756	23671
273.816	9865
273.876	6583
273.936	12134
273.997	19597
274.057	7401
274.117	5367
274.177	7891
274.237	32125
274.297	27055
274.358	16473
274.418	19166
274.478	13907
274.538	7288
274.598	5006
274.658	15549
274.718	18456
274.778	9181
274.838	5900
274.898	10066
274.958	25095
275.018	25321
275.078	16308
275.138	6959
275.198	5530
275.258	4419
275.318	5228
275.378	6984
275.438	8433
275.498	6738
275.558	12606
275.618	25314
275.678	18050
275.738	11443
275.798	10664
275.858	6813
275.918	3776
275.978	4862
276.038	3482
276.098	4357
276.157	6309
276.217	16814
276.277	7892
276.337	5103
276.397	4282
276.457	4836
276.517	3665
276.576	3003
276.636	3153
276.696	4356
276.756	11650
276.815	8128
276.875	4390
276.935	4583
276.995	4752
277.055	4009
277.114	3874
277.174	5611
277.234	14153
277.293	6090
277.353	4169
277.413	3381
277.472	3735
277.532	4696
277.592	5363
277.651	15978
277.711	25966
277.771	10832
277.830	30130
277.890	23373
277.950	19577
278.009	49525
278.069	20749
278.128	21135
278.188	26720
278.248	12349
278.307	30020
278.367	18123
278.426	7881
278.486	5243
278.545	4466
278.605	4354
278.664	4078
278.724	4698
278.783	11353
278.843	25523
278.902	9278
278.962	5657
279.021	6104
279.081	10957
279.140	10582
279.199	7677
279.259	7645
279.318	9393
279.378	10790
279.437	15594
279.496	38841
279.556	136460
279.615	109967
279.675	32315
279.734	17874
279.793	23989
279.853	28103
279.912	12763
279.971	9553
280.031	9606
280.090	12175
280.149	16399
280.208	21798
280.268	100266
280.327	98105
280.386	26239
280.445	16955
280.505	16171
280.564	9388
280.623	7521
280.682	10401
280.742	13669
280.801	5992
280.860	5600
280.919	5565
280.978	4938
281.037	4462
281.097	4354
281.156	4950
281.215	4357
281.274	4490
281.333	16841
281.392	13026
281.451	4796
281.510	4194
281.569	4155
281.628	3084
281.688	3789
281.747	3817
281.806	4700
281.865	3929
281.924	2964
281.983	2850
282.042	3537
282.101	2737
282.160	3663
282.219	3512
282.278	3628
282.337	9432
282.396	6915
282.454	3940
282.513	4257
282.572	13432
282.631	9433
282.690	3921
282.749	3000
282.808	4701
282.867	5285
282.926	3936
282.985	3797
283.043	3162
283.102	3044
283.161	3652
283.220	9307
283.279	16650
283.338	7368
283.396	3941
283.455	4531
283.514	4785
283.573	6917
283.631	5997
283.690	4735
283.749	3340
283.808	7533
283.866	7843
283.925	5389
283.984	4738
284.043	6236
284.101	6284
284.160	5632
284.219	7258
284.277	6744
284.336	8225
284.395	21730
284.453	17661
284.512	9027
284.570	11452
284.629	11516
284.688	10522
284.746	11299
284.805	13221
284.863	17352
284.922	21546
284.981	26898
285.039	38043
285.098	60324
285.156	109660
285.215	152191
285.273	146903
285.332	114313
285.390	72361
285.449	45892
285.507	32158
285.566	24350
285.624	20501
285.683	17038
285.741	12705
285.799	11670
285.858	10382
285.916	10369
285.975	7747
286.033	7427
286.091	7057
286.150	6084
286.208	6495
286.267	7647
286.325	6477
286.383	8158
286.442	7906
286.500	5546
286.558	3721
286.616	4773
286.675	6526
286.733	6117
286.791	4969
286.850	5319
286.908	6637
286.966	10308
287.024	5663
287.083	4655
287.141	3766
287.199	4728
287.257	6021
287.315	4475
287.374	5628
287.432	11883
287.490	8366
287.548	5958
287.606	4575
287.664	5183
287.723	6385
287.781	9005
287.839	6039
287.897	8223
287.955	9414
288.013	13398
288.071	24578
288.129	82311
288.187	194048
288.245	103473
288.303	36780
288.361	20922
288.419	14310
288.477	11025
288.535	9260
288.593	7281
288.651	6282
288.709	5792
288.767	5613
288.825	4664
288.883	4728
288.941	4815
288.999	4577
289.057	3542
289.115	3854
289.173	3614
289.231	3807
289.289	3787
289.346	3995
289.404	3963
289.462	6130
289.520	6035
289.578	3979
289.636	2620
289.694	3519
289.751	3367
289.809	2184
289.867	3337
289.925	3917
289.983	4782
290.040	2790
290.098	3580
290.156	3188
290.214	4444
290.271	3101
290.329	3440
290.387	2871
290.444	2875
290.502	1915
290.560	3279
290.617	2823
290.675	2548
290.733	2515
290.790	3590
290.848	3176
290.906	3062
290.963	3378
291.021	3356
291.078	3686
291.136	3586
291.194	12216
291.251	24190
291.309	9139
291.366	4515
291.424	3816
291.481	3836
291.539	3061
291.596	3760
291.654	2725
291.711	3168
291.769	3631
291.826	5214
291.884	4154
291.941	3681
291.999	2940
292.056	3551
292.114	3166
292.171	2931
292.228	4304
292.286	4738
292.343	5870
292.401	7028
292.458	4702
292.515	4198
292.573	4471
292.630	4271
292.687	4294
292.745	4429
292.802	6156
292.859	17174
292.917	20839
292.974	12015
293.031	5305
293.089	4623
293.146	4122
293.203	3116
293.260	3102
293.318	5175
293.375	8797
293.432	5697
293.489	4689
293.546	3656
293.604	6081
293.661	14798
293.718	33284
293.775	20524
293.832	8349
293.889	7271
293.947	6924
294.004	4946
294.061	5697
294.118	10632
294.175	23666
294.232	35471
294.289	16011
294.346	9440
294.403	9973
294.460	7971
294.517	5789
294.574	5013
294.631	5693
294.688	5965
294.745	12204
294.802	38903
294.859	49820
294.916	20301
294.973	9144
295.030	7903
295.087	7097
295.144	6367
295.201	6230
295.258	5379
295.315	6446
295.372	14174
295.429	26382
295.486	14044
295.542	10325
295.599	24480
295.656	41662
295.713	27360
295.770	26251
295.827	13060
295.883	7360
295.940	7392
295.997	9701
296.054	9636
296.111	7047
296.167	6283
296.224	3941
296.281	5199
296.338	4728
296.394	5191
296.451	6523
296.508	13546
296.564	24037
296.621	18870
296.678	30689
296.734	44954
296.791	20901
296.848	10864
296.904	10654
296.961	17917
297.018	28413
297.074	24416
297.131	12626
297.187	8755
297.244	9855
297.301	26694
297.357	46481
297.414	20316
297.470	10501
297.527	7424
297.583	6063
297.640	6186
297.696	5492
297.753	5906
297.809	5420
297.866	4313
297.922	4299
297.979	3891
298.035	5421
298.092	7173
298.148	16642
298.204	17854
298.261	9481
298.317	16088
298.374	37465
298.430	23820
298.486	12241
298.543	9416
298.599	9960
298.656	11783
298.712	14451
298.768	30813
298.824	24121
298.881	10899
298.937	7564
298.993	6401
299.050	6862
299.106	6809
299.162	5219
299.218	6471
299.275	5614
299.331	6364
299.387	10245
299.443	29911
299.500	35950
299.556	19752
299.612	8997
299.668	9399
299.724	12955
299.780	14869
299.837	8466
299.893	10388
299.949	27721
300.005	34141
300.061	29054
300.117	47686
300.173	25791
300.229	11834
300.285	13251
300.341	14293
300.397	8800
300.453	6883
300.510	7219
300.566	7945
300.622	8592
300.678	22627
300.734	34208
300.790	29405
300.845	32134
300.901	23393
300.957	31325
301.013	22922
301.069	10439
301.125	7327
301.181	6852
301.237	7741
301.293	5560
301.349	6119
301.405	5566
301.461	8178
301.516	11209
301.572	8856
301.628	10296
301.684	10124
301.740	14502
301.796	22113
301.851	15449
301.907	22272
301.963	22275
302.019	31835
302.074	78031
302.130	83105
302.186	45038
302.242	20740
302.297	13586
302.353	12750
302.409	19772
302.464	19840
302.520	15829
302.576	31759
302.631	35667
302.687	22278
302.743	11744
302.798	8614
302.854	6988
302.910	7893
302.965	9158
303.021	14105
303.076	13111
303.132	13744
303.187	16162
303.243	10920
303.299	7427
303.354	7094
303.410	7129
303.465	6859
303.521	5511
303.576	7598
303.632	7904
303.687	12266
303.743	29371
303.798	25205
303.853	12747
303.909	8029
303.964	7419
304.020	9943
304.075	13352
304.130	12899
304.186	19148
304.241	20779
304.297	17576
304.352	11240
304.358	10860
304.407	7780
304.449	7560
304.463	7495
304.518	7256
304.539	7348
304.573	7496
304.629	7528
304.630	7591
304.684	10773
304.720	18813
304.739	22725
304.794	33309
304.811	29026
304.850	18878
304.902	10629
304.905	10115
304.960	7584
304.992	8107
305.015	8389
305.071	8864
305.083	8511
305.126	7267
305.173	5962
305.181	5769
305.236	5651
305.264	6090
305.292	6532
305.347	7264
305.354	7420
305.402	8435
305.445	9194
305.457	9369
305.512	9882
305.535	9988
305.567	10376
305.622	9630
305.626	9925
305.678	17072
305.716	29810
305.733	33809
305.788	37153
305.807	32801
305.843	26282
305.897	31288
305.898	31313
305.953	30144
305.988	21476
306.008	17064
306.063	11623
306.078	10705
306.118	8552
306.168	6701
306.173	6551
306.228	6101
306.259	6030
306.283	6126
306.338	6296
306.349	6501
306.393	7253
306.440	8750
306.448	9059
306.503	10026
306.530	10436
306.558	13143
306.613	25249
306.620	26968
306.668	33083
306.711	34722
306.723	34328
306.778	26279
306.801	20404
306.833	14406
306.888	9277
306.892	9088
306.943	7695
306.982	7001
306.997	6879
307.052	6991
307.072	7435
307.107	9426
307.162	12947
307.163	12998
307.217	19510
307.253	23840
307.272	23953
307.327	23399
307.343	21223
307.381	18069
307.434	14990
307.436	15316
307.491	29790
307.524	41216
307.546	41419
307.600	33079
307.614	28631
307.655	19905
307.704	13803
307.710	13963
307.765	18216
307.795	23419
307.819	27410
307.874	41999
307.885	42526
307.929	35081
307.975	26352
307.984	27045
308.038	35404
308.065	42761
308.093	69622
308.148	136137
308.156	149240
308.202	194871
308.246	219677
308.257	213158
308.312	131370
308.336	94547
308.366	72432
308.421	44306
308.426	42061
308.475	29179
308.517	22471
308.530	21138
308.585	18597
308.607	17757
308.639	18733
308.694	22223
308.697	22532
308.748	41362
308.787	60063
308.803	58271
308.857	42620
308.877	35171
308.912	31472
308.967	29790
308.967	29796
309.021	38911
309.058	47096
309.076	58866
309.130	99217
309.148	114743
309.185	182868
309.238	295934
309.239	296401
309.293	286430
309.328	259393
309.348	230060
309.402	129991
309.418	102678
309.457	75344
309.508	49028
309.511	48325
309.566	42294
309.598	40867
309.620	44191
309.674	55207
309.688	58495
309.729	54520
309.778	45401
309.783	44562
309.837	34040
309.868	28198
309.892	30856
309.946	39788
309.959	42753
310.001	48590
310.049	53247
310.055	51652
310.109	32686
310.139	21695
310.163	18336
310.218	13786
310.229	13016
310.272	11885
310.319	11019
310.326	10906
310.381	10701
310.409	10493
310.435	10203
310.489	9863
310.499	9818
310.543	11300
310.589	12757
310.598	12582
310.652	11522
310.679	10892
310.706	9735
310.760	7216
310.769	6833
310.814	5957
310.859	5188
310.868	5346
310.923	6363
310.948	6939
310.977	7207
311.031	7644
311.038	7699
311.085	7406
311.128	6978
311.139	7012
311.193	7339
311.218	7468
311.247	7188
311.301	6568
311.308	6506
311.356	6723
311.398	6802
311.410	6635
311.464	5950
311.488	5640
311.518	5664
311.572	5605
311.578	5611
311.626	7617
311.668	9468
311.680	9887
311.734	11577
311.758	12370
311.788	12010
311.842	11170
311.847	11081
311.896	15527
311.937	19423
311.950	18531
312.004	14422
312.027	12573
312.058	10678
312.112	7362
312.117	7037
312.165	7574
312.207	8052
312.297	12914
312.386	9811
312.476	8729
312.566	12695
312.656	7073
312.745	6531
312.835	7856
312.925	8781
313.015	9826
313.104	10087
313.194	7102
313.284	6918
313.374	8635
313.463	6231
313.553	6565
313.643	6188
313.732	5512
313.822	6321
313.912	6978
314.001	7700
314.091	10503
314.180	13152
314.270	9517
314.360	12547
314.449	8865
314.539	6531
314.628	6988
314.718	9654
314.808	12059
314.897	6804
314.987	6269
315.076	8045
315.166	11439
315.255	11568
315.345	10698
315.434	11651
315.524	11617
315.613	11607
315.703	13281
315.792	27474
315.881	87892
315.971	27132
316.060	22376
316.150	39940
316.239	39697
316.328	12288
316.418	7101
316.507	7276
316.597	8843
316.686	9567
316.775	22236
316.865	40792
316.954	8743
317.043	6214
317.133	5921
317.222	6251
317.311	5837
317.400	5408
317.490	9599
317.579	8295
317.668	8880
317.757	15453
317.847	48529
317.936	141881
318.025	41220
318.114	30856
318.203	16133
318.293	16468
318.382	26043
318.471	21127
318.560	40593
318.649	75094
318.738	14600
318.828	11971
318.917	11380
319.006	19976
319.095	51127
319.184	96580
319.273	36133
319.362	16325
319.451	8338
319.540	8318
319.629	16216
319.718	20410
319.807	13832
319.896	38383
319.985	110953
320.074	28297
320.163	14502
320.252	27016
320.341	21007
320.430	15520
320.519	14401
320.608	9457
320.697	9827
320.786	9234
320.875	10288
320.964	11858
321.053	16930
321.142	22936
321.230	21977
321.319	24910
321.408	46668
321.497	21219
321.586	20473
321.675	39340
321.764	31538
321.852	22049
321.941	26821
322.030	17025
322.119	25403
322.207	50251
322.296	53092
322.385	26786
322.474	25481
322.562	52000
322.651	27167
322.740	22651
322.829	35083
322.917	54239
323.006	21194
323.095	17352
323.183	19723
323.272	26244
323.361	53980
323.449	149140
323.538	44461
323.626	114814
323.715	51797
323.804	30416
323.892	104313
323.981	39699
324.069	17424
324.158	65274
324.246	43115
324.335	13269
324.424	14416
324.512	7922
324.601	9089
324.689	18196
324.778	30919
324.866	38296
324.954	10357
325.043	9261
325.131	25528
325.220	46420
325.308	48218
325.397	34303
325.485	15961
325.574	6040
325.662	5735
325.750	6291
325.839	5865
325.927	6146
326.015	8990
326.104	23881
326.192	27580
326.280	6595
326.369	7078
326.457	8105
326.545	12394
326.634	7198
326.722	5637
326.810	5985
326.898	6015
326.987	6600
327.075	14686
327.163	21149
327.251	10341
327.340	12667
327.428	12407
327.516	6440
327.604	7434
327.692	8540
327.781	12769
327.869	21931
327.957	10231
328.045	7516
328.133	5988
328.221	11395
328.309	6991
328.397	5599
328.485	7311
328.574	10434
328.662	26434
328.750	24221
328.838	12327
328.926	6079
329.014	6227
329.102	9872
329.190	27427
329.278	12111
329.366	4250
329.454	5221
329.542	4979
329.630	4595
329.718	5671
329.806	5667
329.893	6931
329.981	5695
330.069	4621
330.157	7804
330.245	9287
330.333	6151
330.421	4768
330.509	9809
330.597	29395
330.684	19816
330.772	12389
330.860	22035
330.948	27304
331.036	9031
331.123	4366
331.211	7012
331.299	9088
331.387	27030
331.475	34880
331.562	11709
331.650	6616
331.738	8936
331.825	13074
331.913	5578
332.001	5372
332.089	10751
332.176	25450
332.264	62768
332.352	34532
332.439	10732
332.527	8292
332.614	8788
332.702	11736
332.790	7792
332.877	29112
332.965	49540
333.052	11939
333.140	15818
333.228	28173
333.315	9428
333.403	10274
333.490	36803
333.578	24206
333.665	28210
333.753	13013
333.840	7910
333.928	11474
334.015	37773
334.103	57042
334.190	132260
334.278	28689
334.365	17756
334.452	11862
334.540	9956
334.627	15782
334.715	20262
334.802	44162
334.889	218794
334.977	150875
335.064	21244
335.151	12131
335.239	11549
335.326	17934
335.413	73096
335.501	66318
335.588	11936
335.675	10414
335.762	17698
335.850	25026
335.937	20106
336.024	59318
336.111	197556
336.199	61518
336.286	15750
336.373	9888
336.460	7441
336.547	7186
336.635	9660
336.722	7786
336.809	8944
336.896	13145
336.983	45758
337.070	97531
337.157	118336
337.245	127166
337.332	69667
337.419	11847
337.506	8870
337.593	10676
337.680	44092
337.767	88886
337.854	25208
337.941	32644
338.028	43158
338.115	13696
338.202	17650
338.289	40796
338.376	117535
338.463	32298
338.550	66444
338.637	49641
338.724	28396
338.811	37191
338.898	8098
338.984	7185
339.071	9653
339.158	9498
339.245	19896
339.332	12711
339.419	29740
339.506	21793
339.593	5031
339.679	6240
339.766	4766
339.853	8184
339.940	11606
340.027	5662
340.113	5892
340.200	7482
340.287	6275
340.374	7384
340.460	10396
340.547	4826
340.634	10218
340.720	29395
340.807	12845
340.894	5453
340.980	5830
341.067	5364
341.154	6579
341.240	8178
341.327	13772
341.414	7177
341.500	6854
341.587	6034
341.674	6137
341.760	10461
341.847	10098
341.933	4466
342.020	2862
342.106	3960
342.193	5683
342.279	8046
342.366	6854
342.452	10011
342.539	6328
342.625	14057
342.712	27209
342.798	11229
342.885	5903
342.971	3593
343.058	3924
343.144	3764
343.230	3892
343.317	4748
343.403	3298
343.490	4198
343.576	3584
343.662	4383
343.749	5012
343.835	8225
343.921	14177
344.008	77454
344.094	116649
344.180	22038
344.267	13638
344.353	43998
344.439	42274
344.525	18073
344.612	21016
344.698	17657
344.784	9402
344.870	5488
344.957	5467
345.043	6907
345.129	5731
345.215	10244
345.301	6478
345.387	5304
345.474	3918
345.560	5473
345.646	8406
345.732	5843
345.818	6092
345.904	5266
345.990	5924
346.076	9137
346.162	17424
346.249	5993
346.335	4404
346.421	5767
346.507	21850
346.593	47455
346.679	11005
346.765	6918
346.851	5682
346.937	4911
347.023	4869
347.108	5723
347.194	4527
347.280	5319
347.366	6720
347.452	22917
347.538	63386
347.624	45029
347.710	36105
347.796	8692
347.882	6301
347.967	6161
348.053	10372
348.139	6317
348.225	4085
348.311	3473
348.397	5161
348.482	6173
348.568	6734
348.654	4390
348.740	7511
348.825	7304
348.911	10591
348.997	38437
349.083	53882
349.168	10394
349.254	5559
349.340	5514
349.425	4567
349.511	6415
349.597	8532
349.682	13792
349.768	34462
349.854	14124
349.939	5946
350.025	5158
350.110	4932
350.196	3747
350.282	2430
350.367	5140
350.453	14197
350.538	12507
350.624	7092
350.709	6494
350.795	4161
350.880	3770
350.966	7174
351.051	14081
351.137	9278
351.222	5136
351.308	13669
351.393	26352
351.479	8078
351.564	4099
351.649	4831
351.735	4372
351.820	3924
351.906	4966
351.991	8402
352.076	23609
352.162	24536
352.247	5858
352.332	6048
352.418	10717
352.503	14120
352.588	42325
352.673	26260
352.759	7480
352.844	4506
352.929	5474
353.014	6670
353.100	4736
353.185	5862
353.270	9722
353.355	9780
353.441	5290
353.526	9073
353.611	12082
353.696	11267
353.781	6869
353.866	4244
353.952	5467
354.037	10480
354.122	20722
354.207	17073
354.292	7371
354.377	5138
354.462	4961
354.547	5673
354.632	6094
354.717	8421
354.802	4644
354.887	3296
354.972	4518
355.057	3872
355.142	3182
355.227	5950
355.312	8778
355.397	16011
355.482	30874
355.567	14199
355.652	13308
355.737	15122
355.822	42562
355.907	26621
355.991	7498
356.076	4296
356.161	5225
356.246	4668
356.331	5606
356.416	15270
356.501	78956
356.585	59504
356.670	10515
356.755	8224
356.840	12569
356.924	59550
357.009	153190
357.094	46856
357.179	12586
357.263	9881
357.348	11592
357.433	10637
357.517	9609
357.602	7344
357.687	7011
357.771	18199
357.856	49946
357.941	24860
358.025	55106
358.110	159854
358.195	57270
358.279	11415
358.364	10790
358.448	33622
358.533	71757
358.617	48330
358.702	49023
358.787	18409
358.871	12144
358.956	9061
359.040	4636
359.125	4587
359.209	7780
359.294	31265
359.378	37444
359.462	11962
359.547	7760
359.631	7720
359.716	4086
359.800	6471
359.885	10663
359.969	4768
360.053	5256
360.138	6395
360.222	6990
360.306	11174
360.391	12020
360.475	32076
360.559	45703
360.644	31284
360.728	20394
360.812	48734
360.896	99267
360.981	43855
361.065	22447
361.149	9115
361.233	7809
361.318	6022
361.402	6865
361.486	7426
361.570	5148
361.654	7443
361.739	19031
361.823	79548
361.907	91817
361.991	17168
362.075	12530
362.159	21342
362.243	18807
362.327	25798
362.411	28335
362.495	15742
362.580	9548
362.664	8245
362.748	9143
362.832	12231
362.916	23577
363.000	61106
363.084	118842
363.168	117607
363.252	27532
363.336	14977
363.420	25198
363.503	94248
363.587	81393
363.671	14946
363.755	11290
363.839	14823
363.923	8796
364.007	16951
364.091	22313
364.175	52084
364.258	143519
364.342	103835
364.426	99892
364.510	49130
364.594	27759
364.677	34419
364.761	97778
364.845	54889
364.929	19965
365.013	15624
365.096	14666
365.180	17757
365.264	49297
365.347	127664
365.431	50864
365.515	14316
365.598	6812
365.682	8708
365.766	19492
365.849	19815
365.933	9840
366.017	14992
366.100	10580
366.184	6090
366.267	7438
366.351	5573
366.435	4908
366.518	4087
366.602	4356
366.685	5038
366.769	6366
366.852	14940
366.936	18647
367.019	9268
367.103	13917
367.186	22642
367.270	6283
367.353	3593
367.436	5484
367.520	4322
367.603	6634
367.687	7939
367.770	13032
367.853	10342
367.937	30797
368.020	36362
368.104	9866
368.187	11337
368.270	14598
368.353	12947
368.437	35007
368.520	83662
368.603	37579
368.687	37312
368.770	49851
368.853	13766
368.936	18473
369.020	19545
369.103	6881
369.186	5150
369.269	5642
369.352	10355
369.436	13861
369.519	9697
369.602	4538
369.685	8100
369.768	5378
369.851	6702
369.934	5110
370.018	7000
370.101	11126
370.184	11339
370.267	10372
370.350	14712
370.433	24808
370.516	55537
370.599	67871
370.682	27171
370.765	31377
370.848	43230
370.931	67639
371.014	28201
371.097	6619
371.180	6128
371.263	4449
371.346	3613
371.429	5547
371.511	5583
371.594	10077
371.677	18066
371.760	22516
371.843	18638
371.926	75394
372.009	120737
372.091	37052
372.174	37292
372.257	67027
372.340	25253
372.423	32861
372.505	36471
372.588	14308
372.671	27731
372.754	65084
372.836	32750
372.919	48739
373.002	74895
373.085	18898
373.167	14526
373.250	33499
373.332	65672
373.415	105022
373.498	167171
373.580	65503
373.663	121495
373.746	121840
373.828	26037
373.911	15086
373.993	24104
374.076	84550
374.159	67559
374.241	28925
374.324	57988
374.406	37251
374.489	68286
374.571	136157
374.654	47792
374.736	38064
374.819	95625
374.901	133792
374.983	113785
375.066	20330
375.148	18204
375.231	74798
375.313	111552
375.395	38239
375.478	9347
375.560	7969
375.643	11348
375.725	42613
375.807	125674
375.890	112485
375.972	64689
376.054	38933
376.136	67384
376.219	27162
376.301	44949
376.383	92903
376.465	32085
376.548	21356
376.630	35930
376.712	79262
376.794	30835
376.877	6277
376.959	4378
377.041	8183
377.123	21942
377.205	21329
377.287	4773
377.369	4165
377.452	4417
377.534	5518
377.616	4751
377.698	4843
377.780	3742
377.862	4613
377.944	5799
378.026	3659
378.108	5238
378.190	3829
378.272	4715
378.354	3761
378.436	4313
378.518	13333
378.600	35037
378.682	25897
378.764	38960
378.846	26664
378.928	11851
379.010	11993
379.091	7608
379.173	5423
379.255	3622
379.337	7389
379.419	25338
379.501	52476
379.583	20844
379.664	8966
379.746	17168
379.828	41255
379.910	51241
379.991	38776
380.073	7774
380.155	7385
380.237	5296
380.318	4454
380.400	5630
380.482	10684
380.564	14215
380.645	11201
380.727	10830
380.809	9295
380.890	6392
380.972	4698
381.053	6237
381.135	7905
381.217	18541
381.298	39612
381.380	19839
381.461	27302
381.543	90350
381.624	87251
381.706	18061
381.787	13334
381.869	15939
381.951	52694
382.032	137526
382.113	73056
382.195	18535
382.276	16030
382.358	33051
382.439	73451
382.521	93330
382.602	122432
382.684	64459
382.765	119016
382.846	146606
382.928	199579
383.009	109031
383.090	114049
383.172	342712
383.253	401323
383.334	147478
383.416	124790
383.497	64003
383.578	47826
383.659	102424
383.741	341311
383.822	620014
383.903	287319
383.984	110973
384.066	139794
384.147	77097
384.228	22594
384.309	17298
384.390	13079
384.471	11494
384.553	12690
384.634	16420
384.715	15006
384.796	10569
384.877	15279
384.958	40617
385.039	39188
385.120	15497
385.201	11372
385.282	16472
385.363	18634
385.444	15832
385.525	26722
385.606	63150
385.687	45145
385.768	18646
385.849	26256
385.930	77492
386.011	100807
386.092	27038
386.173	10978
386.254	11570
386.335	11720
386.416	14005
386.496	30538
386.577	40087
386.658	20415
386.739	14193
386.820	17309
386.901	14028
386.981	11431
387.062	9358
387.143	14655
387.224	40014
387.304	35380
387.385	17686
387.466	14463
387.547	18292
387.627	11708
387.708	24613
387.789	75495
387.869	74976
387.950	21142
388.031	9471
388.111	12046
388.192	31933
388.273	39662
388.353	20321
388.434	11344
388.514	23703
388.595	75212
388.676	74689
388.756	36324
388.837	35291
388.917	18873
388.998	6873
389.078	7530
389.159	6615
389.239	6247
389.320	10496
389.400	9002
389.480	25228
389.561	43177
389.641	18838
389.722	9687
389.802	13434
389.883	25586
389.963	52645
390.043	36961
390.124	18361
390.204	21047
390.284	43411
390.365	32257
390.445	68597
390.525	137087
390.605	96961
390.686	23270
390.766	9861
390.846	7565
390.927	6378
391.007	7050
391.087	8264
391.167	7621
391.247	7915
391.328	17869
391.408	24260
391.488	14921
391.568	5787
391.648	8744
391.728	10774
391.808	11111
391.888	13617
391.969	28288
392.049	36042
392.129	23948
392.209	29292
392.289	47650
392.369	33048
392.449	40841
392.529	23490
392.609	18866
392.689	26340
392.769	54317
392.849	45143
392.929	54407
393.009	94219
393.089	72705
393.169	102283
393.248	318494
393.328	771802
393.408	699376
393.488	230167
393.568	79584
393.648	42195
393.728	27360
393.807	21625
393.887	19123
393.967	17134
394.047	18906
394.127	22596
394.206	42557
394.286	160886
394.366	460092
394.446	413101
394.525	112623
394.605	35769
394.685	32537
394.764	63266
394.844	93578
394.924	58024
395.003	18001
395.083	12489
395.163	11527
395.242	11097
395.322	11868
395.402	10233
395.481	17327
395.561	47657
395.640	96524
395.720	81542
395.799	112187
395.879	81981
395.958	68355
396.038	231186
396.117	588952
396.197	547946
396.276	201841
396.356	80939
396.435	57970
396.515	40465
396.594	44017
396.673	91669
396.753	320395
396.832	686587
396.912	452121
396.991	116434
397.070	40651
397.150	24022
397.229	20112
397.308	28119
397.388	37669
397.467	20471
397.546	11160
397.625	8195
397.705	11265
397.784	9957
397.863	6595
397.942	6759
398.022	10243
398.101	41195
398.180	91436
398.259	44814
398.338	12424
398.417	8339
398.497	7170
398.576	7632
398.655	4412
398.734	5615
398.813	8428
398.892	40747
398.971	96208
399.050	40956
399.129	6371
399.208	5543
399.287	5039
399.366	4292
399.445	4992
399.524	5005
399.603	4662
399.682	9500
399.761	35338
399.840	102888
399.919	67423
399.998	10673
400.077	3257
400.156	3317
400.235	7016
400.313	5402
400.392	7735
400.471	23923
400.550	29364
400.629	9017
400.708	6627
400.786	10752
400.865	26274
400.944	23885
401.023	10537
401.102	2973
401.180	3295
401.259	5290
401.338	6046
401.416	7176
401.495	5927
401.574	7518
401.652	4789
401.731	6551
401.810	4649
401.888	3758
401.967	1827
402.046	3379
402.124	7686
402.203	7941
402.281	5810
402.360	11556
402.438	31518
402.517	20512
402.596	8355
402.674	7678
402.753	4943
402.831	4529
402.910	5280
402.988	9595
403.066	14833
403.145	9191
403.223	8359
403.302	11292
403.380	8375
403.459	6540
403.537	5431
403.615	4809
403.694	2630
403.772	4014
403.850	3480
403.929	3442
404.007	3159
404.085	6966
404.164	5799
404.242	12448
404.320	46935
404.398	100236
404.477	90713
404.555	125026
404.633	107204
404.711	70932
404.789	36856
404.868	9767
404.946	4818
405.024	4097
405.102	3064
405.180	2183
405.258	2359
405.336	4608
405.415	4594
405.493	9281
405.571	6343
405.649	2016
405.727	3415
405.805	6984
405.883	5505
405.961	8123
406.039	9443
406.117	3829
406.195	7603
406.273	32711
406.351	85556
406.429	49007
406.507	11412
406.585	4863
406.663	3858
406.740	5015
406.818	4467
406.896	3871
406.974	4364
407.052	11348
407.130	56007
407.208	61666
407.285	12617
407.363	2952
407.441	3296
407.519	3005
407.596	4989
407.674	11120
407.752	27167
407.830	33314
407.907	14620
407.985	4142
408.063	4133
408.141	3088
408.218	8803
408.296	5967
408.373	2771
408.451	3839
408.529	3542
408.606	2831
408.684	2103
408.762	2667
408.839	2052
408.917	1936
408.994	3257
409.072	2857
409.149	3202
409.227	6050
409.304	7647
409.382	6608
409.459	7408
409.537	10019
409.614	8562
409.692	7441
409.769	7589
409.846	10428
409.924	14631
410.001	9074
410.079	8121
410.156	6954
410.233	5345
410.311	4184
410.388	3758
410.465	4787
410.543	3933
410.620	4037
410.697	4272
410.775	3903
410.852	2262
410.929	6047
411.006	5920
411.083	4576
411.161	8416
411.238	10870
411.315	6736
411.392	3871
411.469	4918
411.547	4910
411.624	2908
411.701	3365
411.778	4707
411.855	7355
411.932	4517
412.009	2655
412.086	3506
412.163	4646
412.240	5279
412.317	7463
412.394	6195
412.471	3468
412.548	2051
412.625	2873
412.702	5443
412.779	8588
412.856	5283
412.933	3080
413.010	3072
413.087	6625
413.164	20186
413.241	23138
413.318	6535
413.395	5827
413.471	5559
413.548	3419
413.625	3466
413.702	3896
413.779	4049
413.855	2667
413.932	2268
414.009	1963
414.086	2527
414.162	3029
414.239	6512
414.316	22424
414.393	38463
414.469	12127
414.546	2532
414.623	2087
414.699	2088
414.776	1956
414.853	1580
414.929	2972
415.006	3222
415.082	5339
415.159	3923
415.236	2756
415.312	3183
415.389	5415
415.465	5200
415.542	3555
415.618	2448
415.695	4708
415.771	3250
415.848	3407
415.924	4239
416.000	2701
416.077	3090
416.153	1237
416.230	886
416.306	1736
416.383	2855
416.459	3060
416.535	1335
416.612	2462
416.688	2422
416.764	2543
416.841	1671
416.917	2580
416.993	2680
417.069	4628
417.146	7152
417.222	7942
417.298	4283
417.374	2082
417.451	3153
417.527	3115
417.603	2579
417.679	2047
417.755	2079
417.831	1376
417.908	1955
417.984	1330
418.060	2080
418.136	6028
418.212	6863
418.288	2987
418.364	2950
418.440	2278
418.516	6087
418.592	9892
418.668	12299
418.744	11779
418.820	8476
418.896	2676
418.972	1189
419.048	2742
419.124	6563
419.200	3308
419.276	1375
419.352	1702
419.428	1818
419.504	2449
419.579	3312
419.655	2119
419.731	3742
419.807	8743
419.883	13815
419.959	8675
420.034	5056
420.110	9983
420.186	26072
420.262	17780
420.337	5095
420.413	5046
420.489	2964
420.565	3453
420.640	2754
420.716	3536
420.792	1617
420.867	4227
420.943	2547
421.019	4645
421.094	4278
421.170	3482
421.245	2932
421.321	4487
421.397	4091
421.472	7903
421.548	14410
421.623	10779
421.699	6833
421.774	6610
421.850	7093
421.925	10878
422.001	9204
422.076	11256
422.152	13646
422.227	20246
422.302	26670
422.378	41204
422.453	77774
422.529	178187
422.604	375837
422.679	466590
422.755	295191
422.830	132275
422.905	64629
422.981	37367
423.056	25223
423.131	19029
423.207	14451
423.282	12730
423.357	14088
423.432	9770
423.508	11128
423.583	14469
423.658	11894
423.733	7479
423.808	8732
423.883	8068
423.959	7670
424.034	6206
424.109	5562
424.184	4291
424.259	3633
424.334	3822
424.409	2826
424.484	3626
424.559	3739
424.634	2652
424.709	3054
424.784	4212
424.859	4020
424.934	7471
425.009	18791
425.084	27107
425.159	10470
425.234	4017
425.309	4472
425.384	20181
425.459	24773
425.534	6858
425.609	3569
425.683	3076
425.758	2460
425.833	2441
425.908	4957
425.983	12956
426.058	27813
426.132	12733
426.207	5273
426.282	11102
426.357	8180
426.431	3257
426.506	3384
426.581	3929
426.655	3387
426.730	2965
426.805	1817
426.879	3858
426.954	3261
427.029	9255
427.103	35836
427.178	70134
427.253	28038
427.327	7633
427.402	17044
427.476	32746
427.551	13281
427.625	5330
427.700	6072
427.774	3452
427.849	5279
427.923	3467
427.998	3983
428.072	4166
428.147	12436
428.221	49145
428.296	102980
428.370	43627
428.444	9194
428.519	14021
428.593	26852
428.667	22682
428.742	27094
428.816	32115
428.890	91143
428.965	109619
429.039	40712
429.113	28060
429.188	10002
429.262	3412
429.336	7410
429.410	15621
429.485	13103
429.559	22963
429.633	16569
429.707	6879
429.781	25921
429.855	97548
429.930	109556
430.004	76533
430.078	115521
430.152	106285
430.226	152867
430.300	115938
430.374	20291
430.448	12265
430.522	46231
430.596	100547
430.670	63357
430.744	115777
430.818	120173
430.892	22462
430.966	4446
431.040	3287
431.114	2011
431.188	2657
431.262	2490
431.336	4470
431.410	14276
431.484	28103
431.557	15197
431.631	3364
431.705	5659
431.779	32745
431.853	94626
431.927	52079
432.000	6728
432.074	3194
432.148	6017
432.222	3730
432.295	2112
432.369	1912
432.443	7644
432.516	40633
432.590	73013
432.664	25042
432.737	4489
432.811	1059
432.885	573
432.958	2097
433.032	599
433.106	719
433.179	775
433.253	434
433.326	924
433.400	762
433.473	904
433.547	908
433.620	1821
433.694	3840
433.767	5054
433.841	2334
433.914	2346
433.988	1531
434.061	1790
434.134	1631
434.208	479
434.281	192
434.355	1788
434.428	2442
434.501	2047
434.575	1462
434.648	1728
434.721	1132
434.795	1520
434.868	1335
434.941	1109
435.014	933
435.088	1700
435.161	3614
435.234	4641
435.307	4244
435.381	3904
435.454	3389
435.527	4270
435.600	4425
435.673	4854
435.746	3561
435.819	2868
435.892	2680
435.966	2063
436.039	2893
436.112	3159
436.185	1540
436.258	1380
436.331	685
436.404	776
436.477	989
436.550	1263
436.623	1717
436.696	775
436.769	1519
436.842	1590
436.915	2474
436.987	2920
437.060	1230
437.133	1642
437.206	1283
437.279	1873
437.352	1177
437.425	1385
437.498	2262
437.570	4390
437.643	3723
437.716	1597
437.789	1337
437.861	4141
437.934	9768
438.007	3824
438.080	1189
438.152	2878
438.225	8963
438.298	52668
438.370	103472
438.443	36371
438.516	8787
438.588	1915
438.661	742
438.734	1526
438.806	2035
438.879	2939
438.951	3207
439.024	4842
439.096	2339
439.169	951
439.241	1132
439.314	2765
439.386	4783
439.459	8338
439.531	10425
439.604	3225
439.676	1552
439.749	14
439.821	967
439.893	1839
439.966	2016
440.038	2346
440.110	3247
440.183	1345
440.255	1241
440.327	4235
440.400	24634
440.472	69007
440.544	36219
440.617	6189
440.689	5034
440.761	6210
440.833	8934
440.905	5478
440.978	1152
441.050	1194
441.122	1022
441.194	1284
441.266	2300
441.338	1411
441.411	5676
441.483	20777
441.555	23706
441.627	7327
441.699	7288
441.771	7451
441.843	3197
441.915	1852
441.987	1425
442.059	2006
442.131	3866
442.203	6791
442.275	7487
442.347	7255
442.419	14321
442.491	62442
442.563	104936
442.635	44128
442.706	31364
442.778	19642
442.850	4380
442.922	2679
442.994	5230
443.066	6477
443.137	6009
443.209	5457
443.281	8711
443.353	22549
443.425	85450
443.496	203220
443.568	164342
443.640	56691
443.711	13466
443.783	6886
443.855	4233
443.926	3315
443.998	4380
444.070	5775
444.141	4317
444.213	3425
444.285	6392
444.356	6956
444.428	6890
444.499	2853
444.571	1428
444.642	2283
444.714	2936
444.785	5323
444.857	10594
444.928	22970
445.000	13969
445.071	17879
445.143	17537
445.214	10457
445.285	22250
445.357	66984
445.428	173050
445.500	272117
445.571	174414
445.642	86744
445.714	43210
445.785	37183
445.856	11485
445.928	6701
445.999	6163
446.070	4531
446.141	4702
446.213	4695
446.284	3045
446.355	5661
446.426	3701
446.497	3206
446.569	7832
446.640	8085
446.711	4589
446.782	3378
446.853	6331
446.924	4993
446.995	2631
447.066	4357
447.138	8980
447.209	4116
447.280	921
447.351	1417
447.422	1615
447.493	3533
447.564	3164
447.635	3362
447.706	1749
447.777	1032
447.847	1304
447.918	2281
447.989	4646
448.060	7681
448.131	16867
448.202	10136
448.273	5647
448.344	3042
448.414	2256
448.485	1794
448.556	1547
448.627	1982
448.698	1419
448.768	829
448.839	3004
448.910	7879
448.981	7171
449.051	2086
449.122	1015
449.193	811
449.263	1394
449.334	1352
449.405	2890
449.475	5378
449.546	5228
449.616	9893
449.687	7660
449.758	1902
449.828	1758
449.899	561
449.969	978
450.040	1061
450.110	3285
450.181	3288
450.251	1491
450.322	1246
450.392	1850
450.463	2334
450.533	1812
450.604	2588
450.674	2320
450.744	1624
450.815	922
450.885	1995
450.955	2305
451.026	1580
451.096	1624
451.166	2971
451.237	12740
451.307	25044
451.377	8953
451.447	1689
451.518	816
451.588	2099
451.658	3252
451.728	7600
451.799	29368
451.869	27061
451.939	6050
452.009	2161
452.079	1876
452.149	3508
452.219	10352
452.289	32872
452.360	20984
452.430	4687
452.500	3561
452.570	4692
452.640	8351
452.710	25052
452.780	31662
452.850	16600
452.920	10048
452.990	5117
453.060	5098
453.129	5276
453.199	8763
453.269	42320
453.339	71132
453.409	100003
453.479	111928
453.549	158105
453.619	154859
453.688	56220
453.758	9707
453.828	5322
453.898	3686
453.968	3025
454.037	2871
454.087	3266
454.107	3400
454.168	2506
454.177	2345
454.247	2024
454.249	2079
454.316	2296
454.330	3016
454.386	5118
454.411	9716
454.456	16705
454.492	19161
454.525	21460
454.574	11320
454.595	7006
454.655	3393
454.665	2856
454.734	5986
454.736	6286
454.804	11114
454.817	15516
454.873	31010
454.898	31582
454.943	32266
454.979	22359
455.013	14202
455.060	8911
455.082	6902
455.141	10113
455.152	10413
455.221	27586
455.222	28039
455.291	40397
455.303	38658
455.360	31200
455.384	36098
455.430	41379
455.465	33759
455.499	27076
455.546	29214
455.569	29256
455.627	17251
455.638	15470
455.707	5174
455.708	5208
455.777	3864
455.789	4044
455.846	4578
455.869	4163
455.916	3412
455.950	3910
455.985	4221
456.031	4016
456.054	3886
456.112	3914
456.124	3959
456.193	4103
456.193	4059
456.262	5824
456.274	6230
456.332	7556
456.355	8005
456.401	7762
456.436	6373
456.470	5349
456.516	4078
456.540	3475
456.597	3752
456.609	3834
456.678	3608
456.678	3577
456.747	3418
456.759	3415
456.817	3393
456.840	3492
456.886	3670
456.920	3769
456.955	4122
457.001	5015
457.024	5613
457.082	7346
457.093	7627
457.162	10727
457.163	10798
457.232	10836
457.243	10030
457.301	6637
457.324	5588
457.370	4479
457.405	4628
457.439	4660
457.485	4509
457.508	4567
457.566	5790
457.577	6092
457.646	7742
457.647	7801
457.715	11509
457.727	12260
457.784	16329
457.808	19711
457.853	23826
457.889	26021
457.922	25950
457.969	20732
457.991	20822
458.050	24663
458.060	25289
458.129	37923
458.130	38279
458.198	35457
458.211	31979
458.267	19192
458.292	14867
458.336	12369
458.372	12934
458.405	16491
458.453	22944
458.474	26558
458.533	41278
458.543	42229
458.611	58824
458.614	58958
458.680	37121
458.694	30400
458.749	16522
458.775	13300
458.818	9994
458.855	8433
458.887	7623
458.936	7696
458.955	7725
459.016	7730
459.024	7769
459.093	8211
459.097	8289
459.162	8336
459.177	8195
459.230	8182
459.257	8767
459.299	9516
459.338	9554
459.368	9616
459.418	10384
459.437	10041
459.499	7563
459.505	7515
459.574	7834
459.579	7897
459.643	7680
459.659	7709
459.711	8471
459.740	8922
459.780	9409
459.820	9857
459.849	10369
459.900	11299
459.917	11105
459.981	10890
459.986	10894
460.054	10632
460.061	10611
460.123	10465
460.141	10462
460.191	11641
460.222	12366
460.260	12257
460.302	12584
460.328	12240
460.382	10930
460.397	10880
460.462	10868
460.465	11049
460.534	15904
460.543	16507
460.602	27637
460.623	32285
460.671	45681
460.703	57607
460.739	48668
460.783	31588
460.808	27350
460.864	12535
460.876	11159
460.944	9684
460.945	9658
461.013	9747
461.024	9725
461.081	9783
461.104	9922
461.150	9635
461.184	9416
461.218	9482
461.264	9227
461.286	9292
461.345	10198
461.355	10301
461.423	10302
461.425	10311
461.491	13184
461.505	13892
461.559	27413
461.585	33744
461.628	46859
461.665	60356
461.696	60698
461.745	64232
461.764	56425
461.825	18343
461.832	17617
461.901	12264
461.905	12230
461.969	10582
461.985	10220
462.037	11146
462.065	11714
462.105	15010
462.145	18236
462.173	23617
462.225	34170
462.241	36880
462.305	50860
462.310	49270
462.378	21478
462.385	17793
462.446	12440
462.465	11676
462.514	11307
462.545	11651
462.582	11891
462.625	11987
462.650	11717
462.705	10947
462.718	11633
462.785	15366
462.786	15464
462.854	21213
462.865	22230
462.922	24704
462.945	25807
462.990	19185
463.025	12620
463.058	11737
463.104	10954
463.126	10610
463.184	10385
463.194	10593
463.262	11820
463.264	11866
463.330	13016
463.344	13239
463.398	14583
463.424	15192
463.466	14749
463.504	14485
463.533	14698
463.583	14631
463.601	15199
463.663	17094
463.669	17585
463.737	23600
463.743	24144
463.805	39641
463.823	44125
463.873	63603
463.903	76210
463.940	73733
463.982	71638
464.008	57421
464.062	21936
464.076	20516
464.142	13939
464.144	13882
464.211	13711
464.221	13730
464.279	14001
464.301	14125
464.347	15600
464.381	16811
464.414	19493
464.461	23005
464.482	23108
464.540	23687
464.550	23179
464.617	18573
464.620	18395
464.685	18478
464.699	18504
464.753	22019
464.779	23781
464.820	26078
464.859	28214
464.888	27711
464.938	26652
464.956	26948
465.018	27912
465.023	27586
465.091	22360
465.098	21809
465.158	22058
465.177	22175
465.226	21507
465.257	20945
465.293	21253
465.336	21550
465.361	23071
465.416	26432
465.428	29666
465.495	46943
465.496	47172
465.563	70837
465.575	74987
465.631	81123
465.654	83766
465.698	51692
465.734	23320
465.765	21727
465.813	19831
465.833	19551
465.893	19463
465.900	19418
465.968	18815
465.972	18735
466.035	18615
466.052	18577
466.102	19342
466.131	19684
466.170	19308
466.210	18823
466.237	19034
466.290	19413
466.304	19657
466.369	20565
466.372	20615
466.439	20900
466.449	20916
466.506	25166
466.528	26710
466.573	41954
466.607	53328
466.641	71420
466.687	96414
466.708	101194
466.766	114400
466.775	104938
466.842	31573
466.845	28037
466.909	23570
466.925	22614
466.977	22104
467.004	21890
467.044	24208
467.083	26410
467.111	28921
467.163	33507
467.178	34041
467.242	35934
467.245	35846
467.312	32541
467.321	32039
467.379	32813
467.400	32998
467.446	36459
467.480	38834
467.559	31957
467.638	29269
467.717	30939
467.796	31540
467.875	33185
467.955	35833
468.034	65987
468.113	119268
468.192	154770
468.271	35702
468.350	31326
468.429	32969
468.508	33036
468.588	30409
468.667	31671
468.746	33397
468.825	30127
468.904	26637
468.983	37680
469.062	51339
469.141	55329
469.220	26644
469.299	27997
469.378	30668
469.456	36536
469.535	31205
469.614	31139
469.693	36374
469.772	44140
469.851	59513
469.930	34634
470.009	28675
470.088	29583
470.166	32467
470.245	40083
470.324	43497
470.403	35623
470.482	30127
470.560	29103
470.639	28774
470.718	31170
470.797	28788
470.875	35639
470.954	46072
471.033	45053
471.111	24465
471.190	24383
471.269	22948
471.347	23974
471.426	26634
471.505	31006
471.583	30852
471.662	28959
471.740	26699
471.819	26441
471.898	26243
471.976	26423
472.055	25388
472.133	30949
472.212	38610
472.290	38247
472.369	24591
472.447	25026
472.526	23131
472.604	25698
472.683	23896
472.761	24294
472.839	24286
472.918	24180
472.996	26833
473.075	30986
473.153	27781
473.231	25743
473.310	28230
473.388	26414
473.466	27333
473.545	28366
473.623	32986
473.701	29093
473.780	24555
473.858	24323
473.936	27319
474.014	24144
474.093	29794
474.171	42831
474.249	59186
474.327	31230
474.405	22156
474.484	23148
474.562	21466
474.640	22831
474.718	24377
474.796	23367
474.874	20987
474.952	20287
475.030	20122
475.108	20950
475.187	21480
475.265	20423
475.343	23010
475.421	25741
475.499	22511
475.577	25934
475.655	39496
475.733	75558
475.811	120363
475.889	105121
475.966	51434
476.044	23299
476.122	23989
476.200	25529
476.278	22642
476.356	23584
476.434	24589
476.512	24752
476.590	27082
476.667	25987
476.745	21997
476.823	24856
476.901	23373
476.979	25248
477.056	24960
477.134	26914
477.212	26120
477.290	23645
477.367	21949
477.445	22610
477.523	22259
477.601	22780
477.678	23976
477.756	29493
477.834	30458
477.911	22242
477.989	23525
478.066	22342
478.144	25582
478.222	22519
478.299	21462
478.377	22083
478.454	21261
478.532	19907
478.609	20838
478.687	23122
478.764	20590
478.842	22724
478.919	22712
478.997	21566
479.074	21777
479.152	27807
479.229	33396
479.307	20646
479.384	19290
479.461	20941
479.539	22096
479.616	27191
479.694	21354
479.771	25965
479.848	28728
479.926	36451
480.003	33884
480.080	21582
480.157	19536
480.235	19430
480.312	20875
480.389	27732
480.467	43741
480.544	47983
480.621	24854
480.698	24559
480.775	27667
480.853	27486
480.930	22804
481.007	23486
481.084	27697
481.161	28730
481.238	26100
481.315	21508
481.392	21311
481.470	21890
481.547	24217
481.624	21854
481.701	20953
481.778	21709
481.855	27577
481.932	43101
482.009	66519
482.086	34139
482.163	21589
482.240	21281
482.317	22734
482.393	22495
482.470	22450
482.547	22701
482.624	21571
482.701	23334
482.778	21049
482.855	19323
482.932	18906
483.009	19004
483.085	22051
483.162	24617
483.239	23843
483.316	20326
483.393	20111
483.469	22035
483.546	25289
483.623	26423
483.699	20936
483.776	23845
483.853	26750
483.930	46799
484.006	106173
484.083	156023
484.160	75523
484.236	102136
484.313	74278
484.389	60729
484.466	54376
484.543	53445
484.619	53876
484.696	57288
484.772	60568
484.849	62462
484.925	50985
485.002	51166
485.078	52380
485.155	52119
485.231	48525
485.308	47093
485.384	50621
485.461	68905
485.537	107821
485.614	108222
485.690	48132
485.766	46646
485.843	47730
485.919	55494
485.995	52081
486.072	42795
486.148	41126
486.224	43106
486.301	46013
486.377	52037
486.453	50461
486.530	52951
486.606	66269
486.682	72873
486.758	90776
486.835	98391
486.911	85163
486.987	129362
487.063	96296
487.139	96303
487.215	73666
487.292	52330
487.368	49127
487.444	54762
487.520	59068
487.596	59007
487.672	90569
487.748	174306
487.824	222682
487.900	97664
487.976	59842
488.052	56530
488.128	57499
488.204	50109
488.280	46732
488.356	66263
488.432	127601
488.508	161143
488.584	50836
488.660	40685
488.736	40637
488.812	42885
488.888	51000
488.964	61509
489.039	100498
489.115	123947
489.191	69922
489.267	43717
489.343	41513
489.418	37251
489.494	36153
489.570	34960
489.646	36316
489.722	36647
489.797	40885
489.873	74586
489.949	139226
490.024	87927
490.100	35018
490.176	36250
490.251	38627
490.327	44619
490.403	31632
490.478	32818
490.554	29267
490.629	31267
490.705	29341
490.781	33656
490.856	32503
490.932	36948
491.007	33334
491.083	34734
491.158	34732
491.234	57254
491.309	108233
491.385	85467
491.460	34231
491.536	36105
491.611	29425
491.686	32797
491.762	40636
491.837	68591
491.913	105468
491.988	139298
492.063	135454
492.139	66984
492.214	44016
492.289	27076
492.365	28493
492.440	32172
492.515	33574
492.590	33470
492.666	28384
492.741	42806
492.816	58716
492.891	30543
492.967	25203
493.042	24430
493.117	25937
493.192	28369
493.267	53790
493.342	123711
493.418	125597
493.493	28567
493.568	23187
493.643	25609
493.718	34791
493.793	46731
493.868	38886
493.943	25007
494.018	26159
494.093	24091
494.168	25684
494.243	22820
494.318	22444
494.393	22073
494.468	21692
494.543	20900
494.618	25103
494.693	23401
494.768	24154
494.842	23045
494.917	20566
494.992	23813
495.067	21758
495.142	21526
495.217	22954
495.292	23317
495.366	27096
495.441	31013
495.516	36103
495.591	53867
495.665	137270
495.740	236240
495.815	77247
495.890	33258
495.964	29079
496.039	32046
496.114	28552
496.188	30119
496.263	30120
496.338	28928
496.412	35416
496.487	37447
496.561	34523
496.636	34962
496.710	31195
496.785	34201
496.860	39251
496.934	29000
497.009	29658
497.083	28082
497.158	31526
497.232	37292
497.307	40957
497.381	34148
497.455	44726
497.530	53943
497.604	33145
497.679	39246
497.753	61550
497.827	64293
497.902	46314
497.976	73361
498.050	259051
498.125	764060
498.199	518441
498.273	60157
498.348	42394
498.422	39525
498.496	40331
498.570	37354
498.645	32737
498.719	36634
498.793	47782
498.867	77785
498.941	122959
499.016	388067
499.090	755832
499.164	162457
499.238	33491
499.312	32433
499.386	36981
499.460	35899
499.534	36274
499.609	46602
499.683	64492
499.757	67209
499.831	198242
499.905	590263
499.979	371204
500.053	79967
500.127	69264
500.201	43327
500.275	33960
500.349	33826
500.422	38288
500.496	54849
500.570	124549
500.644	356294
500.718	510705
500.792	77239
500.866	38962
500.940	51096
501.013	37728
501.087	38797
501.161	56693
501.235	88160
501.309	245905
501.382	562180
501.456	324320
501.530	109764
501.603	170159
501.677	50722
501.751	30013
501.825	41410
501.898	98563
501.972	224387
502.046	95105
502.119	45646
502.193	117021
502.266	228843
502.340	88432
502.413	126553
502.487	196696
502.561	99616
502.634	31911
502.708	27880
502.781	24035
502.855	24597
502.928	22156
503.002	23346
503.075	23172
503.149	25634
503.222	26475
503.295	28313
503.369	34997
503.442	61692
503.516	210817
503.589	415861
503.662	208961
503.736	92958
503.809	200316
503.882	143901
503.956	232700
504.029	155311
504.102	103415
504.175	113429
504.249	54464
504.322	43001
504.395	33363
504.468	25859
504.542	25372
504.615	19946
504.688	18721
504.761	19309
504.834	23185
504.907	25832
504.980	31665
505.053	22478
505.127	24308
505.200	33475
505.273	36929
505.346	22122
505.419	18681
505.492	18739
505.565	15250
505.638	17142
505.711	16700
505.784	17286
505.857	16395
505.930	20649
506.003	17742
506.076	21950
506.149	30095
506.221	31778
506.294	35230
506.367	115158
506.440	282877
506.513	95330
506.586	35028
506.659	19580
506.731	18254
506.804	23661
506.877	27155
506.950	20705
507.022	18780
507.095	27577
507.168	26898
507.241	17190
507.313	15335
507.386	18595
507.459	21547
507.531	16002
507.604	15604
507.677	16376
507.749	13894
507.822	23385
507.894	38786
507.967	40582
508.040	27413
508.112	25399
508.185	23498
508.257	22720
508.330	28522
508.402	24578
508.475	25549
508.547	26006
508.620	29955
508.692	41905
508.765	24335
508.837	20877
508.909	20372
508.982	20138
509.054	21113
509.127	20676
509.199	20333
509.271	19020
509.344	19512
509.416	19190
509.488	20458
509.560	20473
509.633	22172
509.705	24272
509.777	25522
509.849	30226
509.922	25975
509.994	24519
510.066	25241
510.138	29621
510.210	46587
510.283	39289
510.355	32475
510.427	28827
510.499	27431
510.571	26210
510.643	25616
510.715	34527
510.787	27179
510.859	28386
510.931	31350
511.003	33320
511.076	29924
511.148	25828
511.219	31718
511.291	50231
511.363	46545
511.435	26981
511.507	24235
511.579	25074
511.651	24793
511.723	23257
511.795	22220
511.867	24455
511.939	35366
512.010	63967
512.082	38648
512.154	22666
512.226	24829
512.298	37677
512.369	42139
512.441	34697
512.513	31939
512.585	27086
512.656	28504
512.728	28839
512.800	25356
512.871	25396
512.943	23401
513.015	21016
513.086	23900
513.158	24390
513.230	25766
513.301	32047
513.373	31456
513.444	23513
513.516	21977
513.588	21704
513.659	22719
513.731	25597
513.802	24812
513.874	44054
513.945	52197
514.016	24505
514.088	22502
514.159	24460
514.231	31551
514.302	38133
514.374	31786
514.445	37187
514.516	67998
514.588	40633
514.659	36988
514.730	57438
514.802	33192
514.873	23032
514.944	23112
515.016	25180
515.087	27760
515.158	45035
515.229	48390
515.301	20709
515.372	23480
515.443	21260
515.514	21668
515.585	20212
515.656	21294
515.728	21674
515.799	21164
515.870	22516
515.941	24106
516.012	25749
516.083	33419
516.154	33586
516.225	35829
516.296	35323
516.367	32731
516.438	34973
516.509	42900
516.580	70765
516.651	231194
516.722	550560
516.793	169064
516.864	62528
516.935	59111
517.006	65819
517.077	90897
517.148	228565
517.219	797784
517.289	862823
517.360	326642
517.431	87901
517.502	41004
517.573	39480
517.643	39471
517.714	44665
517.785	44266
517.856	45407
517.926	51917
517.997	55061
518.068	61473
518.138	80447
518.209	154829
518.280	619949
518.350	1417777
518.421	393451
518.492	73417
518.562	56096
518.633	56113
518.703	57179
518.774	93735
518.845	166845
518.915	132199
518.986	63538
519.056	53699
519.127	73159
519.197	129496
519.268	308488
519.338	134304
519.408	45583
519.479	42638
519.549	32554
519.620	27632
519.690	24587
519.760	25744
519.831	25371
519.901	24360
519.971	25491
520.042	27922
520.112	32376
520.182	31828
520.253	32039
520.323	31535
520.393	53465
520.463	63758
520.534	61674
520.604	96346
520.674	39921
520.744	53006
520.814	118306
520.885	79195
520.955	143322
521.025	346746
521.095	83621
521.165	29755
521.235	27272
521.305	24756
521.375	21660
521.445	24677
521.515	26732
521.585	30297
521.655	25637
521.725	25917
521.795	26058
521.865	23787
521.935	40628
522.005	28791
522.075	21206
522.145	24157
522.215	29590
522.285	41006
522.355	61421
522.424	104562
522.494	70373
522.564	35064
522.634	62755
522.704	110433
522.774	36005
522.843	22739
522.913	22568
522.983	24441
523.053	20695
523.122	22411
523.192	30173
523.262	73599
523.331	49116
523.401	21104
523.471	18738
523.540	19671
523.610	16574
523.680	17537
523.749	20066
523.819	26850
523.888	23523
523.958	19136
524.027	20426
524.097	21143
524.166	20498
524.236	19324
524.305	22418
524.375	18020
524.444	17966
524.514	21530
524.583	23241
524.653	28039
524.722	30181
524.791	20448
524.861	21044
524.930	17087
524.999	20256
525.069	24967
525.138	25943
525.207	29603
525.277	20832
525.346	20574
525.415	20655
525.484	22008
525.554	27853
525.623	25672
525.692	24327
525.761	24842
525.830	25762
525.900	30122
525.969	45405
526.038	67210
526.107	143312
526.176	319665
526.245	216516
526.314	93911
526.383	189034
526.452	223842
526.522	396313
526.591	301877
526.660	86667
526.729	48579
526.797	59762
526.867	140135
526.935	458641
527.004	720170
527.073	303306
527.142	48261
527.211	29896
527.280	28203
527.349	24301
527.418	17755
527.487	21210
527.555	17466
527.624	16797
527.693	15738
527.762	18081
527.831	15025
527.899	17132
527.968	16562
528.037	15175
528.106	20121
528.174	29232
528.243	28470
528.312	43706
528.380	37550
528.449	17977
528.518	16264
528.586	13674
528.655	15814
528.723	15147
528.792	15355
528.861	17111
528.929	15087
528.998	16510
529.066	17551
529.135	21281
529.203	20394
529.272	25848
529.340	27232
529.409	27165
529.477	25847
529.545	33441
529.614	34481
529.682	43839
529.751	43401
529.819	47934
529.887	37894
529.956	32748
530.024	30916
530.092	29257
530.161	31219
530.229	36480
530.297	31253
530.365	31076
530.434	31544
530.502	30858
530.570	29970
530.638	26901
530.707	27560
530.775	28528
530.843	26773
530.911	28512
530.979	27973
531.047	31892
531.115	31316
531.183	28401
531.252	28612
531.320	29202
531.388	26693
531.456	30584
531.524	29202
531.592	32736
531.660	35841
531.728	30845
531.796	29948
531.864	31524
531.932	32494
532.000	31946
532.067	34338
532.135	36140
532.203	39694
532.271	43167
532.339	55784
532.407	78219
532.475	50299
532.542	41532
532.610	41844
532.678	55627
532.746	146816
532.814	199959
532.881	60782
532.949	38863
533.017	35982
533.084	34106
533.152	32441
533.220	33562
533.287	34140
533.355	34350
533.423	33381
533.490	34839
533.558	34900
533.625	35331
533.693	34646
533.761	34580
533.828	35870
533.896	39204
533.963	56076
534.031	59663
534.098	62155
534.166	44005
534.233	40368
534.300	42218
534.368	40887
534.435	38256
534.503	38029
534.570	42987
534.637	36364
534.705	37431
534.772	41314
534.840	63604
534.907	186133
534.974	160440
535.041	41732
535.109	37065
535.176	29069
535.243	28361
535.310	28373
535.378	27001
535.445	25680
535.512	26094
535.579	25869
535.646	26004
535.714	27979
535.781	31068
535.848	32600
535.915	38977
535.982	41407
536.049	38939
536.116	36384
536.183	32511
536.250	30525
536.317	29297
536.384	32048
536.451	34695
536.518	33108
536.585	29809
536.652	35783
536.719	38084
536.786	29138
536.853	26429
536.920	38625
536.987	44242
537.053	47644
537.120	131517
537.187	69971
537.254	24434
537.321	23940
537.388	23855
537.454	21281
537.521	21406
537.588	20223
537.654	25085
537.721	25124
537.788	23574
537.855	22035
537.921	23413
537.988	22637
538.055	22260
538.121	20682
538.188	22021
538.254	29505
538.321	39085
538.388	25015
538.454	21057
538.521	21665
538.587	20247
538.654	20079
538.720	19943
538.787	20457
538.853	22487
538.920	25877
538.986	26391
539.053	21292
539.119	21861
539.185	20448
539.252	25124
539.318	28292
539.385	26998
539.451	24033
539.517	24476
539.583	28121
539.650	56733
539.716	79419
539.782	25862
539.849	19242
539.915	21607
539.981	20916
540.047	22979
540.114	21602
540.180	22321
540.246	20880
540.312	27253
540.378	41410
540.444	37019
540.510	53885
540.576	86261
540.643	27369
540.709	19035
540.775	20841
540.841	22051
540.907	33323
540.973	46961
541.039	30989
541.105	26555
541.171	21409
541.237	20852
541.303	21533
541.369	24205
541.435	27746
541.500	35280
541.566	21411
541.632	19124
541.698	17233
541.764	19824
541.830	17795
541.896	18144
541.961	19272
542.027	19308
542.093	19696
542.159	21543
542.224	23372
542.290	30509
542.356	37638
542.421	33167
542.487	23178
542.553	21471
542.618	23446
542.684	19750
542.750	19566
542.815	24697
542.881	41612
542.947	91894
543.012	42146
543.078	18857
543.143	18415
543.209	19702
543.274	20171
543.340	23670
543.405	45294
543.471	44348
543.536	19966
543.602	20488
543.667	18652
543.732	20622
543.798	18971
543.863	20146
543.928	17611
543.994	18788
544.059	18243
544.124	18887
544.190	17881
544.255	20168
544.320	18570
544.386	19079
544.451	24235
544.516	24978
544.581	29753
544.646	71553
544.712	65426
544.777	25950
544.842	27250
544.907	27466
544.972	22862
545.037	24313
545.102	25808
545.168	24583
545.233	26367
545.298	28091
545.363	31141
545.428	32640
545.493	48995
545.558	67591
545.623	32329
545.688	25226
545.753	26371
545.818	26335
545.883	27551
545.947	27189
546.012	28998
546.077	28675
546.142	27790
546.207	27662
546.272	31923
546.337	30951
546.401	29302
546.466	29194
546.531	27116
546.596	31148
546.661	29270
546.725	29544
546.790	28714
546.855	30044
546.919	29752
546.984	34071
547.049	35565
547.113	42236
547.178	38684
547.243	45753
547.307	50435
547.372	57597
547.436	56373
547.501	50549
547.565	52719
547.630	54109
547.695	53496
547.759	61700
547.823	53810
547.888	48638
547.952	49373
548.017	54733
548.081	60072
548.146	68341
548.210	59896
548.274	56019
548.339	52108
548.403	50548
548.468	45973
548.532	48751
548.596	48349
548.660	49491
548.725	55581
548.789	62952
548.853	60516
548.917	56389
548.982	70178
549.046	59035
549.110	45827
549.174	46282
549.238	51321
549.303	52355
549.367	54797
549.431	52842
549.495	48770
549.559	51523
549.623	57939
549.687	64780
549.751	68007
549.815	72085
549.879	68978
549.943	67360
550.007	71379
550.071	70605
550.135	68828
550.199	63728
550.263	61443
550.327	66737
550.391	75388
550.455	68080
550.519	69310
550.582	74543
550.646	87432
550.710	84553
550.774	78433
550.838	80846
550.901	82131
550.965	87271
551.029	92687
551.093	103375
551.156	126306
551.220	186989
551.284	160260
551.347	120350
551.411	188716
551.475	145012
551.538	87364
551.602	79238
551.666	74024
551.729	70476
551.793	71376
551.856	69544
551.920	68869
551.983	69032
552.047	67484
552.110	67976
552.174	68712
552.237	69111
552.301	64702
552.364	63487
552.428	62809
552.491	65127
552.554	64819
552.618	66927
552.681	68257
552.745	70893
552.808	88105
552.871	96015
552.934	76464
552.998	70683
553.061	69738
553.124	66177
553.187	64642
553.251	65913
553.314	68659
553.377	70717
553.440	89276
553.503	169378
553.567	164554
553.630	74866
553.693	69106
553.756	69502
553.819	66654
553.882	65472
553.945	65948
554.008	64325
554.071	63600
554.134	65955
554.197	61692
554.260	61913
554.323	65481
554.386	65011
554.449	65477
554.512	66004
554.575	63349
554.638	63986
554.701	62604
554.764	61440
554.827	60229
554.889	57114
554.952	55893
555.015	54961
555.078	54280
555.141	57045
555.203	54960
555.266	56005
555.329	54888
555.391	52410
555.454	53258
555.517	52054
555.580	48099
555.642	48786
555.705	49000
555.768	49106
555.830	47360
555.893	45030
555.955	43538
556.018	45912
556.080	43294
556.143	45032
556.206	45111
556.268	45805
556.330	45605
556.393	43595
556.455	45678
556.518	59397
556.580	49323
556.643	38882
556.705	38943
556.767	38695
556.830	39135
556.892	42051
556.955	46973
557.017	39823
557.079	37974
557.142	36788
557.204	40216
557.266	54179
557.328	41080
557.391	33971
557.453	32646
557.515	33985
557.577	37635
557.639	35936
557.701	33567
557.764	33331
557.826	34789
557.888	37407
557.950	36124
558.012	40517
558.074	56114
558.136	130399
558.198	220225
558.260	72843
558.322	43480
558.384	42639
558.446	45339
558.508	49702
558.570	58479
558.632	80602
558.694	100400
558.756	165010
558.818	525273
558.880	828610
558.942	251498
559.003	243667
559.065	97334
559.127	53733
559.189	52599
559.251	60767
559.312	95779
559.374	265593
559.436	616003
559.498	212440
559.559	57510
559.621	52166
559.683	65337
559.744	125427
559.806	370230
559.868	362737
559.929	78216
559.991	61552
560.052	105828
560.114	233696
560.176	123083
560.237	160615
560.299	181906
560.360	46021
560.422	31650
560.483	29412
560.545	28386
560.606	28702
560.667	26922
560.729	26231
560.790	24988
560.852	26964
560.913	26419
560.974	25800
561.036	25489
561.097	25418
561.158	25116
561.220	24937
561.281	24723
561.342	25523
561.403	27785
561.465	33577
561.526	56609
561.587	50498
561.648	25880
561.709	25335
561.771	24349
561.832	24847
561.893	23115
561.954	23747
562.015	23086
562.076	23572
562.137	24188
562.198	23613
562.259	23756
562.320	23829
562.381	25149
562.442	28712
562.503	24992
562.564	22545
562.625	22057
562.686	24602
562.747	23182
562.808	24887
562.869	25182
562.930	30440
562.991	27633
563.051	26399
563.112	24393
563.173	24894
563.234	22780
563.294	23197
563.355	22593
563.416	23576
563.477	23449
563.537	23918
563.598	24652
563.659	24692
563.720	24156
563.780	24667
563.841	24677
563.901	24825
563.962	22793
564.023	23887
564.083	23663
564.144	23845
564.204	23894
564.265	26405
564.325	32836
564.386	60596
564.446	39595
564.507	22550
564.567	22217
564.628	21991
564.688	21525
564.749	22887
564.809	28378
564.869	28936
564.930	21744
564.990	21892
565.050	21274
565.111	21418
565.171	21129
565.231	21762
565.292	21192
565.352	20839
565.412	22798
565.472	22351
565.532	22571
565.593	20351
565.653	19965
565.713	22125
565.773	22324
565.833	24367
565.893	26995
565.953	21787
566.013	20809
566.074	23939
566.134	33805
566.194	50742
566.254	41537
566.314	28247
566.374	21346
566.434	23225
566.494	22255
566.554	22007
566.614	21014
566.673	22469
566.733	22678
566.793	22192
566.853	23372
566.913	22334
566.973	21794
567.033	23985
567.092	23143
567.152	23297
567.212	23090
567.272	24068
567.331	24478
567.391	23007
567.451	26892
567.511	37020
567.570	31470
567.630	22099
567.690	21034
567.749	21683
567.809	21280
567.868	21814
567.928	22591
567.988	23511
568.047	21819
568.107	20551
568.166	21521
568.226	21557
568.285	22036
568.345	21064
568.404	21905
568.464	20814
568.523	20309
568.582	21818
568.642	20153
568.701	21796
568.761	22694
568.820	23815
568.879	26747
568.939	33288
568.998	23928
569.057	22626
569.116	21045
569.176	19809
569.235	18796
569.294	20206
569.353	19955
569.413	21069
569.472	20724
569.531	20401
569.590	19281
569.649	19534
569.708	17996
569.767	21361
569.827	23353
569.886	19704
569.945	19533
570.004	20070
570.063	20832
570.122	22023
570.181	22913
570.240	27063
570.299	23561
570.358	23820
570.417	19895
570.475	19806
570.534	20796
570.593	21166
570.652	21628
570.711	20596
570.770	21540
570.829	22999
570.887	20950
570.946	21021
571.005	18987
571.064	20991
571.122	22449
571.181	24153
571.240	19886
571.299	19938
571.357	22408
571.416	23619
571.475	27321
571.533	23878
571.592	21046
571.650	22654
571.709	19296
571.768	19826
571.826	19572
571.885	18982
571.943	18426
572.002	18939
572.060	20212
572.119	18206
572.177	18360
572.236	17824
572.294	17114
572.352	17926
572.411	17672
572.469	18551
572.528	17381
572.586	18446
572.644	19307
572.703	21694
572.761	18775
572.819	18723
572.877	17809
572.936	16542
572.994	16930
573.052	17589
573.110	16810
573.169	17731
573.227	16088
573.285	16238
573.343	17342
573.401	16937
573.459	17461
573.517	17093
573.576	16654
573.634	18051
573.692	16946
573.750	17036
573.808	17223
573.866	20267
573.924	24858
573.982	21926
574.040	17669
574.098	17249
574.155	15769
574.213	16306
574.271	15693
574.329	16995
574.387	15862
574.445	15220
574.503	15115
574.560	14809
574.618	14313
574.676	14120
574.734	14837
574.792	15750
574.849	13777
574.907	14645
574.965	14011
575.022	13793
575.080	14384
575.138	14814
575.195	15226
575.253	15932
575.311	15728
575.368	14342
575.426	14915
575.483	15342
575.541	14896
575.598	15239
575.656	16492
575.713	14802
575.771	15302
575.828	16036
575.886	14637
575.943	16840
576.001	16988
576.058	17590
576.115	17809
576.173	21383
576.230	21221
576.287	20175
576.345	17255
576.402	16958
576.459	17137
576.517	18313
576.574	19470
576.631	19051
576.688	17691
576.746	16197
576.803	16258
576.860	15097
576.917	15688
576.974	16877
577.031	15227
577.089	16199
577.146	16477
577.203	16495
577.260	18466
577.317	20192
577.374	20965
577.431	19964
577.488	16695
577.545	16537
577.602	16850
577.659	17000
577.716	17606
577.773	17989
577.830	16022
577.886	17303
577.943	17904
578.000	18614
578.057	20759
578.114	23471
578.171	29313
578.227	40034
578.284	36858
578.341	31662
578.398	26646
578.454	25607
578.511	24751
578.568	24932
578.625	19678
578.681	18093
578.738	17173
578.794	17549
578.851	16436
578.908	16916
578.964	16897
579.021	17850
579.077	17218
579.134	17158
579.190	16319
579.247	16833
579.303	16334
579.360	15474
579.416	15691
579.473	15908
579.529	15137
579.586	16358
579.642	17232
579.698	17906
579.755	18157
579.811	19247
579.867	19775
579.924	21505
579.980	23683
580.036	29510
580.093	39695
580.149	58292
580.205	59662
580.261	48053
580.317	37252
580.374	32258
580.430	30319
580.486	26626
580.542	22822
580.598	22570
580.619	21788
580.654	20458
580.692	20902
580.710	21164
580.765	19269
580.767	19233
580.823	20167
580.838	19876
580.879	19177
580.911	19096
580.935	19077
580.984	18344
580.991	18272
581.047	21105
581.057	21215
581.103	21856
581.130	22834
581.159	23882
581.203	26993
581.215	27856
581.270	26091
581.276	25775
581.326	22962
581.349	22571
581.382	22063
581.422	21752
581.438	21629
581.494	20952
581.494	20923
581.550	19879
581.567	19980
581.606	20180
581.640	19545
581.661	19205
581.713	19480
581.717	19518
581.773	18134
581.786	18151
581.829	18237
581.859	18031
581.885	17877
581.932	18316
581.940	18423
581.996	19158
582.004	19116
582.052	18833
582.077	18245
582.107	17583
582.150	18642
582.163	19005
582.219	18475
582.223	18484
582.274	18762
582.296	19162
582.330	19713
582.368	19863
582.386	20000
582.441	18382
582.441	18386
582.497	18609
582.514	18557
582.552	18780
582.587	19620
582.608	20070
582.659	20569
582.663	20596
582.719	19856
582.732	19935
582.774	20575
582.805	20709
582.830	20773
582.877	21226
582.885	21289
582.941	23050
582.950	23263
582.996	24602
583.023	26523
583.052	28712
583.095	31916
583.107	32793
583.162	38618
583.168	38638
583.218	38422
583.240	36182
583.273	32779
583.313	30231
583.328	29296
583.384	25345
583.385	25280
583.439	23283
583.458	22847
583.494	22131
583.531	20658
583.549	19933
583.603	19930
583.605	19924
583.660	18595
583.676	18883
583.715	19865
583.748	19679
583.770	19486
583.820	19425
583.825	19388
583.881	18898
583.893	18636
583.936	18002
583.965	18029
583.991	18041
584.038	18695
584.046	18814
584.101	18344
584.110	18411
584.156	18526
584.183	18616
584.211	18551
584.255	17511
584.266	17376
584.321	17880
584.328	17973
584.376	18538
584.400	18456
584.431	18186
584.472	18210
584.486	18232
584.541	18130
584.545	18187
584.596	18949
584.617	18876
584.651	19095
584.689	19781
584.706	19921
584.761	20473
584.762	20478
584.816	19997
584.834	19916
584.871	19829
584.906	19908
584.926	19926
584.978	20899
584.980	20941
585.035	21474
585.051	21545
585.090	21318
585.123	21860
585.145	22443
585.195	23200
585.200	23279
585.254	24203
585.267	24805
585.309	26876
585.340	28663
585.364	29889
585.412	30338
585.419	30452
585.473	33837
585.484	35447
585.528	43521
585.556	52382
585.583	66069
585.628	100723
585.637	111961
585.692	220103
585.700	232962
585.747	279365
585.772	235273
585.801	146416
585.845	64397
585.856	53747
585.910	33842
585.917	32025
585.965	27773
585.989	26113
586.019	25168
586.061	23999
586.074	23558
586.128	23039
586.133	23038
586.183	23639
586.205	23612
586.237	23198
586.277	22860
586.292	22875
586.346	22543
586.349	22571
586.401	22299
586.421	22591
586.455	23768
586.493	26441
586.509	28954
586.564	39390
586.565	39825
586.618	62103
586.637	60207
586.672	42724
586.709	30545
586.727	27265
586.781	23802
586.781	23789
586.835	21545
586.853	21136
586.889	20262
586.925	18825
586.944	18399
586.996	19174
586.998	19187
587.052	19725
587.068	19692
587.106	19523
587.140	18853
587.161	18436
587.212	19640
587.215	19676
587.269	19393
587.284	19353
587.323	19586
587.356	19614
587.377	19499
587.427	20224
587.431	20260
587.485	19951
587.499	20029
587.539	20151
587.571	19904
587.593	19979
587.643	21208
587.648	21302
587.702	21812
587.715	22033
587.755	22510
587.786	22747
587.810	22427
587.858	21622
587.864	21746
587.917	23765
587.930	24297
587.971	25654
588.001	26203
588.025	25731
588.073	24664
588.079	24650
588.133	24438
588.145	24694
588.187	25670
588.217	26414
588.241	27360
588.288	29408
588.295	29625
588.348	31261
588.360	31622
588.402	33318
588.431	34942
588.456	36388
588.503	40106
588.510	40652
588.564	44763
588.575	46054
588.617	51279
588.646	55386
588.671	59324
588.718	70472
588.725	73066
588.778	102548
588.789	112066
588.832	181211
588.861	242557
588.886	348083
588.932	596659
588.939	622434
588.993	721168
589.004	709457
589.047	369969
589.075	191121
589.100	136672
589.147	72192
589.154	69667
589.207	57934
589.218	56317
589.261	56385
589.290	58014
589.314	61112
589.361	71645
589.368	74950
589.421	112092
589.433	123457
589.475	226111
589.504	318758
589.528	428925
589.576	622287
589.582	603917
589.635	293854
589.647	240557
589.689	120511
589.718	54623
589.742	47967
589.790	38607
589.795	38676
589.849	41607
589.861	42955
589.902	48069
589.932	48197
589.955	41121
590.004	28052
590.009	27573
590.062	24054
590.075	23254
590.115	22913
590.146	22717
590.168	22786
590.218	23140
590.222	23142
590.275	23582
590.289	23727
590.328	24130
590.360	23983
590.381	23445
590.431	22638
590.435	22589
590.488	22196
590.503	22061
590.541	22649
590.574	23209
590.594	22964
590.645	22431
590.647	22400
590.700	21916
590.716	21763
590.753	21601
590.787	21525
590.806	21582
590.859	21931
590.859	21913
590.912	21561
590.930	21524
590.965	21522
591.001	21508
591.018	21398
591.071	21254
591.072	21272
591.124	21693
591.143	22012
591.177	22300
591.214	22414
591.230	22439
591.283	22799
591.285	22828
591.336	24136
591.356	24658
591.389	24262
591.427	23696
591.442	23335
591.495	22282
591.498	22209
591.547	22206
591.569	22299
591.600	22140
591.640	21873
591.653	22266
591.706	24125
591.711	24332
591.759	25501
591.782	26284
591.811	28021
591.853	30213
591.864	29279
591.917	24508
591.924	23850
591.969	23934
591.995	24096
592.022	24146
592.066	24184
592.075	24884
592.127	29516
592.137	30394
592.180	34213
592.208	36529
592.233	32546
592.279	24991
592.285	24880
592.338	24268
592.350	24150
592.390	23383
592.421	22860
592.443	22952
592.491	23221
592.495	23282
592.548	24472
592.562	24816
592.600	24283
592.633	23878
592.653	23734
592.704	23297
592.705	23442
592.775	24117
592.846	25298
592.916	24359
592.987	25251
593.058	24969
593.128	24038
593.199	23790
593.270	23616
593.341	23787
593.411	25242
593.482	23794
593.553	25656
593.623	25588
593.694	26495
593.764	27709
593.835	25273
593.906	24907
593.976	26125
594.047	28249
594.117	33391
594.188	34453
594.258	25897
594.329	26071
594.399	26815
594.470	26768
594.540	27260
594.611	27359
594.681	27247
594.751	26661
594.822	29945
594.892	30443
594.963	30720
595.033	32098
595.103	31673
595.174	35222
595.244	49611
595.314	60445
595.384	36565
595.455	32836
595.525	34162
595.595	35038
595.665	35070
595.736	34000
595.806	34190
595.876	34674
595.946	35028
596.016	34811
596.087	35993
596.157	37194
596.227	35909
596.297	39129
596.367	40732
596.437	44612
596.507	54517
596.577	65321
596.647	45820
596.717	42274
596.787	43301
596.857	42214
596.927	43431
596.997	42965
597.067	43581
597.137	46087
597.207	45364
597.277	45442
597.347	43612
597.417	42624
597.487	43524
597.557	44023
597.626	45879
597.696	48122
597.766	56112
597.836	66024
597.906	46780
597.975	42149
598.045	42434
598.115	43475
598.185	45474
598.254	49855
598.324	51770
598.394	51966
598.464	52149
598.533	50618
598.603	48673
598.672	47560
598.742	49921
598.812	49059
598.881	50193
598.951	50844
599.020	49960
599.090	51215
599.159	53233
599.229	49560
599.299	50063
599.368	51901
599.437	51050
599.507	50537
599.576	50062
599.646	49923
599.715	50587
599.785	49581
599.854	50533
599.924	54810
599.993	52386
600.062	48886
600.132	50189
600.201	51353
600.270	59615
600.340	59044
600.409	58073
600.478	57457
600.547	58563
600.617	56908
600.686	51017
600.755	50286
600.824	49030
600.894	47920
600.963	48378
601.032	48244
601.101	48213
601.170	47173
601.239	47656
601.308	49151
601.378	47764
601.447	49329
601.516	47849
601.585	49945
601.654	50985
601.723	52823
601.792	54231
601.861	55817
601.930	59514
601.999	59516
602.068	56403
602.137	57399
602.206	58804
602.275	59123
602.343	60564
602.412	61415
602.481	59132
602.550	60186
602.619	60345
602.688	61993
602.756	62580
602.825	60662
602.894	62749
602.963	63267
603.032	64266
603.100	64105
603.169	63364
603.238	65546
603.307	63050
603.375	63594
603.444	65281
603.513	62777
603.581	62732
603.650	67033
603.719	58516
603.787	56900
603.856	58717
603.924	59501
603.993	62597
604.061	61920
604.130	65290
604.198	65349
604.267	66186
604.335	67015
604.404	68926
604.472	70701
604.541	70830
604.609	71726
604.678	72323
604.746	72740
604.815	75945
604.883	74046
604.951	72921
605.020	74877
605.088	71814
605.156	69750
605.225	70247
605.293	70644
605.361	70032
605.429	70375
605.498	73145
605.566	72531
605.634	75605
605.702	77036
605.771	78038
605.839	79515
605.907	73411
605.975	75209
606.043	73215
606.111	71826
606.180	75180
606.248	72732
606.316	72781
606.384	73897
606.452	71287
606.520	64178
606.588	62906
606.656	61591
606.724	60288
606.792	57074
606.860	52890
606.928	48644
606.996	47215
607.064	46709
607.132	47278
607.200	50033
607.267	51197
607.335	51870
607.403	53275
607.471	51995
607.539	50772
607.607	50517
607.674	45681
607.742	47021
607.810	46741
607.878	46355
607.946	45847
608.013	48099
608.081	49617
608.149	49192
608.216	50160
608.284	52724
608.352	52203
608.419	53354
608.487	62561
608.555	51933
608.622	50036
608.690	52424
608.757	56796
608.825	58196
608.893	57342
608.960	56514
609.028	59034
609.095	67100
609.163	54536
609.230	49233
609.298	46824
609.365	45470
609.432	49420
609.500	52636
609.567	59164
609.635	66551
609.702	69687
609.769	67569
609.837	60505
609.904	52012
609.971	54861
610.039	65688
610.106	91530
610.173	176883
610.241	399759
610.308	311336
610.375	140778
610.442	70372
610.509	55232
610.577	53474
610.644	51326
610.711	51801
610.778	53080
610.845	53230
610.912	56961
610.980	60232
611.047	65224
611.114	60159
611.181	55869
611.248	53323
611.315	59218
611.382	59281
611.449	61574
611.516	62745
611.583	61828
611.650	61646
611.717	64087
611.784	66426
611.851	70785
611.918	78951
611.984	96040
612.051	143708
612.118	288240
612.185	675167
612.252	454688
612.319	122732
612.386	88406
612.452	78236
612.519	76754
612.586	84512
612.653	76611
612.719	71051
612.786	69329
612.853	63516
612.919	62529
612.986	63591
613.053	60685
613.120	55994
613.186	54586
613.253	55528
613.319	55575
613.386	55788
613.453	56824
613.519	58861
613.586	59591
613.652	65241
613.719	61128
613.785	61354
613.852	58997
613.918	57314
613.985	60442
614.051	67646
614.118	87041
614.184	81973
614.250	59087
614.317	58931
614.383	56256
614.449	57760
614.516	58105
614.582	58981
614.648	58141
614.715	55881
614.781	56349
614.847	56526
614.914	56880
614.980	55414
615.046	54737
615.112	55231
615.179	54141
615.245	56635
615.311	55544
615.377	57336
615.443	59080
615.509	60471
615.575	63829
615.642	61091
615.708	65785
615.774	70254
615.840	77341
615.906	86869
615.972	110232
616.038	170325
616.104	356015
616.170	805240
616.236	710662
616.302	195413
616.368	127401
616.434	93435
616.500	83521
616.565	91845
616.631	113207
616.697	95602
616.763	97883
616.829	143353
616.895	252751
616.961	250687
617.026	115631
617.092	74801
617.158	67736
617.224	63493
617.289	59312
617.355	57088
617.421	56570
617.487	56532
617.552	53680
617.618	51846
617.684	50793
617.749	53300
617.815	50203
617.880	49151
617.946	49682
618.012	50276
618.077	50324
618.143	49533
618.208	50594
618.274	52852
618.339	52595
618.405	46192
618.470	47672
618.536	46466
618.601	49951
618.667	46398
618.732	44209
618.798	42340
618.863	41695
618.928	42128
618.994	44590
619.059	44502
619.124	48979
619.190	44134
619.255	41889
619.320	43022
619.386	41706
619.451	40199
619.516	41211
619.581	41423
619.647	42946
619.712	42044
619.777	41086
619.842	40432
619.907	42548
619.972	41789
620.038	42581
620.103	41946
620.168	39929
620.233	41897
620.298	41691
620.363	41035
620.428	43590
620.493	43065
620.558	43861
620.623	43952
620.688	43713
620.753	43417
620.818	43578
620.883	44668
620.948	44853
621.013	43277
621.078	44363
621.143	44239
621.207	49367
621.272	46388
621.337	45956
621.402	48581
621.467	55135
621.532	56578
621.596	50280
621.661	45114
621.726	44507
621.791	45626
621.855	46451
621.920	48004
621.985	50108
622.049	55396
622.114	52426
622.179	48618
622.243	50324
622.308	49133
622.373	51340
622.437	50339
622.502	48467
622.566	47542
622.631	45952
622.695	48983
622.760	48083
622.824	47372
622.889	46833
622.953	47394
623.018	55543
623.082	55169
623.147	49771
623.211	47814
623.276	48023
623.340	46085
623.404	44774
623.469	44807
623.533	45192
623.597	44268
623.662	44090
623.726	41415
623.790	39976
623.854	41337
623.919	40846
623.983	40690
624.047	41559
624.111	40482
624.176	42925
624.240	41964
624.304	45916
624.368	42289
624.432	42207
624.496	42104
624.560	44847
624.625	45535
624.689	43766
624.753	44414
624.817	43682
624.881	41544
624.945	39551
625.009	38818
625.073	38451
625.137	40367
625.201	43848
625.265	44005
625.329	41091
625.393	42084
625.456	40806
625.520	43054
625.584	45475
625.648	53829
625.712	74738
625.776	146926
625.839	161385
625.903	69238
625.967	44958
626.031	66754
626.095	97704
626.158	46301
626.222	33103
626.286	31984
626.349	29363
626.413	29132
626.477	30363
626.540	28480
626.604	28462
626.668	28772
626.731	27954
626.795	29486
626.858	29863
626.922	28115
626.986	27983
627.049	25897
627.113	28556
627.176	27529
627.240	26866
627.303	26434
627.366	26062
627.430	26787
627.493	27158
627.557	27319
627.620	28407
627.684	27310
627.747	27948
627.810	24355
627.874	24209
627.937	22877
628.000	25862
628.064	25391
628.127	21802
628.190	23178
628.253	22357
628.317	21995
628.380	21931
628.443	20638
628.506	20519
628.569	19432
628.632	19097
628.696	19852
628.759	18817
628.822	17709
628.885	18458
628.948	17997
629.011	18896
629.074	18282
629.137	17059
629.200	16588
629.263	19607
629.326	16865
629.389	17123
629.452	17500
629.515	18343
629.578	18064
629.641	18842
629.704	17641
629.767	17557
629.830	17615
629.892	15918
629.955	16675
630.018	18579
630.081	16577
630.144	20219
630.207	16188
630.269	20094
630.332	20292
630.395	17629
630.458	14912
630.520	14502
630.583	17356
630.646	16233
630.708	15072
630.771	15399
630.834	16839
630.896	15378
630.959	15455
631.021	14832
631.084	16584
631.146	18199
631.209	20017
631.272	16391
631.334	15358
631.397	15474
631.459	14327
631.522	16982
631.584	16833
631.646	17869
631.709	18119
631.771	20393
631.834	18028
631.896	16734
631.958	15475
632.021	16273
632.083	14224
632.145	15989
632.208	14840
632.270	15600
632.332	13992
632.395	14119
632.457	15228
632.519	14160
632.581	15099
632.643	13487
632.706	14559
632.768	12355
632.830	14002
632.892	13236
632.954	13077
633.016	14726
633.078	13883
633.141	13714
633.203	13249
633.265	14427
633.327	14170
633.389	13125
633.451	15224
633.513	15938
633.575	17671
633.637	15960
633.698	15333
633.760	15067
633.822	14916
633.884	15008
633.946	15092
634.008	15289
634.070	16547
634.132	18288
634.193	18789
634.255	18767
634.317	19010
634.379	19446
634.441	17567
634.502	16063
634.564	15739
634.626	16412
634.687	16402
634.749	15080
634.811	14049
634.873	12338
634.934	12814
634.996	14342
635.057	12829
635.119	12438
635.181	13434
635.242	14121
635.304	12455
635.365	15653
635.427	13101
635.488	13462
635.550	13136
635.611	15100
635.673	12624
635.734	16187
635.796	14664
635.857	17711
635.918	16287
635.980	18801
636.041	18697
636.102	21257
636.164	19891
636.225	21182
636.286	16980
636.348	16995
636.409	14965
636.470	14022
636.531	14442
636.593	16112
636.654	14911
636.715	11835
636.776	11924
636.838	11423
636.899	12859
636.960	11941
637.021	11576
637.082	12059
637.143	12816
637.204	11193
637.265	11354
637.326	11931
637.387	11362
637.448	9630
637.509	10314
637.570	10793
637.631	12129
637.692	9944
637.753	8953
637.814	10426
637.875	9983
637.936	10877
637.997	10339
638.058	10589
638.119	12524
638.179	11268
638.240	10438
638.301	9831
638.362	9137
638.423	10338
638.483	11441
638.544	8503
638.605	9749
638.666	9781
638.726	10017
638.787	10620
638.848	9335
638.908	9583
638.969	9341
639.030	9694
639.090	9244
639.151	9047
639.211	11149
639.272	11524
639.332	14535
639.393	11796
639.453	9645
639.514	10697
639.574	10153
639.635	8951
639.695	9647
639.756	9010
639.816	9632
639.877	10542
639.937	12829
639.997	16060
640.058	8370
640.118	9337
640.178	9424
640.239	8044
640.299	9067
640.359	8429
640.420	9457
640.480	10492
640.540	10367
640.600	11398
640.661	10564
640.721	9067
640.781	12975
640.841	9424
640.901	10277
640.961	9800
641.021	9628
641.082	10853
641.142	11819
641.202	9803
641.262	7027
641.322	10364
641.382	7636
641.442	8302
641.502	8864
641.562	9002
641.622	7624
641.682	8833
641.742	10219
641.802	10807
641.861	9734
641.921	9777
641.981	9974
642.041	9736
642.101	10317
642.161	7362
642.221	7516
642.280	8403
642.340	7850
642.400	6730
642.460	9447
642.519	8877
642.579	8020
642.639	9909
642.698	6649
642.758	11301
642.818	8074
642.877	7786
642.937	8966
642.997	10431
643.056	11213
643.116	8265
643.175	9611
643.235	8400
643.294	9077
643.354	9684
643.414	11416
643.473	13306
643.532	14836
643.592	20802
643.651	33038
643.711	56310
643.770	105106
643.830	247291
643.889	500634
643.948	134126
644.008	26846
644.067	16279
644.126	12177
644.186	11453
644.245	10811
644.304	7973
644.363	10697
644.423	7867
644.482	9294
644.541	9865
644.600	7696
644.659	12403
644.719	15256
644.778	20485
644.837	33030
644.896	66474
644.955	147722
645.014	52810
645.073	15188
645.132	11277
645.191	10798
645.250	8602
645.309	11187
645.368	10741
645.427	14165
645.486	18821
645.545	32984
645.604	12172
645.663	8798
645.722	9558
645.781	9971
645.840	11968
645.898	14013
645.957	20715
646.016	28637
646.075	51261
646.134	96641
646.192	251232
646.251	365425
646.310	63708
646.369	19408
646.427	15053
646.486	11118
646.545	9546
646.603	9104
646.662	8349
646.721	8647
646.779	7606
646.838	7855
646.896	10901
646.955	13749
647.014	20524
647.072	37255
647.131	97188
647.189	48373
647.248	9118
647.306	7555
647.365	8236
647.423	5622
647.481	7593
647.540	4524
647.598	6655
647.657	6498
647.715	6666
647.773	5864
647.832	7088
647.890	5461
647.948	6889
648.007	6885
648.065	6436
648.123	5528
648.181	8560
648.240	7593
648.298	6401
648.356	5514
648.414	7323
648.472	6973
648.531	6861
648.589	6595
648.647	5529
648.705	5880
648.763	6856
648.821	6960
648.879	6005
648.937	7283
648.995	8812
649.053	10777
649.111	16230
649.169	25025
649.227	40759
649.285	84305
649.343	231737
649.401	118415
649.459	25381
649.516	16453
649.574	12443
649.632	21154
649.690	24638
649.748	15326
649.806	18403
649.863	31662
649.921	68598
649.979	47689
650.037	9567
650.094	5609
650.152	6713
650.210	4247
650.268	6084
650.325	5280
650.383	5409
650.440	4559
650.498	5812
650.556	5115
650.613	3946
650.671	6074
650.728	6098
650.786	6088
650.843	6230
650.901	4015
650.958	5399
651.016	4387
651.073	4621
651.131	4558
651.188	4350
651.246	4424
651.303	3321
651.360	5141
651.418	3994
651.475	5004
651.532	3219
651.590	4661
651.647	3546
651.704	4333
651.762	3894
651.819	4544
651.876	3547
651.933	4184
651.990	4923
652.048	2902
652.105	4332
652.162	4781
652.219	3599
652.276	4423
652.333	5010
652.390	3539
652.448	3621
652.505	4235
652.562	4941
652.619	4441
652.676	5768
652.733	6885
652.790	4960
652.847	2167
652.904	4064
652.961	3174
653.017	2767
653.074	4242
653.131	3674
653.188	3170
653.245	3569
653.302	3287
653.359	4172
653.415	3868
653.472	3089
653.529	3573
653.586	3345
653.642	3872
653.699	4772
653.756	3489
653.813	3612
653.869	4446
653.926	2375
653.983	3452
654.039	4809
654.096	2817
654.152	5089
654.209	2686
654.266	4608
654.322	3536
654.379	4238
654.435	4907
654.492	5253
654.548	7011
654.605	11272
654.661	6775
654.717	4418
654.774	3835
654.830	3962
654.887	4119
654.943	3639
655.000	4450
655.056	5180
655.112	4506
655.168	3642
655.225	5226
655.281	6041
655.337	7466
655.394	12391
655.450	9205
655.506	8009
655.562	13767
655.618	11202
655.675	4287
655.731	4847
655.787	3671
655.843	5539
655.899	4732
655.955	5771
656.011	5815
656.067	5208
656.123	6641
656.179	7848
656.235	8313
656.291	6245
656.347	7257
656.403	6714
656.459	5698
656.515	6839
656.571	6558
656.627	5549
656.683	4514
656.739	5825
656.795	4532
656.850	4031
656.906	5924
656.962	4772
657.018	4541
657.074	3950
657.129	5057
657.185	6586
657.241	10744
657.297	6490
657.352	4828
657.408	4031
657.464	5047
657.519	3596
657.575	2761
657.630	3443
657.686	3255
657.742	3020
657.797	3242
657.853	3705
657.908	4261
657.964	1737
658.019	3315
658.075	3609
658.130	4619
658.186	2940
658.241	3922
658.297	3354
658.352	3645
658.407	3375
658.463	2488
658.518	3355
658.573	3742
658.629	3185
658.684	3375
658.739	3922
658.795	1894
658.850	3658
658.905	2519
658.960	3431
659.016	2499
659.071	2662
659.126	2941
659.181	3379
659.236	5394
659.291	6202
659.346	4364
659.401	3631
659.457	4453
659.512	5091
659.567	5055
659.622	2937
659.677	3692
659.732	2528
659.787	4257
659.842	4393
659.897	6144
659.952	3760
660.007	3817
660.061	3487
660.116	2663
660.171	2793
660.226	2415
660.281	3673
660.336	2208
660.391	3358
660.445	2468
660.500	3093
660.555	3969
660.610	2999
660.664	3659
660.719	2911
660.774	3114
660.828	3814
660.883	3667
660.938	3845
660.992	3156
661.047	3037
661.101	2832
661.156	3215
661.211	2894
661.265	3197
661.320	2841
661.374	3296
661.429	2300
661.483	4154
661.538	3135
661.592	2761
661.647	3735
661.701	3193
661.755	3877
661.810	3135
661.864	2550
661.919	2728
661.973	3687
662.027	3169
662.081	2332
662.136	2695
662.190	3928
662.244	4760
662.299	2451
662.353	3067
662.407	2655
662.461	3473
662.515	3534
662.569	3852
662.624	4313
662.678	2937
662.732	3197
662.786	3403
662.840	3797
662.894	3256
662.948	3188
663.002	2166
663.056	3513
663.110	3395
663.164	2862
663.218	2941
663.272	3124
663.326	2848
663.380	3231
663.434	3806
663.488	3100
663.542	3177
663.595	3789
663.649	3166
663.703	3635
663.757	3231
663.811	3084
663.864	2943
663.918	3793
663.972	3786
664.026	2724
664.079	3629
664.133	4151
664.187	3267
664.240	2443
664.294	3405
664.348	3388
664.401	3074
664.455	3229
664.508	3142
664.562	2860
664.615	3608
664.669	2754
664.722	3026
664.776	2609
664.829	3826
664.883	2864
664.936	3398
664.990	3076
665.043	3982
665.097	4552
665.150	4962
665.203	3275
665.257	3128
665.310	3051
665.363	3555
665.417	3856
665.470	4064
665.523	3873
665.576	4791
665.630	4462
665.683	4058
665.736	3536
665.789	3441
665.842	3078
665.895	4016
665.949	3709
666.002	4428
666.055	4388
666.108	4407
666.161	4494
666.214	3964
666.267	3336
666.320	5234
666.373	3581
666.426	3864
666.479	3953
666.532	4620
666.585	4842
666.638	6309
666.691	5262
666.744	5991
666.796	5438
666.849	3709
666.902	4205
666.955	4175
667.008	3618
667.060	2974
667.113	2980
667.166	3648
667.219	3268
667.271	3962
667.324	3500
667.377	4424
667.430	3913
667.482	4530
667.535	3995
667.587	4336
667.640	3529
667.693	4893
667.745	5876
667.798	7388
667.850	4942
667.903	3943
667.955	4599
668.008	3733
668.060	4330
668.113	4533
668.165	5059
668.218	5241
668.270	4423
668.322	4652
668.375	3804
668.427	5058
668.479	3634
668.532	4748
668.584	4563
668.636	4028
668.689	4283
668.741	4447
668.793	4379
668.845	3798
668.898	4286
668.950	4357
669.002	4295
669.054	4097
669.106	4351
669.158	4761
669.211	3903
669.263	4502
669.315	5056
669.367	5885
669.419	5106
669.471	7293
669.523	6797
669.575	8057
669.627	5942
669.679	5392
669.731	5553
669.783	6126
669.835	5901
669.886	6080
669.938	5169
669.990	5365
670.042	5355
670.094	5454
670.146	6121
670.197	7503
670.249	8456
670.301	11348
670.353	14578
670.404	19799
670.456	28331
670.508	41558
670.560	64628
670.611	106475
670.663	181816
670.715	394179
670.766	598277
670.818	252493
670.869	56310
670.921	27576
670.972	18349
671.024	12973
671.075	11165
671.127	8924
671.178	7939
671.230	8435
671.281	7194
671.333	7316
671.384	6968
671.436	8107
671.487	9231
671.538	10371
671.590	12931
671.641	17846
671.692	27499
671.744	46296
671.795	37368
671.846	15989
671.897	9008
671.949	7669
672.000	7151
672.051	6059
672.102	6418
672.153	4211
672.204	5043
672.256	5523
672.307	5136
672.358	5406
672.409	4610
672.460	4643
672.511	4107
672.562	4757
672.613	3983
672.664	3803
672.715	4070
672.766	4495
672.817	4108
672.868	4189
672.919	3816
672.970	4854
673.021	4634
673.071	4025
673.122	4744
673.173	4857
673.224	3753
673.275	4184
673.326	4258
673.376	3577
673.427	3807
673.478	2903
673.528	4543
673.579	4197
673.630	3601
673.680	5191
673.731	3156
673.782	3332
673.832	3975
673.883	3884
673.934	3409
673.984	3859
674.035	4639
674.085	3770
674.136	4095
674.186	4347
674.237	5600
674.287	8641
674.338	4722
674.388	4362
674.438	3963
674.489	4056
674.539	3827
674.589	4713
674.640	4312
674.690	4360
674.740	3172
674.791	5120
674.841	4941
674.891	4387
674.942	3948
674.992	3792
675.042	3355
675.092	3474
675.142	3291
675.193	3445
675.243	3684
675.293	4306
675.343	3724
675.393	3526
675.443	4023
675.493	3946
675.543	4004
675.593	3962
675.643	3753
675.693	3512
675.743	3498
675.793	3383
675.843	2825
675.893	3448
675.943	3583
675.993	3727
676.043	3578
676.093	3649
676.142	3336
676.192	3326
676.242	3921
676.292	3360
676.341	2852
676.391	3979
676.441	3063
676.491	3874
676.540	2953
676.590	3268
676.640	3372
676.689	2771
676.739	2281
676.789	2862
676.838	2630
676.888	2910
676.937	3037
676.987	3268
677.037	3048
677.086	2448
677.136	2568
677.185	2508
677.235	2509
677.284	2446
677.333	2972
677.383	2558
677.432	2272
677.482	2746
677.531	2745
677.580	2840
677.630	2900
677.679	3067
677.728	3382
677.778	3576
677.827	1945
677.876	3572
677.925	2493
677.975	2553
678.024	2835
678.073	3410
678.122	3820
678.171	2841
678.220	2474
678.269	3992
678.319	4533
678.368	3460
678.417	3162
678.466	3951
678.515	3838
678.564	3576
678.613	2427
678.662	3252
678.711	3228
678.760	2568
678.809	3054
678.857	2802
678.906	2758
678.955	2576
679.004	3199
679.053	3130
679.102	2645
679.151	2589
679.199	2639
679.248	3398
679.297	3494
679.346	3864
679.394	3012
679.443	2778
679.492	2778
679.540	3026
679.589	3104
679.638	2672
679.686	2890
679.735	3182
679.784	3338
679.832	3239
679.881	2466
679.929	2856
679.978	2130
680.026	2928
680.075	3261
680.123	2428
680.172	2555
680.220	2860
680.268	2357
680.317	2425
680.365	3073
680.414	2989
680.462	2782
680.510	3242
680.559	1916
680.607	2862
680.655	2530
680.703	2148
680.752	2226
680.800	2592
680.848	2502
680.896	1677
680.945	2010
680.993	2400
681.041	2105
681.089	2704
681.137	1789
681.185	2468
681.233	1665
681.258	2019
681.281	2323
681.329	2540
681.377	1580
681.380	1654
681.425	2421
681.473	2996
681.502	3403
681.521	3619
681.569	3436
681.617	3256
681.624	3289
681.665	3279
681.713	3141
681.745	3266
681.761	3268
681.809	2548
681.857	4011
681.867	3931
681.904	3559
681.952	3680
681.989	2964
682.000	2708
682.048	3572
682.096	3396
682.111	3292
682.143	2971
682.191	3526
682.233	4685
682.239	4827
682.286	3251
682.334	3121
682.354	3429
682.382	3778
682.430	4098
682.476	3853
682.477	3820
682.525	4195
682.572	3490
682.598	3834
682.620	4088
682.667	2994
682.715	4421
682.720	4416
682.763	4099
682.810	4493
682.841	4306
682.857	4174
682.905	3349
682.952	4623
682.963	4654
683.000	4621
683.047	4926
683.085	5257
683.095	5319
683.142	4364
683.190	4556
683.206	4533
683.237	4410
683.284	5104
683.328	5341
683.332	5340
683.379	4943
683.426	4391
683.449	4493
683.473	4572
683.521	4381
683.568	5323
683.571	5280
683.615	4339
683.662	5554
683.693	5400
683.709	5306
683.757	4693
683.804	4869
683.814	4978
683.851	5269
683.898	5812
683.936	5166
683.945	4973
683.992	5269
684.039	5409
684.057	5231
684.086	4977
684.133	5685
684.179	5733
684.180	5712
684.227	6443
684.274	5747
684.300	5852
684.321	5936
684.368	5416
684.415	6717
684.422	6671
684.462	6242
684.509	5451
684.543	6114
684.556	6356
684.603	5651
684.649	5770
684.665	5887
684.696	6050
684.743	6387
684.786	6571
684.790	6583
684.837	6500
684.883	7191
684.908	7571
684.930	7759
684.977	7761
685.023	7154
685.029	7153
685.070	7020
685.117	6984
685.150	7111
685.164	7262
685.210	7889
685.257	8540
685.272	8561
685.303	8267
685.350	7968
685.393	7513
685.396	7480
685.443	8359
685.490	8063
685.514	8243
685.536	8331
685.583	8112
685.629	8461
685.636	8425
685.675	8060
685.722	8221
685.757	8010
685.768	7992
685.815	8570
685.861	8596
685.878	8680
685.908	8692
685.954	8878
686.000	9029
686.000	9034
686.047	9283
686.093	11695
686.121	11752
686.139	11281
686.185	10272
686.232	9126
686.242	9187
686.278	9621
686.324	8886
686.363	8439
686.370	8377
686.416	8352
686.463	9196
686.484	9002
686.509	8900
686.555	8848
686.601	9157
686.606	9198
686.647	9312
686.693	8605
686.727	8655
686.739	8695
686.785	8377
686.831	9242
686.848	9028
686.877	8592
686.923	8764
686.969	8377
686.969	8374
687.015	9035
687.061	9348
687.090	9412
687.107	9325
687.153	9611
687.199	9058
687.211	8976
687.245	9140
687.291	10014
687.332	9930
687.336	9890
687.382	10131
687.428	9499
687.453	9357
687.474	9123
687.520	9443
687.565	8853
687.574	8825
687.611	9035
687.657	9337
687.695	9253
687.702	9262
687.748	9908
687.794	10122
687.816	10083
687.839	9750
687.885	9623
687.931	9147
687.937	9147
687.976	9655
688.022	9589
688.058	9936
688.067	10005
688.113	10317
688.158	10039
688.179	10258
688.204	10472
688.249	9868
688.295	10756
688.300	10718
688.340	10660
688.386	11001
688.421	10953
688.431	10861
688.477	10595
688.522	10373
688.542	10314
688.567	10451
688.613	10604
688.658	10597
688.663	10619
688.703	10684
688.749	10549
688.784	10823
688.794	10928
688.839	10893
688.884	10741
688.905	10714
688.930	10636
688.975	10456
689.020	11022
689.026	10971
689.065	10873
689.110	10536
689.146	10516
689.155	10467
689.201	10735
689.246	10397
689.267	10446
689.291	10779
689.336	11043
689.381	11463
689.388	11505
689.426	11388
689.471	11141
689.509	10861
689.516	10832
689.561	10584
689.606	10387
689.630	10571
689.651	10850
689.696	10734
689.741	11273
689.750	11255
689.785	11246
689.830	11294
689.871	10830
689.875	10787
689.920	11141
689.965	10980
689.992	11052
690.010	11197
690.054	11131
690.099	11535
690.112	11449
690.144	11392
690.189	11834
690.233	12117
690.233	12133
690.278	12465
690.323	11974
690.354	11993
690.367	12216
690.412	12619
690.457	13079
690.474	13305
690.501	13488
690.546	13782
690.590	13415
690.595	13435
690.635	14623
690.680	15942
690.716	16671
690.724	16995
690.769	19118
690.813	21369
690.836	22316
690.857	24927
690.902	30662
690.946	37163
690.957	38680
690.991	51989
691.035	71500
691.077	90004
691.080	90270
691.124	87731
691.168	83544
691.198	81763
691.213	76027
691.257	59894
691.301	43358
691.318	36961
691.346	33244
691.390	27592
691.434	21609
691.439	20929
691.478	19505
691.522	18472
691.559	16841
691.567	16718
691.611	16269
691.655	15529
691.680	15160
691.699	15029
691.743	15085
691.787	14509
691.800	14496
691.831	14836
691.875	14885
691.919	15068
691.921	15036
691.964	14633
692.008	14478
692.041	14555
692.052	14660
692.096	14682
692.139	14766
692.162	14701
692.183	14508
692.227	14834
692.271	14451
692.282	14387
692.315	14549
692.359	14326
692.402	14463
692.403	14492
692.447	14625
692.490	14639
692.523	14969
692.534	15134
692.578	15594
692.622	15411
692.643	15650
692.666	15608
692.709	14928
692.753	14482
692.763	14350
692.797	14397
692.840	14593
692.884	14432
692.884	14462
692.928	14867
692.971	15427
693.004	15554
693.015	15624
693.059	16023
693.102	16360
693.124	16374
693.146	16557
693.189	17007
693.233	17634
693.245	17814
693.276	19037
693.320	20574
693.363	21730
693.365	21747
693.407	23796
693.450	25492
693.485	27048
693.493	28046
693.537	33380
693.580	38191
693.605	41096
693.624	46989
693.667	60863
693.710	75082
693.725	80306
693.753	106282
693.797	147760
693.840	189984
693.845	194264
693.883	190211
693.926	182436
693.966	176435
693.970	172907
694.013	134007
694.056	95054
694.086	68421
694.099	64833
694.142	53047
694.185	41272
694.206	35668
694.229	34027
694.272	30923
694.315	27573
694.326	26618
694.358	25210
694.401	23742
694.444	21841
694.446	21701
694.487	20720
694.530	19701
694.566	18801
694.573	18686
694.616	17826
694.659	16623
694.686	16040
694.702	15903
694.745	15390
694.787	14618
694.806	14427
694.830	14689
694.873	14728
694.916	14920
694.926	14933
694.959	14913
695.002	14689
695.044	14769
695.046	14734
695.087	14882
695.130	14845
695.166	14930
695.172	15037
695.215	15253
695.258	15611
695.286	16018
695.301	16047
695.343	15662
695.386	15309
695.406	15155
695.428	15014
695.471	14510
695.514	14295
695.526	14097
695.556	14243
695.599	14762
695.641	15010
695.646	15009
695.684	15067
695.726	14950
695.766	15182
695.769	15227
695.811	15028
695.854	14856
695.886	14816
695.896	14798
695.938	14352
695.981	13860
696.005	13650
696.023	13820
696.065	14247
696.108	14435
696.125	14535
696.150	14898
696.192	15316
696.235	16116
696.245	16175
696.277	15889
696.319	15684
696.361	15210
696.365	15138
696.404	15709
696.446	16506
696.485	17056
696.488	17067
696.530	16621
696.572	16277
696.604	15963
696.614	15942
696.656	15658
696.698	15467
696.724	15150
696.740	14958
696.783	14499
696.825	14105
696.844	13820
696.867	14050
696.909	14665
696.951	15033
696.964	15125
696.992	14967
697.034	14698
697.076	14405
697.083	14327
697.118	14529
697.160	14725
697.202	14898
697.203	14866
697.244	14749
697.286	14468
697.323	14146
697.327	14179
697.369	14204
697.411	14196
697.442	14210
697.453	14307
697.494	14472
697.536	14700
697.562	14779
697.578	14844
697.620	14952
697.661	15026
697.682	15020
697.703	14992
697.744	14802
697.786	14814
697.801	14714
697.828	15054
697.869	15595
697.911	16113
697.921	16202
697.952	15976
697.994	15598
698.035	15259
698.040	15169
698.077	14715
698.118	14198
698.160	13749
698.160	13711
698.201	13946
698.243	14164
698.279	14369
698.284	14450
698.325	14788
698.367	15184
698.399	15387
698.408	15268
698.449	14614
698.491	13913
698.518	13438
698.532	13680
698.573	14269
698.614	14867
698.638	15167
698.656	15250
698.697	15357
698.738	15480
698.757	15490
698.779	15717
698.820	16059
698.862	16421
698.877	16511
698.903	16736
698.944	17024
698.985	17312
698.996	17346
699.026	17070
699.067	16629
699.116	16061
699.235	14836
699.354	15058
699.474	15587
699.593	17755
699.713	15614
699.832	15370
699.951	16115
700.070	15619
700.190	15052
700.309	15393
700.428	16108
700.547	15058
700.667	14674
700.786	16065
700.905	14614
701.024	15843
701.143	14582
701.262	13524
701.381	13133
701.500	14299
701.619	14383
701.738	14530
701.857	12035
701.976	13162
702.095	13213
702.214	13400
702.333	13775
702.452	13286
702.571	12207
702.690	12992
702.809	12609
702.928	12023
703.047	12852
703.165	13435
703.284	13132
703.403	13042
703.522	13841
703.640	13874
703.759	15808
703.878	23197
703.997	13365
704.115	13040
704.234	11716
704.353	11962
704.471	11637
704.590	11460
704.708	12220
704.827	11282
704.946	12296
705.064	12584
705.183	12898
705.301	15820
705.420	21804
705.538	20095
705.656	16245
705.775	16675
705.893	23616
706.012	28087
706.130	18039
706.249	17419
706.367	17865
706.485	17997
706.604	17636
706.722	17607
706.840	19312
706.958	21362
707.077	17102
707.195	14871
707.313	15517
707.431	15934
707.549	14523
707.668	15147
707.786	15663
707.904	15471
708.022	14341
708.140	14252
708.258	13710
708.376	15502
708.494	13842
708.612	16099
708.730	23385
708.848	22370
708.966	19217
709.084	19225
709.202	17416
709.320	19201
709.438	18936
709.556	19741
709.674	19132
709.791	18864
709.909	17932
710.027	18881
710.145	17707
710.263	20003
710.380	17278
710.498	18247
710.616	18101
710.733	17860
710.851	18104
710.969	18422
711.086	17707
711.204	18016
711.322	18306
711.439	18141
711.557	18265
711.674	17825
711.792	16601
711.909	17537
712.027	17646
712.144	17072
712.262	17174
712.379	18939
712.497	26668
712.614	27660
712.732	22732
712.849	22164
712.966	21830
713.084	25507
713.201	22709
713.318	22109
713.436	21078
713.553	22712
713.670	22420
713.787	24775
713.905	24113
714.022	21399
714.139	21000
714.256	23932
714.373	24883
714.490	36037
714.608	68404
714.725	255896
714.842	250924
714.959	32786
715.076	21505
715.193	20459
715.310	19524
715.427	18919
715.544	17367
715.661	18990
715.778	18436
715.895	21348
716.011	19814
716.128	18256
716.245	18494
716.362	18938
716.479	19154
716.596	17696
716.713	17806
716.829	18200
716.946	17403
717.063	16072
717.180	16543
717.296	17636
717.413	16516
717.530	15855
717.646	14712
717.763	16064
717.880	15487
717.996	15803
718.113	15987
718.229	15255
718.346	14310
718.462	15146
718.579	16193
718.695	21739
718.812	21081
718.928	21111
719.045	16199
719.161	14967
719.277	13631
719.394	14825
719.510	15618
719.626	14721
719.743	18666
719.859	19268
719.975	28275
720.092	83579
720.208	167789
720.324	30091
720.440	15785
720.557	17804
720.673	20858
720.789	31877
720.905	70562
721.021	26582
721.137	14105
721.253	14938
721.369	14794
721.486	17285
721.602	23053
721.718	14373
721.834	12123
721.950	12641
722.066	12264
722.181	12325
722.297	12364
722.413	12347
722.529	12247
722.645	12604
722.761	11778
722.877	12097
722.993	11547
723.108	13684
723.224	11824
723.340	12765
723.456	11497
723.571	11973
723.687	11217
723.803	11929
723.918	10791
724.034	11439
724.150	12200
724.265	14246
724.381	28099
724.497	34327
724.612	11892
724.728	11047
724.843	10838
724.959	13014
725.074	26025
725.190	30957
725.305	11934
725.421	11533
725.536	9986
725.651	10287
725.767	10402
725.882	10083
725.997	9340
726.113	10144
726.228	8925
726.343	9637
726.459	8433
726.574	10565
726.689	9632
726.804	10162
726.920	10179
727.035	10226
727.150	9997
727.265	9853
727.380	10330
727.495	9717
727.610	9433
727.725	9082
727.841	10505
727.956	13989
728.071	14382
728.186	9802
728.301	8060
728.416	9484
728.531	8932
728.645	7509
728.760	8743
728.875	9692
728.990	8972
729.105	9661
729.220	8214
729.335	9362
729.449	7983
729.564	7219
729.679	7850
729.794	8849
729.908	9229
730.023	8303
730.138	7053
730.253	7795
730.367	7885
730.482	8153
730.596	7389
730.711	8746
730.826	8476
730.940	8485
731.055	7987
731.169	7982
731.284	7252
731.398	8327
731.513	8862
731.627	8889
731.742	10003
731.856	11717
731.970	7291
732.085	9540
732.199	12239
732.313	17631
732.428	38797
732.542	100998
732.656	55757
732.771	15081
732.885	10023
732.999	10277
733.113	11295
733.227	9210
733.342	7872
733.456	8377
733.570	7646
733.684	8147
733.798	7984
733.912	8449
734.026	7571
734.140	8218
734.254	8867
734.368	15926
734.482	19197
734.596	7374
734.710	6715
734.824	7483
734.938	6512
735.052	7512
735.166	9131
735.280	8603
735.393	7262
735.507	7603
735.621	11309
735.735	19824
735.849	8068
735.962	7793
736.076	7273
736.190	8588
736.303	10334
736.417	14212
736.531	6651
736.644	8393
736.758	6509
736.872	6608
736.985	6318
737.099	6670
737.212	5936
737.326	6167
737.439	6839
737.553	6954
737.666	6869
737.780	5824
737.893	6525
738.007	7067
738.120	5815
738.233	6545
738.347	5386
738.460	5569
738.573	7068
738.687	6283
738.800	7236
738.913	7072
739.026	6062
739.140	7470
739.253	6212
739.366	5482
739.479	6462
739.592	5374
739.705	5185
739.818	5978
739.932	5844
740.045	6201
740.158	6301
740.271	5890
740.384	5872
740.497	6505
740.610	6512
740.723	7105
740.836	6372
740.949	6551
741.062	7330
741.174	7258
741.287	6244
741.400	5793
741.513	6006
741.626	7103
741.739	6377
741.851	6125
741.964	5691
742.077	6289
742.189	5874
742.302	8309
742.415	7855
742.527	6551
742.640	6042
742.753	6447
742.865	5582
742.978	6449
743.090	5893
743.203	5352
743.316	4920
743.428	5124
743.541	5272
743.653	5525
743.766	4732
743.878	5544
743.990	9339
744.103	8474
744.215	7427
744.327	5538
744.440	4581
744.552	7689
744.664	5504
744.777	5577
744.889	4947
745.001	5880
745.113	5282
745.226	5923
745.338	5798
745.450	5112
745.562	5023
745.674	5369
745.786	4716
745.898	5590
746.010	5069
746.122	6018
746.234	5805
746.347	5391
746.459	5157
746.570	5741
746.682	6856
746.794	9954
746.906	6854
747.018	5553
747.130	5387
747.242	5573
747.354	4593
747.466	5445
747.577	5266
747.689	5371
747.801	5711
747.913	5419
748.024	4107
748.136	5098
748.248	5169
748.359	5924
748.471	4767
748.583	5739
748.694	5032
748.806	7027
748.918	7308
749.029	6263
749.141	4658
749.252	5924
749.364	5096
749.475	8468
749.587	7912
749.698	5282
749.809	4523
749.921	5401
750.032	5600
750.144	4873
750.255	4457
750.366	4952
750.478	4589
750.589	5822
750.700	5229
750.811	5782
750.923	5630
751.034	9005
751.145	9695
751.256	5059
751.367	4426
751.479	5642
751.590	4546
751.701	5823
751.812	4844
751.923	5383
752.034	4597
752.145	5263
752.256	5228
752.367	4732
752.478	4827
752.589	6211
752.700	5185
752.811	5415
752.922	5483
753.032	5326
753.143	5932
753.254	5642
753.365	5197
753.476	5395
753.586	5908
753.697	5118
753.808	4824
753.919	5938
754.029	4642
754.140	6040
754.251	4591
754.361	5996
754.472	5671
754.582	6326
754.693	6158
754.804	6718
754.914	5585
755.025	5456
755.135	5764
755.246	5943
755.356	4683
755.466	6940
755.577	6022
755.687	6624
755.798	6350
755.908	6710
756.018	6449
756.129	7070
756.239	5818
756.349	6385
756.460	6431
756.570	6769
756.680	6866
756.790	6859
756.900	7000
757.011	6304
757.121	6937
757.231	6976
757.341	6958
757.451	7093
757.561	6065
757.671	7653
757.781	6090
757.891	8487
758.001	7094
758.111	7590
758.221	7105
758.331	8069
758.441	8324
758.551	9115
758.661	8285
758.771	9317
758.880	8670
758.990	8148
759.100	8096
759.210	8945
759.320	9768
759.429	9391
759.539	9065
759.649	10529
759.758	9505
759.868	11377
759.978	9904
760.087	11330
760.197	11448
760.307	11179
760.416	11322
760.526	11269
760.635	11543
760.745	11744
760.854	11503
760.964	13577
761.073	13031
761.182	13300
761.292	13408
761.401	14202
761.511	13742
761.620	13924
761.729	14697
761.839	15326
761.948	13869
762.057	15786
762.166	15407
762.276	15139
762.385	16432
762.494	16670
762.603	17002
762.712	18628
762.822	18733
762.931	20094
763.040	18903
763.149	20223
763.258	21995
763.367	24583
763.476	24324
763.585	27166
763.694	27204
763.803	30336
763.912	30495
764.021	32329
764.130	33494
764.238	37201
764.347	39400
764.456	43088
764.565	47316
764.674	49451
764.783	55043
764.891	61166
765.000	69662
765.109	77415
765.217	88312
765.326	104157
765.435	121018
765.543	142297
765.652	172190
765.761	215519
765.869	275354
765.978	359258
766.086	476636
766.195	624973
766.303	737990
766.412	608250
766.520	598125
766.629	666475
766.737	570172
766.846	439285
766.954	335134
767.062	258292
767.171	202388
767.279	160703
767.387	133352
767.496	111515
767.604	95323
767.712	84530
767.820	74520
767.928	70262
768.037	63180
768.145	61112
768.253	57556
768.361	57137
768.469	56520
768.577	57968
768.685	61361
768.793	65391
768.901	70997
769.009	82300
769.117	99901
769.225	124183
769.333	165130
769.441	233851
769.549	345296
769.657	522094
769.765	671793
769.873	560140
769.981	580875
770.088	477993
770.196	330188
770.304	234964
770.412	174305
770.519	135369
770.627	109363
770.735	91524
770.842	76135
770.950	67103
771.058	57781
771.165	53186
771.273	45536
771.380	43208
771.488	39257
771.595	35413
771.703	32345
771.810	31645
771.918	27680
772.025	27933
772.133	25583
772.240	24409
772.348	22802
772.455	23809
772.562	21459
772.670	20366
772.777	19921
772.884	19384
772.991	17218
773.099	16758
773.206	15381
773.313	16619
773.420	15490
773.528	14742
773.635	14232
773.742	14690
773.849	13756
773.956	13382
774.063	12826
774.170	12015
774.277	13530
774.384	12173
774.491	11903
774.598	13270
774.705	12034
774.812	12093
774.919	12071
775.026	11619
775.133	11281
775.239	10708
775.346	10501
775.453	10430
775.560	10034
775.667	10742
775.773	10143
775.880	10156
775.987	9630
776.093	9317
776.200	9445
776.307	9687
776.413	8247
776.520	8696
776.627	9143
776.733	8508
776.840	7189
776.946	11287
777.053	11222
777.159	17287
777.266	11446
777.372	16628
777.478	12619
777.585	10186
777.691	7035
777.798	7258
777.904	8039
778.010	9302
778.117	8146
778.223	7265
778.329	7195
778.435	6023
778.542	7258
778.648	7096
778.754	6079
778.860	6962
778.966	6827
779.072	7760
779.178	5978
779.284	6423
779.391	6291
779.497	7213
779.603	10276
779.708	13327
779.815	27017
779.920	87995
780.026	148390
780.132	28864
780.238	8852
780.344	8458
780.450	7235
780.556	6759
780.661	5274
780.767	6304
780.873	5302
780.979	6406
781.085	4323
781.190	5835
781.296	4612
781.402	4760
781.507	4621
781.613	5185
781.719	4472
781.824	5302
781.930	5202
782.035	5865
782.141	4469
782.246	5524
782.352	4678
782.457	5224
782.563	4472
782.668	4619
782.773	5118
782.879	4338
782.984	4457
783.090	5398
783.195	5594
783.300	5995
783.405	4808
783.511	4856
783.616	4765
783.721	4880
783.826	3173
783.932	5102
784.037	4213
784.142	5690
784.247	4748
784.352	4214
784.457	4142
784.562	4725
784.667	4104
784.772	4238
784.877	4035
784.982	3996
785.087	3841
785.192	5879
785.297	3391
785.402	4543
785.507	3375
785.611	3991
785.716	4377
785.821	4785
785.926	3535
786.031	3461
786.135	3556
786.240	4380
786.345	2678
786.450	3732
786.554	2917
786.659	3246
786.763	2487
786.868	3590
786.973	3811
787.077	3509
787.182	3107
787.286	3555
787.391	2992
787.495	2731
787.600	2868
787.704	3171
787.809	2737
787.913	2999
788.017	3231
788.122	4297
788.226	2383
788.330	2957
788.435	3368
788.539	2912
788.643	2748
788.747	3933
788.852	2240
788.956	2667
789.060	3432
789.164	3300
789.268	2364
789.372	4019
789.476	2926
789.580	2585
789.684	2256
789.788	3679
789.892	1682
789.996	3340
790.100	2131
790.204	2282
790.308	2719
790.412	2975
790.516	2517
790.620	2949
790.724	2318
790.828	3488
790.931	2662
791.035	4182
791.139	1839
791.242	1544
791.346	2664
791.450	2003
791.554	2008
791.657	1112
791.761	3027
791.864	3066
791.968	2326
792.072	3136
792.175	2142
792.279	2595
792.382	1761
792.486	3007
792.589	2396
792.693	3519
792.796	1114
792.899	3739
793.003	2768
793.106	1088
793.209	1226
793.313	3499
793.416	1526
793.519	3589
793.623	2683
793.726	3983
793.829	3173
793.932	2961
794.035	2017
794.138	3267
794.242	3351
794.345	4348
794.448	7239
794.551	14804
794.654	48386
794.757	88638
794.860	18414
794.963	5355
795.066	2784
795.169	3884
795.272	1578
795.375	3267
795.477	1692
795.580	3112
795.683	693
795.786	2328
795.889	447
795.991	3196
796.094	3323
796.197	1779
796.300	2789
796.402	1721
796.505	1037
796.608	2312
796.710	2203
796.813	2766
796.915	1441
797.018	2402
797.120	1959
797.223	786
797.326	2929
797.428	1455
797.530	1096
797.633	2778
797.735	3501
797.838	5379
797.940	4017
798.042	1569
798.145	1988
798.247	2576
798.349	302
798.452	2003
798.554	1648
798.656	1531
798.758	2917
798.860	1778
798.962	239
799.065	1358
799.167	366
799.269	3374
799.371	1956
799.473	2886
799.575	1488
799.677	3673
799.779	3259
799.881	1762
799.983	2775
800.085	1302
800.187	854
800.289	1563
800.390	1910
800.492	1594
800.594	2218
800.696	996
800.798	1149
800.899	1326
801.001	1409
801.103	1419
801.205	917
801.306	1196
801.408	301
801.509	1910
801.611	843
801.713	2415
801.814	443
801.916	1662
802.017	884
802.119	485
802.220	711
802.322	130
802.423	4199
802.525	1077
802.626	1375
802.727	2243
802.829	1770
802.930	-603
803.031	2368
803.133	1447
803.234	566
803.335	1067
803.436	348
803.538	1454
803.639	-199
803.740	1762
803.841	568
803.942	1507
804.043	1550
804.144	482
804.245	1294
804.346	1271
804.447	420
804.548	1409
804.649	2051
804.750	1939
804.851	454
804.952	551
805.053	1310
805.154	135
805.255	1818
805.355	1944
805.456	210
805.557	-88
805.658	-238
805.758	2163
805.859	709
805.960	839
806.061	377
806.161	803
806.262	1305
806.362	977
806.463	176
806.564	1420
806.664	1301
806.765	2606
806.865	1965
806.966	1644
807.066	342
807.166	1577
807.267	750
807.367	802
807.468	766
807.568	39
807.668	768
807.769	2045
807.869	677
807.969	968
808.069	1066
808.170	550
808.270	733
808.370	2279
808.470	1021
808.570	855
808.670	382
808.770	2092
808.870	195
808.970	781
809.070	230
809.170	974
809.271	397
809.370	909
809.470	963
809.570	1037
809.670	-84
809.770	1082
809.870	619
809.970	324
810.070	921
810.169	1371
810.269	-706
810.369	2036
810.469	436
810.568	626
810.668	36
810.768	485
810.867	532
810.967	-206
811.066	1195
811.166	338
811.265	775
811.365	594
811.464	759
811.564	1708
811.663	-68
811.763	-719
811.862	704
811.962	1738
812.061	345
812.160	133
812.260	476
812.359	1445
812.458	1365
812.557	6768
812.657	8558
812.756	3503
812.855	759
812.954	1088
813.053	655
813.153	717
813.252	209
813.351	1197
813.450	-182
813.549	-28
813.648	1112
813.747	40
813.846	601
813.945	305
814.044	237
814.143	573
814.242	781
814.341	-500
814.439	733
814.538	1351
814.637	-263
814.736	1179
814.835	1120
814.933	55
815.032	-130
815.131	929
815.229	567
815.328	1389
815.427	958
815.525	1785
815.624	1410
815.722	736
815.821	906
815.919	1031
816.018	-378
816.116	1240
816.215	414
816.313	965
816.412	3
816.510	1812
816.609	1861
816.707	1653
816.805	832
816.904	1149
817.002	1444
817.100	2233
817.198	1104
817.296	742
817.395	301
817.493	2286
817.591	674
817.689	1219
817.787	70
817.885	1645
817.983	1254
818.081	3208
818.179	4811
818.277	12067
818.375	10586
818.473	5012
818.571	2024
818.669	2735
818.767	2983
818.865	1863
818.963	1893
819.061	1189
819.158	2180
819.256	5576
819.354	9806
819.452	24011
819.549	14581
819.647	5307
819.745	1813
819.842	3159
819.940	785
820.038	1056
820.135	830
820.233	2505
820.330	563
820.428	572
820.525	1373
820.623	1046
820.720	830
820.818	1550
820.915	256
821.012	1314
821.110	553
821.207	1821
821.304	414
821.402	2436
821.499	2342
821.596	4002
821.693	2008
821.791	2884
821.888	1025
821.985	3883
822.082	1405
822.179	3316
822.276	1040
822.373	1201
822.470	512
822.567	1019
822.664	-445
822.761	2118
822.858	-103
822.955	1726
823.052	649
823.149	861
823.246	590
823.343	792
823.440	757
823.536	382
823.633	-36
823.730	1005
823.827	669
823.923	325
824.020	1574
824.117	440
824.213	616
824.310	1326
824.407	890
824.503	781
824.600	483
824.696	744
824.793	849
824.889	63
824.986	529
825.082	828
825.179	1474
825.275	1045
825.371	841
825.468	1020
825.564	43
825.660	855
825.757	897
825.853	1451
825.949	-350
826.045	1424
826.142	50
826.238	1146
826.334	466
826.430	-223
826.526	1187
826.622	818
826.718	1054
826.814	827
826.910	1079
827.006	-239
827.102	-430
827.198	1652
827.294	-78
827.390	987
827.486	1060
827.582	379
827.678	-241
827.774	1169
827.869	66
827.965	1939
828.061	-688
828.157	900
828.252	626
828.348	295
828.444	1725
828.539	580
828.635	132
828.731	1967
828.826	-550
828.922	1899
829.017	384
829.113	1190
829.208	-80
829.304	210
829.399	1618
829.495	616
829.590	1525
829.685	-290
829.781	513
829.876	910
829.971	796
830.066	1069
830.162	-212
830.257	461
830.352	454
830.447	1760
830.543	1196
830.638	423
830.733	804
830.828	1091
830.923	1389
831.018	782
831.113	70
831.208	-53
831.303	1008
831.398	675
831.493	-817
831.588	579
831.683	-1024
831.778	1229
831.873	0
831.967	1364
832.062	-55
832.157	-313
832.252	659
832.346	590
832.441	442
832.536	1749
832.631	2084
832.725	2670
832.820	365
832.914	836
833.009	155
833.104	1231
833.198	404
833.293	229
833.387	283
833.482	600
833.576	407
833.670	852
833.765	352
833.859	371
833.954	1120
834.048	343
834.142	103
834.237	-400
834.331	-160
834.425	732
834.519	-348
834.613	1421
834.708	-273
834.802	1191
834.896	-63
834.990	643
835.084	1152
835.178	475
835.272	439
835.366	277
835.460	263
835.554	427
835.648	831
835.742	154
835.836	511
835.930	-261
836.024	755
836.117	1822
836.211	327
836.305	1323
836.399	2764
836.493	14
836.586	611
836.680	346
836.774	-324
836.867	680
836.961	-617
837.055	-463
837.148	-770
837.242	47
837.335	-159
837.429	624
837.522	551
837.616	965
837.709	3105
837.803	2204
837.896	391
837.989	489
838.083	1982
838.176	4650
838.269	2861
838.363	2285
838.456	-39
838.549	456
838.642	1295
838.735	3743
838.829	1487
838.922	-52
839.015	-116
839.108	86
839.201	13
839.294	513
839.387	647
839.480	625
839.573	1013
839.666	2175
839.759	580
839.852	118
839.945	-429
840.038	607
840.131	475
840.223	420
840.316	135
840.409	844
840.502	-202
840.594	1784
840.687	-929
840.780	1077
840.873	188
840.965	1020
841.058	1886
841.150	3812
841.243	2524
841.336	1092
841.428	536
841.521	417
841.613	173
841.706	803
841.798	354
841.890	686
841.983	-357
842.075	642
842.167	358
842.260	686
842.352	1461
842.444	2076
842.537	5101
842.629	7978
842.721	1412
842.813	688
842.905	-221
842.997	1390
843.090	1420
843.182	2661
843.274	4499
843.366	11683
843.458	22685
843.550	14526
843.642	1634
843.734	1918
843.826	1866
843.918	1936
844.009	1023
844.101	31
844.193	321
844.285	858
844.377	1050
844.469	2617
844.560	1622
844.652	2718
844.744	961
844.835	544
844.927	580
845.019	1063
845.110	717
845.202	741
845.293	268
845.385	-424
845.476	-397
845.568	1784
845.659	696
845.751	254
845.842	-189
845.934	473
846.025	-578
846.116	646
846.208	496
846.299	-86
846.390	108
846.482	861
846.573	911
846.664	2633
846.755	1571
846.846	1557
846.937	-397
847.029	247
847.120	-434
847.211	140
847.302	892
847.393	-750
847.484	25
847.575	1081
847.666	105
847.757	32
847.847	54
847.938	1218
848.029	159
848.120	624
848.211	166
848.302	615
848.392	-753
848.483	1002
848.574	-518
848.664	220
848.755	-151
848.846	973
848.936	-299
849.027	323
849.118	304
849.208	194
849.299	1194
849.389	2095
849.480	4678
849.570	8154
849.661	15882
849.751	25516
849.841	7730
849.932	1480
850.022	96
850.112	605
850.203	205
850.293	793
850.383	-46
850.474	-141
850.564	70
850.654	642
850.744	448
850.834	776
850.924	680
851.014	-59
851.104	304
851.194	252
851.284	478
851.374	538
851.464	-227
851.554	783
851.644	1090
851.734	3373
851.824	2515
851.914	3003
852.004	6017
852.094	4770
852.183	1210
852.273	872
852.363	148
852.452	1197
852.542	156
852.632	-229
852.721	218
852.811	727
852.901	1429
852.990	1018
853.080	763
853.169	67
853.259	472
853.348	411
853.438	1068
853.527	2934
853.617	2395
853.706	6397
853.795	10125
853.885	25120
853.974	46001
854.063	83164
854.152	121046
854.242	45976
854.331	7965
854.420	3608
854.509	2231
854.598	3202
854.687	2118
854.777	2132
854.866	1121
854.955	1247
855.044	25
855.133	1235
855.222	-15
855.311	253
855.400	552
855.488	209
855.577	-669
855.666	936
855.755	1126
855.844	892
855.933	-339
856.021	1028
856.110	-351
856.199	300
856.288	-392
856.376	581
856.465	-620
856.554	1030
856.642	-51
856.731	1530
856.819	-482
856.908	392
856.996	0
857.085	-271
857.173	-505
857.262	381
857.350	-144
857.438	261
857.527	179
857.615	-355
857.703	-100
857.792	588
857.880	-610
857.968	603
858.056	-416
858.145	802
858.233	-743
858.321	-301
858.409	-123
858.497	31
858.585	-895
858.673	-297
858.761	-995
858.849	56
858.937	-245
859.025	250
859.113	484
859.201	-308
859.289	254
859.377	-41
859.465	1
859.552	-192
859.640	-112
859.728	584
859.816	334
859.903	-70
859.991	-815
860.079	937
860.166	-725
860.254	504
860.342	-658
860.429	77
860.517	-1701
860.604	289
860.692	163
860.779	324
860.867	-367
860.954	-588
861.042	39
861.129	586
861.216	-443
861.304	-564
861.391	180
861.478	-241
861.565	-34
861.653	280
861.740	-1137
861.827	141
861.914	-624
862.001	-120
862.089	-558
862.176	370
862.263	-710
862.350	293
862.437	-582
862.524	190
862.611	219
862.698	102
862.785	949
862.871	918
862.958	-314
863.045	280
863.132	396
863.219	158
863.306	-421
863.392	119
863.479	-137
863.566	353
863.652	301
863.739	70
863.826	-439
863.912	90
863.999	-1476
864.086	-187
864.172	-715
864.259	-240
864.345	-633
864.432	-269
864.518	-183
864.604	17
864.691	-484
864.777	618
864.863	-139
864.950	1478
865.036	365
865.122	1287
865.209	1120
865.295	1456
865.381	1100
865.467	1413
865.553	2037
865.639	3256
865.726	5813
865.812	12942
865.898	23441
865.984	34935
866.070	64072
866.156	64749
866.242	17081
866.328	4683
866.414	1808
866.499	1925
866.585	1092
866.671	1394
866.757	2367
866.843	1259
866.928	964
867.014	287
867.100	313
867.186	1056
867.271	726
867.357	2800
867.442	2272
867.528	1713
867.614	817
867.699	1978
867.785	2452
867.870	1899
867.956	2829
868.041	2823
868.127	1355
868.212	2300
868.297	938
868.383	1255
868.468	966
868.553	2457
868.639	1835
868.724	3432
868.809	2567
868.894	641
868.979	259
869.065	1017
869.150	142
869.235	744
869.320	-219
869.405	760
869.490	388
869.575	83
869.660	258
869.745	1015
869.830	30
869.915	60
870.000	-301
870.085	694
870.169	270
870.254	1579
870.339	-445
870.424	-166
870.509	-257
870.593	793
870.678	19
870.763	723
870.847	744
870.932	351
871.016	1196
871.101	860
871.186	807
871.270	811
871.355	-155
871.439	679
871.523	-373
871.608	302
871.692	54
871.777	1211
871.861	377
871.945	281
872.030	173
872.114	97
872.198	-536
872.282	847
872.367	-177
872.451	-299
872.535	38
872.619	225
872.703	-662
872.787	323
872.871	-518
872.955	969
873.039	-251
873.123	630
873.207	956
873.291	301
873.375	-255
873.459	1196
873.543	-18
873.627	661
873.711	-232
873.794	-126
873.878	-515
873.962	-69
874.045	150
874.129	651
874.137	562
874.213	-322
874.245	-262
874.296	-170
874.352	-384
874.380	-490
874.460	388
874.464	422
874.547	-347
874.568	47
874.631	1216
874.676	680
874.714	233
874.784	556
874.798	620
874.881	1280
874.892	1140
874.965	137
874.999	297
875.048	523
875.107	359
875.131	289
875.215	27
875.215	28
875.298	360
875.323	152
875.381	-300
875.430	330
875.465	729
875.538	77
875.548	-12
875.631	409
875.646	216
875.714	-695
875.753	-128
875.798	578
875.861	259
875.881	120
875.964	815
875.968	780
876.047	227
876.076	214
876.130	194
876.183	-22
876.213	-118
876.291	1235
876.296	1320
876.379	331
876.398	448
876.462	819
876.506	196
876.545	-279
876.613	862
876.628	1092
876.711	340
876.721	477
876.794	1518
876.828	1447
876.877	1264
876.935	1130
876.960	1163
877.043	412
877.043	416
877.125	1749
877.150	1554
877.208	976
877.258	1313
877.291	1601
877.365	1171
877.374	1123
877.456	1310
877.472	1192
877.539	715
877.579	1359
877.622	1977
877.687	1466
877.704	1350
877.787	1498
877.794	1503
877.869	1667
877.901	1715
877.952	1586
878.008	1144
878.034	1025
878.115	1697
878.117	1713
878.199	981
878.222	1236
878.282	1887
878.329	1760
878.364	1491
878.437	1557
878.447	1651
878.529	1203
878.544	1315
878.611	1450
878.651	1144
878.694	956
878.758	1284
878.776	1373
878.858	1278
878.865	1296
878.941	1247
878.972	952
879.023	692
879.078	806
879.105	956
879.185	1608
879.187	1620
879.269	2040
879.292	1900
879.351	1369
879.399	1346
879.433	1500
879.506	1658
879.516	1624
879.598	1636
879.613	1422
879.680	814
879.720	1076
879.762	1383
879.827	1173
879.844	1094
879.926	811
879.933	870
880.007	1773
880.040	1864
880.089	1845
880.147	1775
880.171	1879
880.253	3439
880.254	3439
880.335	4042
880.360	4414
880.417	6010
880.467	7979
880.499	9250
880.574	11323
880.580	11197
880.662	4718
880.680	3909
880.744	2296
880.787	1732
880.825	1713
880.893	2121
880.907	2175
880.989	1578
881.000	1557
881.070	1782
881.106	1741
881.152	1617
881.213	1747
881.233	1791
881.315	1644
881.319	1665
881.396	2060
881.426	1916
881.478	1836
881.532	2008
881.559	2144
881.639	2132
881.641	2130
881.722	2748
881.745	2408
881.803	1756
881.852	2009
881.885	2094
881.958	1815
881.966	1811
882.047	2184
882.064	2109
882.129	1940
882.171	2266
882.210	2886
882.277	3383
882.291	3268
882.372	2582
882.383	2453
882.454	2426
882.489	2667
882.535	2618
882.596	2244
882.616	2247
882.697	2516
882.702	2469
882.778	1866
882.808	2077
882.859	2352
882.914	2126
882.940	2264
883.020	3039
883.021	3048
883.102	2419
883.127	2371
883.183	2601
883.233	2350
883.264	2146
883.339	2583
883.345	2624
883.426	1847
883.445	1886
883.507	2464
883.551	2560
883.587	2610
883.657	2876
883.668	2872
883.749	2945
883.763	2929
883.830	2629
883.869	2223
883.910	2315
883.975	2673
883.991	2585
884.072	2002
884.081	1967
884.152	3091
884.187	3389
884.233	3275
884.292	3406
884.314	3315
884.394	2448
884.398	2420
884.475	2388
884.504	2286
884.555	2583
884.610	2764
884.636	2827
884.716	2902
884.716	2918
884.797	3770
884.821	3843
884.877	3516
884.927	3135
884.958	2930
885.033	2768
885.038	2796
885.118	2968
885.139	2913
885.199	2623
885.244	2697
885.279	3058
885.350	3553
885.359	3615
885.439	3864
885.456	3915
885.520	3354
885.561	3024
885.600	2879
885.667	2407
885.680	2534
885.760	3563
885.773	3686
885.840	3438
885.878	3355
885.920	3389
885.984	3229
886.000	3301
886.080	3676
886.089	3683
886.160	3381
886.195	3413
886.240	3553
886.300	3195
886.320	3313
886.400	4486
886.406	4516
886.480	4477
886.511	4577
886.560	4623
886.616	4238
886.640	4127
886.720	4279
886.722	4253
886.800	3627
886.827	3651
886.879	4368
886.932	4646
886.959	4520
887.038	4418
887.039	4427
887.119	3567
887.143	3422
887.198	3902
887.248	4094
887.278	4116
887.354	4209
887.358	4230
887.437	4326
887.459	4370
887.517	4612
887.564	4639
887.596	4543
887.669	4391
887.676	4390
887.755	4181
887.774	4117
887.835	4427
887.880	4595
887.914	4497
887.985	4362
887.994	4469
888.073	5085
888.090	5214
888.153	5422
888.195	5511
888.232	5157
888.300	4586
888.311	4641
888.391	4754
888.405	4772
888.470	4941
888.510	4968
888.549	5061
888.615	5269
888.628	5277
888.708	5106
888.720	5077
888.787	5136
888.825	5062
888.866	5079
888.930	5195
888.945	5231
889.024	5254
889.035	5247
889.103	5131
889.140	5007
889.182	5197
889.245	5478
889.261	5661
889.340	6397
889.349	6468
889.419	5584
889.454	5085
889.498	5211
889.559	5378
889.577	5559
889.656	6254
889.664	6306
889.735	6302
889.768	6265
889.814	6444
889.873	6633
889.978	5474
890.083	5892
890.187	5573
890.292	6398
890.397	5426
890.501	5567
890.606	5624
890.710	6593
890.815	6476
890.919	5670
891.024	5740
891.128	5179
891.233	5513
891.337	5866
891.442	5161
891.546	5910
891.650	4040
891.755	4290
891.859	6394
891.963	5251
892.068	5722
892.172	4160
892.276	4779
892.380	4421
892.484	5495
892.589	5499
892.693	4947
892.797	4529
892.901	5297
893.005	3896
893.109	5414
893.213	5205
893.317	3738
893.421	4586
893.525	4144
893.629	4013
893.733	4083
893.837	4160
893.941	4707
894.045	6880
894.148	9355
894.252	20434
894.356	11737
894.460	5335
894.564	4563
894.667	3964
894.771	3872
894.875	3975
894.978	4607
895.082	3699
895.186	4941
895.289	4226
895.393	4450
895.496	4565
895.600	3997
895.703	4031
895.807	3988
895.910	3936
896.014	3846
896.117	4081
896.221	4587
896.324	4286
896.427	3142
896.531	3534
896.634	4134
896.737	4461
896.840	5398
896.944	3870
897.047	4314
897.150	3445
897.253	3594
897.356	3600
897.460	4159
897.563	3080
897.666	4266
897.769	4429
897.872	2452
897.975	3886
898.078	3530
898.181	4006
898.284	3616
898.387	3598
898.490	4022
898.593	3575
898.695	3660
898.798	3628
898.901	4341
899.004	3404
899.107	3221
899.209	3919
899.312	4108
899.415	4266
899.518	3065
899.620	2591
899.723	2781
899.826	4855
899.928	4643
900.031	4175
900.133	4361
900.236	3325
900.338	3362
900.441	3035
900.543	3305
900.646	3835
900.748	3315
900.851	4836
900.953	3003
901.055	3777
901.158	3173
901.260	3657
901.362	2796
901.465	3087
901.567	4265
901.669	4374
901.771	2811
901.873	3794
901.976	3530
902.078	3033
902.180	3493
902.282	3693
902.384	3625
902.486	5341
902.588	4292
902.690	4815
902.792	3637
902.894	4028
902.996	3259
903.098	3614
903.200	3639
903.302	3829
903.404	3524
903.505	3299
903.607	3034
903.709	3979
903.811	3717
903.913	3807
904.014	2599
904.116	3506
904.218	3479
904.319	3237
904.421	4512
904.523	3814
904.624	4137
904.726	3595
904.827	3048
904.929	2869
905.030	3427
905.132	4503
905.233	3881
905.335	3028
905.436	3392
905.537	3569
905.639	3027
905.740	3769
905.841	4204
905.943	4010
906.044	4199
906.145	3498
906.247	2683
906.348	3892
906.449	3337
906.550	3747
906.651	3825
906.752	4298
906.854	3383
906.955	3372
907.056	3317
907.157	4237
907.258	3687
907.359	2906
907.460	3187
907.561	3086
907.662	2894
907.762	4083
907.863	3946
907.964	3850
908.065	3942
908.166	3246
908.267	3583
908.367	3191
908.468	2676
908.569	3608
908.670	4082
908.770	4877
908.871	3374
908.971	5148
909.072	4143
909.173	3190
909.273	3050
909.374	4547
909.474	3486
909.575	3118
909.675	3791
909.776	4670
909.876	3477
909.977	3029
910.077	4417
910.177	3839
910.278	3638
910.378	3507
910.478	3686
910.579	3362
910.679	3309
910.779	3638
910.879	3906
910.980	3226
911.080	3477
911.180	3543
911.280	3451
911.380	3181
911.480	3899
911.580	3061
911.680	3291
911.780	3521
911.880	3317
911.980	2913
912.080	3632
912.180	3805
912.280	3962
912.380	3485
912.480	2530
912.580	3091
912.679	2652
912.779	3441
912.879	3587
912.979	3363
913.078	3831
913.178	2884
913.278	2740
913.377	3306
913.477	3644
913.577	3121
913.676	3867
913.776	3551
913.875	3589
913.975	4117
914.074	3221
914.174	3559
914.273	2906
914.373	4213
914.472	2786
914.572	3072
914.671	3354
914.770	3384
914.870	2724
914.969	3568
915.068	2735
915.167	3824
915.267	2867
915.366	3064
915.465	2458
915.564	3748
915.663	3751
915.763	3408
915.862	4190
915.961	3358
916.060	2763
916.159	3813
916.258	1917
916.357	3313
916.456	3298
916.555	3363
916.654	2634
916.752	4353
916.851	3346
916.950	3521
917.049	2177
917.148	3135
917.247	3966
917.345	2773
917.444	3394
917.543	3916
917.642	2811
917.740	3672
917.839	4066
917.937	4043
918.036	3365
918.135	3594
918.233	3044
918.332	3122
918.430	3064
918.529	3663
918.627	2748
918.726	3793
918.824	3014
918.923	3116
919.021	3278
919.119	3036
919.218	2169
919.316	3030
919.414	4140
919.512	4385
919.611	3894
919.709	3653
919.807	3849
919.905	4251
920.003	3705
920.102	3923
920.200	3656
920.298	3641
920.396	3488
920.494	4028
920.592	3941
920.690	3966
920.788	4137
920.886	4150
920.984	3772
921.082	4031
921.180	4512
921.277	4801
921.375	3912
921.473	4935
921.571	4423
921.669	3363
921.766	4509
921.864	5022
921.962	4779
922.060	4740
922.157	4167
922.255	4765
922.352	4798
922.450	4705
922.548	5148
922.645	5513
922.743	6309
922.840	8103
922.938	8400
923.035	8098
923.133	7797
923.230	8895
923.327	10087
923.425	9782
923.522	8368
923.619	7520
923.717	7223
923.814	7890
923.911	7223
924.008	8096
924.106	7257
924.203	7762
924.300	7534
924.397	7355
924.494	8039
924.591	8029
924.688	7278
924.786	7412
924.883	7929
924.979	8262
925.077	7852
925.173	7226
925.270	6973
925.367	7634
925.464	8198
925.561	7844
925.658	7554
925.755	7076
925.852	7616
925.948	7341
926.045	7444
926.142	7976
926.239	7432
926.335	6426
926.432	7069
926.529	7313
926.625	8218
926.722	6864
926.818	6760
926.915	7958
927.011	7165
927.108	7509
927.204	6639
927.301	6502
927.397	7154
927.494	8023
927.590	5885
927.687	7408
927.783	7473
927.879	7073
927.976	5337
928.072	6610
928.168	6659
928.264	7025
928.361	5968
928.457	7121
928.553	5140
928.649	6764
928.745	6777
928.841	5146
928.937	6824
929.033	6585
929.129	6070
929.225	6968
929.321	5660
929.417	6574
929.513	6764
929.609	6749
929.705	5884
929.801	5883
929.897	6301
929.993	6691
930.089	6762
930.184	5548
930.280	6441
930.376	7645
930.471	4957
930.567	5603
930.663	6172
930.758	4927
930.854	6063
930.950	5713
931.045	5319
931.141	6603
931.236	6743
931.332	6225
931.427	5128
931.523	6963
931.618	5829
931.714	4890
931.809	5119
931.905	5188
932.000	5139
932.095	5174
932.191	6772
932.286	5912
932.381	5271
932.476	5040
932.572	4692
932.667	6311
932.762	5360
932.857	6167
932.952	5823
933.047	5422
933.142	6081
933.237	5709
933.332	6017
933.427	6535
933.522	5444
933.617	4645
933.712	5477
933.807	6361
933.902	6337
933.997	5670
934.092	3832
934.187	5478
934.282	5927
934.376	6186
934.471	5406
934.566	5197
934.661	5447
934.755	5085
934.850	6115
934.945	5270
935.039	4097
935.134	5357
935.228	5377
935.323	6269
935.417	3972
935.512	4057
935.606	4918
935.701	5945
935.795	5781
935.890	5078
935.984	4057
936.079	4642
936.173	4846
936.267	5086
936.362	4772
936.456	5813
936.550	5321
936.644	4913
936.738	4738
936.833	4266
936.927	4805
937.021	5360
937.115	4921
937.209	4145
937.303	4908
937.397	4847
937.491	4434
937.585	4677
937.679	4204
937.773	4590
937.867	4115
937.961	4419
938.055	4825
938.149	4830
938.243	3487
938.337	3586
938.430	4195
938.524	5840
938.618	5670
938.712	4874
938.805	3508
938.899	4754
938.993	4863
939.086	4449
939.180	4460
939.274	4701
939.367	5483
939.461	4951
939.554	3698
939.648	3800
939.741	3792
939.835	3977
939.928	5297
940.022	4292
940.115	5346
940.208	4756
940.302	5701
940.395	5398
940.488	3866
940.582	5152
940.675	3517
940.768	4642
940.861	4483
940.954	4527
941.048	3696
941.141	3856
941.234	4457
941.327	4127
941.420	5351
941.513	5442
941.606	3932
941.699	4614
941.792	4906
941.885	4308
941.978	4510
942.071	4555
942.164	3038
942.257	4128
942.349	3968
942.442	3215
942.535	3619
942.628	3676
942.721	4622
942.813	3559
942.906	4608
942.999	3759
943.091	3851
943.184	3800
943.277	3885
943.369	4094
943.462	2996
943.554	4430
943.647	3408
943.739	4934
943.832	4333
943.924	2491
944.017	3527
944.109	2880
944.201	3775
944.294	3311
944.386	3818
944.478	3914
944.571	3876
944.663	3551
944.755	3508
944.847	4837
944.940	3717
945.032	2232
945.124	3025
945.216	3913
945.308	3313
945.400	3560
945.492	3393
945.584	4834
945.676	3909
945.768	4017
945.860	5324
945.952	4978
946.044	4042
946.136	3726
946.228	3077
946.320	3519
946.412	3641
946.503	3850
946.595	4552
946.687	3596
946.779	2867
946.870	3202
946.962	2993
947.054	3831
947.145	3777
947.237	3063
947.329	4320
947.420	2980
947.512	3441
947.603	3510
947.695	3146
947.786	2423
947.878	2991
947.969	4496
948.061	3742
948.152	2761
948.243	2998
948.335	3208
948.426	2016
948.517	3726
948.609	2822
948.700	3880
948.791	1656
948.882	3635
948.973	3110
949.065	2831
949.156	3052
949.247	2093
949.338	3128
949.429	2296
949.520	3225
949.611	2927
949.702	3063
949.793	2863
949.884	3272
949.975	3851
950.066	2460
950.157	2979
950.247	3191
950.338	3067
950.429	2342
950.520	3643
950.611	3981
950.701	3843
950.792	4075
950.883	4036
950.973	4089
951.064	3728
951.155	3576
951.245	4086
951.336	3470
951.427	3249
951.517	4299
951.608	3598
951.698	3344
951.788	2883
951.879	3048
951.969	2523
952.060	3520
952.150	3212
952.240	3205
952.331	2016
952.421	4076
952.511	3537
952.602	3449
952.692	3094
952.782	3097
952.872	2924
952.962	3385
953.052	3582
953.143	2733
953.233	3600
953.323	3127
953.413	2506
953.503	2606
953.593	3449
953.683	3664
953.773	2813
953.863	3571
953.953	3498
954.042	3546
954.132	3723
954.222	3635
954.312	2803
954.402	3091
954.492	4659
954.581	5010
954.671	4111
954.761	3151
954.850	4528
954.940	2696
955.030	3574
955.119	2974
955.209	3848
955.298	3586
955.388	4246
955.477	4325
955.567	3481
955.656	3429
955.746	3908
955.835	3661
955.925	3437
956.014	4076
956.103	3945
956.193	4658
956.282	4796
956.371	4127
956.461	3633
956.550	3460
956.639	4091
956.728	3119
956.817	4911
956.906	4752
956.995	4226
957.085	4293
957.174	4659
957.263	4233
957.352	4519
957.441	4954
957.530	4964
957.619	5138
957.708	4858
957.796	4423
957.885	5225
957.974	5199
958.063	4977
958.152	3792
958.241	5369
958.329	5459
958.418	5604
958.507	4593
958.596	6269
958.684	5483
958.773	6846
958.861	7472
958.950	7032
959.039	6371
959.127	6314
959.216	8124
959.304	6707
959.393	7190
959.481	7158
959.570	6796
959.658	7567
959.746	6722
959.835	7976
959.923	8758
960.011	6709
960.100	6546
960.188	6461
960.276	5379
960.365	5955
960.453	4889
960.541	4493
960.629	4716
960.717	5468
960.805	4162
960.893	4842
960.981	4562
961.069	5789
961.158	5003
961.245	5253
961.333	4797
961.421	3767
961.509	4518
961.597	4722
961.685	3851
961.773	3921
961.861	3352
961.949	4902
962.036	3683
962.124	4494
962.212	3499
962.299	3628
962.387	3063
962.475	3301
962.562	2896
962.650	4160
962.738	3086
962.825	3647
962.913	2611
963.000	3368
963.088	3386
963.175	3698
963.263	3241
963.350	3271
963.438	3120
963.525	4058
963.612	5899
963.700	10306
963.787	18305
963.874	9528
963.962	3701
964.049	3415
964.136	2626
964.223	2538
964.310	2962
964.398	2811
964.485	2889
964.572	3418
964.659	4376
964.746	3634
964.833	3824
964.920	3619
965.007	2672
965.094	3578
965.181	2290
965.268	2728
965.355	2841
965.441	2160
965.528	1691
965.615	2935
965.702	2088
965.789	1136
965.875	2430
965.962	2571
966.049	2935
966.136	3814
966.222	2394
966.309	2730
966.395	3346
966.482	2121
966.569	2642
966.655	2082
966.742	2159
966.828	2410
966.915	1485
967.001	2679
967.087	2012
967.174	2941
967.260	3220
967.347	4701
967.433	6878
967.519	12003
967.605	5977
967.692	2816
967.778	2372
967.864	2072
967.950	2404
968.036	1493
968.123	2170
968.209	2676
968.295	1463
968.381	3160
968.467	2457
968.553	383
968.639	3261
968.725	1719
968.811	4364
968.897	4217
968.983	1443
969.069	1345
969.154	2130
969.240	2460
969.326	1386
969.412	2438
969.497	1993
969.583	1345
969.669	2380
969.755	2250
969.840	2141
969.926	3248
970.012	2493
970.097	4315
970.183	1763
970.268	3075
970.354	3816
970.439	5073
970.525	8712
970.610	3127
970.696	3060
970.781	1903
970.866	1251
970.952	2482
971.037	1972
971.122	1932
971.208	1928
971.293	1487
971.378	780
971.463	2330
971.549	1705
971.634	1542
971.719	2471
971.804	3185
971.889	2572
971.974	2279
972.059	1502
972.144	1991
972.229	1556
972.314	949
972.399	2328
972.484	1876
972.569	1826
972.654	3280
972.739	3975
972.824	5063
972.908	1792
972.993	1328
973.078	795
973.163	1624
973.247	1917
973.332	659
973.417	2659
973.501	1653
973.586	1612
973.671	1087
973.755	1675
973.840	2853
973.924	2202
974.009	2332
974.093	1892
974.178	3066
974.262	3772
974.346	3221
974.431	1550
974.515	1717
974.600	1540
974.684	2142
974.768	1801
974.852	1642
974.937	503
975.021	2439
975.105	1428
975.189	775
975.273	2156
975.358	919
975.442	398
975.526	1883
975.610	-147
975.694	838
975.778	1736
975.862	1586
975.946	-86
976.030	3191
976.114	895
976.198	2564
976.281	1481
976.365	1736
976.449	646
976.533	1541
976.617	1253
976.700	1017
976.784	1646
976.868	1157
976.951	2727
977.035	2395
977.119	1768
977.202	2050
977.286	1978
977.369	2274
977.453	2331
977.536	2173
977.620	1368
977.703	1372
977.787	773
977.870	2936
977.953	2416
978.037	679
978.120	3159
978.203	2526
978.287	3479
978.370	3307
978.453	1472
978.536	2242
978.620	2206
978.703	3247
978.786	1723
978.869	1166
978.952	570
979.035	2774
979.118	1882
979.201	829
979.284	1148
979.367	-42
979.450	1099
979.533	222
979.616	1327
979.699	1955
979.782	1497
979.865	1503
979.948	1034
980.030	751
980.113	1381
980.196	711
980.279	1849
980.361	280
980.444	1376
980.526	1810
980.609	2240
980.692	2189
980.774	2500
980.857	510
980.939	1909
981.022	830
981.104	1187
981.187	1957
981.269	789
981.352	1683
981.434	734
981.516	1281
981.599	1320
981.681	1331
981.763	1052
981.846	1467
981.928	1237
982.010	696
982.092	529
982.174	1482
982.256	508
982.339	1734
982.421	745
982.503	2270
982.585	-275
982.667	1289
982.749	753
982.831	1177
982.913	944
982.995	2337
983.077	1648
983.158	3145
983.240	910
983.322	2069
983.404	1612
983.486	894
983.568	2114
983.649	2646
983.731	2035
983.813	1557
983.894	1609
983.976	1010
984.058	1439
984.139	1720
984.221	798
984.302	1821
984.384	1560
984.465	531
984.547	1346
984.628	379
984.710	1974
984.791	765
984.872	1532
984.954	1648
985.035	1434
985.116	1106
985.198	558
985.279	2811
985.360	568
985.441	839
985.522	1514
985.604	1498
985.685	56
985.766	2036
985.847	1149
985.928	1510
986.009	933
986.090	723
986.171	2643
986.252	1114
986.333	1314
986.414	726
986.495	2000
986.576	1192
986.656	920
986.737	1589
986.818	1986
986.899	919
986.980	425
987.060	1614
987.141	723
987.222	1544
987.302	1742
987.383	1919
987.464	1262
987.544	2575
987.625	682
987.705	1577
987.786	2192
987.866	1181
987.947	2006
988.027	1544
988.108	1042
988.188	1366
988.268	729
988.349	1787
988.429	1535
988.509	1608
988.589	1001
988.670	-294
988.750	2927
988.830	1409
988.910	1761
988.990	946
989.070	1507
989.151	499
989.231	441
989.311	1388
989.391	752
989.471	1780
989.551	1252
989.631	552
989.711	2078
989.791	927
989.870	616
989.950	2063
990.030	848
990.110	1232
990.190	630
990.269	1200
990.349	893
990.429	332
990.509	1444
990.588	1021
990.668	1200
990.747	1160
990.827	399
990.907	1361
990.986	852
991.066	878
991.145	130
991.225	1898
991.304	603
991.383	423
991.463	61
991.542	1096
991.622	-229
991.701	140
991.780	866
991.859	973
991.939	1192
992.018	899
992.097	1134
992.176	407
992.256	573
992.335	197
992.414	387
992.493	817
992.572	-97
992.651	2334
992.730	195
992.809	568
992.888	792
992.967	1201
993.046	254
993.125	-372
993.203	672
993.282	1382
993.361	607
993.440	878
993.519	429
993.597	731
993.676	537
993.755	1266
993.834	368
993.912	-72
993.991	1277
994.069	-14
994.148	653
994.226	299
994.305	995
994.384	882
994.462	955
994.540	-134
994.619	-27
994.697	1305
994.776	-13
994.854	795
994.932	528
995.011	167
995.089	-538
995.167	329
995.245	1042
995.324	223
995.402	1332
995.480	316
995.558	226
995.636	-174
995.714	-266
995.792	865
995.870	8
995.948	653
996.026	-4
996.104	-184
996.182	801
996.260	276
996.338	976
996.416	-261
996.494	-624
996.572	909
996.649	-318
996.727	305
996.805	300
996.883	-170
996.960	-242
997.038	310
997.116	-150
997.193	-701
997.271	1186
997.348	-273
997.426	591
997.504	574
997.581	741
997.658	268
997.736	-550
997.813	255
997.891	-183
997.968	-119
998.046	-421
998.123	213
998.200	961
998.277	-182
998.355	540
998.432	-734
998.509	394
998.586	327
998.663	598
998.741	-285
998.818	-359
998.895	-168
998.972	235
999.049	212
999.126	-639
999.203	531
999.280	-209
999.357	104
999.434	-717
999.511	293
999.587	18
999.664	-370
999.741	-105
999.818	609
999.895	-157
999.971	-1060
1000.048	34
1000.125	804
1000.202	-95
1000.278	796
1000.355	3
1000.431	464
1000.508	37
1000.584	183
1000.661	-213
1000.738	-820
1000.814	-194
1000.890	953
1000.967	-940
1001.043	390
1001.120	-865
1001.196	149
1001.272	-687
1001.349	530
1001.425	571
1001.501	-1000
1001.577	-1060
1001.654	598
1001.730	-458
1001.806	-210
1001.882	-1144
1001.958	-67
1002.034	-98
1002.110	-310
1002.186	-620
1002.262	-725
1002.338	-1330
1002.414	-336
1002.490	196
1002.566	-341
1002.642	-635
1002.718	257
1002.794	-795
1002.870	-866
1002.945	-242
1003.021	-486
1003.097	-477
1003.173	146
1003.248	-1135
1003.324	460
1003.400	217
1003.475	-901
1003.551	-663
1003.626	-342
1003.702	-1007
1003.777	-451
1003.853	-590
1003.928	-722
1004.004	-365
1004.079	199
1004.155	-540
1004.230	-688
1004.305	564
1004.381	-306
1004.456	-801
1004.531	-164
1004.607	68
1004.682	-1058
1004.757	-34
1004.832	-1103
1004.907	-558
1004.982	-1184
1005.057	-654
1005.133	-1157
1005.208	-560
1005.283	-1144
1005.358	95
1005.433	-353
1005.508	-11
1005.583	-1136
1005.657	-1379
1005.732	-612
1005.807	-1333
1005.882	-932
1005.957	-1064
1006.032	-691
1006.106	-622
1006.181	-869
1006.256	-885
1006.331	-302
1006.405	-1125
1006.480	-496
1006.554	-1435
1006.629	-465
1006.704	-906
1006.778	-1038
1006.853	-181
1006.927	-763
1007.002	-1673
1007.076	-340
1007.150	-900
1007.225	-476
1007.299	-191
1007.373	-1658
1007.448	-1066
1007.522	-124
1007.596	-933
1007.671	-1185
1007.745	-477
1007.819	-1612
1007.893	-481
1007.967	-1083
1008.041	-793
1008.115	-296
1008.190	-918
1008.264	-137
1008.338	-1887
1008.412	-220
1008.486	-1099
1008.560	-1006
1008.633	-1206
1008.707	-930
1008.781	-218
1008.855	-708
1008.929	-376
1009.003	-861
1009.076	-823
1009.150	-818
1009.224	-1434
1009.298	-622
1009.371	-996
1009.445	-514
1009.519	-1123
1009.592	-1079
1009.666	-1436
1009.739	-298
1009.813	-1974
1009.886	-255
1009.960	-2298
1010.033	-633
1010.107	-941
1010.180	-1264
1010.253	-1339
1010.327	-1238
1010.400	-967
1010.473	-1393
1010.547	45
1010.620	-1492
1010.693	-996
1010.766	-1073
1010.840	-730
1010.913	-1072
1010.986	-1321
1011.059	-1243
1011.132	-674
1011.205	-464
1011.278	-1279
1011.351	-1342
1011.424	-1636
1011.497	-1416
1011.570	-1619
1011.643	-680
1011.716	-981
1011.789	-1417
1011.862	-587
1011.934	-1088
1012.007	-2100
1012.080	-1093
1012.153	-1416
1012.225	372
1012.298	-1178
1012.371	-1423
1012.443	-819
1012.516	-1477
1012.588	-1457
1012.661	-498
1012.733	-969
1012.806	290
1012.879	-1597
1012.951	-1523
1013.023	-1525
1013.096	-822
1013.168	-1380
1013.241	-493
1013.313	-750
1013.385	-1329
1013.458	-1480
1013.530	-846
1013.602	-1896
1013.674	-579
1013.746	-2045
1013.819	-2109
1013.891	-1562
1013.963	-1296
1014.035	-1202
1014.107	-918
1014.179	-817
1014.251	-1810
1014.323	-739
1014.395	-922
1014.467	-924
1014.539	-1409
1014.611	-1828
1014.683	-946
1014.754	-1704
1014.826	-1485
1014.898	-593
1014.970	-1816
1015.042	-824
1015.113	-1631
1015.185	-1408
1015.257	-1898
1015.328	-1320
1015.400	-952
1015.471	-1738
1015.543	-1808
1015.615	-1266
1015.686	-1301
1015.757	-1524
1015.829	-1009
1015.901	-1704
1015.972	-838
1016.043	-1821
1016.115	-1067
1016.186	-1345
1016.257	-1915
1016.328	-1482
1016.400	-766
1016.471	-2178
1016.542	-1447
1016.613	-1688
1016.685	-1269
1016.756	-1159
1016.827	-1545
1016.898	-1290
1016.969	-899
1017.040	-1623
1017.111	-1233
1017.182	-1593
1017.253	-1422
1017.324	-1657
1017.395	-900
1017.466	-1982
1017.537	-1857
1017.608	-1375
1017.678	-1890
1017.749	-1440
1017.820	-1275
1017.891	-1562
1017.961	-1522
1018.032	-2024
1018.103	-866
1018.173	-1643
1018.244	-1542
1018.315	-1399
1018.385	-1046
1018.456	-2214
1018.526	-1365
1018.597	-1695
1018.667	-566
1018.738	-1611
1018.808	-1632
1018.878	-2275
1018.949	-1402
1019.019	-1043
1019.089	-1931
1019.160	-2110
1019.230	-1403
1019.300	-2054
1019.371	-2297
1019.441	-1213
1019.511	-1645
1019.581	-1420
1019.651	-1879
1019.721	-1446
1019.791	-1659
1019.861	-2614
1019.931	-2036
1020.001	-1861
1020.071	-1453
1020.141	-1734
1020.211	-1519
1020.281	-1321
1020.351	-1778
1020.421	-2008
1020.491	-1694
1020.560	-2112
1020.630	-891
1020.700	-1657
1020.770	-1483
1020.839	-2542
1020.909	-1864
1020.979	-1489
1021.048	-1054
1021.118	-2216
1021.187	-1579
1021.257	-1188
1021.326	-1398
1021.396	-1088
1021.465	-999
1021.535	-2201
1021.604	-2456
1021.674	-1983
1021.743	-1549
1021.812	-1397
1021.882	-1959
1021.951	-2194
1022.020	-1254
1022.089	-1463
1022.159	-1708
1022.228	-2176
1022.297	-1912
1022.366	-1362
1022.435	-2150
1022.504	-1311
1022.573	-1577
1022.642	-2201
1022.711	-1347
1022.781	-1527
1022.849	-871
1022.918	-2666
1022.987	-1154
1023.056	-2624
1023.125	-1813
1023.194	-1949
1023.263	-1029
1023.331	-1928
1023.400	-2195
1023.469	-1142
1023.538	-2434
1023.606	-1427
1023.675	-1513
1023.744	-2439
1023.812	-2106
1023.881	-2219
1023.949	-1469
1024.018	-2064
1024.086	-1662
1024.155	-1964
1024.223	-2169
1024.292	-2065
1024.360	-995
1024.429	-2140
1024.497	-2482
1024.565	-2374
1024.634	-1688
1024.702	-2140
1024.770	-1340
1024.838	-2034
1024.907	-1467
1024.975	-2738
1025.043	-2041
1025.111	-1835
1025.179	-1612
1025.247	-1886
1025.315	-2098
1025.383	-2481
1025.451	-1891
1025.519	-1731
1025.587	-1774
1025.655	-2580
1025.723	-1716
1025.791	-1636
1025.859	-1484
1025.927	-2140
1025.995	-2330
1026.062	-1206
1026.130	-2333
1026.198	-2647
1026.266	-1811
1026.333	-1431
1026.401	-978
1026.469	-2079
1026.536	-1568
1026.604	-1797
1026.671	-1687
1026.739	-2234
1026.806	-1414
1026.874	-2214
1026.941	-2118
1027.009	-1758
1027.076	-2256
1027.144	-1974
1027.211	-1336
1027.278	-2867
1027.345	-1385
1027.413	-1399
1027.480	-1831
1027.547	-2285
1027.614	-2262
1027.682	-1816
1027.749	-2040
1027.816	-2495
1027.883	-1624
1027.950	-1787
1028.017	-2030
1028.084	-1638
1028.151	-2233
1028.218	-1985
1028.285	-1696
1028.352	-2084
1028.419	-1413
1028.486	-2153
1028.553	-955
1028.619	-2545
1028.686	-1027
1028.753	-2310
1028.820	-1824
1028.886	-1872
1028.953	-1775
1029.020	-1279
1029.086	-1652
1029.153	-1770
1029.220	-2232
1029.286	-2182
1029.353	-1693
1029.419	-1982
1029.486	-1354
1029.552	-2669
1029.619	-1979
1029.685	-1850
1029.751	-1625
1029.818	-1160
1029.884	-2447
1029.951	-1708
1030.017	-1740
1030.083	-2057
1030.149	-1835
1030.216	-2296
1030.282	-1216
1030.348	-1532
1030.414	-2458
1030.480	-1854
1030.546	-1121
1030.612	-1458
1030.678	-2314
1030.744	-2127
1030.810	-1756
1030.876	-1825
1030.942	-2297
1031.008	-2415
1031.074	-2352
1031.140	-1773
1031.206	-1015
1031.272	-2018
1031.337	-1960
1031.403	-1616
1031.469	-2477
1031.534	-2991
1031.600	-1278
1031.666	-1803
1031.731	-2344
1031.797	-1382
1031.863	-1795
1031.928	-2091
1031.994	-2510
1032.059	-2499
1032.125	-2267
1032.190	-2337
1032.256	-2013
1032.321	-1880
1032.386	-2325
1032.452	-1436
1032.517	-2456
1032.582	-2373
1032.647	-1503
1032.713	-1673
1032.778	-1360
1032.843	-2166
1032.908	-1670
1032.974	-2326
1033.039	-2721
1033.104	-1665
1033.169	-1874
1033.234	-1819
1033.299	-747
1033.364	-1680
1033.429	-2461
1033.494	-1195
1033.559	-2143
1033.624	-2882
1033.688	-1489
1033.753	-2088
1033.818	-1723
1033.883	-1946
1033.948	-1365
1034.013	-1531
1034.077	-1462
1034.142	-476
1034.207	-1024
1034.271	-112
1034.336	238
1034.400	-717
1034.465	-698
1034.530	-1112
1034.594	-1011
1034.658	-1889
1034.723	-1209
1034.787	-1757
1034.852	-2209
1034.916	-2069
1034.981	-1414
1035.045	-1488
1035.109	-2093
1035.173	-1294
1035.238	-1882
1035.302	-1122
1035.366	-2384
1035.430	-1611
1035.495	-2223
1035.559	-1330
1035.623	-1562
1035.687	-2879
1035.751	-1919
1035.815	-2536
1035.879	-1977
1035.943	-1745
1036.007	-1851
1036.071	-2334
1036.135	-2030
1036.198	-1977
1036.262	-2379
1036.326	-1881
1036.390	-1082
1036.454	-1608
1036.517	-1499
1036.581	-1499
1036.645	-1755
1036.709	-1704
1036.772	-1903
1036.836	-1626
1036.900	-1900
1036.963	-2313
1037.026	-1978
1037.090	-2251
1037.154	-2328
1037.217	-2505
1037.280	-1887
1037.344	-2263
1037.407	-2118
1037.471	-2022
1037.534	-1418
1037.597	-1961
1037.661	-536
1037.724	-1768
1037.787	-2088
1037.850	-2294
1037.913	-1885
1037.977	-1820
1038.040	-1664
1038.103	-1674
1038.166	-2503
1038.229	-2068
1038.292	-2613
1038.355	-1669
1038.418	-1811
1038.481	-1988
1038.544	-1152
1038.607	-1890
1038.670	-2275
1038.732	-2064
1038.795	-2240
1038.858	-1900
1038.921	-1918
1038.984	-1640
1039.046	-1887
1039.109	-2047
1039.172	-2724
1039.234	-1877
1039.297	-1656
1039.360	-1341
1039.422	-1327
1039.485	-1958
1039.547	-2680
1039.610	-2437
1039.672	-1630
1039.734	-2533
1039.797	-1632
1039.859	-2258
1039.922	-1722
1039.984	-1650
1040.046	-1742
1040.109	-2303
1040.171	-2311
1040.233	-2226
1040.295	-2129
1040.358	-1969
1040.420	-2090
1040.482	-2140
1040.544	-2397
1040.606	-2085
1040.668	-1370
1040.730	-2164
1040.792	-2199
1040.854	-2459
1040.916	-1980
1040.978	-2805
1041.040	-1735
1041.102	-1770
1041.164	-1844
1041.225	-1613
1041.287	-2960
1041.349	-1895
1041.411	-2045
1041.472	-2338
1041.534	-1834
1041.596	-2529
1041.657	-1505
1041.719	-2331
1041.781	-2301
1041.842	-1992
1041.904	-927
1041.965	-2548
1042.027	-1227
1042.088	-1324
1042.150	-1737
1042.211	-2634
1042.272	-1767
1042.334	-2413
1042.395	-943
1042.456	-2417
1042.518	-2250
1042.579	-2093
1042.640	-2305
1042.701	-1852
1042.763	-2151
1042.824	-2219
1042.885	-2054
1042.946	-2281
1043.007	-1916
1043.068	-2114
1043.129	-2189
1043.190	-2282
1043.251	-1723
1043.312	-2184
1043.373	-1314
1043.434	-2424
1043.495	-1824
1043.556	-1392
1043.616	-2454
1043.677	-2855
1043.738	-2142
1043.799	-1689
1043.859	-2062
1043.920	-1793
1043.981	-1759
1044.041	-1799
1044.102	-2057
1044.162	-2309
1044.223	-1883
1044.284	-1913
1044.344	-1416
1044.405	-2283
1044.465	-1699
1044.525	-2639
1044.586	-2362
1044.646	-1962
1044.707	-1835
1044.767	-2084
1044.827	-1583
1044.887	-1787
1044.948	-2329
1045.008	-2206
1045.068	-2199
1045.128	-2124
1045.188	-1710
1045.249	-1660
1045.309	-1757
1045.369	-2038
1045.429	-1529
1045.489	-2187
1045.549	-1471
1045.609	-1763
1045.669	-1494
1045.729	-1965
1045.789	-1787
1045.848	-2080
1045.908	-1866
1045.968	-1802
1046.028	-1265
1046.088	-1525
1046.147	-1174
1046.207	-1579
1046.267	-1720
1046.326	-1658
1046.386	-1341
1046.446	-970
1046.505	-1427
1046.565	-684
1046.624	-304
1046.684	-345
1046.743	-722
1046.803	-367
1046.862	96
1046.922	0
