'Start Wavelength	183.907
'End Wavelength	1046.922
'Gate Delay	5.000
'Gate Width (ms)	1.050
'Laser Output Level	0.000
'X Position	0.000
'Y Position	0.000
'Z Position	0.000
'Grid Point Number	1.000
'Shot Number	100.000
183.907	-234.000
183.977	-102.000
184.047	52
184.116	810
184.186	889
184.256	163
184.325	91
184.395	-1230
184.465	399
184.534	170
184.604	-331
184.674	604
184.743	-479
184.813	888
184.883	120
184.952	-477
185.022	-62
185.092	188
185.161	-347
185.231	517
185.301	354
185.370	93
185.440	-219
185.509	-410
185.579	484
185.649	-315
185.718	516
185.788	356
185.857	-62
185.927	-112
185.996	205
186.066	128
186.136	448
186.205	-60
186.275	-448
186.344	102
186.414	-285
186.483	-147
186.553	1083
186.622	653
186.692	501
186.761	-228
186.831	39
186.900	-231
186.970	395
187.039	513
187.109	534
187.178	633
187.248	-93
187.317	-77
187.387	-310
187.456	31
187.526	90
187.595	-63
187.664	-691
187.734	-454
187.803	231
187.873	583
187.942	78
188.012	366
188.081	-472
188.150	91
188.220	647
188.289	716
188.358	291
188.428	-159
188.497	-724
188.567	267
188.636	-130
188.705	113
188.775	3
188.844	-432
188.913	936
188.983	-243
189.052	378
189.121	-134
189.191	-377
189.260	-259
189.329	-707
189.399	233
189.468	429
189.537	168
189.606	-42
189.676	260
189.745	322
189.814	97
189.883	-307
189.953	277
190.022	-439
190.091	537
190.161	-264
190.230	558
190.299	-223
190.368	739
190.437	-516
190.507	213
190.576	-147
190.645	-221
190.714	491
190.783	-66
190.853	754
190.922	399
190.991	-91
191.060	494
191.129	-512
191.198	282
191.268	41
191.337	166
191.406	520
191.475	420
191.544	283
191.613	793
191.682	-640
191.752	664
191.821	-285
191.890	848
191.959	-77
192.028	625
192.097	227
192.166	586
192.235	-551
192.304	-210
192.373	-62
192.442	229
192.511	-282
192.580	647
192.650	-340
192.719	88
192.788	466
192.857	-75
192.926	143
192.995	148
193.064	214
193.133	-236
193.202	-555
193.271	490
193.340	481
193.409	333
193.478	530
193.547	-625
193.615	-134
193.684	108
193.753	-499
193.822	1120
193.891	-77
193.960	-41
194.029	105
194.098	302
194.167	-334
194.236	-313
194.305	254
194.374	948
194.443	32
194.512	59
194.580	-10
194.649	436
194.718	476
194.787	-251
194.856	-186
194.925	173
194.994	-57
195.062	629
195.131	-452
195.200	219
195.269	119
195.338	219
195.407	742
195.475	-331
195.544	-6
195.613	192
195.682	-76
195.751	53
195.819	-401
195.888	355
195.957	240
196.026	368
196.094	-313
196.163	-247
196.232	94
196.301	-16
196.369	-809
196.438	-26
196.507	-625
196.576	108
196.644	-428
196.713	423
196.782	519
196.850	882
196.919	-268
196.988	103
197.056	-1046
197.125	289
197.194	-392
197.262	-44
197.331	12
197.400	348
197.468	356
197.537	212
197.606	-513
197.674	-8
197.743	-247
197.812	-188
197.880	19
197.949	-295
198.017	36
198.086	10
198.155	89
198.223	981
198.292	612
198.360	43
198.429	-392
198.497	-219
198.566	607
198.635	130
198.703	-28
198.772	-445
198.840	822
198.909	-299
198.977	-71
199.046	-405
199.114	302
199.183	319
199.251	-306
199.320	156
199.388	-86
199.457	-279
199.525	-391
199.594	-296
199.662	-1013
199.731	108
199.799	-625
199.867	-127
199.936	-194
200.004	472
200.073	203
200.141	-337
200.210	302
200.278	423
200.346	341
200.415	886
200.483	-789
200.552	920
200.620	366
200.688	173
200.757	-266
200.825	-575
200.893	-92
200.962	144
201.030	94
201.098	-489
201.167	41
201.235	-126
201.303	-236
201.372	441
201.440	-391
201.508	-160
201.577	753
201.645	162
201.713	301
201.781	377
201.850	-191
201.918	837
201.986	-323
202.055	852
202.123	-1073
202.191	-287
202.259	-229
202.327	412
202.396	-352
202.464	-423
202.532	-178
202.600	1076
202.669	-332
202.737	-165
202.805	-294
202.873	-81
202.941	-156
203.009	-317
203.078	-677
203.146	-528
203.214	110
203.282	-231
203.350	554
203.418	611
203.487	-115
203.555	-456
203.623	-985
203.691	517
203.759	-124
203.827	-344
203.895	-168
203.963	-239
204.031	-675
204.099	75
204.168	158
204.236	192
204.304	205
204.372	-562
204.440	-364
204.508	-288
204.576	301
204.644	339
204.712	-688
204.780	69
204.848	-133
204.916	-452
204.984	-773
205.052	259
205.120	-507
205.188	-627
205.256	-899
205.324	250
205.392	-584
205.460	-264
205.528	-754
205.596	128
205.664	-308
205.732	-718
205.799	73
205.867	785
205.935	-753
206.003	514
206.071	-84
206.139	330
206.207	-531
206.275	-767
206.343	-525
206.411	-683
206.478	-655
206.546	15
206.614	274
206.682	-501
206.750	-507
206.818	124
206.885	510
206.953	-1508
207.021	-45
207.089	287
207.157	-795
207.225	-137
207.292	-1050
207.360	-146
207.428	-566
207.496	-184
207.563	210
207.631	50
207.699	-500
207.767	-96
207.834	-782
207.902	-377
207.970	27
208.038	223
208.105	-430
208.173	-185
208.241	-309
208.309	161
208.376	-696
208.444	38
208.512	-152
208.579	-646
208.647	330
208.715	1361
208.782	-610
208.850	-634
208.918	-10
208.985	799
209.053	-177
209.120	177
209.188	-529
209.256	183
209.323	-1037
209.391	-548
209.459	180
209.526	-388
209.594	-500
209.661	-35
209.729	-251
209.796	-370
209.864	720
209.932	-1166
209.999	36
210.067	-13
210.134	-189
210.202	-272
210.269	345
210.337	975
210.404	-366
210.472	-250
210.539	-240
210.607	-436
210.674	-933
210.742	331
210.809	-847
210.877	-98
210.944	-336
211.012	10
211.079	959
211.146	-386
211.214	-378
211.281	377
211.349	-194
211.416	-840
211.484	-197
211.551	-1126
211.618	-412
211.686	-623
211.753	-907
211.821	13
211.888	-345
211.955	-202
212.023	-672
212.090	335
212.157	-162
212.225	-510
212.292	74
212.359	1274
212.427	1736
212.494	424
212.561	-92
212.629	-305
212.696	-31
212.763	-505
212.831	-899
212.898	-61
212.965	-949
213.032	561
213.100	-303
213.167	349
213.234	610
213.301	410
213.369	-263
213.436	100
213.503	-998
213.570	-311
213.638	77
213.705	-475
213.772	-204
213.839	-505
213.906	359
213.973	-559
214.041	-665
214.108	-48
214.175	-486
214.242	130
214.309	-487
214.376	37
214.444	-307
214.511	-773
214.578	-295
214.645	479
214.712	390
214.779	-170
214.846	-849
214.913	9
214.980	-557
215.048	747
215.115	664
215.182	340
215.249	160
215.316	-311
215.383	-207
215.450	-398
215.517	-775
215.584	-244
215.651	-766
215.718	152
215.785	-448
215.852	-364
215.919	600
215.986	-503
216.053	-67
216.120	-249
216.187	-568
216.254	652
216.321	-623
216.388	-686
216.455	-130
216.522	231
216.589	-224
216.656	216
216.722	2
216.789	670
216.856	-424
216.923	-155
216.990	-299
217.057	-730
217.124	-187
217.191	-1040
217.258	-119
217.324	-455
217.391	-225
217.458	-438
217.525	-148
217.592	374
217.659	-1384
217.725	-162
217.792	-1017
217.859	455
217.926	-553
217.993	663
218.059	17
218.126	15
218.193	-654
218.260	-301
218.327	-609
218.393	-612
218.460	-872
218.527	-1077
218.594	-419
218.660	-866
218.727	302
218.794	-1063
218.860	-488
218.927	156
218.994	-452
219.061	-882
219.127	-749
219.194	-549
219.261	-166
219.327	444
219.394	-584
219.461	-963
219.527	-35
219.594	-607
219.661	-32
219.727	-849
219.794	105
219.860	-161
219.927	-38
219.994	325
220.060	482
220.127	1429
220.193	840
220.260	21
220.326	537
220.393	137
220.460	126
220.526	-25
220.593	-784
220.659	696
220.726	119
220.792	664
220.859	210
220.925	1338
220.992	1298
221.058	1666
221.125	430
221.191	979
221.258	-1201
221.324	-30
221.391	-100
221.457	-185
221.524	-368
221.590	360
221.657	496
221.723	120
221.789	-57
221.856	562
221.922	-1352
221.989	653
222.055	-410
222.121	-615
222.188	909
222.254	-473
222.321	-467
222.387	-272
222.453	-171
222.520	243
222.586	-775
222.652	-46
222.719	-498
222.785	421
222.851	-730
222.918	-577
222.984	-225
223.050	-599
223.116	-1456
223.183	-91
223.249	-1376
223.315	-687
223.382	-723
223.448	-639
223.514	-1347
223.580	-532
223.647	-1173
223.713	-820
223.779	-143
223.845	-104
223.911	-479
223.978	-1467
224.044	-554
224.110	-766
224.176	-166
224.242	-283
224.309	-1551
224.375	72
224.441	-331
224.507	-538
224.573	-1244
224.639	-719
224.705	-962
224.772	-860
224.838	-1505
224.904	338
224.970	-1353
225.036	-1076
225.102	-1325
225.168	474
225.234	346
225.300	-452
225.366	-594
225.432	-137
225.499	-693
225.565	-158
225.631	-1050
225.697	-362
225.763	2
225.829	-119
225.895	-317
225.961	-636
226.027	39
226.093	-451
226.159	705
226.225	1621
226.291	1377
226.357	2675
226.423	1430
226.489	-120
226.554	-22
226.620	322
226.686	-271
226.752	232
226.818	1131
226.884	4110
226.950	2430
227.016	423
227.082	652
227.148	-206
227.214	-225
227.279	-230
227.345	360
227.411	919
227.477	939
227.543	2451
227.609	1874
227.674	2185
227.740	233
227.806	-59
227.872	32
227.938	-116
228.003	284
228.069	393
228.135	-562
228.201	-561
228.267	-186
228.332	-746
228.398	-1551
228.464	-451
228.530	-1355
228.595	207
228.661	-1159
228.727	-853
228.792	405
228.858	-887
228.924	-2056
228.990	1100
229.055	-1768
229.121	-163
229.187	-207
229.252	-748
229.318	-1304
229.384	-568
229.449	-824
229.515	-2580
229.581	-1015
229.646	536
229.712	-534
229.777	679
229.843	-797
229.909	12
229.974	-424
230.040	159
230.105	-319
230.171	-1045
230.236	-151
230.302	-41
230.368	-1180
230.433	-762
230.499	-1122
230.564	394
230.630	-744
230.695	-1131
230.761	562
230.826	-1704
230.892	789
230.957	-1363
231.023	-904
231.088	-321
231.154	-405
231.219	117
231.284	-762
231.350	-17
231.415	-1664
231.481	-157
231.546	-666
231.612	-354
231.677	-1013
231.742	-1017
231.808	326
231.873	-1330
231.939	-2324
232.004	-61
232.069	-195
232.135	-294
232.200	-1185
232.265	177
232.331	-323
232.396	-350
232.461	-1045
232.527	-265
232.592	-605
232.657	456
232.723	-408
232.788	-545
232.853	-298
232.918	-254
232.984	-972
233.049	-171
233.114	-1535
233.179	-88
233.245	191
233.310	-350
233.375	-1066
233.440	-534
233.506	-38
233.571	-553
233.636	-625
233.701	-731
233.766	-16
233.832	-218
233.897	-1699
233.962	-911
234.027	884
234.092	284
234.157	-766
234.222	-595
234.288	-1185
234.353	459
234.418	-402
234.483	1290
234.548	-1118
234.613	-807
234.678	-35
234.743	-852
234.808	785
234.873	-214
234.938	415
235.004	-822
235.069	-172
235.134	-1424
235.199	-970
235.264	-142
235.329	-1533
235.394	-206
235.459	423
235.524	-922
235.589	198
235.654	-472
235.719	-1834
235.784	56
235.849	-1408
235.913	40
235.978	-586
236.043	-492
236.108	-236
236.173	-1427
236.238	291
236.303	-748
236.368	-612
236.433	510
236.498	-563
236.563	96
236.627	637
236.692	5799
236.757	4026
236.822	1435
236.887	-136
236.952	-142
237.017	-1263
237.081	1298
237.146	-541
237.211	2289
237.276	4767
237.341	9195
237.405	2561
237.470	699
237.535	105
237.600	542
237.664	380
237.729	-493
237.794	-1316
237.859	978
237.923	-466
237.988	217
238.053	572
238.118	-405
238.182	-379
238.247	1467
238.312	-1150
238.376	255
238.441	-2277
238.506	679
238.570	-1432
238.635	701
238.700	-998
238.764	-777
238.829	-457
238.893	-627
238.958	291
239.023	-624
239.087	-676
239.152	-149
239.216	-1255
239.281	661
239.346	-46
239.410	-108
239.475	-969
239.539	748
239.604	-701
239.668	948
239.733	364
239.797	2159
239.862	5239
239.926	4296
239.991	2144
240.055	1299
240.120	10
240.184	-78
240.249	-847
240.313	-134
240.378	-225
240.442	-98
240.507	-210
240.571	-523
240.635	-1150
240.700	192
240.764	-1158
240.829	-74
240.893	-1157
240.957	141
241.022	-134
241.086	764
241.151	-1181
241.215	-827
241.279	440
241.344	-1201
241.408	-248
241.472	-1225
241.537	785
241.601	-259
241.665	-1601
241.730	-557
241.794	-400
241.858	-784
241.922	-783
241.987	-275
242.051	-693
242.115	-769
242.179	-358
242.244	-739
242.308	80
242.372	12
242.436	-1107
242.501	-114
242.565	-863
242.629	-180
242.693	385
242.757	-797
242.822	-964
242.886	124
242.950	-245
243.014	-1818
243.078	-273
243.142	-1153
243.206	-722
243.271	306
243.335	-399
243.399	-62
243.463	980
243.527	6539
243.591	530
243.655	273
243.719	-854
243.783	1057
243.847	229
243.911	427
243.975	-884
244.040	-1346
244.104	134
244.168	-305
244.232	-455
244.296	296
244.360	-71
244.424	-827
244.488	-20
244.552	641
244.615	-1903
244.679	126
244.743	-663
244.807	-981
244.871	199
244.935	-233
244.999	-2111
245.063	-488
245.127	216
245.191	-60
245.255	-827
245.319	-50
245.383	-1898
245.446	894
245.510	-1582
245.574	122
245.638	728
245.702	-1733
245.766	-3
245.829	797
245.893	-2061
245.957	-1131
246.021	-295
246.085	-695
246.149	-1009
246.212	643
246.276	654
246.340	1
246.404	-441
246.467	310
246.531	-1942
246.595	1300
246.659	350
246.722	-831
246.786	155
246.850	-292
246.913	-567
246.977	-661
247.041	-367
247.104	-1114
247.168	-358
247.232	-112
247.295	863
247.359	325
247.423	-723
247.486	-145
247.550	365
247.614	-265
247.677	-478
247.741	347
247.804	-67
247.868	245
247.932	-626
247.995	2200
248.059	-161
248.122	-1010
248.186	598
248.249	-321
248.313	1575
248.376	2427
248.440	304
248.503	-1046
248.567	1508
248.630	-422
248.694	384
248.757	1126
248.821	2414
248.884	2229
248.948	521
249.011	1575
249.075	2618
249.138	2689
249.202	653
249.265	104
249.328	0
249.392	-732
249.455	83
249.519	-283
249.582	-361
249.645	171
249.709	-206
249.772	-438
249.835	-374
249.899	-236
249.962	514
250.025	385
250.089	479
250.152	685
250.215	95
250.279	-386
250.342	474
250.405	54
250.468	-612
250.532	-461
250.595	803
250.658	3823
250.721	9346
250.785	1298
250.848	1994
250.911	368
250.974	32
251.038	335
251.101	1014
251.164	-178
251.227	998
251.290	625
251.354	1839
251.417	8078
251.480	8114
251.543	5032
251.606	14993
251.669	11402
251.732	2696
251.795	1748
251.859	3331
251.922	8870
251.985	4740
252.048	2350
252.111	130
252.174	-180
252.237	742
252.300	3387
252.363	2977
252.426	12842
252.489	2821
252.552	1663
252.615	-844
252.678	1712
252.741	2014
252.804	3213
252.867	13024
252.930	6060
252.993	1356
253.056	1385
253.119	-293
253.182	240
253.245	116
253.308	721
253.371	-333
253.434	436
253.497	27
253.559	1431
253.622	29
253.685	156
253.748	-280
253.811	19
253.874	-39
253.937	-559
254.000	-337
254.062	916
254.125	560
254.188	1796
254.251	719
254.314	93
254.376	-602
254.439	940
254.502	172
254.565	101
254.628	2042
254.690	-5
254.753	-706
254.816	-253
254.878	-131
254.941	451
255.004	760
255.067	-132
255.129	-896
255.192	-281
255.255	-1560
255.317	-64
255.380	-3
255.443	-334
255.505	-338
255.568	-1100
255.631	-562
255.693	-468
255.756	-1471
255.819	716
255.881	-710
255.944	22
256.006	343
256.069	-738
256.132	-356
256.194	-832
256.257	117
256.319	-580
256.382	-604
256.444	1340
256.507	-16
256.569	-300
256.632	-71
256.694	-155
256.757	2753
256.819	9907
256.882	1807
256.944	216
257.007	719
257.069	-603
257.132	20
257.194	1509
257.257	-925
257.319	-1108
257.381	-418
257.444	2307
257.506	9445
257.569	10052
257.631	1676
257.693	1527
257.756	-373
257.818	-234
257.880	-1195
257.943	171
258.005	-1450
258.067	-776
258.130	-318
258.192	81
258.254	-229
258.317	-168
258.379	-325
258.441	-317
258.503	489
258.566	-201
258.628	687
258.690	-1279
258.753	464
258.815	119
258.877	-718
258.939	-1071
259.001	208
259.064	-351
259.126	-946
259.188	-217
259.250	3
259.312	165
259.375	-675
259.437	20
259.499	-198
259.561	-1236
259.623	44
259.685	-615
259.747	-561
259.809	595
259.872	14
259.934	1969
259.996	1875
260.058	525
260.120	-846
260.182	-717
260.244	-646
260.306	-402
260.368	-330
260.430	-1252
260.492	-674
260.554	480
260.616	-97
260.678	648
260.740	1039
260.802	-330
260.864	572
260.926	-1476
260.988	225
261.050	-240
261.112	-1150
261.174	1650
261.236	690
261.298	-57
261.359	-83
261.421	1152
261.483	-928
261.545	-53
261.607	-1576
261.669	-167
261.731	174
261.793	549
261.854	-1759
261.916	-461
261.978	-330
262.040	-581
262.102	96
262.164	-588
262.225	-319
262.287	-466
262.349	-278
262.411	57
262.472	273
262.534	-1196
262.596	-639
262.658	54
262.719	-920
262.781	249
262.843	-278
262.904	-307
262.966	-93
263.028	-270
263.090	1164
263.151	5734
263.213	651
263.275	230
263.336	62
263.398	91
263.459	-64
263.521	5
263.583	-131
263.644	27
263.706	-495
263.767	-985
263.829	-146
263.891	-31
263.952	-1045
264.014	-820
264.075	-957
264.137	-197
264.198	391
264.260	-1446
264.321	-1341
264.383	-211
264.444	258
264.506	-920
264.567	-1306
264.629	1407
264.690	-1277
264.752	-381
264.813	-1205
264.875	-746
264.936	173
264.998	-1150
265.059	183
265.120	297
265.182	-492
265.243	3655
265.305	4371
265.366	781
265.427	-111
265.489	417
265.550	-1642
265.611	-464
265.673	-837
265.734	-1091
265.795	-481
265.857	-258
265.918	-502
265.979	1022
266.040	6952
266.102	5766
266.163	521
266.224	456
266.286	361
266.347	-700
266.408	-108
266.469	87
266.530	-253
266.592	-215
266.653	479
266.714	-370
266.775	189
266.836	-325
266.898	-834
266.959	-1170
267.020	-529
267.081	630
267.142	-432
267.203	-172
267.264	-774
267.326	630
267.387	-423
267.448	-1537
267.509	-688
267.570	27
267.631	-1148
267.692	-1178
267.753	-387
267.814	-495
267.875	-406
267.936	236
267.997	-319
268.058	-456
268.119	-895
268.180	-463
268.241	-1319
268.302	-76
268.363	-917
268.424	-269
268.485	-227
268.546	-546
268.607	-765
268.668	-333
268.729	-706
268.790	-824
268.851	-217
268.912	185
268.972	-318
269.033	-361
269.094	-1371
269.155	136
269.216	-717
269.277	-1242
269.338	-1385
269.398	-771
269.459	-1392
269.520	-377
269.581	-686
269.642	-158
269.702	-691
269.763	327
269.824	-624
269.885	-606
269.945	-527
270.006	-33
270.067	-883
270.128	-142
270.188	-1325
270.249	-676
270.310	-1223
270.370	91
270.431	-685
270.492	-1269
270.553	-731
270.613	-548
270.674	286
270.734	-737
270.795	-543
270.856	233
270.916	-1278
270.977	-399
271.038	-733
271.098	8
271.159	-1053
271.219	-560
271.280	-1661
271.340	184
271.401	-1190
271.462	-310
271.522	-567
271.583	112
271.643	-630
271.704	-45
271.764	-426
271.825	-147
271.885	2365
271.946	2902
272.006	34
272.066	597
272.127	3780
272.187	3754
272.248	1360
272.308	-239
272.369	2563
272.429	1087
272.489	307
272.550	-594
272.610	-232
272.671	-526
272.731	-493
272.791	-1068
272.852	-616
272.912	481
272.972	-47
273.033	-191
273.093	-763
273.153	536
273.214	-489
273.274	31
273.334	466
273.394	1935
273.455	-643
273.515	1053
273.575	912
273.635	778
273.696	1100
273.756	1252
273.816	731
273.876	-302
273.936	70
273.997	864
274.057	-636
274.117	645
274.177	-135
274.237	2299
274.297	1806
274.358	538
274.418	1767
274.478	464
274.538	-729
274.598	-613
274.658	195
274.718	631
274.778	107
274.838	-98
274.898	-164
274.958	1242
275.018	2256
275.078	767
275.138	152
275.198	-371
275.258	-841
275.318	-328
275.378	-601
275.438	-262
275.498	-242
275.558	196
275.618	1320
275.678	1352
275.738	277
275.798	207
275.858	-1226
275.918	-393
275.978	-686
276.038	-189
276.098	-745
276.157	-342
276.217	716
276.277	-12
276.337	-809
276.397	194
276.457	-205
276.517	76
276.576	-119
276.636	-37
276.696	-311
276.756	108
276.815	83
276.875	-14
276.935	-725
276.995	-227
277.055	8
277.114	456
277.174	-363
277.234	625
277.293	422
277.353	112
277.413	-703
277.472	-381
277.532	-790
277.592	-250
277.651	810
277.711	3823
277.771	584
277.830	4012
277.890	3474
277.950	2513
278.009	8218
278.069	3206
278.128	2779
278.188	3752
278.248	1098
278.307	4303
278.367	1927
278.426	612
278.486	195
278.545	-290
278.605	-497
278.664	-394
278.724	-535
278.783	894
278.843	2951
278.902	464
278.962	-658
279.021	18
279.081	629
279.140	211
279.199	420
279.259	458
279.318	-153
279.378	1295
279.437	1011
279.496	5627
279.556	21399
279.615	16443
279.675	3474
279.734	1869
279.793	2281
279.853	3732
279.912	692
279.971	1116
280.031	290
280.090	2130
280.149	2284
280.208	1662
280.268	14765
280.327	15650
280.386	2604
280.445	1656
280.505	-233
280.564	272
280.623	-47
280.682	566
280.742	746
280.801	141
280.860	-441
280.919	487
280.978	38
281.037	57
281.097	-787
281.156	245
281.215	94
281.274	472
281.333	1549
281.392	909
281.451	745
281.510	-269
281.569	-800
281.628	-773
281.688	-437
281.747	296
281.806	-262
281.865	137
281.924	-752
281.983	36
282.042	-413
282.101	153
282.160	94
282.219	26
282.278	-458
282.337	745
282.396	-163
282.454	-34
282.513	-446
282.572	1170
282.631	579
282.690	-296
282.749	-836
282.808	-443
282.867	-368
282.926	-351
282.985	-781
283.043	13
283.102	-584
283.161	629
283.220	883
283.279	1637
283.338	-569
283.396	-88
283.455	67
283.514	464
283.573	48
283.631	576
283.690	-14
283.749	-531
283.808	616
283.866	-94
283.925	-44
283.984	833
284.043	-671
284.101	55
284.160	337
284.219	938
284.277	127
284.336	312
284.395	796
284.453	837
284.512	673
284.570	758
284.629	71
284.688	898
284.746	545
284.805	556
284.863	967
284.922	2008
284.981	1755
285.039	3250
285.098	5799
285.156	15627
285.215	30240
285.273	29944
285.332	15874
285.390	7842
285.449	4703
285.507	2786
285.566	1175
285.624	1160
285.683	805
285.741	765
285.799	402
285.858	629
285.916	-225
285.975	490
286.033	-1004
286.091	682
286.150	124
286.208	326
286.267	414
286.325	548
286.383	-404
286.442	-291
286.500	-1261
286.558	408
286.616	-230
286.675	791
286.733	-330
286.791	525
286.850	-12
286.908	30
286.966	536
287.024	575
287.083	-231
287.141	-333
287.199	569
287.257	737
287.315	80
287.374	432
287.432	387
287.490	-295
287.548	-201
287.606	-361
287.664	-579
287.723	-18
287.781	536
287.839	331
287.897	304
287.955	625
288.013	1113
288.071	1494
288.129	10584
288.187	35605
288.245	15232
288.303	4034
288.361	2294
288.419	1376
288.477	183
288.535	799
288.593	456
288.651	422
288.709	-25
288.767	-316
288.825	-666
288.883	-47
288.941	167
288.999	-444
289.057	-308
289.115	-593
289.173	-713
289.231	360
289.289	-323
289.346	231
289.404	-1046
289.462	385
289.520	-229
289.578	-143
289.636	-908
289.694	397
289.751	-286
289.809	160
289.867	-705
289.925	556
289.983	-29
290.040	-199
290.098	-39
290.156	-325
290.214	-178
290.271	-55
290.329	696
290.387	-145
290.444	-1114
290.502	-35
290.560	309
290.617	27
290.675	-87
290.733	279
290.790	-379
290.848	638
290.906	-46
290.963	771
291.021	-478
291.078	387
291.136	19
291.194	695
291.251	434
291.309	57
291.366	172
291.424	-857
291.481	-34
291.539	-355
291.596	-136
291.654	-374
291.711	-192
291.769	214
291.826	219
291.884	42
291.941	-499
291.999	-39
292.056	-527
292.114	190
292.171	172
292.228	407
292.286	-33
292.343	286
292.401	57
292.458	170
292.515	-366
292.573	1081
292.630	-196
292.687	508
292.745	90
292.802	-256
292.859	704
292.917	2275
292.974	256
293.031	-309
293.089	-450
293.146	747
293.203	-562
293.260	435
293.318	-616
293.375	276
293.432	-1096
293.489	401
293.546	346
293.604	-151
293.661	-209
293.718	3148
293.775	1427
293.832	695
293.889	223
293.947	339
294.004	-346
294.061	455
294.118	-225
294.175	890
294.232	1179
294.289	1064
294.346	-6
294.403	824
294.460	-70
294.517	-730
294.574	-134
294.631	251
294.688	-414
294.745	662
294.802	3155
294.859	3094
294.916	1287
294.973	-521
295.030	197
295.087	227
295.144	-330
295.201	321
295.258	-1002
295.315	765
295.372	1409
295.429	2237
295.486	519
295.542	312
295.599	391
295.656	1900
295.713	1073
295.770	1689
295.827	325
295.883	-236
295.940	-609
295.997	-83
296.054	-73
296.111	689
296.167	104
296.224	-243
296.281	-280
296.338	449
296.394	410
296.451	-5
296.508	352
296.564	1058
296.621	775
296.678	1876
296.734	4503
296.791	1158
296.848	-33
296.904	612
296.961	1186
297.018	2967
297.074	1640
297.131	676
297.187	273
297.244	115
297.301	2812
297.357	6709
297.414	1152
297.470	1103
297.527	852
297.583	284
297.640	-116
297.696	-370
297.753	-636
297.809	-359
297.866	-903
297.922	651
297.979	-372
298.035	240
298.092	-272
298.148	1240
298.204	1331
298.261	195
298.317	1329
298.374	4605
298.430	1435
298.486	438
298.543	-19
298.599	297
298.656	154
298.712	536
298.768	1562
298.824	1985
298.881	404
298.937	249
298.993	399
299.050	-212
299.106	-638
299.162	-60
299.218	504
299.275	58
299.331	606
299.387	1463
299.443	5128
299.500	10638
299.556	7820
299.612	3173
299.668	2053
299.724	7866
299.780	9837
299.837	2841
299.893	2213
299.949	6760
300.005	9800
300.061	8030
300.117	12963
300.173	5170
300.229	1407
300.285	495
300.341	1298
300.397	1038
300.453	1059
300.510	451
300.566	925
300.622	2868
300.678	11955
300.734	15403
300.790	7110
300.845	5748
300.901	6882
300.957	10991
301.013	4717
301.069	1299
301.125	714
301.181	1216
301.237	308
301.293	434
301.349	1106
301.405	197
301.461	-44
301.516	745
301.572	465
301.628	250
301.684	-209
301.740	222
301.796	168
301.851	872
301.907	1177
301.963	1077
302.019	2787
302.074	10062
302.130	11026
302.186	4540
302.242	1894
302.297	564
302.353	784
302.409	1374
302.464	978
302.520	1629
302.576	2309
302.631	3674
302.687	1467
302.743	652
302.798	-189
302.854	-45
302.910	-785
302.965	-166
303.021	891
303.076	728
303.132	316
303.187	748
303.243	780
303.299	480
303.354	-770
303.410	520
303.465	-587
303.521	417
303.576	-147
303.632	483
303.687	331
303.743	3320
303.798	2930
303.853	371
303.909	277
303.964	-430
304.020	-66
304.075	345
304.130	-828
304.186	1608
304.241	1237
304.297	668
304.352	-641
304.358	-484
304.407	783
304.449	305
304.463	145
304.518	361
304.539	149
304.573	-199
304.629	463
304.630	468
304.684	643
304.720	1582
304.739	2030
304.794	3585
304.811	3175
304.850	2222
304.902	419
304.905	300
304.960	565
304.992	15
305.015	-386
305.071	308
305.083	153
305.126	-449
305.173	228
305.181	354
305.236	-763
305.264	-742
305.292	-759
305.347	-181
305.354	-18
305.402	1142
305.445	1033
305.457	972
305.512	1233
305.535	1002
305.567	713
305.622	340
305.626	312
305.678	309
305.716	2396
305.733	3061
305.788	3609
305.807	3138
305.843	2534
305.897	4123
305.898	4141
305.953	3746
305.988	2194
306.008	1388
306.063	1312
306.078	979
306.118	207
306.168	1415
306.173	1519
306.228	274
306.259	439
306.283	664
306.338	597
306.349	653
306.393	636
306.440	879
306.448	968
306.503	764
306.530	597
306.558	568
306.613	2044
306.620	2017
306.668	1845
306.711	3131
306.723	3289
306.778	2503
306.801	2012
306.833	1608
306.888	980
306.892	969
306.943	1127
306.982	875
306.997	740
307.052	1233
307.072	1017
307.107	695
307.162	1001
307.163	998
307.217	1355
307.253	1531
307.272	1500
307.327	1246
307.343	1169
307.381	1161
307.434	1344
307.436	1384
307.491	2063
307.524	2620
307.546	2622
307.600	3186
307.614	2841
307.655	1732
307.704	1206
307.710	1248
307.765	1959
307.795	2361
307.819	2510
307.874	2445
307.885	2477
307.929	3004
307.975	3654
307.984	3926
308.038	6017
308.065	7133
308.093	13543
308.148	27988
308.156	31336
308.202	45035
308.246	52719
308.257	50517
308.312	25971
308.336	16245
308.366	11856
308.421	6748
308.426	6359
308.475	4737
308.517	3560
308.530	3277
308.585	2903
308.607	2664
308.639	2646
308.694	2490
308.697	2523
308.748	3717
308.787	4204
308.803	4089
308.857	3326
308.877	3185
308.912	3562
308.967	4071
308.967	4074
309.021	6518
309.058	7885
309.076	9954
309.130	17438
309.148	20009
309.185	38816
309.238	71280
309.239	71454
309.293	72476
309.328	63759
309.348	54252
309.402	25411
309.418	18101
309.457	13206
309.508	8338
309.511	8230
309.566	7629
309.598	7506
309.620	8159
309.674	9670
309.688	10056
309.729	9158
309.778	7598
309.783	7478
309.837	6224
309.868	5252
309.892	5550
309.946	6347
309.959	6657
310.001	7061
310.049	7446
310.055	7272
310.109	5088
310.139	3775
310.163	3292
310.218	2537
310.229	2382
310.272	2765
310.319	3181
310.326	3104
310.381	2322
310.409	2044
310.435	2185
310.489	2334
310.499	2353
310.543	2212
310.589	1924
310.598	1953
310.652	2371
310.679	2491
310.706	2492
310.760	2314
310.769	2320
310.814	3002
310.859	3486
310.868	3404
310.923	2766
310.948	2516
310.977	2728
311.031	3093
311.038	3131
311.085	2826
311.128	2433
311.139	2472
311.193	2689
311.218	2743
311.247	2790
311.301	2922
311.308	2920
311.356	3266
311.398	3563
311.410	3499
311.464	3073
311.488	2889
311.518	2964
311.572	3023
311.578	3019
311.626	2631
311.668	2287
311.680	2552
311.734	3642
311.758	4126
311.788	3496
311.842	2323
311.847	2190
311.896	3019
311.937	3733
311.950	3637
312.004	3145
312.027	2923
312.058	3154
312.112	3541
312.117	3566
312.165	3437
312.207	3303
312.297	2984
312.386	3598
312.476	3071
312.566	3009
312.656	3893
312.745	3149
312.835	4454
312.925	3926
313.015	3780
313.104	4373
313.194	5129
313.284	4323
313.374	5028
313.463	4328
313.553	6039
313.643	4509
313.732	4992
313.822	4723
313.912	6709
314.001	6249
314.091	6080
314.180	6639
314.270	6992
314.360	6151
314.449	7040
314.539	5474
314.628	6549
314.718	6135
314.808	6665
314.897	6834
314.987	7865
315.076	7232
315.166	8173
315.255	7108
315.345	7049
315.434	6118
315.524	7192
315.613	7254
315.703	10044
315.792	22287
315.881	68816
315.971	20376
316.060	8095
316.150	7415
316.239	7361
316.328	5864
316.418	6479
316.507	6709
316.597	8948
316.686	8542
316.775	8049
316.865	7702
316.954	6788
317.043	6730
317.133	6011
317.222	5278
317.311	5057
317.400	3726
317.490	6372
317.579	6256
317.668	7350
317.757	11352
317.847	36000
317.936	96889
318.025	29590
318.114	28550
318.203	12345
318.293	8186
318.382	12746
318.471	12823
318.560	10890
318.649	12970
318.738	6664
318.828	5187
318.917	4542
319.006	4714
319.095	6327
319.184	11449
319.273	7435
319.362	5836
319.451	4498
319.540	4430
319.629	6092
319.718	5543
319.807	5670
319.896	5718
319.985	14620
320.074	6687
320.163	5042
320.252	4843
320.341	6582
320.430	5443
320.519	6450
320.608	6117
320.697	8021
320.786	8032
320.875	10034
320.964	9943
321.053	11372
321.142	11974
321.230	13865
321.319	13832
321.408	16645
321.497	13876
321.586	13014
321.675	11712
321.764	11922
321.852	11219
321.941	12651
322.030	12414
322.119	13790
322.207	16674
322.296	17183
322.385	17904
322.474	19633
322.562	21054
322.651	15668
322.740	12751
322.829	12109
322.917	10065
323.006	10374
323.095	9001
323.183	7928
323.272	8465
323.361	8283
323.449	11894
323.538	8174
323.626	10098
323.715	7588
323.804	5596
323.892	8981
323.981	5541
324.069	6301
324.158	7308
324.246	6967
324.335	5493
324.424	6033
324.512	5240
324.601	5380
324.689	5739
324.778	6069
324.866	5334
324.954	5465
325.043	4553
325.131	4925
325.220	5914
325.308	5514
325.397	5043
325.485	5027
325.574	4354
325.662	4418
325.750	4077
325.839	5709
325.927	4530
326.015	4299
326.104	4568
326.192	5110
326.280	4979
326.369	4747
326.457	4230
326.545	5105
326.634	4477
326.722	4739
326.810	4871
326.898	5638
326.987	5731
327.075	5471
327.163	5502
327.251	4853
327.340	5271
327.428	7109
327.516	8677
327.604	7403
327.692	5627
327.781	5477
327.869	4919
327.957	4196
328.045	4124
328.133	4380
328.221	3753
328.309	4087
328.397	4535
328.485	5222
328.574	7997
328.662	12845
328.750	7865
328.838	6157
328.926	5123
329.014	4476
329.102	3717
329.190	5556
329.278	5023
329.366	4529
329.454	3911
329.542	3796
329.630	2871
329.718	5148
329.806	4157
329.893	4623
329.981	3902
330.069	4997
330.157	5030
330.245	6149
330.333	5206
330.421	3957
330.509	4127
330.597	8094
330.684	5300
330.772	5206
330.860	4357
330.948	5313
331.036	3927
331.123	4489
331.211	4278
331.299	3846
331.387	5310
331.475	5515
331.562	4551
331.650	4675
331.738	4188
331.825	4300
331.913	4023
332.001	4346
332.089	3834
332.176	4693
332.264	5710
332.352	4453
332.439	5105
332.527	5132
332.614	3932
332.702	4303
332.790	4812
332.877	5527
332.965	5624
333.052	5574
333.140	5782
333.228	7397
333.315	4972
333.403	4813
333.490	4854
333.578	6799
333.665	9508
333.753	8117
333.840	6407
333.928	8350
334.015	9653
334.103	11938
334.190	20151
334.278	18551
334.365	22835
334.452	23036
334.540	17010
334.627	16718
334.715	21159
334.802	30375
334.889	46938
334.977	53884
335.064	33834
335.151	19439
335.239	15819
335.326	12575
335.413	16868
335.501	18511
335.588	13174
335.675	14797
335.762	19161
335.850	25502
335.937	35041
336.024	52737
336.111	75164
336.199	61674
336.286	33500
336.373	20411
336.460	14288
336.547	12119
336.635	10084
336.722	9233
336.809	7775
336.896	8103
336.983	8876
337.070	13165
337.157	16076
337.245	11371
337.332	9042
337.419	7626
337.506	6800
337.593	6819
337.680	7027
337.767	10564
337.854	6299
337.941	6832
338.028	5875
338.115	5269
338.202	5796
338.289	6693
338.376	7973
338.463	7161
338.550	7132
338.637	8087
338.724	4937
338.811	6203
338.898	4786
338.984	4754
339.071	4342
339.158	5147
339.245	5508
339.332	4862
339.419	5326
339.506	5705
339.593	4548
339.679	5878
339.766	4919
339.853	5159
339.940	5422
340.027	4764
340.113	3927
340.200	4918
340.287	3827
340.374	5287
340.460	5004
340.547	3792
340.634	5207
340.720	7495
340.807	5606
340.894	5007
340.980	4326
341.067	4441
341.154	5101
341.240	4588
341.327	5574
341.414	5531
341.500	4271
341.587	4536
341.674	4797
341.760	5525
341.847	5763
341.933	5243
342.020	3841
342.106	5486
342.193	4234
342.279	5454
342.366	4235
342.452	5277
342.539	4389
342.625	5325
342.712	6577
342.798	5352
342.885	4190
342.971	4121
343.058	5119
343.144	4792
343.230	4808
343.317	4888
343.403	4060
343.490	4942
343.576	4017
343.662	4988
343.749	4070
343.835	5056
343.921	6245
344.008	14425
344.094	24254
344.180	8375
344.267	4458
344.353	9211
344.439	7522
344.525	6022
344.612	6375
344.698	7547
344.784	4716
344.870	4214
344.957	3958
345.043	5858
345.129	3898
345.215	4867
345.301	3623
345.387	4832
345.474	3686
345.560	4074
345.646	3649
345.732	4833
345.818	3584
345.904	4637
345.990	4569
346.076	4266
346.162	4336
346.249	4245
346.335	4234
346.421	5672
346.507	6319
346.593	12059
346.679	5117
346.765	6551
346.851	8888
346.937	6994
347.023	5533
347.108	4969
347.194	4452
347.280	5966
347.366	6786
347.452	17345
347.538	25582
347.624	15467
347.710	9849
347.796	5462
347.882	5163
347.967	5188
348.053	4572
348.139	4806
348.225	4285
348.311	4912
348.397	5607
348.482	5791
348.568	4910
348.654	8756
348.740	21944
348.825	23797
348.911	11737
348.997	11087
349.083	13493
349.168	5929
349.254	5038
349.340	5967
349.425	4659
349.511	5587
349.597	4825
349.682	6114
349.768	10013
349.854	7119
349.939	4975
350.025	5255
350.110	4676
350.196	5208
350.282	4140
350.367	5904
350.453	4475
350.538	4879
350.624	3884
350.709	4747
350.795	4342
350.880	5055
350.966	5151
351.051	5366
351.137	4378
351.222	6304
351.308	5975
351.393	8433
351.479	4729
351.564	5345
351.649	5817
351.735	4956
351.820	4576
351.906	4472
351.991	4286
352.076	6209
352.162	7812
352.247	5132
352.332	4640
352.418	5047
352.503	5155
352.588	10328
352.673	7384
352.759	5441
352.844	4839
352.929	4444
353.014	4060
353.100	5485
353.185	4368
353.270	4455
353.355	5908
353.441	5112
353.526	4687
353.611	4535
353.696	4566
353.781	6291
353.866	3561
353.952	5573
354.037	4891
354.122	6910
354.207	5508
354.292	5203
354.377	4466
354.462	4538
354.547	4816
354.632	5426
354.717	4540
354.802	4824
354.887	4402
354.972	5794
355.057	3577
355.142	4127
355.227	4390
355.312	5172
355.397	5647
355.482	7839
355.567	4989
355.652	5892
355.737	6547
355.822	10401
355.907	7361
355.991	5507
356.076	3282
356.161	5118
356.246	5101
356.331	5754
356.416	5306
356.501	17902
356.585	14791
356.670	5844
356.755	6859
356.840	7058
356.924	13030
357.009	29331
357.094	12713
357.179	5877
357.263	5313
357.348	6459
357.433	5372
357.517	6477
357.602	4537
357.687	4850
357.771	6168
357.856	10126
357.941	7538
358.025	12433
358.110	32261
358.195	15712
358.279	6497
358.364	5553
358.448	8870
358.533	15870
358.617	10888
358.702	12141
358.787	7643
358.871	6400
358.956	6392
359.040	5525
359.125	4835
359.209	6352
359.294	8578
359.378	11630
359.462	8871
359.547	6734
359.631	4722
359.716	4627
359.800	4411
359.885	5961
359.969	4810
360.053	5820
360.138	4473
360.222	5940
360.306	5373
360.391	6095
360.475	7552
360.559	9697
360.644	8152
360.728	7292
360.812	12648
360.896	22986
360.981	10742
361.065	6600
361.149	6690
361.233	6695
361.318	5720
361.402	6694
361.486	8181
361.570	7110
361.654	7004
361.739	8977
361.823	18376
361.907	25355
361.991	11113
362.075	12666
362.159	16762
362.243	31256
362.327	63051
362.411	79690
362.495	35652
362.580	19638
362.664	18512
362.748	22144
362.832	33015
362.916	65100
363.000	145177
363.084	171723
363.168	83155
363.252	31364
363.336	19437
363.420	17134
363.503	18411
363.587	19054
363.671	12523
363.755	12525
363.839	15869
363.923	15244
364.007	19058
364.091	27043
364.175	40486
364.258	89174
364.342	165729
364.426	231451
364.510	131557
364.594	52692
364.677	30200
364.761	31120
364.845	21918
364.929	13338
365.013	10342
365.096	10021
365.180	7939
365.264	11195
365.347	18920
365.431	10879
365.515	6328
365.598	6588
365.682	8252
365.766	6647
365.849	6902
365.933	6858
366.017	8671
366.100	6932
366.184	5869
366.267	7707
366.351	6834
366.435	6451
366.518	7050
366.602	7279
366.685	6323
366.769	6626
366.852	7887
366.936	8577
367.019	7536
367.103	6257
367.186	8252
367.270	6878
367.353	6190
367.436	9202
367.520	7734
367.603	8705
367.687	7135
367.770	8622
367.853	8549
367.937	11078
368.020	12244
368.104	6878
368.187	6625
368.270	7328
368.353	6292
368.437	6191
368.520	7427
368.603	7060
368.687	8473
368.770	11726
368.853	6357
368.936	7524
369.020	6046
369.103	6188
369.186	5066
369.269	4866
369.352	5897
369.436	6295
369.519	5750
369.602	4832
369.685	6099
369.768	5209
369.851	6217
369.934	5761
370.018	5430
370.101	5262
370.184	7333
370.267	6222
370.350	6338
370.433	7776
370.516	20401
370.599	42175
370.682	18270
370.765	11295
370.848	12207
370.931	14809
371.014	8841
371.097	5268
371.180	5432
371.263	6639
371.346	5007
371.429	5937
371.511	4867
371.594	5627
371.677	6164
371.760	7332
371.843	6766
371.926	16783
372.009	24457
372.091	12624
372.174	9333
372.257	16985
372.340	8116
372.423	7371
372.505	8687
372.588	6030
372.671	8775
372.754	14235
372.836	9079
372.919	9365
373.002	10328
373.085	7122
373.167	6848
373.250	10239
373.332	15637
373.415	23330
373.498	34568
373.580	23165
373.663	58958
373.746	55139
373.828	14000
373.911	10014
373.993	6723
374.076	12044
374.159	10457
374.241	9286
374.324	14329
374.406	12032
374.489	15863
374.571	30892
374.654	13774
374.736	12452
374.819	21210
374.901	30391
374.983	27652
375.066	12417
375.148	9094
375.231	13024
375.313	17136
375.395	11074
375.478	8427
375.560	10291
375.643	9082
375.725	12346
375.807	25783
375.890	20422
375.972	8444
376.054	8515
376.136	8992
376.219	7827
376.301	12536
376.383	21547
376.465	11127
376.548	8047
376.630	9861
376.712	18937
376.794	10343
376.877	6725
376.959	4932
377.041	6080
377.123	5962
377.205	6120
377.287	4782
377.369	6995
377.452	6087
377.534	5747
377.616	6229
377.698	6510
377.780	4977
377.862	5692
377.944	6921
378.026	5713
378.108	6496
378.190	5857
378.272	6971
378.354	6359
378.436	5499
378.518	5154
378.600	6093
378.682	7720
378.764	9836
378.846	9241
378.928	6070
379.010	6444
379.091	5991
379.173	6839
379.255	5106
379.337	5515
379.419	7549
379.501	13993
379.583	7589
379.664	5553
379.746	5684
379.828	11090
379.910	11249
379.991	11754
380.073	5753
380.155	6145
380.237	5375
380.318	5861
380.400	5809
380.482	6257
380.564	5003
380.645	5864
380.727	6013
380.809	7252
380.890	5555
380.972	5071
381.053	5231
381.135	5980
381.217	6445
381.298	11059
381.380	7087
381.461	8226
381.543	18504
381.624	20693
381.706	7003
381.787	6222
381.869	7144
381.951	12568
382.032	26822
382.113	20070
382.195	5667
382.276	8092
382.358	9013
382.439	17113
382.521	20519
382.602	27979
382.684	15900
382.765	22590
382.846	28794
382.928	42289
383.009	26137
383.090	25160
383.172	69324
383.253	89387
383.334	32386
383.416	27748
383.497	18102
383.578	14060
383.659	21530
383.741	67395
383.822	137403
383.903	68198
383.984	24558
384.066	29968
384.147	18314
384.228	11458
384.309	11022
384.390	11518
384.471	10200
384.553	10323
384.634	9214
384.715	9689
384.796	8894
384.877	9270
384.958	13668
385.039	12410
385.120	8933
385.201	9492
385.282	9220
385.363	10408
385.444	9351
385.525	11735
385.606	18026
385.687	16720
385.768	10800
385.849	11355
385.930	20455
386.011	27506
386.092	13557
386.173	11464
386.254	9987
386.335	11017
386.416	9579
386.496	12139
386.577	13624
386.658	11460
386.739	9502
386.820	11618
386.901	9714
386.981	11760
387.062	13101
387.143	15145
387.224	18638
387.304	20355
387.385	17973
387.466	15795
387.547	18118
387.627	16257
387.708	18312
387.789	26478
387.869	26351
387.950	17929
388.031	12686
388.111	12452
388.192	14286
388.273	16328
388.353	13258
388.434	10723
388.514	10860
388.595	19972
388.676	20173
388.756	13714
388.837	12060
388.917	10623
388.998	6513
389.078	9446
389.159	8869
389.239	6837
389.320	9496
389.400	6788
389.480	9356
389.561	13516
389.641	10801
389.722	9293
389.802	8093
389.883	10869
389.963	14988
390.043	11618
390.124	7279
390.204	9717
390.284	12891
390.365	10796
390.445	12695
390.525	24750
390.605	22077
390.686	10598
390.766	8914
390.846	9530
390.927	7713
391.007	7612
391.087	9663
391.167	9785
391.247	9006
391.328	10168
391.408	9312
391.488	10371
391.568	8242
391.648	10522
391.728	11002
391.808	12599
391.888	11271
391.969	15375
392.049	16548
392.129	15587
392.209	17181
392.289	22553
392.369	19906
392.449	19649
392.529	19975
392.609	23765
392.689	26632
392.769	34186
392.849	40110
392.929	50454
393.009	68803
393.089	96785
393.169	163190
393.248	310005
393.328	445671
393.408	424980
393.488	289674
393.568	151977
393.648	87006
393.728	57343
393.807	40622
393.887	34558
393.967	27707
394.047	23759
394.127	21370
394.206	22750
394.286	42421
394.366	124377
394.446	124968
394.525	38497
394.605	17100
394.685	16406
394.764	17768
394.844	29839
394.924	34871
395.003	18120
395.083	12389
395.163	12166
395.242	10760
395.322	12484
395.402	9495
395.481	14167
395.561	16670
395.640	42976
395.720	73163
395.799	45973
395.879	23785
395.958	24595
396.038	53677
396.117	158093
396.197	165271
396.276	61650
396.356	33876
396.435	34556
396.515	43398
396.594	65601
396.673	125398
396.753	270100
396.832	403777
396.912	335149
396.991	160725
397.070	77049
397.150	45906
397.229	40525
397.308	62873
397.388	105785
397.467	56577
397.546	22971
397.625	15334
397.705	16818
397.784	13919
397.863	12902
397.942	11741
398.022	10287
398.101	11280
398.180	14969
398.259	10799
398.338	10117
398.417	7999
398.497	8554
398.576	8843
398.655	7099
398.734	7640
398.813	8290
398.892	9674
398.971	13496
399.050	9205
399.129	7023
399.208	6561
399.287	7668
399.366	6192
399.445	6589
399.524	6397
399.603	4944
399.682	6384
399.761	8134
399.840	13501
399.919	11306
399.998	5431
400.077	5633
400.156	4775
400.235	7943
400.313	4787
400.392	5580
400.471	8259
400.550	10267
400.629	5128
400.708	5304
400.786	4376
400.865	6061
400.944	4336
401.023	7003
401.102	4510
401.180	5098
401.259	4580
401.338	5084
401.416	4830
401.495	4123
401.574	5218
401.652	4826
401.731	5320
401.810	3484
401.888	4150
401.967	3832
402.046	4157
402.124	4941
402.203	4197
402.281	5688
402.360	4091
402.438	5945
402.517	3396
402.596	5257
402.674	3589
402.753	4205
402.831	5296
402.910	5850
402.988	4636
403.066	9384
403.145	7569
403.223	7059
403.302	7369
403.380	8824
403.459	7078
403.537	6116
403.615	6005
403.694	5474
403.772	5582
403.850	5919
403.929	4858
404.007	4387
404.085	6627
404.164	5360
404.242	4787
404.320	11332
404.398	22073
404.477	21411
404.555	25262
404.633	22393
404.711	18686
404.789	13064
404.868	5420
404.946	4935
405.024	4640
405.102	4671
405.180	3872
405.258	3503
405.336	4412
405.415	4074
405.493	4863
405.571	5444
405.649	3663
405.727	3415
405.805	5093
405.883	4932
405.961	4683
406.039	4159
406.117	2968
406.195	5504
406.273	7123
406.351	16618
406.429	11700
406.507	4308
406.585	2062
406.663	4891
406.740	3989
406.818	3383
406.896	2864
406.974	5101
407.052	3194
407.130	11506
407.208	13339
407.285	6300
407.363	3508
407.441	4738
407.519	4340
407.596	5373
407.674	11433
407.752	32860
407.830	24835
407.907	6807
407.985	3857
408.063	4140
408.141	3155
408.218	4995
408.296	3119
408.373	4511
408.451	6100
408.529	5881
408.606	5016
408.684	5704
408.762	6382
408.839	6360
408.917	6165
408.994	7590
409.072	6975
409.149	9537
409.227	13983
409.304	20951
409.382	23116
409.459	25648
409.537	31335
409.614	30760
409.692	24518
409.769	24325
409.846	32253
409.924	38022
410.001	30800
410.079	23066
410.156	18220
410.233	14366
410.311	11792
410.388	11012
410.465	9678
410.543	8620
410.620	9148
410.697	8070
410.775	8190
410.852	7626
410.929	8344
411.006	9192
411.083	7180
411.161	8059
411.238	8573
411.315	7584
411.392	7241
411.469	7478
411.547	6886
411.624	5380
411.701	5354
411.778	6431
411.855	4877
411.932	5110
412.009	4861
412.086	5506
412.163	5073
412.240	4720
412.317	5023
412.394	5324
412.471	5151
412.548	4178
412.625	4345
412.702	4700
412.779	4649
412.856	5023
412.933	3844
413.010	4754
413.087	4229
413.164	5717
413.241	6343
413.318	3577
413.395	5503
413.471	4719
413.548	3754
413.625	4782
413.702	2169
413.779	3947
413.855	3948
413.932	3453
414.009	2836
414.086	4115
414.162	3230
414.239	4347
414.316	5298
414.393	9183
414.469	4096
414.546	3450
414.623	3391
414.699	3425
414.776	3319
414.853	3493
414.929	3796
415.006	4004
415.082	3663
415.159	3618
415.236	3458
415.312	4071
415.389	4009
415.465	2827
415.542	3817
415.618	3206
415.695	4208
415.771	3525
415.848	3406
415.924	3751
416.000	3066
416.077	4897
416.153	2434
416.230	3082
416.306	3443
416.383	3281
416.459	3810
416.535	3762
416.612	2978
416.688	4175
416.764	2947
416.841	3262
416.917	3019
416.993	4548
417.069	3102
417.146	3817
417.222	3365
417.298	3289
417.374	2298
417.451	4030
417.527	3077
417.603	3203
417.679	3398
417.755	3467
417.831	2150
417.908	4322
417.984	3047
418.060	3125
418.136	3717
418.212	4097
418.288	4120
418.364	4573
418.440	2956
418.516	4886
418.592	3135
418.668	4323
418.744	3337
418.820	5370
418.896	3492
418.972	3253
419.048	4222
419.124	5247
419.200	2589
419.276	4301
419.352	3265
419.428	4852
419.504	4386
419.579	4856
419.655	4177
419.731	5393
419.807	4978
419.883	6506
419.959	6390
420.034	6128
420.110	6084
420.186	8450
420.262	7667
420.337	6797
420.413	6776
420.489	7277
420.565	7708
420.640	7422
420.716	9521
420.792	7727
420.867	9141
420.943	8977
421.019	10059
421.094	11027
421.170	11822
421.245	11987
421.321	12900
421.397	14417
421.472	21013
421.548	33253
421.623	27120
421.699	22034
421.774	23357
421.850	26462
421.925	30492
422.001	37253
422.076	45021
422.152	54484
422.227	69620
422.302	91554
422.378	121001
422.453	156909
422.529	176444
422.604	142064
422.679	102237
422.755	134724
422.830	174538
422.905	160192
422.981	127450
423.056	99289
423.131	76207
423.207	59913
423.282	48526
423.357	41095
423.432	35245
423.508	31524
423.583	26495
423.658	23166
423.733	20564
423.808	20228
423.883	19028
423.959	19365
424.034	21002
424.109	20759
424.184	14703
424.259	13355
424.334	11513
424.409	10726
424.484	9897
424.559	9891
424.634	8827
424.709	8793
424.784	7640
424.859	7967
424.934	7554
425.009	8662
425.084	9847
425.159	7376
425.234	6395
425.309	5931
425.384	7041
425.459	7307
425.534	5607
425.609	5201
425.683	5055
425.758	5547
425.833	5473
425.908	5639
425.983	5549
426.058	7757
426.132	5677
426.207	4596
426.282	5310
426.357	4482
426.431	4486
426.506	5144
426.581	4610
426.655	4410
426.730	4805
426.805	3270
426.879	4394
426.954	3146
427.029	3694
427.103	8458
427.178	12899
427.253	8080
427.327	4951
427.402	4090
427.476	5357
427.551	3982
427.625	4187
427.700	4254
427.774	2795
427.849	5037
427.923	3262
427.998	5559
428.072	5359
428.147	12276
428.221	41057
428.296	97084
428.370	58606
428.444	13892
428.519	6255
428.593	6127
428.667	5923
428.742	7792
428.816	18838
428.890	66032
428.965	89264
429.039	28557
429.113	8464
429.188	5011
429.262	4226
429.336	5093
429.410	5242
429.485	5228
429.559	4543
429.633	5864
429.707	6571
429.781	16706
429.855	61831
429.930	81417
430.004	29871
430.078	23379
430.152	52976
430.226	130457
430.300	121940
430.374	39469
430.448	13620
430.522	11041
430.596	13613
430.670	27883
430.744	81121
430.818	83529
430.892	19334
430.966	6321
431.040	4832
431.114	3062
431.188	2827
431.262	3632
431.336	2854
431.410	3035
431.484	3702
431.557	4722
431.631	4242
431.705	8422
431.779	33618
431.853	95124
431.927	63944
432.000	14665
432.074	4210
432.148	3165
432.222	1461
432.295	2223
432.369	1737
432.443	2396
432.516	6108
432.590	11956
432.664	5498
432.737	1948
432.811	663
432.885	1522
432.958	1977
433.032	1210
433.106	855
433.179	1990
433.253	1876
433.326	1354
433.400	1619
433.473	2240
433.547	1423
433.620	1291
433.694	1693
433.767	3137
433.841	1503
433.914	2171
433.988	1237
434.061	1531
434.134	1590
434.208	1587
434.281	1437
434.355	1390
434.428	2100
434.501	1184
434.575	686
434.648	2013
434.721	1092
434.795	1177
434.868	1825
434.941	2341
435.014	1952
435.088	1916
435.161	2860
435.234	3176
435.307	4422
435.381	5624
435.454	7823
435.527	12410
435.600	15335
435.673	14534
435.746	11220
435.819	8624
435.892	6439
435.966	5318
436.039	4780
436.112	3891
436.185	2049
436.258	2935
436.331	1529
436.404	2593
436.477	2795
436.550	1721
436.623	1922
436.696	2293
436.769	1050
436.842	2188
436.915	1227
436.987	2078
437.060	1578
437.133	1516
437.206	826
437.279	1557
437.352	1415
437.425	1661
437.498	1338
437.570	2396
437.643	2155
437.716	1562
437.789	160
437.861	1719
437.934	1185
438.007	1328
438.080	1257
438.152	1580
438.225	2434
438.298	8510
438.370	18234
438.443	7998
438.516	2053
438.588	1150
438.661	1409
438.734	2097
438.806	1507
438.879	1889
438.951	622
439.024	1399
439.096	834
439.169	1727
439.241	399
439.314	1358
439.386	1511
439.459	1692
439.531	764
439.604	1058
439.676	1483
439.749	1901
439.821	869
439.893	1819
439.966	1251
440.038	942
440.110	904
440.183	1592
440.255	666
440.327	3018
440.400	4116
440.472	9726
440.544	6032
440.617	3514
440.689	2222
440.761	2589
440.833	1679
440.905	1632
440.978	1501
441.050	1701
441.122	2107
441.194	1245
441.266	1356
441.338	1795
441.411	2634
441.483	3636
441.555	4013
441.627	2801
441.699	1398
441.771	1477
441.843	1881
441.915	2336
441.987	1911
442.059	2744
442.131	3795
442.203	5866
442.275	6437
442.347	11509
442.419	24918
442.491	90518
442.563	148041
442.635	68928
442.706	18710
442.778	10980
442.850	7086
442.922	5926
442.994	6088
443.066	7440
443.137	8269
443.209	11723
443.281	18565
443.353	38958
443.425	105081
443.496	208996
443.568	212977
443.640	105819
443.711	31638
443.783	14903
443.855	9690
443.926	6694
443.998	4941
444.070	5419
444.141	4309
444.213	3412
444.285	4159
444.356	4103
444.428	3811
444.499	3998
444.571	3669
444.642	3896
444.714	3964
444.785	5031
444.857	5098
444.928	6813
445.000	7275
445.071	9137
445.143	12120
445.214	18432
445.285	31535
445.357	71752
445.428	165706
445.500	228550
445.571	212819
445.642	153987
445.714	63238
445.785	24509
445.856	12231
445.928	8762
445.999	5966
446.070	5159
446.141	4011
446.213	3943
446.284	3207
446.355	3122
446.426	1853
446.497	2901
446.569	1697
446.640	2003
446.711	1878
446.782	1709
446.853	1571
446.924	2444
446.995	-199
447.066	1769
447.138	614
447.209	1561
447.280	489
447.351	1410
447.422	565
447.493	1270
447.564	660
447.635	838
447.706	606
447.777	-149
447.847	517
447.918	-219
447.989	275
448.060	634
448.131	1520
448.202	820
448.273	566
448.344	1032
448.414	417
448.485	292
448.556	631
448.627	542
448.698	747
448.768	518
448.839	-741
448.910	558
448.981	681
449.051	359
449.122	-355
449.193	581
449.263	827
449.334	643
449.405	1060
449.475	1293
449.546	887
449.616	913
449.687	1596
449.758	1757
449.828	-249
449.899	474
449.969	150
450.040	82
450.110	-338
450.181	601
450.251	710
450.322	107
450.392	498
450.463	289
450.533	124
450.604	406
450.674	346
450.744	1274
450.815	1037
450.885	1474
450.955	1470
451.026	1834
451.096	1229
451.166	1371
451.237	1444
451.307	3456
451.377	2247
451.447	1196
451.518	980
451.588	1325
451.658	861
451.728	1149
451.799	1365
451.869	2093
451.939	874
452.009	1127
452.079	506
452.149	1774
452.219	736
452.289	2534
452.360	1966
452.430	2130
452.500	2641
452.570	4845
452.640	12550
452.710	29081
452.780	32235
452.850	18625
452.920	8783
452.990	5292
453.060	2961
453.129	2602
453.199	1350
453.269	3529
453.339	3856
453.409	4200
453.479	5058
453.549	6292
453.619	5558
453.688	1724
453.758	1062
453.828	654
453.898	1645
453.968	944
454.037	856
454.087	676
454.107	596
454.168	595
454.177	584
454.247	615
454.249	604
454.316	92
454.330	217
454.386	692
454.411	519
454.456	176
454.492	448
454.525	691
454.574	926
454.595	1012
454.655	395
454.665	290
454.734	484
454.736	519
454.804	1465
454.817	1471
454.873	1478
454.898	1759
454.943	2243
454.979	1251
455.013	352
455.060	661
455.082	764
455.141	583
455.152	562
455.221	2005
455.222	2013
455.291	1248
455.303	1695
455.360	3646
455.384	5073
455.430	7292
455.465	5157
455.499	3284
455.546	1611
455.569	813
455.627	1527
455.638	1660
455.707	1000
455.708	1008
455.777	689
455.789	726
455.846	789
455.869	849
455.916	1049
455.950	849
455.985	618
456.031	869
456.054	979
456.112	967
456.124	974
456.193	1050
456.193	1039
456.262	262
456.274	545
456.332	1859
456.355	1297
456.401	141
456.436	968
456.470	1834
456.516	1320
456.540	1007
456.597	978
456.609	992
456.678	1524
456.678	1516
456.747	1021
456.759	896
456.817	634
456.840	956
456.886	1305
456.920	1277
456.955	1385
457.001	1760
457.024	1849
457.082	1884
457.093	1879
457.162	1783
457.163	1791
457.232	1750
457.243	1760
457.301	1952
457.324	1939
457.370	1722
457.405	2053
457.439	2492
457.485	2763
457.508	2953
457.566	3791
457.577	4146
457.646	5570
457.647	5627
457.715	13054
457.727	14706
457.784	23400
457.808	32629
457.853	45155
457.889	53125
457.922	57677
457.969	40462
457.991	37200
458.050	39486
458.060	39840
458.129	69800
458.130	70604
458.198	79877
458.211	71673
458.267	42070
458.292	31279
458.336	19597
458.372	18149
458.405	22328
458.453	32831
458.474	38318
458.533	65107
458.543	67027
458.611	109095
458.614	109219
458.680	79139
458.694	64963
458.749	29229
458.775	21671
458.818	12112
458.855	9548
458.887	7696
458.936	5754
458.955	5014
459.016	3777
459.024	3682
459.093	4178
459.097	4151
459.162	3065
459.177	2998
459.230	3210
459.257	3162
459.299	3065
459.338	3179
459.368	3039
459.418	2507
459.437	2329
459.499	2281
459.505	2324
459.574	2150
459.579	2259
459.643	3040
459.659	2818
459.711	2590
459.740	2980
459.780	3057
459.820	2304
459.849	1991
459.900	2245
459.917	2292
459.981	2306
459.986	2316
460.054	2416
460.061	2457
460.123	2677
460.141	2746
460.191	3024
460.222	3235
460.260	3315
460.302	3307
460.328	3444
460.382	3290
460.397	3258
460.462	3689
460.465	3840
460.534	7601
460.543	8080
460.602	15584
460.623	18722
460.671	27974
460.703	37955
460.739	34390
460.783	23740
460.808	21055
460.864	7429
460.876	5606
460.944	2980
460.945	2958
461.013	3106
461.024	3071
461.081	2876
461.104	2963
461.150	2963
461.184	2573
461.218	2130
461.264	2581
461.286	3069
461.345	2893
461.355	2697
461.423	2508
461.425	2493
461.491	2413
461.505	2431
461.559	2429
461.585	2265
461.628	2448
461.665	3222
461.696	3686
461.745	3644
461.764	3349
461.825	2707
461.832	2696
461.901	2305
461.905	2317
461.969	2196
461.985	2054
462.037	2780
462.065	3315
462.105	3151
462.145	2917
462.173	2857
462.225	2811
462.241	2871
462.305	2951
462.310	2957
462.378	3390
462.385	3361
462.446	2423
462.465	2252
462.514	2289
462.545	2396
462.582	2606
462.625	2712
462.650	2662
462.705	2280
462.718	2227
462.785	2428
462.786	2437
462.854	2844
462.865	2909
462.922	3227
462.945	3279
462.990	2984
463.025	2801
463.058	3096
463.104	3444
463.126	3253
463.184	3039
463.194	3110
463.262	2819
463.264	2836
463.330	3086
463.344	3026
463.398	3686
463.424	4064
463.466	3062
463.504	2220
463.533	2551
463.583	2972
463.601	2919
463.663	2698
463.669	2696
463.737	2820
463.743	2803
463.805	3084
463.823	3282
463.873	4025
463.903	4287
463.940	3847
463.982	3531
464.008	3441
464.062	3087
464.076	3052
464.142	2842
464.144	2834
464.211	2419
464.221	2371
464.279	3144
464.301	3384
464.347	3050
464.381	2830
464.414	2999
464.461	3304
464.482	3358
464.540	3549
464.550	3418
464.617	1918
464.620	1884
464.685	3404
464.699	3683
464.753	3562
464.779	3502
464.820	3885
464.859	4165
464.888	3620
464.938	2860
464.956	3214
465.018	4234
465.023	4185
465.091	3565
465.098	3492
465.158	3480
465.177	3532
465.226	3465
465.257	3217
465.293	3108
465.336	3228
465.361	3427
465.416	3511
465.428	3588
465.495	4491
465.496	4503
465.563	4804
465.575	4951
465.631	4285
465.654	3920
465.698	3781
465.734	3550
465.765	3855
465.813	4310
465.833	4190
465.893	3874
465.900	3827
465.968	3341
465.972	3305
466.035	3716
466.052	3801
466.102	3418
466.131	3220
466.170	3369
466.210	3457
466.237	3591
466.290	3921
466.304	3923
466.369	3868
466.372	3875
466.439	3892
466.449	3891
466.506	3835
466.528	3794
466.573	4205
466.607	4496
466.641	4867
466.687	5428
466.708	5595
466.766	5948
466.775	5755
466.842	4280
466.845	4203
466.909	4204
466.925	4198
466.977	4036
467.004	3960
467.044	4010
467.083	4037
467.111	4284
467.163	4724
467.178	4794
467.242	5079
467.245	5055
467.312	4433
467.321	4349
467.379	5146
467.400	5421
467.446	5093
467.480	4844
467.559	5281
467.638	4478
467.717	4810
467.796	5384
467.875	5798
467.955	5339
468.034	7337
468.113	7203
468.192	9532
468.271	9189
468.350	13949
468.429	17729
468.508	18473
468.588	11113
468.667	7344
468.746	6088
468.825	6058
468.904	5483
468.983	5942
469.062	5333
469.141	5814
469.220	4461
469.299	5701
469.378	3921
469.456	6451
469.535	5076
469.614	5759
469.693	4394
469.772	5718
469.851	5198
469.930	5146
470.009	4619
470.088	5241
470.166	4952
470.245	6555
470.324	5415
470.403	4708
470.482	4200
470.560	5108
470.639	4582
470.718	4747
470.797	4580
470.875	5228
470.954	4566
471.033	5001
471.111	3718
471.190	5185
471.269	3670
471.347	4177
471.426	3492
471.505	5125
471.583	5184
471.662	5405
471.740	3464
471.819	4672
471.898	3633
471.976	4711
472.055	4057
472.133	4975
472.212	5776
472.290	5192
472.369	4395
472.447	4444
472.526	3391
472.604	5141
472.683	4062
472.761	3994
472.839	4019
472.918	4724
472.996	3530
473.075	5084
473.153	4320
473.231	4790
473.310	4796
473.388	5776
473.466	4762
473.545	5183
473.623	5099
473.701	5680
473.780	4182
473.858	3547
473.936	5878
474.014	4486
474.093	5253
474.171	5819
474.249	5526
474.327	6111
474.405	4151
474.484	5332
474.562	4113
474.640	4645
474.718	4295
474.796	4682
474.874	5175
474.952	4285
475.030	3979
475.108	4561
475.187	4881
475.265	4166
475.343	4846
475.421	5983
475.499	3760
475.577	4561
475.655	5405
475.733	5827
475.811	5667
475.889	6122
475.966	5091
476.044	4057
476.122	3593
476.200	3973
476.278	3625
476.356	4649
476.434	4052
476.512	4168
476.590	4783
476.667	5195
476.745	4022
476.823	4577
476.901	3913
476.979	4118
477.056	4956
477.134	3863
477.212	4285
477.290	4780
477.367	3797
477.445	4390
477.523	3599
477.601	4240
477.678	4377
477.756	4675
477.834	3954
477.911	4933
477.989	4235
478.066	4015
478.144	3488
478.222	4180
478.299	4977
478.377	4436
478.454	5199
478.532	4163
478.609	3873
478.687	5397
478.764	3428
478.842	4323
478.919	3764
478.997	3761
479.074	3707
479.152	5394
479.229	4384
479.307	3546
479.384	4158
479.461	4653
479.539	3647
479.616	4327
479.694	3717
479.771	4562
479.848	4210
479.926	3196
480.003	5261
480.080	4139
480.157	4168
480.235	3941
480.312	4030
480.389	4187
480.467	4670
480.544	4659
480.621	4846
480.698	4574
480.775	5051
480.853	5323
480.930	4682
481.007	5512
481.084	4823
481.161	6844
481.238	4828
481.315	3994
481.392	4389
481.470	4690
481.547	4554
481.624	4236
481.701	4620
481.778	4668
481.855	4131
481.932	5419
482.009	5320
482.086	6070
482.163	5984
482.240	8154
482.317	7322
482.393	6271
482.470	5645
482.547	6546
482.624	5825
482.701	5878
482.778	4687
482.855	5289
482.932	4745
483.009	6532
483.085	6358
483.162	8357
483.239	8519
483.316	7020
483.393	7107
483.469	6193
483.546	5510
483.623	5582
483.699	4685
483.776	4940
483.853	5550
483.930	6645
484.006	6023
484.083	8654
484.160	8586
484.236	12389
484.313	10051
484.389	8130
484.466	10152
484.543	10329
484.619	11794
484.696	13084
484.772	9458
484.849	7745
484.925	7216
485.002	7641
485.078	7795
485.155	7077
485.231	6263
485.308	7076
485.384	6075
485.461	6639
485.537	7403
485.614	7923
485.690	5656
485.766	7301
485.843	6012
485.919	7193
485.995	6458
486.072	6273
486.148	5960
486.224	6167
486.301	4985
486.377	6475
486.453	5410
486.530	7432
486.606	8925
486.682	8404
486.758	8683
486.835	8238
486.911	7523
486.987	9586
487.063	9895
487.139	12157
487.215	10496
487.292	12127
487.368	11384
487.444	14399
487.520	19264
487.596	31212
487.672	84448
487.748	219338
487.824	295520
487.900	98010
487.976	30773
488.052	17094
488.128	13422
488.204	9318
488.280	8981
488.356	9315
488.432	8942
488.508	9726
488.584	7282
488.660	7046
488.736	6828
488.812	6377
488.888	6813
488.964	6889
489.039	7362
489.115	10076
489.191	7518
489.267	6233
489.343	5960
489.418	6091
489.494	5827
489.570	4469
489.646	5892
489.722	6561
489.797	6399
489.873	6248
489.949	7564
490.024	6558
490.100	4797
490.176	6090
490.251	4932
490.327	6255
490.403	5001
490.478	5438
490.554	4946
490.629	4904
490.705	4828
490.781	6056
490.856	4776
490.932	5052
491.007	4849
491.083	5336
491.158	4427
491.234	5370
491.309	6302
491.385	4811
491.460	3215
491.536	6391
491.611	3938
491.686	5006
491.762	5238
491.837	6107
491.913	6993
491.988	8523
492.063	8448
492.139	5377
492.214	4354
492.289	4246
492.365	3925
492.440	4751
492.515	3683
492.590	4399
492.666	2886
492.741	5307
492.816	4468
492.891	3384
492.967	4349
493.042	4893
493.117	3596
493.192	4902
493.267	6848
493.342	13040
493.418	14734
493.493	4794
493.568	3498
493.643	4030
493.718	4156
493.793	4507
493.868	3896
493.943	4055
494.018	4285
494.093	3758
494.168	3928
494.243	3521
494.318	3508
494.393	4267
494.468	3136
494.543	4431
494.618	3595
494.693	3418
494.768	3473
494.842	4328
494.917	3380
494.992	3769
495.067	3385
495.142	4131
495.217	4241
495.292	4045
495.366	3239
495.441	3450
495.516	4541
495.591	4932
495.665	8505
495.740	12629
495.815	6820
495.890	4275
495.964	2457
496.039	5684
496.114	5438
496.188	6412
496.263	4569
496.338	3581
496.412	3381
496.487	4738
496.561	4125
496.636	4203
496.710	3386
496.785	4116
496.860	3909
496.934	3849
497.009	3843
497.083	4162
497.158	2549
497.232	3598
497.307	4846
497.381	4057
497.455	3321
497.530	4967
497.604	4107
497.679	4259
497.753	4248
497.827	3806
497.902	4228
497.976	5046
498.050	9934
498.125	25146
498.199	19097
498.273	5311
498.348	4301
498.422	4454
498.496	3793
498.570	4764
498.645	2900
498.719	3418
498.793	4377
498.867	5198
498.941	5497
499.016	11755
499.090	23338
499.164	8146
499.238	4607
499.312	4297
499.386	3922
499.460	3858
499.534	3634
499.609	4503
499.683	3977
499.757	5277
499.831	6564
499.905	17112
499.979	12268
500.053	5420
500.127	4101
500.201	4268
500.275	3699
500.349	4044
500.422	3848
500.496	5179
500.570	5846
500.644	11197
500.718	14707
500.792	5418
500.866	4247
500.940	4062
501.013	4339
501.087	3842
501.161	4554
501.235	4000
501.309	9522
501.382	13834
501.456	11374
501.530	5894
501.603	5704
501.677	3749
501.751	1956
501.825	5745
501.898	5238
501.972	6922
502.046	5237
502.119	3151
502.193	4855
502.266	7050
502.340	4587
502.413	5545
502.487	6783
502.561	3460
502.634	4062
502.708	4408
502.781	2443
502.855	4798
502.928	2707
503.002	4759
503.075	2667
503.149	4653
503.222	3749
503.295	4022
503.369	4951
503.442	5198
503.516	8614
503.589	11713
503.662	8639
503.736	8562
503.809	13166
503.882	14226
503.956	25219
504.029	51647
504.102	129892
504.175	169796
504.249	66712
504.322	26164
504.395	13996
504.468	10005
504.542	6568
504.615	5471
504.688	5554
504.761	2911
504.834	6061
504.907	5022
504.980	3795
505.053	4116
505.127	1537
505.200	6181
505.273	3240
505.346	3277
505.419	1548
505.492	4266
505.565	2888
505.638	3666
505.711	2841
505.784	2290
505.857	1762
505.930	4203
506.003	1893
506.076	4296
506.149	2961
506.221	1242
506.294	4210
506.367	3700
506.440	7363
506.513	4529
506.586	2883
506.659	2422
506.731	3182
506.804	2989
506.877	1133
506.950	3601
507.022	2638
507.095	2151
507.168	3236
507.241	4351
507.313	2324
507.386	2185
507.459	4079
507.531	1597
507.604	1504
507.677	3993
507.749	1313
507.822	3828
507.894	3957
507.967	5466
508.040	3110
508.112	3952
508.185	3080
508.257	2072
508.330	5316
508.402	2905
508.475	3056
508.547	3726
508.620	2122
508.692	3645
508.765	4266
508.837	2992
508.909	3646
508.982	2466
509.054	2817
509.127	2982
509.199	2302
509.271	2415
509.344	2999
509.416	3651
509.488	2211
509.560	3666
509.633	2511
509.705	2656
509.777	2995
509.849	3965
509.922	1839
509.994	3682
510.066	4371
510.138	2139
510.210	7076
510.283	4212
510.355	3979
510.427	4377
510.499	3492
510.571	3679
510.643	1898
510.715	5405
510.787	815
510.859	5545
510.931	2974
511.003	4090
511.076	3523
511.148	2480
511.219	2339
511.291	4416
511.363	4272
511.435	3959
511.507	1546
511.579	4720
511.651	4251
511.723	3749
511.795	2483
511.867	3330
511.939	4531
512.010	3508
512.082	3497
512.154	2211
512.226	2838
512.298	5040
512.369	4657
512.441	4752
512.513	3674
512.585	2454
512.656	3545
512.728	3709
512.800	3070
512.871	4242
512.943	4069
513.015	2847
513.086	3811
513.158	3471
513.230	2007
513.301	2928
513.373	3908
513.444	3226
513.516	3081
513.588	3116
513.659	4000
513.731	4567
513.802	1675
513.874	4864
513.945	4373
514.016	2987
514.088	3819
514.159	2454
514.231	3514
514.302	4480
514.374	4313
514.445	3172
514.516	5361
514.588	4000
514.659	3428
514.730	3319
514.802	4629
514.873	2188
514.944	4642
515.016	4556
515.087	2530
515.158	4989
515.229	4771
515.301	1815
515.372	3532
515.443	3053
515.514	3021
515.585	3043
515.656	4052
515.728	4522
515.799	2540
515.870	4944
515.941	3646
516.012	2769
516.083	4512
516.154	3148
516.225	4301
516.296	5881
516.367	4864
516.438	4287
516.509	4996
516.580	6488
516.651	18609
516.722	40158
516.793	16314
516.864	5622
516.935	5422
517.006	7207
517.077	7059
517.148	18492
517.219	64986
517.289	77184
517.360	14772
517.431	7071
517.502	2845
517.573	5634
517.643	5115
517.714	5795
517.785	5991
517.856	6060
517.926	7265
517.997	8059
518.068	7342
518.138	11789
518.209	15567
518.280	55969
518.350	144783
518.421	51732
518.492	17673
518.562	18978
518.633	25874
518.703	43427
518.774	109734
518.845	246872
518.915	196487
518.986	60110
519.056	26240
519.127	17941
519.197	13253
519.268	14447
519.338	10918
519.408	7390
519.479	6173
519.549	5255
519.620	6285
519.690	4803
519.760	4185
519.831	4060
519.901	3829
519.971	4296
520.042	3171
520.112	3580
520.182	4493
520.253	4361
520.323	3057
520.393	3825
520.463	6407
520.534	2255
520.604	7361
520.674	5179
520.744	3474
520.814	6426
520.885	5370
520.955	6210
521.025	9417
521.095	5204
521.165	4816
521.235	3135
521.305	2805
521.375	3920
521.445	4449
521.515	3672
521.585	3860
521.655	1730
521.725	3972
521.795	4225
521.865	1392
521.935	6241
522.005	2291
522.075	3465
522.145	4011
522.215	2497
522.285	4850
522.355	4268
522.424	4612
522.494	3373
522.564	4054
522.634	5717
522.704	9439
522.774	4055
522.843	4364
522.913	3303
522.983	3107
523.053	2820
523.122	3713
523.192	3556
523.262	4673
523.331	4642
523.401	4035
523.471	3210
523.540	4217
523.610	3236
523.680	4129
523.749	4205
523.819	5146
523.888	4500
523.958	4624
524.027	4202
524.097	4527
524.166	4038
524.236	3463
524.305	6558
524.375	3922
524.444	3007
524.514	6277
524.583	3885
524.653	2991
524.722	5436
524.791	3324
524.861	6372
524.930	3454
524.999	4350
525.069	5398
525.138	4836
525.207	4560
525.277	6659
525.346	6321
525.415	7956
525.484	7780
525.554	9045
525.623	10732
525.692	14293
525.761	14798
525.830	18210
525.900	22561
525.969	39881
526.038	79356
526.107	188564
526.176	438673
526.245	296370
526.314	102986
526.383	239470
526.452	289223
526.522	428047
526.591	303669
526.660	59073
526.729	34547
526.797	38338
526.867	65144
526.935	215683
527.004	573619
527.073	294707
527.142	50901
527.211	22670
527.280	15912
527.349	12333
527.418	8277
527.487	9566
527.555	6341
527.624	5592
527.693	4075
527.762	6799
527.831	4279
527.899	5986
527.968	4812
528.037	3302
528.106	5044
528.174	5807
528.243	5119
528.312	5226
528.380	4294
528.449	3069
528.518	5925
528.586	3406
528.655	4811
528.723	5025
528.792	5344
528.861	3511
528.929	3724
528.998	5895
529.066	4911
529.135	7220
529.203	5596
529.272	7069
529.340	9870
529.409	9974
529.477	7182
529.545	7120
529.614	10871
529.682	8160
529.751	10540
529.819	14155
529.887	12594
529.956	10659
530.024	10982
530.092	9289
530.161	11399
530.229	11411
530.297	11211
530.365	11521
530.434	12240
530.502	12236
530.570	11051
530.638	8849
530.707	10296
530.775	10727
530.843	9247
530.911	10607
530.979	10476
531.047	11255
531.115	10416
531.183	10311
531.252	9883
531.320	10077
531.388	8847
531.456	11880
531.524	9616
531.592	12522
531.660	14303
531.728	10842
531.796	10969
531.864	11737
531.932	11656
532.000	11526
532.067	12085
532.135	12764
532.203	14213
532.271	14207
532.339	15861
532.407	15808
532.475	13364
532.542	13749
532.610	13682
532.678	13738
532.746	20513
532.814	24422
532.881	15821
532.949	15016
533.017	12534
533.084	12174
533.152	12212
533.220	11741
533.287	11868
533.355	13645
533.423	13323
533.490	14138
533.558	13255
533.625	13693
533.693	12714
533.761	11733
533.828	12324
533.896	11636
533.963	15072
534.031	15665
534.098	16931
534.166	17229
534.233	15329
534.300	18283
534.368	16190
534.435	15956
534.503	16735
534.570	18048
534.637	18813
534.705	20410
534.772	25703
534.840	56788
534.907	225435
534.974	205169
535.041	31647
535.109	17469
535.176	14719
535.243	15581
535.310	14314
535.378	14289
535.445	13604
535.512	13986
535.579	12922
535.646	12922
535.714	13143
535.781	14897
535.848	14222
535.915	14568
535.982	14101
536.049	14059
536.116	15420
536.183	12622
536.250	12324
536.317	11412
536.384	13600
536.451	14243
536.518	13862
536.585	12353
536.652	15045
536.719	14305
536.786	11778
536.853	11517
536.920	14262
536.987	13553
537.053	11170
537.120	19577
537.187	17268
537.254	14466
537.321	12831
537.388	14894
537.454	11941
537.521	12774
537.588	12435
537.654	14282
537.721	12208
537.788	13923
537.855	12763
537.921	13868
537.988	12871
538.055	13342
538.121	10921
538.188	12030
538.254	11086
538.321	12089
538.388	12818
538.454	12842
538.521	14096
538.587	14900
538.654	13266
538.720	13237
538.787	13397
538.853	14175
538.920	12270
538.986	10924
539.053	10758
539.119	11976
539.185	12697
539.252	14577
539.318	12264
539.385	15975
539.451	11823
539.517	13706
539.583	13104
539.650	13862
539.716	14837
539.782	12583
539.849	11015
539.915	13245
539.981	11570
540.047	11185
540.114	12477
540.180	13794
540.246	12296
540.312	14652
540.378	14592
540.444	15636
540.510	15362
540.576	17581
540.643	12236
540.709	11568
540.775	12941
540.841	12131
540.907	13027
540.973	12549
541.039	12974
541.105	12950
541.171	13298
541.237	13436
541.303	14144
541.369	16445
541.435	13978
541.500	13473
541.566	11253
541.632	12697
541.698	12038
541.764	14764
541.830	12605
541.896	11371
541.961	12723
542.027	12862
542.093	13119
542.159	14669
542.224	11715
542.290	14858
542.356	13252
542.421	13381
542.487	13152
542.553	12132
542.618	11338
542.684	13279
542.750	12787
542.815	14240
542.881	12773
542.947	16988
543.012	15165
543.078	12894
543.143	10970
543.209	12852
543.274	11891
543.340	13198
543.405	14104
543.471	14330
543.536	12979
543.602	12977
543.667	12278
543.732	14596
543.798	11748
543.863	14339
543.928	12921
543.994	11951
544.059	13866
544.124	14414
544.190	13940
544.255	14511
544.320	14369
544.386	13256
544.451	14774
544.516	15116
544.581	15329
544.646	17652
544.712	17800
544.777	15797
544.842	14593
544.907	13772
544.972	15014
545.037	16812
545.102	15333
545.168	16230
545.233	16290
545.298	16872
545.363	16200
545.428	18112
545.493	19600
545.558	19466
545.623	17904
545.688	17126
545.753	18088
545.818	18831
545.883	20346
545.947	19876
546.012	21742
546.077	20923
546.142	24761
546.207	23329
546.272	25100
546.337	25125
546.401	26258
546.466	27448
546.531	27880
546.596	30989
546.661	30443
546.725	33858
546.790	34445
546.855	38627
546.919	40593
546.984	45937
547.049	49187
547.113	55851
547.178	63699
547.243	70908
547.307	82079
547.372	89637
547.436	89898
547.501	96180
547.565	102112
547.630	92952
547.695	89770
547.759	90529
547.823	90764
547.888	93733
547.952	95970
548.017	100182
548.081	102390
548.146	100531
548.210	104211
548.274	112463
548.339	108932
548.403	99581
548.468	92667
548.532	92747
548.596	95663
548.660	96694
548.725	105687
548.789	113555
548.853	109935
548.917	106260
548.982	101406
549.046	92837
549.110	84413
549.174	89694
549.238	104097
549.303	111500
549.367	114430
549.431	107215
549.495	100588
549.559	103636
549.623	122040
549.687	128290
549.751	127604
549.815	151355
549.879	150397
549.943	147146
550.007	152975
550.071	150516
550.135	135677
550.199	131335
550.263	128266
550.327	122294
550.391	127024
550.455	140387
550.519	146508
550.582	158425
550.646	175075
550.710	177046
550.774	174611
550.838	178371
550.901	183035
550.965	192969
551.029	200052
551.093	216241
551.156	235143
551.220	258708
551.284	261486
551.347	216273
551.411	191267
551.475	187982
551.538	193328
551.602	177503
551.666	172557
551.729	162192
551.793	161438
551.856	157756
551.920	154857
551.983	156820
552.047	152779
552.110	155091
552.174	157725
552.237	161079
552.301	148496
552.364	143989
552.428	141722
552.491	146779
552.554	147471
552.618	148583
552.681	150676
552.745	143843
552.808	151018
552.871	155535
552.934	151324
552.998	147817
553.061	145056
553.124	141419
553.187	140944
553.251	146488
553.314	145276
553.377	147591
553.440	157926
553.503	172089
553.567	174644
553.630	160545
553.693	161172
553.756	161301
553.819	160118
553.882	155704
553.945	156271
554.008	155600
554.071	158832
554.134	156471
554.197	152138
554.260	149918
554.323	152010
554.386	154328
554.449	159020
554.512	157672
554.575	150380
554.638	151859
554.701	150900
554.764	149448
554.827	143495
554.889	138832
554.952	130192
555.015	129220
555.078	132372
555.141	131732
555.203	129478
555.266	131137
555.329	129709
555.391	126351
555.454	122669
555.517	118011
555.580	113657
555.642	111241
555.705	108526
555.768	109259
555.830	104289
555.893	99929
555.955	96541
556.018	94604
556.080	96291
556.143	97847
556.206	96343
556.268	93873
556.330	91811
556.393	90190
556.455	86969
556.518	85521
556.580	81837
556.643	80842
556.705	78944
556.767	78064
556.830	76325
556.892	74895
556.955	73075
557.017	70775
557.079	71292
557.142	68401
557.204	67991
557.266	67824
557.328	63867
557.391	60120
557.453	59397
557.515	59119
557.577	58314
557.639	59117
557.701	58399
557.764	57542
557.826	56793
557.888	59561
557.950	60936
558.012	66988
558.074	85066
558.136	187836
558.198	316598
558.260	110406
558.322	60986
558.384	60855
558.446	62962
558.508	64535
558.570	69961
558.632	80641
558.694	100927
558.756	182964
558.818	480750
558.880	688510
558.942	326325
559.003	349537
559.065	146723
559.127	73903
559.189	70169
559.251	77693
559.312	116541
559.374	283652
559.436	583882
559.498	248339
559.559	82955
559.621	70047
559.683	79953
559.744	139518
559.806	389197
559.868	397924
559.929	102923
559.991	78862
560.052	143835
560.114	323796
560.176	179576
560.237	223337
560.299	257996
560.360	61176
560.422	33623
560.483	30963
560.545	28641
560.606	28137
560.667	25649
560.729	24942
560.790	23610
560.852	23981
560.913	22470
560.974	23160
561.036	21081
561.097	21492
561.158	21975
561.220	23066
561.281	20602
561.342	19928
561.403	20596
561.465	20454
561.526	22275
561.587	21967
561.648	18739
561.709	18155
561.771	18831
561.832	18172
561.893	17450
561.954	17381
562.015	17945
562.076	17908
562.137	17392
562.198	16951
562.259	15971
562.320	17173
562.381	17049
562.442	17739
562.503	16618
562.564	16206
562.625	15897
562.686	16790
562.747	15375
562.808	16021
562.869	15478
562.930	14950
562.991	14078
563.051	15131
563.112	14883
563.173	15496
563.234	14244
563.294	15453
563.355	14018
563.416	14653
563.477	13490
563.537	14331
563.598	13500
563.659	13766
563.720	13405
563.780	14147
563.841	13796
563.901	13912
563.962	13755
564.023	14225
564.083	12982
564.144	13671
564.204	13473
564.265	13854
564.325	13716
564.386	13622
564.446	13938
564.507	13103
564.567	12128
564.628	13095
564.688	12537
564.749	12962
564.809	12826
564.869	13056
564.930	12762
564.990	12763
565.050	12169
565.111	13068
565.171	12901
565.231	13154
565.292	12739
565.352	10792
565.412	12193
565.472	13455
565.532	12633
565.593	12011
565.653	11628
565.713	11828
565.773	12219
565.833	12890
565.893	13285
565.953	11878
566.013	10965
566.074	10899
566.134	11258
566.194	11604
566.254	11629
566.314	11284
566.374	11134
566.434	12339
566.494	11425
566.554	10654
566.614	12356
566.673	11874
566.733	12994
566.793	12127
566.853	11956
566.913	12477
566.973	11232
567.033	12682
567.092	11891
567.152	12817
567.212	11704
567.272	12130
567.331	12204
567.391	12955
567.451	14003
567.511	14054
567.570	12665
567.630	12101
567.690	12423
567.749	12147
567.809	12042
567.868	12239
567.928	11808
567.988	13220
568.047	11411
568.107	12820
568.166	12211
568.226	11970
568.285	12466
568.345	12513
568.404	13327
568.464	13140
568.523	12519
568.582	13062
568.642	12580
568.701	12020
568.761	11642
568.820	12535
568.879	12659
568.939	12047
568.998	11510
569.057	12053
569.116	11278
569.176	11649
569.235	11966
569.294	11509
569.353	10907
569.413	12291
569.472	11504
569.531	11080
569.590	11151
569.649	11951
569.708	11460
569.767	11829
569.827	11985
569.886	10962
569.945	11235
570.004	12864
570.063	11547
570.122	12720
570.181	12022
570.240	12318
570.299	12326
570.358	12619
570.417	12086
570.475	11814
570.534	12294
570.593	12300
570.652	13027
570.711	11744
570.770	11468
570.829	12652
570.887	12045
570.946	13072
571.005	11985
571.064	12639
571.122	13591
571.181	12159
571.240	11533
571.299	12100
571.357	11842
571.416	11322
571.475	12277
571.533	13156
571.592	12885
571.650	12942
571.709	13191
571.768	14793
571.826	14640
571.885	14793
571.943	12456
572.002	11747
572.060	12845
572.119	13294
572.177	12820
572.236	12449
572.294	12690
572.352	13503
572.411	12996
572.469	11851
572.528	11781
572.586	12294
572.644	11984
572.703	12320
572.761	11908
572.819	11075
572.877	10898
572.936	10692
572.994	10832
573.052	12119
573.110	11181
573.169	12367
573.227	11962
573.285	12462
573.343	11091
573.401	12413
573.459	11342
573.517	11713
573.576	11813
573.634	12850
573.692	10912
573.750	11872
573.808	10691
573.866	11027
573.924	10324
573.982	12102
574.040	10237
574.098	10942
574.155	9369
574.213	11175
574.271	10940
574.329	11876
574.387	9866
574.445	9626
574.503	10002
574.560	10398
574.618	9377
574.676	9894
574.734	9859
574.792	10743
574.849	9223
574.907	8929
574.965	8304
575.022	7894
575.080	7936
575.138	9018
575.195	8617
575.253	7966
575.311	8613
575.368	9393
575.426	7770
575.483	8551
575.541	8347
575.598	8836
575.656	7386
575.713	9321
575.771	8509
575.828	8519
575.886	8232
575.943	8617
576.001	7522
576.058	7843
576.115	7738
576.173	8909
576.230	8268
576.287	8524
576.345	8328
576.402	7921
576.459	8544
576.517	8199
576.574	7714
576.631	7521
576.688	7725
576.746	8371
576.803	7189
576.860	7273
576.917	8538
576.974	9063
577.031	7926
577.089	8184
577.146	7166
577.203	7165
577.260	8280
577.317	8004
577.374	6314
577.431	8076
577.488	6916
577.545	6751
577.602	7390
577.659	7842
577.716	7425
577.773	8500
577.830	6904
577.886	7924
577.943	6195
578.000	7668
578.057	6893
578.114	7605
578.171	9440
578.227	9143
578.284	8654
578.341	9089
578.398	7904
578.454	8182
578.511	7897
578.568	7755
578.625	7188
578.681	7157
578.738	6607
578.794	6764
578.851	7385
578.908	8263
578.964	7391
579.021	8277
579.077	7181
579.134	7182
579.190	7622
579.247	6997
579.303	6454
579.360	6889
579.416	7233
579.473	7215
579.529	7336
579.586	7838
579.642	6956
579.698	7171
579.755	7521
579.811	8866
579.867	8595
579.924	8209
579.980	7565
580.036	9231
580.093	10053
580.149	12889
580.205	11488
580.261	10621
580.317	9987
580.374	9138
580.430	9612
580.486	9551
580.542	8721
580.598	8778
580.619	8739
580.654	8670
580.692	8893
580.710	9005
580.765	8463
580.767	8445
580.823	9130
580.838	9118
580.879	9075
580.911	9010
580.935	8962
580.984	9206
580.991	9239
581.047	10329
581.057	10312
581.103	10245
581.130	9995
581.159	9685
581.203	10023
581.215	10136
581.270	9655
581.276	9597
581.326	8869
581.349	8785
581.382	8709
581.422	8475
581.438	8358
581.494	9082
581.494	9080
581.550	8390
581.567	8688
581.606	9280
581.640	9106
581.661	9008
581.713	10532
581.717	10646
581.773	9712
581.786	9982
581.829	10907
581.859	10322
581.885	9788
581.932	10478
581.940	10620
581.996	9999
582.004	10161
582.052	10886
582.077	10659
582.107	10338
582.150	10241
582.163	10254
582.219	9891
582.223	9982
582.274	10968
582.296	10551
582.330	9831
582.368	10651
582.386	11102
582.441	11861
582.441	11856
582.497	11835
582.514	11459
582.552	10947
582.587	11685
582.608	12040
582.659	11232
582.663	11168
582.719	11571
582.732	11571
582.774	11584
582.805	12174
582.830	12767
582.877	12959
582.885	12962
582.941	14344
582.950	14413
582.996	14894
583.023	15086
583.052	15408
583.095	16576
583.107	16788
583.162	17673
583.168	17604
583.218	16639
583.240	15999
583.273	15015
583.313	14932
583.328	14951
583.384	14379
583.385	14341
583.439	13178
583.458	13241
583.494	13569
583.531	13544
583.549	13535
583.603	13556
583.605	13557
583.660	13555
583.676	13739
583.715	14217
583.748	14288
583.770	14406
583.820	14504
583.825	14496
583.881	14052
583.893	14111
583.936	14532
583.965	14343
583.991	14240
584.038	14514
584.046	14505
584.101	14787
584.110	14955
584.156	16336
584.183	15948
584.211	15292
584.255	15787
584.266	16073
584.321	16803
584.328	16840
584.376	16819
584.400	16921
584.431	17130
584.472	17473
584.486	17558
584.541	18802
584.545	18767
584.596	18835
584.617	19039
584.651	19227
584.689	20033
584.706	20445
584.761	20682
584.762	20666
584.816	21157
584.834	21626
584.871	22697
584.906	22824
584.926	22788
584.978	23805
584.980	23887
585.035	25291
585.051	25686
585.090	27015
585.123	28040
585.145	28973
585.195	31652
585.200	31987
585.254	35556
585.267	36557
585.309	40881
585.340	44016
585.364	46699
585.412	52121
585.419	53308
585.473	66372
585.484	69803
585.528	91390
585.556	112499
585.583	152785
585.628	242648
585.637	273517
585.692	521912
585.700	551256
585.747	632145
585.772	573839
585.801	395339
585.845	195964
585.856	169259
585.910	88683
585.917	79982
585.965	61424
585.989	53588
586.019	49139
586.061	43632
586.074	42706
586.128	39171
586.133	38791
586.183	36432
586.205	35829
586.237	35529
586.277	33931
586.292	33602
586.346	33594
586.349	33513
586.401	33059
586.421	32859
586.455	32718
586.493	32316
586.509	32478
586.564	32958
586.565	32922
586.618	35881
586.637	36655
586.672	38967
586.709	42142
586.727	43975
586.781	48638
586.781	48720
586.835	41471
586.853	39564
586.889	36871
586.925	34373
586.944	33939
586.996	33843
586.998	33912
587.052	32378
587.068	32169
587.106	32930
587.140	33318
587.161	33620
587.212	33721
587.215	33803
587.269	34249
587.284	34306
587.323	34990
587.356	35413
587.377	35790
587.427	36334
587.431	36438
587.485	36939
587.499	36824
587.539	37771
587.571	38730
587.593	39730
587.643	41751
587.648	41952
587.702	42152
587.715	42238
587.755	42631
587.786	42649
587.810	43008
587.858	43450
587.864	43591
587.917	43483
587.930	43363
587.971	43365
588.001	43441
588.025	44091
588.073	44968
588.079	45080
588.133	44554
588.145	44458
588.187	45116
588.217	45105
588.241	45696
588.288	46927
588.295	47326
588.348	49233
588.360	49540
588.402	50284
588.431	50270
588.456	50720
588.503	52395
588.510	52986
588.564	55880
588.575	56431
588.617	59753
588.646	61518
588.671	63224
588.718	67163
588.725	68804
588.778	81552
588.789	84589
588.832	119017
588.861	144957
588.886	199642
588.932	316392
588.939	327048
588.993	379165
589.004	380346
589.047	229503
589.075	140885
589.100	115492
589.147	74048
589.154	73362
589.207	66789
589.218	65471
589.261	65402
589.290	64993
589.314	66993
589.361	71255
589.368	73519
589.421	92438
589.433	96870
589.475	153246
589.504	196476
589.528	250012
589.576	349664
589.582	338988
589.635	200055
589.647	172780
589.689	111145
589.718	70630
589.742	67216
589.790	59421
589.795	59468
589.849	58432
589.861	58033
589.902	57651
589.932	56873
589.955	56501
590.004	55283
590.009	55438
590.062	55381
590.075	55116
590.115	55505
590.146	55482
590.168	55676
590.218	55569
590.222	55820
590.275	56635
590.289	56633
590.328	58720
590.360	59986
590.381	60172
590.431	60050
590.435	60300
590.488	60822
590.503	60770
590.541	61769
590.574	62142
590.594	62906
590.645	64471
590.647	64742
590.700	65454
590.716	65513
590.753	68249
590.787	70268
590.806	70847
590.859	71649
590.859	71927
590.912	73065
590.930	73200
590.965	73900
591.001	74039
591.018	74569
591.071	75343
591.072	75072
591.124	73390
591.143	72531
591.177	74455
591.214	75908
591.230	76434
591.283	77377
591.285	77117
591.336	76636
591.356	76078
591.389	76395
591.427	76169
591.442	76111
591.495	74702
591.498	74332
591.547	75427
591.569	75534
591.600	77344
591.640	78811
591.653	79316
591.706	80430
591.711	80249
591.759	82701
591.782	83438
591.811	85027
591.853	86574
591.864	86991
591.917	87445
591.924	87160
591.969	88229
591.995	88373
592.022	89278
592.066	89870
592.075	90679
592.127	93519
592.137	93677
592.180	95442
592.208	96010
592.233	97299
592.279	98621
592.285	99333
592.338	102113
592.350	102339
592.390	101861
592.421	100825
592.443	102571
592.491	105118
592.495	105617
592.548	106790
592.562	106687
592.600	107071
592.633	106633
592.653	107216
592.704	107023
592.705	107689
592.775	110060
592.846	112441
592.916	114620
592.987	114164
593.058	116452
593.128	117110
593.199	117123
593.270	119431
593.341	120151
593.411	125483
593.482	128982
593.553	132366
593.623	132590
593.694	137601
593.764	139832
593.835	137535
593.906	139573
593.976	142170
594.047	146428
594.117	154482
594.188	157441
594.258	157054
594.329	158694
594.399	162248
594.470	165961
594.540	170134
594.611	173553
594.681	173268
594.751	175837
594.822	179117
594.892	187913
594.963	192714
595.033	196537
595.103	202437
595.174	202945
595.244	209755
595.314	215022
595.384	221051
595.455	226138
595.525	232140
595.595	238823
595.665	240027
595.736	234023
595.806	240424
595.876	242636
595.946	244937
596.016	256741
596.087	263774
596.157	261711
596.227	264479
596.297	277621
596.367	296858
596.437	309719
596.507	308751
596.577	308090
596.647	319120
596.717	334111
596.787	338236
596.857	338623
596.927	337628
596.997	340767
597.067	346024
597.137	352698
597.207	352953
597.277	357711
597.347	343181
597.417	333887
597.487	332602
597.557	340685
597.626	349162
597.696	353828
597.766	351512
597.836	335535
597.906	320139
597.975	316578
598.045	319596
598.115	330600
598.185	356147
598.254	392776
598.324	422114
598.394	429723
598.464	415009
598.533	411951
598.603	388037
598.672	375034
598.742	384836
598.812	387247
598.881	397425
598.951	396850
599.020	402347
599.090	415820
599.159	421215
599.229	406134
599.299	401537
599.368	411641
599.437	405759
599.507	379484
599.576	368211
599.646	365911
599.715	363381
599.785	361358
599.854	353222
599.924	351550
599.993	348745
600.062	356585
600.132	366280
600.201	386079
600.270	435999
600.340	456158
600.409	448415
600.478	447516
600.547	457890
600.617	421511
600.686	355485
600.755	328667
600.824	318693
600.894	314872
600.963	319521
601.032	317487
601.101	309710
601.170	302376
601.239	296473
601.308	296617
601.378	300129
601.447	300909
601.516	305005
601.585	311287
601.654	315134
601.723	316946
601.792	328612
601.861	339082
601.930	349762
601.999	356641
602.068	354876
602.137	355904
602.206	363405
602.275	366687
602.343	368422
602.412	372327
602.481	375254
602.550	377252
602.619	387798
602.688	388037
602.756	394064
602.825	394829
602.894	404327
602.963	409350
603.032	412906
603.100	416010
603.169	409321
603.238	420093
603.307	414235
603.375	419250
603.444	429222
603.513	421051
603.581	430442
603.650	442288
603.719	412470
603.787	414921
603.856	424110
603.924	432942
603.993	442491
604.061	456720
604.130	474971
604.198	480985
604.267	487872
604.335	496965
604.404	500840
604.472	509812
604.541	510219
604.609	520063
604.678	525931
604.746	528001
604.815	547337
604.883	542593
604.951	540665
605.020	548202
605.088	547098
605.156	545736
605.225	554763
605.293	551865
605.361	553884
605.429	554442
605.498	567086
605.566	573410
605.634	597711
605.702	609120
605.771	624948
605.839	629912
605.907	611929
605.975	605792
606.043	593138
606.111	584747
606.180	597805
606.248	583208
606.316	574434
606.384	582414
606.452	562472
606.520	556827
606.588	570695
606.656	578549
606.724	568461
606.792	542787
606.860	494602
606.928	459401
606.996	441875
607.064	438912
607.132	447407
607.200	471850
607.267	483278
607.335	491557
607.403	500533
607.471	486290
607.539	473632
607.607	475260
607.674	423607
607.742	425984
607.810	421961
607.878	420335
607.946	430944
608.013	450811
608.081	456207
608.149	459525
608.216	474762
608.284	488208
608.352	488597
608.419	486480
608.487	474008
608.555	467328
608.622	481004
608.690	503461
608.757	546422
608.825	557446
608.893	543243
608.960	514916
609.028	496643
609.095	497695
609.163	495755
609.230	451900
609.298	414665
609.365	435770
609.432	467038
609.500	500768
609.567	560418
609.635	626449
609.702	650953
609.769	620855
609.837	501474
609.904	445870
609.971	452704
610.039	479375
610.106	545634
610.173	769125
610.241	1216629
610.308	958360
610.375	578262
610.442	492244
610.509	468831
610.577	466126
610.644	468797
610.711	483207
610.778	497096
610.845	515549
610.912	541328
610.980	556821
611.047	557958
611.114	548183
611.181	533529
611.248	533257
611.315	557277
611.382	569425
611.449	586997
611.516	594117
611.583	586566
611.650	591795
611.717	595417
611.784	603222
611.851	619277
611.918	639194
611.984	693015
612.051	809568
612.118	1078443
612.185	1534903
612.252	1349250
612.319	881647
612.386	758129
612.452	697417
612.519	664167
612.586	651435
612.653	662246
612.719	674585
612.786	654892
612.853	619264
612.919	610114
612.986	614266
613.053	587857
613.120	556736
613.186	540688
613.253	545562
613.319	543504
613.386	544829
613.453	553601
613.519	555587
613.586	546227
613.652	555327
613.719	546640
613.785	557017
613.852	562309
613.918	560267
613.985	563103
614.051	584582
614.118	579789
614.184	562228
614.250	558239
614.317	570806
614.383	560815
614.449	570744
614.516	565457
614.582	574198
614.648	563040
614.715	560793
614.781	549998
614.847	550497
614.914	549091
614.980	535707
615.046	535554
615.112	551128
615.179	552747
615.245	557068
615.311	551588
615.377	559643
615.443	561826
615.509	568007
615.575	583604
615.642	579423
615.708	589335
615.774	607881
615.840	631461
615.906	649995
615.972	708829
616.038	863339
616.104	1213848
616.170	1639840
616.236	1547944
616.302	1074784
616.368	906268
616.434	746905
616.500	681987
616.565	710703
616.631	820844
616.697	751500
616.763	735424
616.829	903784
616.895	1272706
616.961	1274613
617.026	843799
617.092	650719
617.158	603364
617.224	586105
617.289	547056
617.355	524852
617.421	517642
617.487	514992
617.552	492753
617.618	491259
617.684	489997
617.749	494033
617.815	475102
617.880	468653
617.946	467188
618.012	477581
618.077	484273
618.143	466253
618.208	468619
618.274	497992
618.339	500188
618.405	427925
618.470	429879
618.536	430171
618.601	420385
618.667	396952
618.732	380291
618.798	376828
618.863	373577
618.928	370342
618.994	373935
619.059	368663
619.124	374993
619.190	370828
619.255	369693
619.320	367608
619.386	372269
619.451	369945
619.516	360506
619.581	365831
619.647	376032
619.712	378051
619.777	361387
619.842	365608
619.907	371069
619.972	376111
620.038	371972
620.103	365593
620.168	368270
620.233	372857
620.298	375313
620.363	378041
620.428	385251
620.493	393130
620.558	396643
620.623	402515
620.688	401824
620.753	399723
620.818	408899
620.883	408690
620.948	407542
621.013	403422
621.078	398073
621.143	401977
621.207	405416
621.272	403254
621.337	389952
621.402	385736
621.467	383524
621.532	381962
621.596	385465
621.661	377257
621.726	372424
621.791	377781
621.855	379598
621.920	375395
621.985	380478
622.049	386908
622.114	384384
622.179	391556
622.243	398088
622.308	409164
622.373	420741
622.437	414675
622.502	396831
622.566	392947
622.631	394664
622.695	396629
622.760	395265
622.824	395054
622.889	396288
622.953	397102
623.018	418267
623.082	421433
623.147	417014
623.211	406666
623.276	409261
623.340	395125
623.404	387145
623.469	382978
623.533	388345
623.597	382342
623.662	378158
623.726	356032
623.790	339397
623.854	331127
623.919	340387
623.983	341068
624.047	346563
624.111	351582
624.176	354846
624.240	355080
624.304	364801
624.368	352921
624.432	351919
624.496	360349
624.560	376086
624.625	380141
624.689	372648
624.753	389919
624.817	372413
624.881	365529
624.945	335540
625.009	327543
625.073	330740
625.137	341533
625.201	354207
625.265	353875
625.329	340635
625.393	344429
625.456	344742
625.520	355369
625.584	356734
625.648	363195
625.712	373851
625.776	372479
625.839	351985
625.903	306462
625.967	287153
626.031	305486
626.095	352113
626.158	330127
626.222	269092
626.286	252121
626.349	245565
626.413	232174
626.477	226879
626.540	233091
626.604	229780
626.668	225113
626.731	222246
626.795	222786
626.858	222903
626.922	219576
626.986	216063
627.049	218083
627.113	224194
627.176	219909
627.240	212956
627.303	212161
627.366	210474
627.430	213997
627.493	211343
627.557	206938
627.620	212606
627.684	218494
627.747	216176
627.810	203530
627.874	182800
627.937	176756
628.000	182874
628.064	178646
628.127	162149
628.190	159602
628.253	154420
628.317	149538
628.380	143425
628.443	139342
628.506	138990
628.569	134574
628.632	127435
628.696	128749
628.759	128715
628.822	123587
628.885	120212
628.948	118748
629.011	116369
629.074	113891
629.137	110024
629.200	107666
629.263	106244
629.326	105150
629.389	105052
629.452	103774
629.515	102129
629.578	99936
629.641	102924
629.704	102747
629.767	101053
629.830	98088
629.892	95636
629.955	96213
630.018	97839
630.081	97377
630.144	96803
630.207	94318
630.269	96111
630.332	91841
630.395	92376
630.458	90687
630.520	87126
630.583	87071
630.646	89987
630.708	89214
630.771	91198
630.834	96336
630.896	94117
630.959	92846
631.021	90126
631.084	90184
631.146	90851
631.209	91390
631.272	90491
631.334	92386
631.397	93609
631.459	93065
631.522	95914
631.584	98127
631.646	101374
631.709	103118
631.771	103426
631.834	100220
631.896	96709
631.958	93551
632.021	92460
632.083	88852
632.145	87419
632.208	87187
632.270	86789
632.332	86574
632.395	84934
632.457	87517
632.519	84553
632.581	85612
632.643	84181
632.706	84673
632.768	82203
632.830	85250
632.892	87424
632.954	87226
633.016	88905
633.078	87054
633.141	86009
633.203	86210
633.265	84627
633.327	85733
633.389	85114
633.451	86739
633.513	85322
633.575	88663
633.637	85665
633.698	88959
633.760	91149
633.822	96218
633.884	96039
633.946	98288
634.008	99628
634.070	102056
634.132	104859
634.193	110375
634.255	117759
634.317	119521
634.379	115831
634.441	107482
634.502	100243
634.564	94263
634.626	89957
634.687	86520
634.749	84108
634.811	84760
634.873	83235
634.934	83243
634.996	84232
635.057	83655
635.119	85454
635.181	85851
635.242	86054
635.304	82889
635.365	87916
635.427	84491
635.488	86181
635.550	84105
635.611	84859
635.673	85330
635.734	91062
635.796	91493
635.857	100144
635.918	103228
635.980	111309
636.041	115821
636.102	120867
636.164	120585
636.225	119431
636.286	105167
636.348	98804
636.409	91378
636.470	87887
636.531	85855
636.593	83153
636.654	81241
636.715	77989
636.776	77985
636.838	76146
636.899	76263
636.960	74272
637.021	74175
637.082	71877
637.143	71874
637.204	68998
637.265	70504
637.326	71300
637.387	74137
637.448	69751
637.509	71606
637.570	71474
637.631	71028
637.692	68967
637.753	67537
637.814	68012
637.875	67209
637.936	68259
637.997	68016
638.058	66424
638.119	66730
638.179	67071
638.240	66936
638.301	66407
638.362	65029
638.423	64528
638.483	63904
638.544	61269
638.605	63815
638.666	62052
638.726	63073
638.787	63223
638.848	64606
638.908	61297
638.969	60889
639.030	58517
639.090	60007
639.151	60710
639.211	60764
639.272	62900
639.332	63830
639.393	63633
639.453	65091
639.514	66167
639.574	60744
639.635	58073
639.695	58720
639.756	56288
639.816	57575
639.877	56304
639.937	56975
639.997	58352
640.058	55200
640.118	55832
640.178	56678
640.239	55926
640.299	56122
640.359	56687
640.420	60654
640.480	64493
640.540	69101
640.600	71097
640.661	67142
640.721	63719
640.781	67251
640.841	61861
640.901	57293
640.961	57372
641.021	59379
641.082	61878
641.142	59236
641.202	57496
641.262	53429
641.322	54665
641.382	54700
641.442	54115
641.502	54282
641.562	54470
641.622	54832
641.682	58813
641.742	64432
641.802	61621
641.861	55808
641.921	52327
641.981	52337
642.041	51022
642.101	49720
642.161	48723
642.221	50714
642.280	50233
642.340	48822
642.400	50455
642.460	52830
642.519	52057
642.579	52703
642.639	53035
642.698	51302
642.758	55172
642.818	53567
642.877	52326
642.937	53309
642.997	52311
643.056	54316
643.116	50237
643.175	53609
643.235	53909
643.294	54902
643.354	57702
643.414	59379
643.473	64754
643.532	71380
643.592	86649
643.651	115051
643.711	172587
643.770	297231
643.830	594137
643.889	895906
643.948	409277
644.008	143531
644.067	90041
644.126	70372
644.186	62602
644.245	57967
644.304	53138
644.363	55684
644.423	50508
644.482	52350
644.541	53521
644.600	53601
644.659	63601
644.719	70822
644.778	93290
644.837	141338
644.896	258002
644.955	495941
645.014	208193
645.073	78380
645.132	62652
645.191	58251
645.250	55840
645.309	57992
645.368	61335
645.427	74889
645.486	118151
645.545	190380
645.604	72570
645.663	54128
645.722	50689
645.781	54504
645.840	56549
645.898	63395
645.957	78127
646.016	104601
646.075	162669
646.134	280655
646.192	593208
646.251	729517
646.310	242831
646.369	104376
646.427	83103
646.486	65744
646.545	55274
646.603	51004
646.662	47970
646.721	46771
646.779	44945
646.838	46287
646.896	52747
646.955	65441
647.014	91597
647.072	158920
647.131	370595
647.189	196424
647.248	56591
647.306	44702
647.365	43166
647.423	37938
647.481	40529
647.540	37526
647.598	38218
647.657	37440
647.715	37740
647.773	34899
647.832	36832
647.890	33637
647.948	33442
648.007	33421
648.065	31075
648.123	31273
648.181	32406
648.240	32206
648.298	31776
648.356	31475
648.414	31968
648.472	31451
648.531	30039
648.589	29603
648.647	29228
648.705	29623
648.763	30525
648.821	31166
648.879	30154
648.937	32407
648.995	35856
649.053	42173
649.111	55064
649.169	80639
649.227	130803
649.285	253247
649.343	556712
649.401	312415
649.459	78495
649.516	48427
649.574	41083
649.632	42025
649.690	45780
649.748	49589
649.806	67646
649.863	115769
649.921	279667
649.979	194244
650.037	43036
650.094	29768
650.152	28225
650.210	25560
650.268	25644
650.325	26093
650.383	26461
650.440	21633
650.498	23416
650.556	22473
650.613	21709
650.671	22524
650.728	22728
650.786	24849
650.843	33046
650.901	25762
650.958	20675
651.016	20596
651.073	21015
651.131	19851
651.188	18312
651.246	18812
651.303	18945
651.360	19159
651.418	19381
651.475	18622
651.532	18878
651.590	19112
651.647	18141
651.704	18761
651.762	18651
651.819	18038
651.876	17966
651.933	17296
651.990	17897
652.048	16402
652.105	16794
652.162	17898
652.219	16348
652.276	16764
652.333	17185
652.390	16122
652.448	16690
652.505	16345
652.562	16488
652.619	16131
652.676	17235
652.733	18963
652.790	15513
652.847	14857
652.904	16097
652.961	14981
653.017	14159
653.074	16427
653.131	15349
653.188	13779
653.245	15453
653.302	15350
653.359	15406
653.415	15951
653.472	15258
653.529	15372
653.586	14299
653.642	14416
653.699	15224
653.756	14396
653.813	14988
653.869	15783
653.926	15042
653.983	14887
654.039	14762
654.096	14194
654.152	14994
654.209	13880
654.266	14462
654.322	13524
654.379	15034
654.435	14476
654.492	13872
654.548	15051
654.605	14321
654.661	15452
654.717	13772
654.774	14546
654.830	13837
654.887	13168
654.943	14012
655.000	15707
655.056	13730
655.112	15055
655.168	14180
655.225	14597
655.281	15149
655.337	14176
655.394	13881
655.450	14104
655.506	13954
655.562	13184
655.618	14928
655.675	12542
655.731	13768
655.787	13065
655.843	13379
655.899	13858
655.955	14127
656.011	13689
656.067	12398
656.123	12894
656.179	12080
656.235	14803
656.291	12048
656.347	14017
656.403	13679
656.459	13517
656.515	13230
656.571	12916
656.627	12802
656.683	13455
656.739	13782
656.795	12893
656.850	12756
656.906	13282
656.962	14090
657.018	14095
657.074	16799
657.129	21152
657.185	31286
657.241	65734
657.297	38410
657.352	13975
657.408	12397
657.464	13293
657.519	12296
657.575	11713
657.630	11640
657.686	11613
657.742	11453
657.797	11977
657.853	11605
657.908	13471
657.964	11746
658.019	12639
658.075	11799
658.130	12288
658.186	10557
658.241	11919
658.297	10601
658.352	10926
658.407	11793
658.463	10861
658.518	11032
658.573	11533
658.629	11421
658.684	10443
658.739	10483
658.795	10300
658.850	11387
658.905	10631
658.960	11558
659.016	10799
659.071	10516
659.126	11128
659.181	9953
659.236	11538
659.291	11558
659.346	10830
659.401	10694
659.457	12352
659.512	11247
659.567	11637
659.622	9986
659.677	11002
659.732	9908
659.787	10404
659.842	10086
659.897	10517
659.952	10850
660.007	10795
660.061	9818
660.116	9640
660.171	9572
660.226	11400
660.281	10571
660.336	10054
660.391	11332
660.445	9594
660.500	10528
660.555	9627
660.610	9856
660.664	10088
660.719	9419
660.774	11121
660.828	9820
660.883	9867
660.938	9453
660.992	8326
661.047	9206
661.101	9283
661.156	9162
661.211	9709
661.265	9857
661.320	9328
661.374	10327
661.429	9122
661.483	9437
661.538	9226
661.592	9748
661.647	9855
661.701	11376
661.755	10097
661.810	9228
661.864	9414
661.919	9380
661.973	10433
662.027	9510
662.081	9542
662.136	9912
662.190	9982
662.244	10445
662.299	9056
662.353	9612
662.407	9609
662.461	9196
662.515	9048
662.569	8494
662.624	10149
662.678	8597
662.732	9239
662.786	8470
662.840	9526
662.894	9274
662.948	9415
663.002	9113
663.056	8688
663.110	8817
663.164	9227
663.218	10034
663.272	9728
663.326	9333
663.380	9140
663.434	9331
663.488	9382
663.542	9444
663.595	9582
663.649	9418
663.703	9796
663.757	9015
663.811	8903
663.864	8941
663.918	9533
663.972	8595
664.026	9819
664.079	8595
664.133	9885
664.187	10327
664.240	9918
664.294	9226
664.348	9810
664.401	8992
664.455	8891
664.508	8652
664.562	8472
664.615	9099
664.669	8565
664.722	8998
664.776	8295
664.829	9004
664.883	8604
664.936	8885
664.990	8759
665.043	8907
665.097	8058
665.150	10028
665.203	9502
665.257	8702
665.310	9540
665.363	9526
665.417	9017
665.470	9457
665.523	9539
665.576	9600
665.630	9319
665.683	8722
665.736	9642
665.789	9792
665.842	8973
665.895	9344
665.949	9638
666.002	8941
666.055	9934
666.108	10950
666.161	9423
666.214	10103
666.267	10089
666.320	9203
666.373	10051
666.426	9740
666.479	9906
666.532	10642
666.585	9645
666.638	10209
666.691	10369
666.744	10861
666.796	10160
666.849	9587
666.902	11388
666.955	10183
667.008	9635
667.060	9456
667.113	11004
667.166	9748
667.219	10292
667.271	11074
667.324	10696
667.377	10747
667.430	10167
667.482	10492
667.535	11018
667.587	10013
667.640	10187
667.693	9453
667.745	10613
667.798	10633
667.850	9453
667.903	10580
667.955	9557
668.008	10846
668.060	11331
668.113	10209
668.165	9816
668.218	9834
668.270	9513
668.322	9445
668.375	9108
668.427	9948
668.479	9666
668.532	10245
668.584	8883
668.636	9784
668.689	10141
668.741	8958
668.793	9485
668.845	9261
668.898	9974
668.950	9008
669.002	9448
669.054	9253
669.106	9562
669.158	9329
669.211	8359
669.263	9098
669.315	10468
669.367	9287
669.419	9110
669.471	9731
669.523	8730
669.575	8757
669.627	9423
669.679	9737
669.731	9641
669.783	9946
669.835	9534
669.886	8053
669.938	9521
669.990	8970
670.042	8858
670.094	8569
670.146	9815
670.197	8427
670.249	10140
670.301	9781
670.353	11376
670.404	12828
670.456	15999
670.508	21244
670.560	32002
670.611	49083
670.663	80735
670.715	181007
670.766	263554
670.818	85449
670.869	23244
670.921	15911
670.972	15297
671.024	10572
671.075	10041
671.127	10770
671.178	10803
671.230	11610
671.281	10633
671.333	12065
671.384	14793
671.436	17776
671.487	24497
671.538	32114
671.590	48620
671.641	76348
671.692	129510
671.744	219776
671.795	181785
671.846	81839
671.897	41455
671.949	27324
672.000	20497
672.051	16591
672.102	13516
672.153	12358
672.204	11384
672.256	10199
672.307	9203
672.358	9671
672.409	8561
672.460	8164
672.511	8385
672.562	7689
672.613	7670
672.664	6445
672.715	8262
672.766	7465
672.817	7360
672.868	6824
672.919	7121
672.970	6529
673.021	7081
673.071	5945
673.122	5826
673.173	6916
673.224	6608
673.275	5741
673.326	6171
673.376	5933
673.427	6533
673.478	6533
673.528	8186
673.579	6229
673.630	5810
673.680	8226
673.731	6188
673.782	6210
673.832	5839
673.883	6153
673.934	6299
673.984	6336
674.035	6754
674.085	5915
674.136	6691
674.186	6362
674.237	6857
674.287	6767
674.338	7313
674.388	6823
674.438	6557
674.489	7317
674.539	7404
674.589	6198
674.640	7401
674.690	6686
674.740	6695
674.791	6568
674.841	6601
674.891	5730
674.942	5149
674.992	5255
675.042	5501
675.092	5081
675.142	5061
675.193	5458
675.243	4379
675.293	5012
675.343	5568
675.393	5334
675.443	6031
675.493	5924
675.543	5580
675.593	5740
675.643	6275
675.693	5473
675.743	4694
675.793	5252
675.843	5007
675.893	5021
675.943	5351
675.993	5731
676.043	4747
676.093	5282
676.142	4891
676.192	5330
676.242	4790
676.292	5021
676.341	5170
676.391	4869
676.441	4906
676.491	4577
676.540	4757
676.590	4248
676.640	4790
676.689	3737
676.739	4045
676.789	4341
676.838	4434
676.888	5071
676.937	3242
676.987	4093
677.037	5083
677.086	2876
677.136	4462
677.185	4615
677.235	4516
677.284	4689
677.333	5080
677.383	3884
677.432	3284
677.482	3333
677.531	3689
677.580	3635
677.630	4632
677.679	3636
677.728	4363
677.778	4498
677.827	3999
677.876	4585
677.925	3769
677.975	4398
678.024	4877
678.073	5261
678.122	4704
678.171	4894
678.220	6303
678.269	5468
678.319	6292
678.368	6125
678.417	5187
678.466	4792
678.515	4933
678.564	3685
678.613	3345
678.662	3835
678.711	4209
678.760	3655
678.809	4494
678.857	4860
678.906	4453
678.955	4156
679.004	4125
679.053	4027
679.102	4054
679.151	4752
679.199	4100
679.248	4189
679.297	3820
679.346	2932
679.394	3118
679.443	3404
679.492	4459
679.540	4434
679.589	3744
679.638	3428
679.686	4447
679.735	4630
679.784	4670
679.832	6384
679.881	4003
679.929	4157
679.978	3884
680.026	4042
680.075	4585
680.123	3934
680.172	3212
680.220	2783
680.268	3523
680.317	2681
680.365	2352
680.414	3544
680.462	2959
680.510	3960
680.559	3013
680.607	3094
680.655	3474
680.703	2941
680.752	3605
680.800	3730
680.848	3242
680.896	3189
680.945	3503
680.993	2595
681.041	3350
681.089	3299
681.137	3390
681.185	2540
681.233	3622
681.258	3188
681.281	2752
681.329	2321
681.377	3375
681.380	3413
681.425	3635
681.473	3425
681.502	3546
681.521	3573
681.569	4301
681.617	3907
681.624	3860
681.665	3355
681.713	4163
681.745	4328
681.761	4359
681.809	3768
681.857	4702
681.867	4511
681.904	3767
681.952	3654
681.989	4423
682.000	4610
682.048	3555
682.096	4100
682.111	4031
682.143	3828
682.191	4638
682.233	5019
682.239	5046
682.286	5010
682.334	3906
682.354	4339
682.382	4847
682.430	4137
682.476	4134
682.477	4109
682.525	4585
682.572	3971
682.598	4353
682.620	4644
682.667	5109
682.715	4419
682.720	4455
682.763	4541
682.810	5506
682.841	5410
682.857	5302
682.905	4289
682.952	5123
682.963	5192
683.000	5362
683.047	5486
683.085	5913
683.095	6013
683.142	5682
683.190	5331
683.206	5419
683.237	5457
683.284	5853
683.328	5257
683.332	5191
683.379	5898
683.426	5563
683.449	5639
683.473	5712
683.521	5626
683.568	6149
683.571	6131
683.615	5498
683.662	6621
683.693	6386
683.709	6189
683.757	5416
683.804	5643
683.814	5575
683.851	5345
683.898	6100
683.936	5789
683.945	5703
683.992	6043
684.039	5583
684.057	5937
684.086	6450
684.133	6294
684.179	6358
684.180	6341
684.227	6478
684.274	5919
684.300	6207
684.321	6421
684.368	6168
684.415	6438
684.422	6421
684.462	6198
684.509	6308
684.543	6501
684.556	6564
684.603	6919
684.649	6621
684.665	6572
684.696	6472
684.743	7376
684.786	7522
684.790	7504
684.837	6882
684.883	7100
684.908	7316
684.930	7524
684.977	7187
685.023	7355
685.029	7381
685.070	7409
685.117	6957
685.150	7268
685.164	7428
685.210	6847
685.257	8184
685.272	8306
685.303	8557
685.350	7691
685.393	8200
685.396	8192
685.443	7481
685.490	7812
685.514	7372
685.536	7186
685.583	7701
685.629	6997
685.636	7113
685.675	7612
685.722	7907
685.757	7898
685.768	7891
685.815	7267
685.861	7580
685.878	7651
685.908	7811
685.954	7582
686.000	7672
686.000	7667
686.047	8581
686.093	8563
686.121	8650
686.139	8581
686.185	8124
686.232	8608
686.242	8609
686.278	8847
686.324	8497
686.363	8480
686.370	8420
686.416	9032
686.463	8986
686.484	8672
686.509	8419
686.555	8750
686.601	8740
686.606	8738
686.647	8478
686.693	9038
686.727	8499
686.739	8382
686.785	8409
686.831	8711
686.848	9008
686.877	9360
686.923	8950
686.969	8779
686.969	8779
687.015	8884
687.061	9345
687.090	9564
687.107	9598
687.153	9803
687.199	9540
687.211	9519
687.245	9458
687.291	9534
687.332	9669
687.336	9697
687.382	9573
687.428	9523
687.453	9674
687.474	9728
687.520	10002
687.565	9684
687.574	9697
687.611	10030
687.657	10433
687.695	11467
687.702	11690
687.748	11881
687.794	13819
687.816	13552
687.839	12784
687.885	11727
687.931	11364
687.937	11267
687.976	11151
688.022	11252
688.058	11401
688.067	11375
688.113	11103
688.158	10459
688.179	10246
688.204	10235
688.249	10445
688.295	10505
688.300	10531
688.340	10747
688.386	11197
688.421	11161
688.431	11145
688.477	11195
688.522	11426
688.542	11638
688.567	12135
688.613	11923
688.658	12430
688.663	12476
688.703	12340
688.749	11747
688.784	11743
688.794	11801
688.839	11179
688.884	12132
688.905	11769
688.930	11289
688.975	11767
689.020	10731
689.026	10751
689.065	10945
689.110	10720
689.146	10975
689.155	11153
689.201	11752
689.246	12510
689.267	12155
689.291	11451
689.336	11938
689.381	10963
689.388	10980
689.426	11596
689.471	12027
689.509	12375
689.516	12419
689.561	12182
689.606	12243
689.630	12240
689.651	12224
689.696	12272
689.741	12057
689.750	12121
689.785	12553
689.830	12150
689.871	12273
689.875	12286
689.920	12278
689.965	12083
689.992	12295
690.010	12473
690.054	12563
690.099	12163
690.112	12324
690.144	12810
690.189	12911
690.233	12729
690.233	12742
690.278	12681
690.323	12617
690.354	12610
690.367	12708
690.412	13050
690.457	12791
690.474	12950
690.501	13051
690.546	12911
690.590	12776
690.595	12728
690.635	12633
690.680	12939
690.716	12915
690.724	13014
690.769	13190
690.813	13975
690.836	14519
690.857	15961
690.902	18157
690.946	21059
690.957	21839
690.991	26965
691.035	34487
691.077	40581
691.080	40532
691.124	36152
691.168	31723
691.198	29611
691.213	27946
691.257	23021
691.301	17785
691.318	15796
691.346	15324
691.390	15306
691.434	14573
691.439	14493
691.478	14352
691.522	14239
691.559	13863
691.567	13899
691.611	14421
691.655	14811
691.680	14899
691.699	14782
691.743	14661
691.787	14308
691.800	14266
691.831	14470
691.875	14147
691.919	14384
691.921	14365
691.964	14249
692.008	13930
692.041	13533
692.052	13560
692.096	13853
692.139	14231
692.162	14314
692.183	14163
692.227	14247
692.271	13436
692.282	13335
692.315	13430
692.359	13937
692.402	13922
692.403	13945
692.447	13529
692.490	13492
692.523	13422
692.534	13516
692.578	13765
692.622	13814
692.643	13974
692.666	14026
692.709	13569
692.753	13740
692.763	13657
692.797	13834
692.840	14219
692.884	14576
692.884	14603
692.928	14160
692.971	14339
693.004	14220
693.015	14226
693.059	14140
693.102	14248
693.124	14136
693.146	14275
693.189	14604
693.233	14902
693.245	14991
693.276	15179
693.320	15229
693.363	15445
693.365	15406
693.407	15771
693.450	16698
693.485	17448
693.493	17870
693.537	19777
693.580	21479
693.605	22526
693.624	24260
693.667	28535
693.710	32852
693.725	34420
693.753	44010
693.797	59950
693.840	75619
693.845	77017
693.883	68990
693.926	59533
693.966	52148
693.970	51190
694.013	40158
694.056	29466
694.086	22045
694.099	21527
694.142	19494
694.185	17969
694.206	17036
694.229	16878
694.272	16960
694.315	16466
694.326	16458
694.358	16416
694.401	15780
694.444	15648
694.446	15586
694.487	15530
694.530	15699
694.566	15656
694.573	15653
694.616	15493
694.659	15356
694.686	15379
694.702	15598
694.745	15719
694.787	16031
694.806	16173
694.830	16143
694.873	16028
694.916	15527
694.926	15445
694.959	15702
695.002	16085
695.044	16356
695.046	16327
695.087	16510
695.130	16819
695.166	16914
695.172	16963
695.215	17145
695.258	17398
695.286	17350
695.301	17454
695.343	17815
695.386	18207
695.406	18356
695.428	18861
695.471	19593
695.514	20493
695.526	20768
695.556	22306
695.599	24117
695.641	26090
695.646	26199
695.684	24571
695.726	23152
695.766	21453
695.769	21441
695.811	20832
695.854	20016
695.886	19608
695.896	19904
695.938	20666
695.981	21534
696.005	21876
696.023	22155
696.065	23173
696.108	23691
696.125	23966
696.150	24619
696.192	25564
696.235	26399
696.245	26559
696.277	26573
696.319	26703
696.361	26632
696.365	26564
696.404	26556
696.446	26533
696.485	26439
696.488	26461
696.530	25990
696.572	25498
696.604	24959
696.614	24952
696.656	24859
696.698	24618
696.724	24498
696.740	24745
696.783	25135
696.825	25695
696.844	25780
696.867	25845
696.909	26001
696.951	26098
696.964	26039
696.992	26087
697.034	26243
697.076	26262
697.083	26221
697.118	27078
697.160	27950
697.202	28917
697.203	28873
697.244	28237
697.286	27506
697.323	26750
697.327	26872
697.369	27439
697.411	27972
697.442	28341
697.453	28363
697.494	28256
697.536	27947
697.562	27699
697.578	27747
697.620	27769
697.661	27821
697.682	27751
697.703	28424
697.744	29729
697.786	30958
697.801	31322
697.828	31177
697.869	30759
697.911	30420
697.921	30279
697.952	30084
697.994	29634
698.035	29166
698.040	29049
698.077	29728
698.118	30368
698.160	30978
698.160	30906
698.201	31112
698.243	31148
698.279	31204
698.284	31391
698.325	32405
698.367	33369
698.399	34075
698.408	34177
698.449	34236
698.491	34337
698.518	34276
698.532	34351
698.573	34388
698.614	34362
698.638	34294
698.656	34557
698.697	34957
698.738	35347
698.757	35439
698.779	35348
698.820	35020
698.862	34698
698.877	34491
698.903	34577
698.944	34572
698.985	34582
698.996	34498
699.026	34497
699.067	34381
699.116	34159
699.235	34743
699.354	33878
699.474	32917
699.593	32616
699.713	32660
699.832	32841
699.951	34766
700.070	34460
700.190	31645
700.309	30452
700.428	30334
700.547	28265
700.667	28169
700.786	29396
700.905	27690
701.024	29254
701.143	27932
701.262	30780
701.381	30332
701.500	30730
701.619	29849
701.738	30801
701.857	29484
701.976	28384
702.095	28620
702.214	29159
702.333	27810
702.452	30050
702.571	30472
702.690	30178
702.809	29434
702.928	27748
703.047	27302
703.165	27404
703.284	26309
703.403	26674
703.522	26751
703.640	27227
703.759	25880
703.878	25720
703.997	26060
704.115	25726
704.234	25725
704.353	26863
704.471	24496
704.590	23749
704.708	23261
704.827	23989
704.946	23798
705.064	23870
705.183	24023
705.301	24516
705.420	24430
705.538	23508
705.656	21682
705.775	22660
705.893	26191
706.012	25486
706.130	22381
706.249	23720
706.367	22028
706.485	22489
706.604	20801
706.722	21390
706.840	23531
706.958	27385
707.077	22518
707.195	21214
707.313	20996
707.431	19403
707.549	19661
707.668	18145
707.786	20718
707.904	20390
708.022	21604
708.140	19303
708.258	19360
708.376	21062
708.494	18717
708.612	20012
708.730	21119
708.848	19681
708.966	20730
709.084	20844
709.202	20027
709.320	18762
709.438	18902
709.556	18356
709.674	17564
709.791	18255
709.909	17861
710.027	17723
710.145	17459
710.263	18651
710.380	17061
710.498	17283
710.616	16669
710.733	17303
710.851	16636
710.969	17072
711.086	17176
711.204	16986
711.322	16677
711.439	15924
711.557	16620
711.674	16019
711.792	15788
711.909	16238
712.027	15884
712.144	15873
712.262	15728
712.379	16467
712.497	16815
712.614	15769
712.732	16420
712.849	14704
712.966	15660
713.084	17314
713.201	14828
713.318	16200
713.436	16647
713.553	15655
713.670	17231
713.787	17390
713.905	16315
714.022	17174
714.139	17698
714.256	21204
714.373	28376
714.490	49400
714.608	123145
714.725	445751
714.842	426346
714.959	58071
715.076	26468
715.193	21103
715.310	18299
715.427	15377
715.544	16049
715.661	15520
715.778	14224
715.895	15982
716.011	15541
716.128	13431
716.245	14391
716.362	14387
716.479	13288
716.596	12559
716.713	13688
716.829	13703
716.946	12158
717.063	12944
717.180	12139
717.296	12973
717.413	12398
717.530	11708
717.646	11255
717.763	12407
717.880	12576
717.996	11641
718.113	11734
718.229	12063
718.346	11563
718.462	11187
718.579	11351
718.695	12207
718.812	11657
718.928	11902
719.045	11269
719.161	10960
719.277	11981
719.394	12709
719.510	11891
719.626	13054
719.743	15712
719.859	23991
719.975	46144
720.092	171721
720.208	347836
720.324	52811
720.440	17286
720.557	14124
720.673	12937
720.789	13117
720.905	12270
721.021	11903
721.137	10336
721.253	10488
721.369	9930
721.486	10805
721.602	10840
721.718	10347
721.834	10403
721.950	10094
722.066	8939
722.181	9907
722.297	10055
722.413	10370
722.529	9904
722.645	10525
722.761	10185
722.877	10309
722.993	11317
723.108	13318
723.224	11078
723.340	11131
723.456	9332
723.571	9450
723.687	7757
723.803	9446
723.918	9317
724.034	9117
724.150	8968
724.265	9531
724.381	8802
724.497	9132
724.612	8874
724.728	9556
724.843	7907
724.959	8695
725.074	9455
725.190	9446
725.305	8425
725.421	9273
725.536	9346
725.651	9649
725.767	8761
725.882	9518
725.997	8890
726.113	9162
726.228	7662
726.343	8806
726.459	8969
726.574	8708
726.689	8030
726.804	8104
726.920	8781
727.035	8544
727.150	7893
727.265	8780
727.380	8399
727.495	9785
727.610	8397
727.725	8025
727.841	8360
727.956	10664
728.071	9310
728.186	8410
728.301	7900
728.416	9620
728.531	8657
728.645	8031
728.760	8290
728.875	7898
728.990	8283
729.105	8528
729.220	8226
729.335	9033
729.449	8153
729.564	7752
729.679	8089
729.794	8697
729.908	7967
730.023	8546
730.138	8215
730.253	10152
730.367	8913
730.482	7641
730.596	8581
730.711	10460
730.826	14268
730.940	13674
731.055	11749
731.169	11457
731.284	11702
731.398	11737
731.513	12310
731.627	13086
731.742	17020
731.856	19520
731.970	19915
732.085	23706
732.199	33566
732.313	57266
732.428	138347
732.542	358699
732.656	207580
732.771	50045
732.885	29785
732.999	26784
733.113	27935
733.227	26895
733.342	25225
733.456	25087
733.570	23471
733.684	22475
733.798	21748
733.912	21398
734.026	21781
734.140	21984
734.254	21603
734.368	21224
734.482	21049
734.596	21450
734.710	19830
734.824	20355
734.938	19391
735.052	20647
735.166	19734
735.280	19496
735.393	18930
735.507	19976
735.621	18968
735.735	18622
735.849	19375
735.962	18566
736.076	19806
736.190	18532
736.303	17811
736.417	18945
736.531	17268
736.644	18458
736.758	16619
736.872	17659
736.985	17209
737.099	17951
737.212	15806
737.326	16496
737.439	17679
737.553	16369
737.666	16429
737.780	15573
737.893	17071
738.007	15844
738.120	17028
738.233	15320
738.347	16647
738.460	16462
738.573	17536
738.687	14903
738.800	15773
738.913	17201
739.026	15226
739.140	15367
739.253	15318
739.366	15623
739.479	14371
739.592	15304
739.705	13709
739.818	17379
739.932	13092
740.045	15399
740.158	14585
740.271	15626
740.384	14928
740.497	12987
740.610	15261
740.723	13867
740.836	13687
740.949	15132
741.062	15312
741.174	13876
741.287	14273
741.400	13919
741.513	11817
741.626	14646
741.739	13139
741.851	13553
741.964	14434
742.077	13584
742.189	11456
742.302	13872
742.415	12012
742.527	12606
742.640	12882
742.753	10574
742.865	13249
742.978	12740
743.090	11579
743.203	12801
743.316	12310
743.428	12255
743.541	12121
743.653	11057
743.766	12341
743.878	12163
743.990	10231
744.103	12487
744.215	11812
744.327	10672
744.440	13752
744.552	12085
744.664	10365
744.777	13136
744.889	11190
745.001	11822
745.113	11826
745.226	11524
745.338	10253
745.450	12582
745.562	11205
745.674	11230
745.786	12652
745.898	11660
746.010	10240
746.122	11751
746.234	10948
746.347	11270
746.459	10892
746.570	9994
746.682	11825
746.794	12083
746.906	9347
747.018	10175
747.130	11769
747.242	9568
747.354	10163
747.466	11035
747.577	9884
747.689	12160
747.801	10919
747.913	9506
748.024	9057
748.136	10607
748.248	9610
748.359	11231
748.471	10258
748.583	9185
748.694	8954
748.806	11052
748.918	9221
749.029	9594
749.141	10213
749.252	10389
749.364	8695
749.475	9906
749.587	9408
749.698	9251
749.809	10114
749.921	8796
750.032	8416
750.144	8637
750.255	9188
750.366	9664
750.478	8479
750.589	9210
750.700	7512
750.811	9466
750.923	8815
751.034	8387
751.145	9853
751.256	9124
751.367	8218
751.479	8300
751.590	7675
751.701	8312
751.812	7687
751.923	8485
752.034	8833
752.145	9778
752.256	9140
752.367	8700
752.478	8459
752.589	8949
752.700	9012
752.811	8514
752.922	8292
753.032	8648
753.143	8872
753.254	8839
753.365	9445
753.476	9641
753.586	8665
753.697	8291
753.808	8083
753.919	8223
754.029	7789
754.140	8502
754.251	7915
754.361	9336
754.472	8475
754.582	8729
754.693	7577
754.804	9035
754.914	7089
755.025	7759
755.135	7946
755.246	9133
755.356	8815
755.466	7862
755.577	7832
755.687	8283
755.798	7761
755.908	7877
756.018	7740
756.129	9004
756.239	8282
756.349	9334
756.460	8748
756.570	9101
756.680	8190
756.790	7721
756.900	8537
757.011	8504
757.121	7325
757.231	7862
757.341	7618
757.451	7092
757.561	6949
757.671	8978
757.781	7754
757.891	8456
758.001	6511
758.111	8692
758.221	8625
758.331	9545
758.441	8383
758.551	9179
758.661	9319
758.771	9656
758.880	8902
758.990	8607
759.100	8746
759.210	9091
759.320	9182
759.429	10010
759.539	9944
759.649	10203
759.758	11282
759.868	11483
759.978	11799
760.087	12726
760.197	11108
760.307	11671
760.416	10985
760.526	10644
760.635	11589
760.745	11228
760.854	12393
760.964	13554
761.073	13136
761.182	13735
761.292	12977
761.401	11844
761.511	10586
761.620	10519
761.729	10885
761.839	10886
761.948	10305
762.057	10133
762.166	10490
762.276	10527
762.385	10710
762.494	10818
762.603	10583
762.712	12554
762.822	11745
762.931	11114
763.040	11212
763.149	11897
763.258	11869
763.367	13473
763.476	13118
763.585	13690
763.694	14495
763.803	14236
763.912	15227
764.021	16352
764.130	16047
764.238	18704
764.347	18838
764.456	19256
764.565	21080
764.674	22758
764.783	23765
764.891	26368
765.000	29864
765.109	33244
765.217	36805
765.326	44127
765.435	51298
765.543	61404
765.652	77219
765.761	100485
765.869	135401
765.978	192031
766.086	283908
766.195	418686
766.303	541663
766.412	415871
766.520	448599
766.629	507757
766.737	360962
766.846	244591
766.954	169386
767.062	125950
767.171	95583
767.279	76474
767.387	61512
767.496	53013
767.604	45879
767.712	40911
767.820	35978
767.928	32397
768.037	31152
768.145	29985
768.253	29069
768.361	27514
768.469	27959
768.577	27427
768.685	29732
768.793	31475
768.901	34259
769.009	39062
769.117	46235
769.225	59762
769.333	82357
769.441	124278
769.549	200712
769.657	347712
769.765	472812
769.873	400410
769.981	437931
770.088	291485
770.196	174311
770.304	114652
770.412	83769
770.519	64559
770.627	51732
770.735	42706
770.842	36928
770.950	32534
771.058	29714
771.165	28758
771.273	26078
771.380	25438
771.488	28486
771.595	29317
771.703	24691
771.810	23181
771.918	22564
772.025	25755
772.133	27012
772.240	25028
772.348	27037
772.455	25997
772.562	24029
772.670	22067
772.777	23194
772.884	22416
772.991	21878
773.099	22167
773.206	19901
773.313	20756
773.420	20804
773.528	20476
773.635	18496
773.742	20326
773.849	18866
773.956	19761
774.063	19667
774.170	19137
774.277	18911
774.384	16772
774.491	16883
774.598	18576
774.705	18522
774.812	17291
774.919	17495
775.026	17172
775.133	17305
775.239	16679
775.346	15467
775.453	16697
775.560	14951
775.667	16494
775.773	14525
775.880	16013
775.987	14600
776.093	15806
776.200	16074
776.307	13097
776.413	13297
776.520	16355
776.627	14670
776.733	13599
776.840	11956
776.946	17421
777.053	14386
777.159	13678
777.266	11945
777.372	13556
777.478	14734
777.585	14318
777.691	12521
777.798	14846
777.904	12728
778.010	12457
778.117	13140
778.223	12658
778.329	12130
778.435	11393
778.542	14095
778.648	11993
778.754	11345
778.860	13245
778.966	12999
779.072	12490
779.178	12199
779.284	11065
779.391	11885
779.497	12610
779.603	13970
779.708	13128
779.815	20606
779.920	57581
780.026	76605
780.132	17490
780.238	11504
780.344	10654
780.450	14028
780.556	9544
780.661	10147
780.767	11727
780.873	8967
780.979	9963
781.085	10796
781.190	10642
781.296	8854
781.402	10679
781.507	9432
781.613	8728
781.719	9115
781.824	10831
781.930	8551
782.035	10487
782.141	10640
782.246	7573
782.352	8555
782.457	9044
782.563	9319
782.668	9857
782.773	8470
782.879	7818
782.984	8713
783.090	8691
783.195	9887
783.300	10344
783.405	7937
783.511	7525
783.616	8555
783.721	8849
783.826	7828
783.932	7892
784.037	8490
784.142	7843
784.247	8091
784.352	8666
784.457	5771
784.562	8984
784.667	9296
784.772	7268
784.877	6304
784.982	9516
785.087	8098
785.192	6663
785.297	7018
785.402	8657
785.507	8307
785.611	7917
785.716	6958
785.821	8424
785.926	7955
786.031	7346
786.135	7817
786.240	8431
786.345	5771
786.450	6925
786.554	6913
786.659	6580
786.763	5914
786.868	7859
786.973	8000
787.077	6557
787.182	5466
787.286	7700
787.391	7948
787.495	6019
787.600	5636
787.704	6445
787.809	6724
787.913	6365
788.017	7153
788.122	7061
788.226	6170
788.330	4270
788.435	6399
788.539	7258
788.643	4779
788.747	5066
788.852	6178
788.956	6077
789.060	7309
789.164	6814
789.268	6194
789.372	6861
789.476	5703
789.580	4952
789.684	5061
789.788	6451
789.892	5570
789.996	4669
790.100	4883
790.204	6345
790.308	6474
790.412	5423
790.516	4173
790.620	4779
790.724	6778
790.828	4854
790.931	3607
791.035	6815
791.139	4640
791.242	5574
791.346	6313
791.450	6828
791.554	5027
791.657	3792
791.761	5827
791.864	6694
791.968	6016
792.072	6406
792.175	4364
792.279	3900
792.382	4638
792.486	4367
792.589	4393
792.693	5600
792.796	3648
792.899	5517
793.003	5701
793.106	3501
793.209	5328
793.313	5615
793.416	2796
793.519	4751
793.623	5236
793.726	5280
793.829	3267
793.932	3691
794.035	3411
794.138	7271
794.242	6506
794.345	4063
794.448	5686
794.551	9580
794.654	28238
794.757	41675
794.860	8467
794.963	4864
795.066	3001
795.169	5624
795.272	4073
795.375	5659
795.477	3163
795.580	4330
795.683	3319
795.786	4263
795.889	2891
795.991	4036
796.094	4182
796.197	3253
796.300	5341
796.402	3900
796.505	2749
796.608	3462
796.710	4285
796.813	4594
796.915	4413
797.018	4897
797.120	4575
797.223	3902
797.326	5236
797.428	3695
797.530	2065
797.633	3536
797.735	5655
797.838	4329
797.940	4892
798.042	3420
798.145	3481
798.247	3681
798.349	2089
798.452	4168
798.554	3521
798.656	4340
798.758	4666
798.860	4273
798.962	2837
799.065	2925
799.167	2465
799.269	3710
799.371	5745
799.473	5837
799.575	3891
799.677	3010
799.779	4885
799.881	2186
799.983	5170
800.085	4068
800.187	4074
800.289	2669
800.390	2936
800.492	4995
800.594	4359
800.696	3001
800.798	3286
800.899	3793
801.001	3328
801.103	3022
801.205	3101
801.306	3563
801.408	2698
801.509	3353
801.611	2928
801.713	3982
801.814	1589
801.916	2501
802.017	2274
802.119	2333
802.220	3446
802.322	2411
802.423	4158
802.525	1845
802.626	3006
802.727	3877
802.829	3614
802.930	735
803.031	4023
803.133	3024
803.234	2349
803.335	3644
803.436	2730
803.538	3085
803.639	1856
803.740	3044
803.841	2395
803.942	3942
804.043	3146
804.144	2307
804.245	2950
804.346	2298
804.447	1819
804.548	2045
804.649	3275
804.750	1575
804.851	1973
804.952	2753
805.053	2235
805.154	1581
805.255	3482
805.355	2860
805.456	2018
805.557	3315
805.658	2104
805.758	2978
805.859	2832
805.960	2648
806.061	1368
806.161	2552
806.262	2584
806.362	2138
806.463	1512
806.564	4030
806.664	2606
806.765	1755
806.865	2459
806.966	1972
807.066	1902
807.166	3116
807.267	2302
807.367	2772
807.468	2573
807.568	537
807.668	2663
807.769	3235
807.869	2316
807.969	1878
808.069	1875
808.170	3148
808.270	2250
808.370	2848
808.470	3264
808.570	1272
808.670	2804
808.770	1648
808.870	1784
808.970	3117
809.070	2165
809.170	2058
809.271	3621
809.370	1961
809.470	2218
809.570	2272
809.670	1363
809.770	2571
809.870	2145
809.970	2718
810.070	2449
810.169	3207
810.269	570
810.369	3844
810.469	2114
810.568	1685
810.668	1754
810.768	2026
810.867	2430
810.967	1110
811.066	1562
811.166	2307
811.265	1695
811.365	1990
811.464	1844
811.564	2906
811.663	1870
811.763	1167
811.862	3078
811.962	2471
812.061	1789
812.160	2191
812.260	2604
812.359	1444
812.458	2082
812.557	3489
812.657	2093
812.756	2501
812.855	1710
812.954	2280
813.053	2399
813.153	2048
813.252	512
813.351	3041
813.450	1967
813.549	1616
813.648	1831
813.747	1971
813.846	2580
813.945	2227
814.044	2428
814.143	2607
814.242	2982
814.341	3033
814.439	2251
814.538	3829
814.637	2183
814.736	2251
814.835	3143
814.933	3181
815.032	3651
815.131	6395
815.229	11356
815.328	13538
815.427	10200
815.525	9700
815.624	8835
815.722	9204
815.821	8840
815.919	9374
816.018	9110
816.116	10128
816.215	9457
816.313	10217
816.412	11899
816.510	12495
816.609	12894
816.707	14353
816.805	11316
816.904	11584
817.002	12392
817.100	12060
817.198	12122
817.296	11072
817.395	11159
817.493	12739
817.591	10747
817.689	11922
817.787	10961
817.885	11026
817.983	9436
818.081	10999
818.179	11442
818.277	15036
818.375	12415
818.473	11007
818.571	9093
818.669	11444
818.767	11631
818.865	8896
818.963	8167
819.061	10654
819.158	9469
819.256	13330
819.354	11950
819.452	18872
819.549	13423
819.647	12009
819.745	8425
819.842	9591
819.940	9780
820.038	9281
820.135	7358
820.233	10050
820.330	10008
820.428	8546
820.525	9450
820.623	8351
820.720	7441
820.818	8747
820.915	9888
821.012	8935
821.110	6395
821.207	8895
821.304	7635
821.402	9073
821.499	8788
821.596	6707
821.693	7509
821.791	9097
821.888	8201
821.985	9040
822.082	6461
822.179	8096
822.276	7983
822.373	6270
822.470	7677
822.567	8092
822.664	5958
822.761	8231
822.858	7641
822.955	7831
823.052	6273
823.149	7284
823.246	7958
823.343	6475
823.440	5898
823.536	7760
823.633	7697
823.730	6552
823.827	7414
823.923	6501
824.020	6230
824.117	7239
824.213	7488
824.310	6397
824.407	4995
824.503	7771
824.600	6591
824.696	5779
824.793	8044
824.889	7916
824.986	5933
825.082	4865
825.179	5726
825.275	7679
825.371	6853
825.468	5644
825.564	3122
825.660	7428
825.757	7972
825.853	7118
825.949	4450
826.045	5792
826.142	5722
826.238	7237
826.334	5725
826.430	5467
826.526	4302
826.622	4025
826.718	6892
826.814	7258
826.910	6339
827.006	3765
827.102	3862
827.198	6855
827.294	7306
827.390	6166
827.486	4524
827.582	3600
827.678	4219
827.774	6623
827.869	4920
827.965	4408
828.061	4302
828.157	6584
828.252	5350
828.348	4523
828.444	3957
828.539	4459
828.635	4547
828.731	5644
828.826	3637
828.922	5222
829.017	5278
829.113	6975
829.208	3892
829.304	3858
829.399	7137
829.495	4524
829.590	4001
829.685	4496
829.781	5481
829.876	5661
829.971	2794
830.066	2777
830.162	4333
830.257	7552
830.352	4798
830.447	4151
830.543	3359
830.638	4023
830.733	5846
830.828	3355
830.923	5068
831.018	5443
831.113	5724
831.208	3098
831.303	2074
831.398	2782
831.493	3952
831.588	6762
831.683	3453
831.778	3773
831.873	2719
831.967	6004
832.062	4170
832.157	3846
832.252	3890
832.346	4208
832.441	4759
832.536	4688
832.631	4671
832.725	4035
832.820	3333
832.914	4052
833.009	2297
833.104	2613
833.198	2897
833.293	3466
833.387	5307
833.482	4198
833.576	3030
833.670	3748
833.765	3347
833.859	5023
833.954	4803
834.048	4431
834.142	3351
834.237	2537
834.331	3132
834.425	4126
834.519	3327
834.613	3818
834.708	2343
834.802	3044
834.896	3589
834.990	4383
835.084	2954
835.178	1882
835.272	3247
835.366	4293
835.460	4584
835.554	3541
835.648	1680
835.742	2327
835.836	2107
835.930	2129
836.024	4081
836.117	3254
836.211	2430
836.305	2970
836.399	1493
836.493	2563
836.586	4086
836.680	3402
836.774	2347
836.867	3373
836.961	1063
837.055	3108
837.148	2112
837.242	3527
837.335	3352
837.429	2267
837.522	2490
837.616	2712
837.709	2635
837.803	2897
837.896	4458
837.989	3129
838.083	2704
838.176	2383
838.269	151
838.363	3131
838.456	1599
838.549	4067
838.642	1662
838.735	3095
838.829	2864
838.922	1893
839.015	2367
839.108	1209
839.201	1777
839.294	3148
839.387	2212
839.480	1665
839.573	2121
839.666	2232
839.759	2348
839.852	1833
839.945	3322
840.038	1672
840.131	1245
840.223	1507
840.316	2618
840.409	2715
840.502	2692
840.594	3140
840.687	1127
840.780	1690
840.873	653
840.965	1793
841.058	2594
841.150	3331
841.243	1050
841.336	2071
841.428	879
841.521	1928
841.613	873
841.706	2362
841.798	1441
841.890	1972
841.983	1464
842.075	2444
842.167	1128
842.260	2735
842.352	2942
842.444	2816
842.537	1203
842.629	2090
842.721	1288
842.813	2098
842.905	1721
842.997	2142
843.090	2584
843.182	1190
843.274	659
843.366	2153
843.458	1812
843.550	3078
843.642	1752
843.734	1539
843.826	1027
843.918	1109
844.009	2192
844.101	1513
844.193	1756
844.285	2021
844.377	1614
844.469	2332
844.560	-134
844.652	2324
844.744	1520
844.835	1661
844.927	1449
845.019	3108
845.110	1248
845.202	2775
845.293	1317
845.385	973
845.476	1864
845.568	2953
845.659	1067
845.751	2033
845.842	1373
845.934	1825
846.025	1889
846.116	2410
846.208	1555
846.299	799
846.390	733
846.482	1444
846.573	1481
846.664	2254
846.755	1442
846.846	1531
846.937	-9
847.029	782
847.120	1333
847.211	2298
847.302	2529
847.393	1513
847.484	2037
847.575	464
847.666	592
847.757	537
847.847	1090
847.938	2784
848.029	1732
848.120	1535
848.211	1518
848.302	1152
848.392	575
848.483	1585
848.574	374
848.664	2325
848.755	1804
848.846	1516
848.936	1039
849.027	1508
849.118	1264
849.208	1697
849.299	1965
849.389	4292
849.480	8279
849.570	13613
849.661	25971
849.751	42272
849.841	15656
849.932	4372
850.022	2075
850.112	2239
850.203	1602
850.293	1872
850.383	1386
850.474	1101
850.564	1240
850.654	1478
850.744	825
850.834	788
850.924	1366
851.014	1952
851.104	1394
851.194	958
851.284	1283
851.374	1608
851.464	808
851.554	1734
851.644	1181
851.734	2313
851.824	1801
851.914	2075
852.004	2349
852.094	1429
852.183	1176
852.273	1553
852.363	1097
852.452	1799
852.542	1820
852.632	990
852.721	1798
852.811	1084
852.901	2082
852.990	2007
853.080	2086
853.169	2102
853.259	1771
853.348	2934
853.438	2206
853.527	4079
853.617	5329
853.706	8461
853.795	14141
853.885	29224
853.974	50518
854.063	86154
854.152	114951
854.242	53836
854.331	15992
854.420	7729
854.509	5929
854.598	4977
854.687	4165
854.777	2496
854.866	1054
854.955	2267
855.044	1634
855.133	1698
855.222	1226
855.311	880
855.400	2088
855.488	1870
855.577	1235
855.666	1819
855.755	702
855.844	1435
855.933	689
856.021	1165
856.110	491
856.199	1312
856.288	-82
856.376	1230
856.465	1457
856.554	853
856.642	1006
856.731	1647
856.819	1613
856.908	1346
856.996	1436
857.085	664
857.173	781
857.262	764
857.350	812
857.438	1646
857.527	669
857.615	1369
857.703	1372
857.792	756
857.880	492
857.968	565
858.056	472
858.145	1263
858.233	1631
858.321	233
858.409	1083
858.497	1335
858.585	572
858.673	1346
858.761	738
858.849	1118
858.937	543
859.025	1423
859.113	1087
859.201	882
859.289	2484
859.377	1545
859.465	993
859.552	617
859.640	976
859.728	1041
859.816	793
859.903	1051
859.991	-76
860.079	115
860.166	464
860.254	615
860.342	1012
860.429	1504
860.517	1433
860.604	1491
860.692	719
860.779	1332
860.867	943
860.954	1485
861.042	1353
861.129	1595
861.216	1163
861.304	1486
861.391	809
861.478	983
861.565	597
861.653	1230
861.740	106
861.827	169
861.914	535
862.001	1048
862.089	1719
862.176	1655
862.263	795
862.350	1064
862.437	752
862.524	229
862.611	1283
862.698	1293
862.785	1476
862.871	2030
862.958	1573
863.045	1582
863.132	972
863.219	1423
863.306	292
863.392	1444
863.479	379
863.566	885
863.652	2065
863.739	1320
863.826	2229
863.912	2304
863.999	1372
864.086	2084
864.172	1441
864.259	1745
864.345	2175
864.432	2220
864.518	2465
864.604	2665
864.691	1347
864.777	3153
864.863	3262
864.950	5496
865.036	6488
865.122	12068
865.209	12836
865.295	10518
865.381	10100
865.467	10303
865.553	10775
865.639	12593
865.726	15148
865.812	22799
865.898	35786
865.984	47757
866.070	77567
866.156	78967
866.242	32163
866.328	15227
866.414	11092
866.499	10358
866.585	10215
866.671	9842
866.757	9427
866.843	9785
866.928	8439
867.014	8690
867.100	8366
867.186	8056
867.271	8032
867.357	7823
867.442	6993
867.528	8325
867.614	7511
867.699	8070
867.785	8597
867.870	7771
867.956	8070
868.041	8451
868.127	7470
868.212	7402
868.297	7469
868.383	8187
868.468	7504
868.553	8330
868.639	7339
868.724	7276
868.809	7903
868.894	6865
868.979	6963
869.065	7083
869.150	6076
869.235	6661
869.320	7383
869.405	5381
869.490	7344
869.575	7159
869.660	4956
869.745	7336
869.830	7562
869.915	5406
870.000	6465
870.085	5866
870.169	7690
870.254	7945
870.339	4636
870.424	4561
870.509	6902
870.593	7876
870.678	6735
870.763	5812
870.847	5479
870.932	6646
871.016	6727
871.101	4808
871.186	6936
871.270	8147
871.355	4997
871.439	5578
871.523	6337
871.608	5708
871.692	4959
871.777	6868
871.861	6355
871.945	6116
872.030	5828
872.114	5672
872.198	4842
872.282	6409
872.367	5133
872.451	5970
872.535	5682
872.619	5196
872.703	4069
872.787	6837
872.871	5835
872.955	4087
873.039	3904
873.123	5850
873.207	5473
873.291	4244
873.375	4338
873.459	6023
873.543	5169
873.627	4527
873.711	4173
873.794	4973
873.878	4728
873.962	4441
874.045	3536
874.129	4541
874.137	4636
874.213	5587
874.245	4993
874.296	4036
874.352	4064
874.380	4085
874.460	4637
874.464	4660
874.547	4100
874.568	4319
874.631	4984
874.676	4631
874.714	4315
874.784	5149
874.798	5321
874.881	4473
874.892	4386
874.965	3821
874.999	3997
875.048	4220
875.107	4088
875.131	4043
875.215	3325
875.215	3324
875.298	3056
875.323	3435
875.381	4341
875.430	5177
875.465	5742
875.538	4102
875.548	3878
875.631	3585
875.646	3505
875.714	3149
875.753	3167
875.798	3193
875.861	4392
875.881	4753
875.964	4383
875.968	4326
876.047	3427
876.076	3594
876.130	3856
876.183	3974
876.213	4055
876.291	4437
876.296	4454
876.379	3543
876.398	3435
876.462	3091
876.506	2592
876.545	2261
876.613	3660
876.628	3929
876.711	3118
876.721	3280
876.794	4692
876.828	4560
876.877	4114
876.935	3386
876.960	3131
877.043	2537
877.043	2540
877.125	3152
877.150	3310
877.208	3654
877.258	3448
877.291	3261
877.365	1971
877.374	1825
877.456	3207
877.472	3019
877.539	2308
877.579	3071
877.622	3821
877.687	3410
877.704	3298
877.787	3086
877.794	3064
877.869	2717
877.901	3083
877.952	3658
878.008	2718
878.034	2347
878.115	2679
878.117	2680
878.199	1981
878.222	2220
878.282	3094
878.329	3172
878.364	3119
878.437	3687
878.447	3742
878.529	2251
878.544	2302
878.611	2582
878.651	2543
878.694	2694
878.758	3126
878.776	3199
878.858	2904
878.865	2879
878.941	2273
878.972	2085
879.023	2012
879.078	2283
879.105	2459
879.185	3429
879.187	3444
879.269	3252
879.292	3254
879.351	3014
879.399	2252
879.433	1858
879.506	2586
879.516	2638
879.598	2054
879.613	1873
879.680	1624
879.720	2592
879.762	3349
879.827	2191
879.844	1888
879.926	2659
879.933	2619
880.007	2052
880.040	1535
880.089	989
880.147	1994
880.171	2452
880.253	3168
880.254	3166
880.335	1930
880.360	2364
880.417	3473
880.467	3334
880.499	3180
880.574	3379
880.580	3378
880.662	2961
880.680	2735
880.744	1983
880.787	1770
880.825	1639
880.893	2029
880.907	2096
880.989	1849
881.000	1946
881.070	2755
881.106	2747
881.152	2492
881.213	1905
881.233	1746
881.315	1943
881.319	1967
881.396	2760
881.426	2534
881.478	1776
881.532	2154
881.559	2338
881.639	1504
881.641	1489
881.722	2124
881.745	2173
881.803	2250
881.852	1959
881.885	1644
881.958	1220
881.966	1240
882.047	2468
882.064	2414
882.129	1555
882.171	1389
882.210	1264
882.277	1065
882.291	1145
882.372	1868
882.383	1986
882.454	2484
882.489	2383
882.535	2129
882.596	2417
882.616	2518
882.697	1605
882.702	1587
882.778	1158
882.808	1150
882.859	1475
882.914	1709
882.940	1682
883.020	1659
883.021	1658
883.102	1466
883.127	1685
883.183	2510
883.233	2177
883.264	1551
883.339	992
883.345	989
883.426	491
883.445	674
883.507	1720
883.551	1983
883.587	1831
883.657	1892
883.668	1951
883.749	1638
883.763	1608
883.830	1369
883.869	1350
883.910	1154
883.975	987
883.991	1075
884.072	1427
884.081	1534
884.152	2083
884.187	1911
884.233	2125
884.292	2599
884.314	2386
884.394	1337
884.398	1277
884.475	549
884.504	589
884.555	666
884.610	567
884.636	717
884.716	1343
884.716	1346
884.797	2292
884.821	2343
884.877	1914
884.927	1640
884.958	1437
885.033	1036
885.038	1018
885.118	1086
885.139	931
885.199	619
885.244	703
885.279	1093
885.350	2135
885.359	2182
885.439	2430
885.456	2273
885.520	1235
885.561	1084
885.600	1155
885.667	1202
885.680	1270
885.760	1617
885.773	1616
885.840	916
885.878	787
885.920	977
885.984	1101
886.000	1225
886.080	1741
886.089	1820
886.160	1351
886.195	1041
886.240	1318
886.300	1606
886.320	1612
886.400	2092
886.406	2091
886.480	1126
886.511	834
886.560	924
886.616	840
886.640	750
886.720	812
886.722	810
886.800	619
886.827	597
886.879	584
886.932	715
886.959	1074
887.038	1904
887.039	1896
887.119	1239
887.143	1159
887.198	1423
887.248	1445
887.278	1362
887.354	1333
887.358	1325
887.437	1085
887.459	1064
887.517	1493
887.564	1738
887.596	1632
887.669	1458
887.676	1425
887.755	1057
887.774	978
887.835	1086
887.880	1139
887.914	1192
887.985	1266
887.994	1306
888.073	1826
888.090	1889
888.153	1823
888.195	1778
888.232	1584
888.300	1408
888.311	1427
888.391	1392
888.405	1398
888.470	1189
888.510	1068
888.549	1124
888.615	1257
888.628	1326
888.708	1715
888.720	1768
888.787	1403
888.825	1192
888.866	882
888.930	483
888.945	596
889.024	1194
889.035	1275
889.103	1236
889.140	1215
889.182	1226
889.245	1250
889.261	1245
889.340	1249
889.349	1251
889.419	661
889.454	362
889.498	631
889.559	1069
889.577	1052
889.656	964
889.664	963
889.735	1184
889.768	1292
889.814	1084
889.873	813
889.978	1283
890.083	121
890.187	898
890.292	670
890.397	1669
890.501	1153
890.606	1184
890.710	1003
890.815	1583
890.919	1413
891.024	1059
891.128	506
891.233	-36
891.337	1849
891.442	1117
891.546	1130
891.650	1672
891.755	1039
891.859	1633
891.963	357
892.068	1006
892.172	1286
892.276	183
892.380	887
892.484	576
892.589	1775
892.693	1163
892.797	187
892.901	969
893.005	-302
893.109	1363
893.213	1081
893.317	775
893.421	363
893.525	502
893.629	970
893.733	998
893.837	710
893.941	1004
894.045	1170
894.148	700
894.252	1019
894.356	784
894.460	2271
894.564	1405
894.667	453
894.771	175
894.875	996
894.978	735
895.082	567
895.186	887
895.289	1861
895.393	985
895.496	638
895.600	328
895.703	386
895.807	582
895.910	717
896.014	712
896.117	374
896.221	195
896.324	700
896.427	923
896.531	245
896.634	717
896.737	989
896.840	1055
896.944	1295
897.047	1237
897.150	449
897.253	213
897.356	-460
897.460	100
897.563	336
897.666	-57
897.769	1071
897.872	934
897.975	739
898.078	579
898.181	435
898.284	15
898.387	1502
898.490	1497
898.593	316
898.695	598
898.798	216
898.901	220
899.004	844
899.107	787
899.209	430
899.312	1589
899.415	316
899.518	665
899.620	1081
899.723	-300
899.826	823
899.928	-564
900.031	595
900.133	999
900.236	1098
900.338	277
900.441	79
900.543	657
900.646	443
900.748	-177
900.851	829
900.953	99
901.055	527
901.158	785
901.260	996
901.362	-110
901.465	92
901.567	610
901.669	1655
901.771	104
901.873	346
901.976	373
902.078	222
902.180	774
902.282	-123
902.384	5
902.486	1090
902.588	567
902.690	278
902.792	158
902.894	114
902.996	347
903.098	344
903.200	85
903.302	-20
903.404	337
903.505	-335
903.607	496
903.709	163
903.811	791
903.913	317
904.014	-191
904.116	-474
904.218	23
904.319	1256
904.421	755
904.523	674
904.624	1024
904.726	516
904.827	43
904.929	11
905.030	-213
905.132	297
905.233	76
905.335	536
905.436	242
905.537	1007
905.639	296
905.740	332
905.841	65
905.943	-102
906.044	497
906.145	165
906.247	461
906.348	315
906.449	29
906.550	379
906.651	932
906.752	215
906.854	-547
906.955	73
907.056	238
907.157	583
907.258	382
907.359	288
907.460	-258
907.561	-395
907.662	-224
907.762	479
907.863	535
907.964	-14
908.065	383
908.166	188
908.267	-56
908.367	144
908.468	324
908.569	266
908.670	-313
908.770	824
908.871	796
908.971	632
909.072	749
909.173	-117
909.273	712
909.374	292
909.474	-792
909.575	172
909.675	500
909.776	189
909.876	155
909.977	401
910.077	423
910.177	354
910.278	53
910.378	215
910.478	-479
910.579	257
910.679	-399
910.779	536
910.879	524
910.980	840
911.080	253
911.180	-279
911.280	-70
911.380	133
911.480	373
911.580	-65
911.680	592
911.780	138
911.880	169
911.980	341
912.080	-588
912.180	133
912.280	199
912.380	681
912.480	-297
912.580	506
912.679	368
912.779	668
912.879	-141
912.979	195
913.078	418
913.178	-35
913.278	-654
913.377	61
913.477	-571
913.577	492
913.676	173
913.776	1303
913.875	96
913.975	583
914.074	641
914.174	1109
914.273	417
914.373	724
914.472	-433
914.572	-363
914.671	-297
914.770	159
914.870	-88
914.969	-233
915.068	306
915.167	441
915.267	343
915.366	156
915.465	644
915.564	769
915.663	327
915.763	366
915.862	757
915.961	1146
916.060	-219
916.159	268
916.258	-303
916.357	363
916.456	771
916.555	699
916.654	-129
916.752	-318
916.851	-158
916.950	436
917.049	156
917.148	-358
917.247	24
917.345	-85
917.444	187
917.543	492
917.642	190
917.740	368
917.839	1152
917.937	1218
918.036	903
918.135	-637
918.233	-18
918.332	-145
918.430	422
918.529	532
918.627	570
918.726	356
918.824	319
918.923	115
919.021	162
919.119	-247
919.218	-207
919.316	404
919.414	229
919.512	237
919.611	248
919.709	652
919.807	1604
919.905	1095
920.003	65
920.102	470
920.200	-320
920.298	769
920.396	659
920.494	996
920.592	420
920.690	486
920.788	398
920.886	528
920.984	790
921.082	349
921.180	1691
921.277	466
921.375	917
921.473	2212
921.571	2253
921.669	784
921.766	523
921.864	1461
921.962	1388
922.060	1639
922.157	1356
922.255	1276
922.352	1430
922.450	2238
922.548	1536
922.645	1942
922.743	3068
922.840	3985
922.938	5061
923.035	5022
923.133	4537
923.230	5093
923.327	6086
923.425	6188
923.522	6351
923.619	5763
923.717	5178
923.814	4915
923.911	5156
924.008	5652
924.106	4207
924.203	4824
924.300	4180
924.397	3842
924.494	4344
924.591	4364
924.688	3507
924.786	3958
924.883	4379
924.979	4217
925.077	5128
925.173	4448
925.270	4763
925.367	4002
925.464	4955
925.561	5003
925.658	5097
925.755	4315
925.852	5001
925.948	4064
926.045	4048
926.142	4848
926.239	4099
926.335	3890
926.432	5439
926.529	4807
926.625	5107
926.722	3656
926.818	3716
926.915	4482
927.011	4162
927.108	3338
927.204	4219
927.301	3691
927.397	4099
927.494	4780
927.590	3002
927.687	3490
927.783	4802
927.879	4750
927.976	3481
928.072	3203
928.168	4488
928.264	4067
928.361	3636
928.457	4140
928.553	3740
928.649	2552
928.745	4548
928.841	3345
928.937	3622
929.033	3951
929.129	3357
929.225	4300
929.321	4002
929.417	2411
929.513	3064
929.609	3243
929.705	2966
929.801	3567
929.897	2689
929.993	3494
930.089	3102
930.184	2657
930.280	3629
930.376	4634
930.471	3596
930.567	2996
930.663	2954
930.758	2500
930.854	3081
930.950	2879
931.045	2269
931.141	3167
931.236	4405
931.332	3854
931.427	2624
931.523	4644
931.618	3791
931.714	1745
931.809	2848
931.905	4409
932.000	2575
932.095	2382
932.191	3080
932.286	3678
932.381	3032
932.476	1344
932.572	2634
932.667	2507
932.762	2537
932.857	3032
932.952	3586
933.047	3111
933.142	2170
933.237	3210
933.332	3955
933.427	4121
933.522	3172
933.617	2327
933.712	2898
933.807	3775
933.902	3539
933.997	3542
934.092	2707
934.187	2128
934.282	1876
934.376	2517
934.471	3027
934.566	2690
934.661	2987
934.755	3307
934.850	3270
934.945	2626
935.039	1472
935.134	2744
935.228	1651
935.323	4464
935.417	2813
935.512	1563
935.606	1209
935.701	2736
935.795	3310
935.890	2921
935.984	1737
936.079	1986
936.173	2677
936.267	1995
936.362	1465
936.456	2014
936.550	3848
936.644	2034
936.738	1963
936.833	1398
936.927	1275
937.021	2183
937.115	1948
937.209	1742
937.303	2390
937.397	2286
937.491	2924
937.585	3284
937.679	2916
937.773	1903
937.867	2056
937.961	1988
938.055	2616
938.149	3186
938.243	1033
938.337	1506
938.430	1340
938.524	2399
938.618	1688
938.712	1183
938.805	1796
938.899	1994
938.993	2366
939.086	2264
939.180	687
939.274	1075
939.367	1370
939.461	3000
939.554	1149
939.648	1766
939.741	1161
939.835	2205
939.928	2599
940.022	2478
940.115	1878
940.208	2026
940.302	2392
940.395	2524
940.488	1589
940.582	2076
940.675	1307
940.768	1301
940.861	1738
940.954	2818
941.048	448
941.141	828
941.234	684
941.327	1225
941.420	1929
941.513	1779
941.606	1953
941.699	1794
941.792	1378
941.885	2094
941.978	1702
942.071	1329
942.164	682
942.257	615
942.349	1149
942.442	2288
942.535	1340
942.628	1956
942.721	946
942.813	1240
942.906	1995
942.999	1229
943.091	528
943.184	1976
943.277	1709
943.369	1357
943.462	248
943.554	1419
943.647	977
943.739	1469
943.832	2056
943.924	103
944.017	1395
944.109	587
944.201	761
944.294	1385
944.386	617
944.478	1278
944.571	882
944.663	1417
944.755	1307
944.847	1790
944.940	1264
945.032	359
945.124	1055
945.216	1837
945.308	905
945.400	1669
945.492	873
945.584	2218
945.676	925
945.768	923
945.860	1362
945.952	1402
946.044	1475
946.136	1533
946.228	1225
946.320	1006
946.412	-29
946.503	1295
946.595	1834
946.687	216
946.779	82
946.870	700
946.962	462
947.054	1062
947.145	1424
947.237	1383
947.329	413
947.420	1450
947.512	993
947.603	489
947.695	163
947.786	182
947.878	171
947.969	1317
948.061	299
948.152	103
948.243	-80
948.335	29
948.426	-73
948.517	626
948.609	703
948.700	709
948.791	506
948.882	692
948.973	415
949.065	774
949.156	361
949.247	35
949.338	816
949.429	-52
949.520	-257
949.611	644
949.702	1480
949.793	1363
949.884	837
949.975	48
950.066	-758
950.157	-144
950.247	1380
950.338	-72
950.429	209
950.520	548
950.611	-237
950.701	508
950.792	-121
950.883	245
950.973	175
951.064	268
951.155	768
951.245	490
951.336	203
951.427	-27
951.517	1487
951.608	994
951.698	379
951.788	706
951.879	-450
951.969	258
952.060	446
952.150	503
952.240	899
952.331	-262
952.421	1178
952.511	-362
952.602	720
952.692	-405
952.782	-16
952.872	-300
952.962	148
953.052	511
953.143	-176
953.233	913
953.323	698
953.413	143
953.503	460
953.593	303
953.683	195
953.773	-555
953.863	-217
953.953	-299
954.042	-169
954.132	1083
954.222	194
954.312	396
954.402	464
954.492	-261
954.581	19
954.671	-209
954.761	-271
954.850	1138
954.940	-24
955.030	39
955.119	-685
955.209	385
955.298	154
955.388	607
955.477	1096
955.567	189
955.656	-99
955.746	1089
955.835	-961
955.925	-428
956.014	-349
956.103	870
956.193	234
956.282	181
956.371	646
956.461	249
956.550	104
956.639	25
956.728	-451
956.817	31
956.906	-232
956.995	164
957.085	-492
957.174	269
957.263	-742
957.352	28
957.441	100
957.530	289
957.619	21
957.708	297
957.796	243
957.885	-209
957.974	-605
958.063	677
958.152	-607
958.241	64
958.329	165
958.418	-281
958.507	88
958.596	1127
958.684	359
958.773	171
958.861	-328
958.950	127
959.039	88
959.127	-819
959.216	1051
959.304	-860
959.393	-936
959.481	533
959.570	-192
959.658	-29
959.746	-891
959.835	516
959.923	-55
960.011	-578
960.100	389
960.188	529
960.276	17
960.365	-114
960.453	-935
960.541	-702
960.629	55
960.717	-59
960.805	-248
960.893	274
960.981	-486
961.069	1025
961.158	261
961.245	1210
961.333	232
961.421	126
961.509	91
961.597	-281
961.685	-387
961.773	464
961.861	-291
961.949	793
962.036	-476
962.124	-126
962.212	-800
962.299	7
962.387	-891
962.475	139
962.562	-792
962.650	348
962.738	455
962.825	-165
962.913	-176
963.000	-177
963.088	-8
963.175	-268
963.263	-316
963.350	-173
963.438	114
963.525	-909
963.612	-120
963.700	-327
963.787	645
963.874	-586
963.962	-61
964.049	137
964.136	-124
964.223	-79
964.310	-700
964.398	-321
964.485	-666
964.572	-19
964.659	-577
964.746	-325
964.833	-581
964.920	-870
965.007	180
965.094	342
965.181	-942
965.268	-15
965.355	-273
965.441	-451
965.528	-1432
965.615	667
965.702	-17
965.789	-418
965.875	-601
965.962	540
966.049	-743
966.136	118
966.222	-306
966.309	21
966.395	126
966.482	409
966.569	-49
966.655	205
966.742	129
966.828	-311
966.915	-586
967.001	37
967.087	-1015
967.174	-321
967.260	58
967.347	-1037
967.433	-830
967.519	306
967.605	-317
967.692	342
967.778	-135
967.864	-641
967.950	186
968.036	-1487
968.123	-623
968.209	-286
968.295	-1237
968.381	503
968.467	109
968.553	-1735
968.639	-17
968.725	-1288
968.811	4
968.897	574
968.983	-187
969.069	-987
969.154	-202
969.240	-342
969.326	-1066
969.412	-378
969.497	-751
969.583	-1108
969.669	370
969.755	-126
969.840	-159
969.926	280
970.012	319
970.097	1036
970.183	21
970.268	-52
970.354	154
970.439	-454
970.525	533
970.610	-551
970.696	688
970.781	-47
970.866	-1774
970.952	-75
971.037	-1421
971.122	-9
971.208	-112
971.293	-596
971.378	-1356
971.463	-1198
971.549	227
971.634	-337
971.719	266
971.804	-314
971.889	320
971.974	153
972.059	174
972.144	5
972.229	-3
972.314	-245
972.399	-698
972.484	-817
972.569	-271
972.654	-1550
972.739	1096
972.824	-661
972.908	-261
972.993	-503
973.078	-394
973.163	-153
973.247	142
973.332	-1106
973.417	642
973.501	-461
973.586	-479
973.671	-277
973.755	-936
973.840	423
973.924	329
974.009	253
974.093	121
974.178	995
974.262	86
974.346	882
974.431	233
974.515	-204
974.600	-470
974.684	1112
974.768	448
974.852	705
974.937	-1616
975.021	-284
975.105	-688
975.189	-412
975.273	100
975.358	-887
975.442	-704
975.526	1239
975.610	-306
975.694	-534
975.778	747
975.862	135
975.946	-2127
976.030	778
976.114	-770
976.198	563
976.281	-655
976.365	210
976.449	-413
976.533	-205
976.617	-49
976.700	509
976.784	-495
976.868	-38
976.951	-184
977.035	-398
977.119	567
977.202	-153
977.286	389
977.369	59
977.453	618
977.536	356
977.620	-1105
977.703	289
977.787	-774
977.870	269
977.953	242
978.037	-1040
978.120	98
978.203	-604
978.287	259
978.370	-302
978.453	-574
978.536	446
978.620	855
978.703	125
978.786	-752
978.869	-1265
978.952	-1304
979.035	687
979.118	274
979.201	-204
979.284	-230
979.367	-693
979.450	-19
979.533	-741
979.616	-525
979.699	456
979.782	90
979.865	210
979.948	-368
980.030	-522
980.113	-478
980.196	-630
980.279	-9
980.361	-1047
980.444	-492
980.526	735
980.609	15
980.692	780
980.774	328
980.857	-503
980.939	1032
981.022	200
981.104	-368
981.187	13
981.269	234
981.352	-491
981.434	-657
981.516	-975
981.599	324
981.681	713
981.763	-301
981.846	-120
981.928	59
982.010	-320
982.092	-348
982.174	711
982.256	-649
982.339	-38
982.421	-273
982.503	170
982.585	-828
982.667	594
982.749	-73
982.831	498
982.913	-712
982.995	867
983.077	-755
983.158	587
983.240	-1477
983.322	895
983.404	1626
983.486	352
983.568	1153
983.649	244
983.731	727
983.813	475
983.894	-357
983.976	-20
984.058	664
984.139	1108
984.221	-1761
984.302	643
984.384	177
984.465	-259
984.547	706
984.628	-114
984.710	659
984.791	-678
984.872	102
984.954	27
985.035	-315
985.116	-242
985.198	270
985.279	1613
985.360	213
985.441	788
985.522	1158
985.604	-152
985.685	-1282
985.766	567
985.847	1372
985.928	-9
986.009	-422
986.090	319
986.171	850
986.252	326
986.333	-58
986.414	521
986.495	489
986.576	-126
986.656	123
986.737	834
986.818	-194
986.899	-496
986.980	-164
987.060	1980
987.141	598
987.222	436
987.302	862
987.383	1587
987.464	367
987.544	1231
987.625	1045
987.705	543
987.786	588
987.866	1503
987.947	272
988.027	344
988.108	182
988.188	1015
988.268	144
988.349	640
988.429	299
988.509	967
988.589	957
988.670	-949
988.750	655
988.830	314
988.910	903
988.990	206
989.070	261
989.151	285
989.231	218
989.311	735
989.391	1005
989.471	28
989.551	206
989.631	36
989.711	-182
989.791	96
989.870	-122
989.950	1625
990.030	-573
990.110	520
990.190	-1031
990.269	-139
990.349	394
990.429	332
990.509	359
990.588	-681
990.668	-73
990.747	17
990.827	-694
990.907	708
990.986	-155
991.066	1036
991.145	-501
991.225	1364
991.304	-44
991.383	659
991.463	65
991.542	104
991.622	-399
991.701	-553
991.780	-278
991.859	-248
991.939	-555
992.018	686
992.097	-339
992.176	175
992.256	461
992.335	-657
992.414	1470
992.493	-718
992.572	66
992.651	1245
992.730	403
992.809	16
992.888	-1116
992.967	-603
993.046	-403
993.125	-148
993.203	-406
993.282	78
993.361	-159
993.440	656
993.519	-857
993.597	39
993.676	-319
993.755	644
993.834	-26
993.912	-1028
993.991	920
994.069	-1278
994.148	-208
994.226	-613
994.305	-598
994.384	-809
994.462	308
994.540	-1114
994.619	-1276
994.697	-98
994.776	-462
994.854	828
994.932	-1648
995.011	149
995.089	-306
995.167	-918
995.245	-392
995.324	-1126
995.402	-344
995.480	-1123
995.558	-1080
995.636	-1987
995.714	-661
995.792	148
995.870	-851
995.948	-489
996.026	-397
996.104	-1695
996.182	128
996.260	-540
996.338	-1090
996.416	-1368
996.494	-277
996.572	66
996.649	-1039
996.727	-1855
996.805	-725
996.883	-1298
996.960	-1130
997.038	-338
997.116	-565
997.193	-1107
997.271	-1117
997.348	-1185
997.426	-79
997.504	-516
997.581	-481
997.658	-422
997.736	-2278
997.813	-1712
997.891	276
997.968	-697
998.046	-918
998.123	-1262
998.200	-976
998.277	-1506
998.355	-824
998.432	-1758
998.509	-796
998.586	-251
998.663	-282
998.741	-963
998.818	-398
998.895	-1523
998.972	-332
999.049	-858
999.126	-847
999.203	-433
999.280	-1109
999.357	-823
999.434	-321
999.511	-1219
999.587	-1081
999.664	-1795
999.741	-859
999.818	-222
999.895	-1122
999.971	-1100
1000.048	-1353
1000.125	-304
1000.202	-2393
1000.278	-1551
1000.355	-1067
1000.431	-1457
1000.508	-1626
1000.584	-1497
1000.661	-266
1000.738	-2216
1000.814	-1159
1000.890	-611
1000.967	-2024
1001.043	-626
1001.120	-1407
1001.196	-900
1001.272	-1503
1001.349	-884
1001.425	-117
1001.501	-1767
1001.577	-1422
1001.654	-741
1001.730	-1136
1001.806	-966
1001.882	-1184
1001.958	-720
1002.034	-74
1002.110	-1126
1002.186	-1728
1002.262	-1584
1002.338	-1468
1002.414	-916
1002.490	-817
1002.566	-2195
1002.642	-1631
1002.718	-807
1002.794	-717
1002.870	-1212
1002.945	-978
1003.021	-1193
1003.097	-1156
1003.173	-906
1003.248	-2013
1003.324	-1442
1003.400	-774
1003.475	-1954
1003.551	-902
1003.626	-1130
1003.702	-997
1003.777	-1080
1003.853	-835
1003.928	-2020
1004.004	-1453
1004.079	-742
1004.155	-1186
1004.230	-2209
1004.305	-640
1004.381	-1076
1004.456	-3029
1004.531	-1679
1004.607	-1590
1004.682	-1292
1004.757	-565
1004.832	-2248
1004.907	-995
1004.982	-596
1005.057	-833
1005.133	-2247
1005.208	-1323
1005.283	-728
1005.358	-608
1005.433	-1786
1005.508	-780
1005.583	-2365
1005.657	-500
1005.732	-1493
1005.807	-1725
1005.882	-1016
1005.957	-1731
1006.032	-1178
1006.106	-1543
1006.181	-1189
1006.256	-949
1006.331	-1541
1006.405	-2331
1006.480	-1514
1006.554	-1866
1006.629	-1171
1006.704	-2834
1006.778	-984
1006.853	-540
1006.927	-1205
1007.002	-1686
1007.076	-1313
1007.150	-2259
1007.225	-1345
1007.299	-1621
1007.373	-2379
1007.448	-2555
1007.522	-1014
1007.596	-1421
1007.671	-1649
1007.745	-1798
1007.819	-1940
1007.893	-1864
1007.967	-336
1008.041	-2623
1008.115	-761
1008.190	-2386
1008.264	-958
1008.338	-2075
1008.412	-1620
1008.486	-2164
1008.560	-1227
1008.633	-2719
1008.707	-1617
1008.781	-739
1008.855	-1719
1008.929	-2245
1009.003	-2440
1009.076	-1961
1009.150	-1063
1009.224	-1885
1009.298	-1772
1009.371	-2115
1009.445	-1605
1009.519	-2918
1009.592	-1662
1009.666	-1936
1009.739	-1795
1009.813	-2381
1009.886	-665
1009.960	-2027
1010.033	-1314
1010.107	-1449
1010.180	-2128
1010.253	-928
1010.327	-1709
1010.400	-1913
1010.473	-1884
1010.547	-815
1010.620	-1203
1010.693	-2415
1010.766	-2232
1010.840	-2344
1010.913	-1967
1010.986	-3117
1011.059	-1558
1011.132	-1993
1011.205	-903
1011.278	-1920
1011.351	-1515
1011.424	-1308
1011.497	-2039
1011.570	-1909
1011.643	-1471
1011.716	-1791
1011.789	-1997
1011.862	-1415
1011.934	-1448
1012.007	-2552
1012.080	-1578
1012.153	-2371
1012.225	-1306
1012.298	-2110
1012.371	-1561
1012.443	-1286
1012.516	-2904
1012.588	-1934
1012.661	-1544
1012.733	-2343
1012.806	-1446
1012.879	-1999
1012.951	-1958
1013.023	-1402
1013.096	-1171
1013.168	-3077
1013.241	-393
1013.313	-1929
1013.385	-2070
1013.458	-1859
1013.530	-1267
1013.602	-2232
1013.674	-2131
1013.746	-2114
1013.819	-2148
1013.891	-2097
1013.963	-1860
1014.035	-1953
1014.107	-1876
1014.179	-1590
1014.251	-2852
1014.323	-1462
1014.395	-1900
1014.467	-1582
1014.539	-1335
1014.611	-2889
1014.683	-1926
1014.754	-1910
1014.826	-2517
1014.898	-1257
1014.970	-2447
1015.042	-1421
1015.113	-1810
1015.185	-2011
1015.257	-2704
1015.328	-1588
1015.400	-1958
1015.471	-1575
1015.543	-1720
1015.615	-1466
1015.686	-1305
1015.757	-1995
1015.829	-2131
1015.901	-3095
1015.972	-2040
1016.043	-2123
1016.115	-1575
1016.186	-2128
1016.257	-2404
1016.328	-2266
1016.400	-1680
1016.471	-2952
1016.542	-1719
1016.613	-2093
1016.685	-1189
1016.756	-1481
1016.827	-1885
1016.898	-2165
1016.969	-589
1017.040	-1932
1017.111	-1756
1017.182	-2085
1017.253	-2130
1017.324	-2124
1017.395	-3151
1017.466	-1841
1017.537	-2145
1017.608	-2255
1017.678	-2318
1017.749	-1895
1017.820	-1851
1017.891	-2344
1017.961	-2030
1018.032	-2295
1018.103	-1689
1018.173	-1650
1018.244	-1805
1018.315	-1913
1018.385	-1936
1018.456	-2099
1018.526	-1704
1018.597	-1704
1018.667	-2139
1018.738	-2271
1018.808	-2140
1018.878	-2015
1018.949	-2472
1019.019	-1984
1019.089	-2609
1019.160	-2435
1019.230	-2589
1019.300	-2285
1019.371	-2478
1019.441	-1311
1019.511	-2209
1019.581	-1857
1019.651	-1913
1019.721	-1919
1019.791	-2096
1019.861	-2207
1019.931	-2308
1020.001	-1695
1020.071	-2197
1020.141	-2435
1020.211	-1798
1020.281	-2230
1020.351	-2144
1020.421	-1397
1020.491	-1161
1020.560	-2727
1020.630	-2594
1020.700	-2390
1020.770	-1817
1020.839	-2479
1020.909	-2365
1020.979	-2473
1021.048	-2142
1021.118	-2508
1021.187	-2508
1021.257	-1653
1021.326	-1779
1021.396	-2375
1021.465	-2905
1021.535	-2204
1021.604	-2452
1021.674	-2132
1021.743	-2155
1021.812	-2364
1021.882	-1951
1021.951	-2424
1022.020	-1397
1022.089	-2922
1022.159	-1215
1022.228	-2254
1022.297	-2386
1022.366	-2622
1022.435	-1715
1022.504	-1923
1022.573	-1967
1022.642	-2036
1022.711	-1923
1022.781	-2004
1022.849	-2275
1022.918	-2168
1022.987	-2822
1023.056	-2936
1023.125	-2609
1023.194	-3464
1023.263	-2723
1023.331	-2067
1023.400	-1827
1023.469	-2338
1023.538	-1881
1023.606	-2152
1023.675	-1865
1023.744	-3038
1023.812	-2644
1023.881	-2522
1023.949	-2379
1024.018	-2848
1024.086	-2469
1024.155	-2924
1024.223	-2466
1024.292	-2742
1024.360	-1703
1024.429	-2436
1024.497	-2250
1024.565	-2700
1024.634	-2595
1024.702	-2017
1024.770	-1735
1024.838	-2525
1024.907	-2195
1024.975	-2110
1025.043	-2134
1025.111	-2348
1025.179	-1639
1025.247	-2546
1025.315	-2174
1025.383	-2504
1025.451	-3071
1025.519	-2269
1025.587	-2071
1025.655	-2416
1025.723	-3012
1025.791	-2464
1025.859	-1843
1025.927	-1323
1025.995	-2000
1026.062	-1654
1026.130	-2757
1026.198	-1360
1026.266	-2679
1026.333	-1485
1026.401	-1598
1026.469	-2284
1026.536	-1993
1026.604	-2950
1026.671	-2265
1026.739	-2413
1026.806	-2050
1026.874	-2646
1026.941	-2083
1027.009	-2900
1027.076	-2939
1027.144	-2104
1027.211	-2227
1027.278	-2152
1027.345	-2201
1027.413	-2500
1027.480	-2666
1027.547	-2464
1027.614	-1988
1027.682	-2485
1027.749	-2663
1027.816	-1899
1027.883	-2414
1027.950	-2620
1028.017	-2358
1028.084	-2579
1028.151	-2417
1028.218	-2849
1028.285	-2002
1028.352	-2788
1028.419	-2962
1028.486	-2681
1028.553	-2461
1028.619	-2506
1028.686	-2333
1028.753	-2808
1028.820	-1803
1028.886	-2148
1028.953	-2200
1029.020	-2310
1029.086	-2540
1029.153	-2648
1029.220	-2003
1029.286	-1878
1029.353	-1789
1029.419	-3216
1029.486	-2513
1029.552	-2680
1029.619	-2123
1029.685	-1444
1029.751	-2059
1029.818	-1706
1029.884	-2617
1029.951	-1822
1030.017	-2209
1030.083	-2479
1030.149	-1288
1030.216	-2736
1030.282	-2701
1030.348	-2076
1030.414	-2546
1030.480	-2762
1030.546	-2574
1030.612	-2529
1030.678	-2647
1030.744	-1949
1030.810	-1951
1030.876	-2776
1030.942	-3483
1031.008	-2024
1031.074	-2331
1031.140	-2542
1031.206	-1689
1031.272	-3410
1031.337	-2429
1031.403	-2812
1031.469	-2065
1031.534	-2441
1031.600	-3176
1031.666	-3048
1031.731	-2180
1031.797	-2883
1031.863	-2450
1031.928	-3180
1031.994	-2608
1032.059	-2244
1032.125	-2619
1032.190	-2794
1032.256	-2836
1032.321	-3152
1032.386	-1814
1032.452	-1916
1032.517	-2253
1032.582	-2184
1032.647	-2639
1032.713	-3074
1032.778	-2235
1032.843	-1964
1032.908	-2551
1032.974	-1943
1033.039	-2744
1033.104	-2040
1033.169	-2635
1033.234	-3514
1033.299	-2078
1033.364	-2467
1033.429	-2717
1033.494	-2495
1033.559	-2071
1033.624	-2503
1033.688	-2200
1033.753	-2582
1033.818	-2700
1033.883	-2087
1033.948	-1937
1034.013	-1987
1034.077	-2325
1034.142	-1628
1034.207	-1477
1034.271	-746
1034.336	-753
1034.400	-1311
1034.465	-2008
1034.530	-2146
1034.594	-2812
1034.658	-2589
1034.723	-2274
1034.787	-2581
1034.852	-2197
1034.916	-2766
1034.981	-2622
1035.045	-2045
1035.109	-2499
1035.173	-1994
1035.238	-2863
1035.302	-2240
1035.366	-2867
1035.430	-3044
1035.495	-3066
1035.559	-2756
1035.623	-1688
1035.687	-2476
1035.751	-1863
1035.815	-2555
1035.879	-2200
1035.943	-2358
1036.007	-2301
1036.071	-2846
1036.135	-2546
1036.198	-1836
1036.262	-3290
1036.326	-2009
1036.390	-2403
1036.454	-2033
1036.517	-2537
1036.581	-1519
1036.645	-2478
1036.709	-1700
1036.772	-2567
1036.836	-2602
1036.900	-2166
1036.963	-3190
1037.026	-2564
1037.090	-2739
1037.154	-2689
1037.217	-2272
1037.280	-2380
1037.344	-2228
1037.407	-2520
1037.471	-2003
1037.534	-2420
1037.597	-2542
1037.661	-2270
1037.724	-2192
1037.787	-2557
1037.850	-2226
1037.913	-2336
1037.977	-1751
1038.040	-2479
1038.103	-1792
1038.166	-1840
1038.229	-2961
1038.292	-1880
1038.355	-2410
1038.418	-2290
1038.481	-2074
1038.544	-2639
1038.607	-2851
1038.670	-1905
1038.732	-2064
1038.795	-2418
1038.858	-3218
1038.921	-2526
1038.984	-2459
1039.046	-2753
1039.109	-3237
1039.172	-2037
1039.234	-3349
1039.297	-2458
1039.360	-2301
1039.422	-2153
1039.485	-2437
1039.547	-2265
1039.610	-2445
1039.672	-1944
1039.734	-2785
1039.797	-2093
1039.859	-2359
1039.922	-2273
1039.984	-2060
1040.046	-1901
1040.109	-2018
1040.171	-1621
1040.233	-2602
1040.295	-2222
1040.358	-2794
1040.420	-2733
1040.482	-2346
1040.544	-2276
1040.606	-1973
1040.668	-2385
1040.730	-2637
1040.792	-2210
1040.854	-2818
1040.916	-1354
1040.978	-2505
1041.040	-1275
1041.102	-2281
1041.164	-2366
1041.225	-2190
1041.287	-1666
1041.349	-2464
1041.411	-2634
1041.472	-2332
1041.534	-1845
1041.596	-2666
1041.657	-1606
1041.719	-2182
1041.781	-2001
1041.842	-2109
1041.904	-2554
1041.965	-2041
1042.027	-2215
1042.088	-2128
1042.150	-2259
1042.211	-1634
1042.272	-2749
1042.334	-2386
1042.395	-2675
1042.456	-2474
1042.518	-2225
1042.579	-2336
1042.640	-2271
1042.701	-2361
1042.763	-2524
1042.824	-2757
1042.885	-2025
1042.946	-1857
1043.007	-2910
1043.068	-2652
1043.129	-2497
1043.190	-2394
1043.251	-1466
1043.312	-2261
1043.373	-1912
1043.434	-1827
1043.495	-2980
1043.556	-900
1043.616	-2733
1043.677	-2594
1043.738	-1811
1043.799	-1862
1043.859	-1899
1043.920	-1774
1043.981	-2289
1044.041	-1963
1044.102	-2574
1044.162	-1999
1044.223	-2606
1044.284	-3106
1044.344	-1877
1044.405	-2206
1044.465	-1822
1044.525	-2377
1044.586	-1976
1044.646	-2649
1044.707	-1818
1044.767	-2564
1044.827	-2151
1044.887	-2229
1044.948	-2380
1045.008	-1961
1045.068	-2233
1045.128	-2002
1045.188	-2195
1045.249	-1404
1045.309	-2095
1045.369	-2283
1045.429	-1476
1045.489	-2395
1045.549	-1807
1045.609	-1639
1045.669	-2474
1045.729	-2473
1045.789	-2588
1045.848	-1775
1045.908	-2566
1045.968	-1928
1046.028	-1589
1046.088	-2197
1046.147	-1306
1046.207	-2694
1046.267	-1308
1046.326	-1165
1046.386	-1740
1046.446	-1315
1046.505	-972
1046.565	-1070
1046.624	-1459
1046.684	-1349
1046.743	-1026
1046.803	-771
1046.862	-410
1046.922	0
