'Start Wavelength	183.907
'End Wavelength	1046.922
'Gate Delay	5.000
'Gate Width (ms)	1.050
'Laser Output Level	0.000
'X Position	0.000
'Y Position	0.000
'Z Position	0.000
'Grid Point Number	1.000
'Shot Number	100.000
183.907	241.000
183.977	66.000
184.047	-336
184.116	869
184.186	122
184.256	511
184.325	-379
184.395	-198
184.465	1078
184.534	-304
184.604	-374
184.674	80
184.743	-171
184.813	384
184.883	399
184.952	131
185.022	917
185.092	908
185.161	436
185.231	688
185.301	132
185.370	10
185.440	-188
185.509	323
185.579	981
185.649	880
185.718	604
185.788	283
185.857	560
185.927	104
185.996	-371
186.066	887
186.136	50
186.205	1062
186.275	447
186.344	902
186.414	209
186.483	894
186.553	713
186.622	1123
186.692	1149
186.761	885
186.831	1002
186.900	764
186.970	370
187.039	1097
187.109	711
187.178	900
187.248	91
187.317	126
187.387	620
187.456	454
187.526	152
187.595	743
187.664	204
187.734	361
187.803	288
187.873	504
187.942	577
188.012	283
188.081	77
188.150	868
188.220	411
188.289	1320
188.358	979
188.428	891
188.497	421
188.567	597
188.636	-111
188.705	612
188.775	158
188.844	-643
188.913	462
188.983	693
189.052	-152
189.121	671
189.191	398
189.260	511
189.329	581
189.399	-264
189.468	792
189.537	179
189.606	995
189.676	59
189.745	250
189.814	993
189.883	273
189.953	836
190.022	625
190.091	488
190.161	1206
190.230	999
190.299	127
190.368	648
190.437	-608
190.507	813
190.576	695
190.645	619
190.714	119
190.783	827
190.853	272
190.922	762
190.991	159
191.060	688
191.129	-533
191.198	641
191.268	-101
191.337	218
191.406	1144
191.475	104
191.544	692
191.613	1223
191.682	966
191.752	766
191.821	565
191.890	-84
191.959	227
192.028	878
192.097	895
192.166	1363
192.235	56
192.304	496
192.373	-263
192.442	537
192.511	130
192.580	476
192.650	1165
192.719	-428
192.788	809
192.857	237
192.926	493
192.995	319
193.064	1314
193.133	999
193.202	834
193.271	660
193.340	534
193.409	1280
193.478	451
193.547	727
193.615	585
193.684	1202
193.753	474
193.822	1373
193.891	252
193.960	1233
194.029	84
194.098	1055
194.167	902
194.236	1396
194.305	255
194.374	642
194.443	915
194.512	1614
194.580	643
194.649	712
194.718	1073
194.787	390
194.856	459
194.925	676
194.994	493
195.062	729
195.131	423
195.200	137
195.269	501
195.338	1240
195.407	1136
195.475	89
195.544	923
195.613	521
195.682	343
195.751	570
195.819	-162
195.888	360
195.957	961
196.026	823
196.094	1047
196.163	543
196.232	791
196.301	427
196.369	499
196.438	589
196.507	605
196.576	882
196.644	719
196.713	522
196.782	380
196.850	913
196.919	505
196.988	672
197.056	-253
197.125	507
197.194	-62
197.262	273
197.331	43
197.400	763
197.468	121
197.537	221
197.606	667
197.674	930
197.743	448
197.812	-270
197.880	348
197.949	54
198.017	1166
198.086	1131
198.155	1010
198.223	873
198.292	288
198.360	750
198.429	1083
198.497	990
198.566	806
198.635	1462
198.703	988
198.772	1292
198.840	1658
198.909	1807
198.977	886
199.046	714
199.114	1424
199.183	1483
199.251	1313
199.320	745
199.388	1142
199.457	342
199.525	920
199.594	491
199.662	156
199.731	573
199.799	435
199.867	930
199.936	-426
200.004	1220
200.073	484
200.141	109
200.210	258
200.278	776
200.346	1134
200.415	501
200.483	864
200.552	1458
200.620	577
200.688	1307
200.757	683
200.825	695
200.893	321
200.962	523
201.030	439
201.098	189
201.167	310
201.235	723
201.303	166
201.372	942
201.440	639
201.508	617
201.577	190
201.645	1117
201.713	900
201.781	788
201.850	135
201.918	883
201.986	852
202.055	954
202.123	800
202.191	551
202.259	1005
202.327	-38
202.396	938
202.464	820
202.532	-432
202.600	2026
202.669	807
202.737	758
202.805	221
202.873	606
202.941	1068
203.009	927
203.078	848
203.146	1558
203.214	115
203.282	-258
203.350	364
203.418	351
203.487	1010
203.555	971
203.623	863
203.691	403
203.759	859
203.827	214
203.895	397
203.963	819
204.031	592
204.099	510
204.168	173
204.236	1124
204.304	1003
204.372	449
204.440	1248
204.508	920
204.576	934
204.644	790
204.712	886
204.780	1062
204.848	1012
204.916	30
204.984	342
205.052	575
205.120	298
205.188	1469
205.256	244
205.324	651
205.392	464
205.460	930
205.528	364
205.596	677
205.664	594
205.732	836
205.799	701
205.867	1382
205.935	304
206.003	1665
206.071	705
206.139	930
206.207	886
206.275	614
206.343	1380
206.411	440
206.478	894
206.546	181
206.614	702
206.682	565
206.750	301
206.818	1365
206.885	1827
206.953	656
207.021	1109
207.089	413
207.157	824
207.225	1052
207.292	1366
207.360	-12
207.428	-232
207.496	710
207.563	965
207.631	358
207.699	587
207.767	805
207.834	-42
207.902	590
207.970	1126
208.038	1455
208.105	1092
208.173	1209
208.241	-68
208.309	769
208.376	1094
208.444	1063
208.512	332
208.579	-300
208.647	1880
208.715	2179
208.782	595
208.850	1584
208.918	266
208.985	952
209.053	285
209.120	922
209.188	919
209.256	846
209.323	146
209.391	625
209.459	2047
209.526	1073
209.594	260
209.661	1315
209.729	867
209.796	735
209.864	1487
209.932	209
209.999	1669
210.067	966
210.134	307
210.202	445
210.269	1047
210.337	2412
210.404	1391
210.472	1043
210.539	1057
210.607	1172
210.674	143
210.742	771
210.809	1104
210.877	668
210.944	1161
211.012	409
211.079	2167
211.146	744
211.214	1200
211.281	2537
211.349	2390
211.416	1174
211.484	1560
211.551	511
211.618	642
211.686	1212
211.753	517
211.821	1337
211.888	880
211.955	1030
212.023	731
212.090	1179
212.157	1202
212.225	830
212.292	1688
212.359	2483
212.427	5946
212.494	2939
212.561	1353
212.629	1775
212.696	741
212.763	1090
212.831	530
212.898	2038
212.965	-137
213.032	2007
213.100	130
213.167	1128
213.234	1226
213.301	1519
213.369	420
213.436	1091
213.503	752
213.570	1823
213.638	458
213.705	669
213.772	-247
213.839	207
213.906	1510
213.973	283
214.041	306
214.108	1649
214.175	312
214.242	1071
214.309	1403
214.376	675
214.444	1135
214.511	1151
214.578	1238
214.645	1123
214.712	1747
214.779	1221
214.846	334
214.913	1587
214.980	2041
215.048	1937
215.115	2603
215.182	1853
215.249	1984
215.316	1535
215.383	1625
215.450	1362
215.517	1063
215.584	719
215.651	299
215.718	1493
215.785	1536
215.852	719
215.919	1642
215.986	1522
216.053	1237
216.120	496
216.187	1246
216.254	1395
216.321	779
216.388	854
216.455	454
216.522	697
216.589	1216
216.656	1658
216.722	1423
216.789	1268
216.856	1440
216.923	1236
216.990	1914
217.057	1254
217.124	1091
217.191	1886
217.258	1441
217.324	1368
217.391	1533
217.458	1636
217.525	2076
217.592	1122
217.659	46
217.725	1872
217.792	1497
217.859	2530
217.926	863
217.993	974
218.059	1424
218.126	1128
218.193	960
218.260	846
218.327	580
218.393	643
218.460	1106
218.527	1690
218.594	593
218.660	64
218.727	2005
218.794	639
218.860	915
218.927	1085
218.994	1372
219.061	927
219.127	1082
219.194	1154
219.261	1319
219.327	1330
219.394	1329
219.461	-61
219.527	1600
219.594	1623
219.661	950
219.727	524
219.794	1796
219.860	1251
219.927	2524
219.994	3458
220.060	4730
220.127	5514
220.193	3847
220.260	3076
220.326	2437
220.393	2418
220.460	2365
220.526	2378
220.593	2307
220.659	2596
220.726	2098
220.792	3444
220.859	3383
220.925	3576
220.992	4096
221.058	4724
221.125	5113
221.191	4100
221.258	1129
221.324	2265
221.391	1174
221.457	1572
221.524	901
221.590	2296
221.657	4399
221.723	2584
221.789	2517
221.856	2753
221.922	1913
221.989	2195
222.055	841
222.121	885
222.188	2822
222.254	1801
222.321	1725
222.387	652
222.453	936
222.520	925
222.586	741
222.652	1068
222.719	397
222.785	2042
222.851	1270
222.918	943
222.984	664
223.050	734
223.116	-877
223.183	1285
223.249	77
223.315	158
223.382	785
223.448	924
223.514	528
223.580	604
223.647	157
223.713	326
223.779	414
223.845	680
223.911	801
223.978	30
224.044	983
224.110	666
224.176	218
224.242	717
224.309	244
224.375	910
224.441	200
224.507	662
224.573	-136
224.639	1473
224.705	399
224.772	821
224.838	512
224.904	1823
224.970	712
225.036	495
225.102	93
225.168	1788
225.234	898
225.300	1255
225.366	187
225.432	1170
225.499	1463
225.565	1167
225.631	96
225.697	1554
225.763	1086
225.829	1590
225.895	1065
225.961	1900
226.027	2178
226.093	1395
226.159	3173
226.225	4181
226.291	6313
226.357	8736
226.423	4759
226.489	3469
226.554	3084
226.620	2486
226.686	2347
226.752	3732
226.818	6027
226.884	13034
226.950	10284
227.016	5310
227.082	3780
227.148	2969
227.214	2549
227.279	2708
227.345	2567
227.411	3406
227.477	6372
227.543	7982
227.609	8511
227.674	7649
227.740	3544
227.806	3731
227.872	1812
227.938	2588
228.003	880
228.069	907
228.135	1408
228.201	1414
228.267	811
228.332	1835
228.398	-998
228.464	1075
228.530	1274
228.595	1479
228.661	-319
228.727	386
228.792	1684
228.858	667
228.924	-248
228.990	2637
229.055	705
229.121	1135
229.187	680
229.252	74
229.318	489
229.384	1506
229.449	167
229.515	-1241
229.581	48
229.646	1266
229.712	602
229.777	851
229.843	1570
229.909	1580
229.974	1419
230.040	1753
230.105	722
230.171	326
230.236	1027
230.302	1846
230.368	368
230.433	861
230.499	822
230.564	1585
230.630	-245
230.695	483
230.761	1376
230.826	-148
230.892	1941
230.957	-316
231.023	526
231.088	1373
231.154	653
231.219	1025
231.284	168
231.350	1596
231.415	974
231.481	781
231.546	426
231.612	1223
231.677	394
231.742	-278
231.808	2174
231.873	380
231.939	-642
232.004	1089
232.069	1218
232.135	105
232.200	1161
232.265	1453
232.331	598
232.396	984
232.461	-182
232.527	808
232.592	155
232.657	419
232.723	933
232.788	679
232.853	1081
232.918	1107
232.984	470
233.049	1095
233.114	-301
233.179	1760
233.245	1741
233.310	1230
233.375	-168
233.440	1517
233.506	622
233.571	965
233.636	766
233.701	349
233.766	125
233.832	263
233.897	697
233.962	-562
234.027	1999
234.092	923
234.157	433
234.222	2018
234.288	1452
234.353	1676
234.418	1645
234.483	1790
234.548	536
234.613	866
234.678	1924
234.743	1029
234.808	2534
234.873	658
234.938	1532
235.004	651
235.069	1269
235.134	441
235.199	1314
235.264	1903
235.329	456
235.394	1427
235.459	1212
235.524	546
235.589	1357
235.654	221
235.719	209
235.784	1415
235.849	525
235.913	1104
235.978	842
236.043	1117
236.108	956
236.173	517
236.238	1918
236.303	1068
236.368	789
236.433	2375
236.498	1411
236.563	2925
236.627	5245
236.692	17420
236.757	14929
236.822	5519
236.887	2675
236.952	3096
237.017	902
237.081	3051
237.146	2249
237.211	7990
237.276	16442
237.341	24825
237.405	11401
237.470	5252
237.535	3278
237.600	2575
237.664	2929
237.729	786
237.794	1138
237.859	4781
237.923	2329
237.988	1976
238.053	2284
238.118	1231
238.182	2544
238.247	3926
238.312	927
238.376	2091
238.441	-597
238.506	2162
238.570	19
238.635	1394
238.700	1349
238.764	844
238.829	1529
238.893	972
238.958	1453
239.023	1100
239.087	1025
239.152	1678
239.216	627
239.281	1870
239.346	1619
239.410	2416
239.475	1039
239.539	3754
239.604	2552
239.668	3040
239.733	4134
239.797	10145
239.862	17161
239.926	14913
239.991	8024
240.055	4753
240.120	2437
240.184	2847
240.249	1097
240.313	1449
240.378	1575
240.442	2753
240.507	3587
240.571	1185
240.635	275
240.700	1829
240.764	1071
240.829	499
240.893	107
240.957	1403
241.022	2266
241.086	2677
241.151	572
241.215	15
241.279	1443
241.344	263
241.408	1409
241.472	-84
241.537	1580
241.601	779
241.665	52
241.730	686
241.794	1526
241.858	538
241.922	486
241.987	1680
242.051	636
242.115	-422
242.179	1076
242.244	574
242.308	1196
242.372	1120
242.436	1533
242.501	376
242.565	209
242.629	639
242.693	1282
242.757	317
242.822	938
242.886	1735
242.950	1823
243.014	52
243.078	1492
243.142	904
243.206	191
243.271	1410
243.335	68
243.399	2492
243.463	6024
243.527	18490
243.591	6038
243.655	2968
243.719	318
243.783	2278
243.847	1581
243.911	3310
243.975	1665
244.040	588
244.104	1850
244.168	1382
244.232	781
244.296	2051
244.360	2236
244.424	-398
244.488	1003
244.552	1523
244.615	-503
244.679	1290
244.743	1174
244.807	9
244.871	832
244.935	1016
244.999	348
245.063	448
245.127	1786
245.191	1894
245.255	1695
245.319	1434
245.383	-933
245.446	2659
245.510	64
245.574	819
245.638	1305
245.702	181
245.766	2324
245.829	1763
245.893	692
245.957	591
246.021	1875
246.085	1181
246.149	519
246.212	3372
246.276	3472
246.340	1046
246.404	1041
246.467	1944
246.531	-200
246.595	2440
246.659	1865
246.722	-46
246.786	1549
246.850	1564
246.913	1034
246.977	464
247.041	1432
247.104	561
247.168	1321
247.232	2774
247.295	5103
247.359	2953
247.423	1196
247.486	1729
247.550	2060
247.614	-161
247.677	1443
247.741	1459
247.804	1111
247.868	3842
247.932	1864
247.995	5913
248.059	1627
248.122	-132
248.186	2231
248.249	2047
248.313	8932
248.376	8951
248.440	4628
248.503	345
248.567	2971
248.630	1710
248.694	2532
248.757	4104
248.821	10290
248.884	6586
248.948	3417
249.011	7487
249.075	10888
249.138	9101
249.202	3028
249.265	1575
249.328	2037
249.392	1400
249.455	2681
249.519	2104
249.582	2478
249.645	3210
249.709	2770
249.772	2052
249.835	1803
249.899	2467
249.962	2162
250.025	1790
250.089	3881
250.152	4075
250.215	2046
250.279	1674
250.342	2773
250.405	2251
250.468	1738
250.532	3568
250.595	4669
250.658	16611
250.721	30722
250.785	9132
250.848	5766
250.911	2901
250.974	2846
251.038	3141
251.101	6794
251.164	3616
251.227	3959
251.290	3653
251.354	5992
251.417	26775
251.480	25122
251.543	16409
251.606	47426
251.669	34105
251.732	12638
251.795	9889
251.859	10742
251.922	29813
251.985	16858
252.048	6813
252.111	3502
252.174	3121
252.237	6017
252.300	12887
252.363	13960
252.426	36647
252.489	13141
252.552	5694
252.615	3922
252.678	5003
252.741	9614
252.804	14672
252.867	37255
252.930	18583
252.993	7151
253.056	5515
253.119	3387
253.182	3089
253.245	4219
253.308	3971
253.371	1935
253.434	2317
253.497	2941
253.559	5523
253.622	2564
253.685	2005
253.748	2053
253.811	1752
253.874	2786
253.937	1566
254.000	1339
254.062	2898
254.125	5024
254.188	3990
254.251	2498
254.314	1483
254.376	1241
254.439	3446
254.502	1302
254.565	2700
254.628	6700
254.690	2138
254.753	1258
254.816	1602
254.878	1700
254.941	3756
255.004	3359
255.067	1510
255.129	1086
255.192	1046
255.255	41
255.317	1919
255.380	783
255.443	1408
255.505	1544
255.568	111
255.631	692
255.693	1669
255.756	915
255.819	2960
255.881	2221
255.944	1547
256.006	866
256.069	436
256.132	984
256.194	840
256.257	1882
256.319	2190
256.382	2517
256.444	4814
256.507	2948
256.569	2801
256.632	2173
256.694	2671
256.757	8689
256.819	28151
256.882	11227
256.944	4726
257.007	4064
257.069	2431
257.132	2200
257.194	2904
257.257	1532
257.319	1904
257.381	2982
257.444	7041
257.506	30293
257.569	32952
257.631	11426
257.693	5386
257.756	3145
257.818	2404
257.880	2072
257.943	2422
258.005	779
258.067	2075
258.130	1682
258.192	2266
258.254	1568
258.317	1789
258.379	1907
258.441	2320
258.503	3302
258.566	2284
258.628	3169
258.690	908
258.753	1956
258.815	1363
258.877	1221
258.939	1692
259.001	2299
259.064	1581
259.126	893
259.188	1390
259.250	2272
259.312	1981
259.375	1907
259.437	1489
259.499	1346
259.561	1515
259.623	2361
259.685	839
259.747	1035
259.809	2674
259.872	4027
259.934	8045
259.996	7287
260.058	2694
260.120	1256
260.182	1804
260.244	1427
260.306	904
260.368	1444
260.430	690
260.492	2605
260.554	2229
260.616	1055
260.678	4336
260.740	3553
260.802	1051
260.864	2027
260.926	272
260.988	2744
261.050	1747
261.112	2014
261.174	5809
261.236	4412
261.298	1840
261.359	2441
261.421	3341
261.483	891
261.545	2521
261.607	145
261.669	2140
261.731	1722
261.793	2973
261.854	123
261.916	1693
261.978	1685
262.040	1589
262.102	1468
262.164	920
262.225	2435
262.287	2193
262.349	1567
262.411	1894
262.472	2046
262.534	981
262.596	2361
262.658	1958
262.719	808
262.781	2193
262.843	2197
262.904	2404
262.966	2212
263.028	2791
263.090	6531
263.151	19788
263.213	6939
263.275	2859
263.336	1712
263.398	2022
263.459	593
263.521	539
263.583	2638
263.644	1645
263.706	1201
263.767	741
263.829	1511
263.891	1378
263.952	1273
264.014	828
264.075	1019
264.137	3554
264.198	2169
264.260	1116
264.321	1343
264.383	1962
264.444	4401
264.506	1452
264.567	1396
264.629	2696
264.690	2920
264.752	1831
264.813	880
264.875	1019
264.936	2056
264.998	1258
265.059	2332
265.120	3073
265.182	2882
265.243	12665
265.305	15272
265.366	4631
265.427	2847
265.489	3489
265.550	1009
265.611	1875
265.673	1819
265.734	1903
265.795	1491
265.857	1603
265.918	2220
265.979	4767
266.040	21196
266.102	20505
266.163	5722
266.224	4007
266.286	2527
266.347	1950
266.408	2105
266.469	1917
266.530	2086
266.592	1715
266.653	1531
266.714	1547
266.775	1590
266.836	1845
266.898	1198
266.959	1382
267.020	1716
267.081	1854
267.142	976
267.203	1306
267.264	627
267.326	2022
267.387	727
267.448	721
267.509	1269
267.570	2003
267.631	478
267.692	32
267.753	1744
267.814	926
267.875	1388
267.936	2406
267.997	1706
268.058	1137
268.119	755
268.180	1208
268.241	257
268.302	1820
268.363	733
268.424	540
268.485	1306
268.546	-218
268.607	1147
268.668	516
268.729	883
268.790	1144
268.851	907
268.912	2128
268.972	1813
269.033	1435
269.094	961
269.155	1610
269.216	912
269.277	1406
269.338	728
269.398	2259
269.459	611
269.520	2218
269.581	1702
269.642	2033
269.702	227
269.763	1103
269.824	1272
269.885	1073
269.945	1237
270.006	1446
270.067	181
270.128	1145
270.188	853
270.249	1195
270.310	1321
270.370	1694
270.431	1591
270.492	1445
270.553	1613
270.613	1969
270.674	2548
270.734	1909
270.795	763
270.856	1832
270.916	1059
270.977	1180
271.038	2523
271.098	969
271.159	811
271.219	1124
271.280	1392
271.340	1820
271.401	1100
271.462	1408
271.522	1927
271.583	1620
271.643	1332
271.704	1469
271.764	2492
271.825	2400
271.885	8921
271.946	11432
272.006	3383
272.066	5706
272.127	10816
272.187	12288
272.248	6196
272.308	3219
272.369	6727
272.429	4982
272.489	2601
272.550	3383
272.610	2635
272.671	1709
272.731	2820
272.791	2034
272.852	2509
272.912	1596
272.972	1520
273.033	1648
273.093	1036
273.153	2600
273.214	2176
273.274	2006
273.334	3983
273.394	7677
273.455	2758
273.515	3117
273.575	5276
273.635	3581
273.696	3653
273.756	8282
273.816	4274
273.876	3200
273.936	3031
273.997	4776
274.057	1867
274.117	2765
274.177	2480
274.237	8378
274.297	7682
274.358	3999
274.418	6280
274.478	4610
274.538	1824
274.598	2024
274.658	3985
274.718	3347
274.778	2520
274.838	2032
274.898	2439
274.958	5639
275.018	8876
275.078	6418
275.138	2765
275.198	2353
275.258	2219
275.318	1414
275.378	2427
275.438	2624
275.498	2522
275.558	3329
275.618	6559
275.678	5553
275.738	4386
275.798	3382
275.858	2141
275.918	1652
275.978	1801
276.038	2711
276.098	1368
276.157	2841
276.217	4886
276.277	2625
276.337	1236
276.397	2611
276.457	2352
276.517	1879
276.576	2505
276.636	2183
276.696	2354
276.756	3565
276.815	3442
276.875	3346
276.935	2021
276.995	2535
277.055	3261
277.114	4565
277.174	2668
277.234	3858
277.293	2751
277.353	2138
277.413	1682
277.472	1632
277.532	1607
277.592	2451
277.651	6103
277.711	12447
277.771	4875
277.830	12999
277.890	11246
277.950	9263
278.009	25777
278.069	10114
278.128	9555
278.188	13068
278.248	6402
278.307	13869
278.367	10761
278.426	3858
278.486	2337
278.545	2567
278.605	3170
278.664	1858
278.724	2800
278.783	4311
278.843	10181
278.902	4429
278.962	2519
279.021	3616
279.081	4292
279.140	4392
279.199	2857
279.259	3782
279.318	4250
279.378	6016
279.437	7682
279.496	19523
279.556	72910
279.615	53340
279.675	14043
279.734	8646
279.793	8706
279.853	12722
279.912	7250
279.971	5515
280.031	5297
280.090	6317
280.149	9257
280.208	10793
280.268	50324
280.327	48659
280.386	11527
280.445	7961
280.505	5165
280.564	4310
280.623	3498
280.682	3889
280.742	5388
280.801	3183
280.860	3134
280.919	3768
280.978	3010
281.037	2486
281.097	2066
281.156	3345
281.215	2936
281.274	4219
281.333	5559
281.392	5505
281.451	2462
281.510	1892
281.569	2061
281.628	2174
281.688	2790
281.747	3373
281.806	2180
281.865	3331
281.924	1905
281.983	2712
282.042	2024
282.101	2383
282.160	1989
282.219	3478
282.278	2457
282.337	3326
282.396	3074
282.454	1829
282.513	2160
282.572	4721
282.631	2486
282.690	2271
282.749	1929
282.808	3087
282.867	2884
282.926	3178
282.985	1946
283.043	1612
283.102	1224
283.161	2831
283.220	3904
283.279	5890
283.338	3301
283.396	1774
283.455	2749
283.514	2644
283.573	3188
283.631	3237
283.690	2698
283.749	2522
283.808	3264
283.866	3829
283.925	3135
283.984	3099
284.043	2166
284.101	2989
284.160	2185
284.219	4361
284.277	2881
284.336	3488
284.395	7332
284.453	6153
284.512	4128
284.570	3704
284.629	4632
284.688	4330
284.746	3869
284.805	5821
284.863	6442
284.922	7840
284.981	9746
285.039	14914
285.098	23321
285.156	50463
285.215	95289
285.273	88587
285.332	56945
285.390	28818
285.449	18114
285.507	13453
285.566	9568
285.624	8181
285.683	6763
285.741	6024
285.799	5140
285.858	4190
285.916	4381
285.975	4162
286.033	4563
286.091	3291
286.150	3260
286.208	3615
286.267	4277
286.325	3450
286.383	3357
286.442	4049
286.500	3495
286.558	3170
286.616	2970
286.675	4065
286.733	2703
286.791	3328
286.850	3146
286.908	3949
286.966	3866
287.024	2938
287.083	3131
287.141	3279
287.199	3493
287.257	3820
287.315	3091
287.374	3998
287.432	3968
287.490	3904
287.548	2852
287.606	2732
287.664	3102
287.723	4048
287.781	4431
287.839	4377
287.897	4367
287.955	5598
288.013	6271
288.071	11148
288.129	37325
288.187	99234
288.245	48476
288.303	16532
288.361	9740
288.419	7275
288.477	5923
288.535	4451
288.593	5286
288.651	4393
288.709	3966
288.767	4229
288.825	3238
288.883	3884
288.941	3424
288.999	3360
289.057	3057
289.115	3373
289.173	3303
289.231	3303
289.289	3150
289.346	2545
289.404	3985
289.462	4203
289.520	2946
289.578	2845
289.636	3222
289.694	3293
289.751	3155
289.809	3123
289.867	3485
289.925	3628
289.983	2767
290.040	2751
290.098	2175
290.156	3418
290.214	2775
290.271	2732
290.329	3975
290.387	3367
290.444	3341
290.502	3432
290.560	3161
290.617	2932
290.675	3314
290.733	2199
290.790	3271
290.848	3634
290.906	2641
290.963	2757
291.021	3374
291.078	3091
291.136	2646
291.194	4897
291.251	6030
291.309	3604
291.366	3447
291.424	2643
291.481	2954
291.539	4085
291.596	3127
291.654	2574
291.711	3307
291.769	3313
291.826	3900
291.884	4077
291.941	2938
291.999	2928
292.056	2625
292.114	3588
292.171	3798
292.228	3750
292.286	3928
292.343	4094
292.401	3513
292.458	3853
292.515	4077
292.573	3520
292.630	3878
292.687	3267
292.745	2926
292.802	3166
292.859	4780
292.917	6440
292.974	4372
293.031	3078
293.089	3178
293.146	4050
293.203	4091
293.260	2934
293.318	3846
293.375	3276
293.432	3112
293.489	3501
293.546	3038
293.604	3742
293.661	5811
293.718	12139
293.775	6683
293.832	5067
293.889	5291
293.947	4246
294.004	3734
294.061	3540
294.118	4451
294.175	6742
294.232	8294
294.289	5210
294.346	4422
294.403	5028
294.460	3589
294.517	4208
294.574	4002
294.631	3515
294.688	3894
294.745	4271
294.802	12574
294.859	12472
294.916	5960
294.973	3649
295.030	3327
295.087	3336
295.144	3492
295.201	3607
295.258	3979
295.315	4035
295.372	5573
295.429	9830
295.486	6008
295.542	4413
295.599	6092
295.656	9716
295.713	6545
295.770	7880
295.827	5536
295.883	4228
295.940	2986
295.997	3565
296.054	3493
296.111	3306
296.167	3251
296.224	3777
296.281	2977
296.338	3138
296.394	3177
296.451	3592
296.508	5593
296.564	6553
296.621	5770
296.678	10997
296.734	14409
296.791	6526
296.848	4604
296.904	5146
296.961	4836
297.018	9264
297.074	7730
297.131	4167
297.187	4890
297.244	4701
297.301	9965
297.357	18198
297.414	7490
297.470	4708
297.527	4221
297.583	4213
297.640	3646
297.696	3997
297.753	3139
297.809	3694
297.866	2394
297.922	3958
297.979	3316
298.035	3028
298.092	3619
298.148	6493
298.204	6324
298.261	4594
298.317	5862
298.374	13465
298.430	9542
298.486	5561
298.543	4054
298.599	4182
298.656	4649
298.712	4749
298.768	10527
298.824	9501
298.881	4188
298.937	4360
298.993	4070
299.050	3680
299.106	3171
299.162	4279
299.218	4768
299.275	4272
299.331	4445
299.387	6551
299.443	16942
299.500	33395
299.556	25337
299.612	12435
299.668	10996
299.724	26307
299.780	31987
299.837	14312
299.893	11046
299.949	23849
300.005	32951
300.061	25458
300.117	39779
300.173	19957
300.229	9729
300.285	7176
300.341	7911
300.397	6977
300.453	5056
300.510	6891
300.566	7130
300.622	11893
300.678	40204
300.734	50304
300.790	25238
300.845	20161
300.901	25905
300.957	35282
301.013	19130
301.069	9002
301.125	6571
301.181	5352
301.237	5427
301.293	4314
301.349	4656
301.405	4962
301.461	4817
301.516	5123
301.572	3600
301.628	4182
301.684	3762
301.740	5034
301.796	6411
301.851	5931
301.907	7301
301.963	6376
302.019	11157
302.074	29467
302.130	28735
302.186	15050
302.242	7707
302.297	5471
302.353	5827
302.409	7048
302.464	6723
302.520	5421
302.576	9900
302.631	12019
302.687	6737
302.743	4793
302.798	3280
302.854	3667
302.910	4659
302.965	3810
303.021	4439
303.076	4285
303.132	4065
303.187	5529
303.243	4410
303.299	4602
303.354	3597
303.410	4409
303.465	3934
303.521	3236
303.576	3905
303.632	3481
303.687	5058
303.743	10888
303.798	10698
303.853	5682
303.909	4142
303.964	4263
304.020	4101
304.075	4818
304.130	3668
304.186	4802
304.241	7064
304.297	5896
304.352	4367
304.358	4291
304.407	3672
304.449	3649
304.463	3645
304.518	3453
304.539	3710
304.573	4106
304.629	3900
304.630	3919
304.684	5020
304.720	7722
304.739	8992
304.794	12346
304.811	10993
304.850	7759
304.902	5211
304.905	5060
304.960	3938
304.992	4447
305.015	4747
305.071	4792
305.083	4425
305.126	3126
305.173	2987
305.181	2977
305.236	3333
305.264	3968
305.292	4609
305.347	4127
305.354	4136
305.402	4221
305.445	4437
305.457	4470
305.512	4404
305.535	4331
305.567	4312
305.622	4536
305.626	4582
305.678	6201
305.716	10150
305.733	11350
305.788	11407
305.807	10282
305.843	9022
305.897	11878
305.898	11896
305.953	11548
305.988	8784
306.008	7456
306.063	5016
306.078	4649
306.118	3934
306.168	3534
306.173	3498
306.228	3917
306.259	4062
306.283	4208
306.338	3125
306.349	3181
306.393	3455
306.440	3616
306.448	3621
306.503	4794
306.530	4436
306.558	4649
306.613	6907
306.620	7117
306.668	7750
306.711	9181
306.723	9274
306.778	7540
306.801	6297
306.833	5185
306.888	4505
306.892	4484
306.943	4343
306.982	4200
306.997	4160
307.052	3956
307.072	3627
307.107	3382
307.162	4791
307.163	4794
307.217	5442
307.253	5564
307.272	5314
307.327	5653
307.343	5537
307.381	5264
307.434	4726
307.436	4815
307.491	7386
307.524	9399
307.546	9386
307.600	8473
307.614	7798
307.655	6255
307.704	5171
307.710	5250
307.765	5755
307.795	6769
307.819	7585
307.874	10374
307.885	10566
307.929	10047
307.975	10413
307.984	11200
308.038	16971
308.065	20374
308.093	37217
308.148	77955
308.156	86330
308.202	116508
308.246	134472
308.257	129436
308.312	69279
308.336	43775
308.366	31301
308.421	18242
308.426	17270
308.475	12568
308.517	10371
308.530	9899
308.585	8355
308.607	8033
308.639	7797
308.694	7281
308.697	7327
308.748	11849
308.787	15000
308.803	14307
308.857	11417
308.877	10179
308.912	10541
308.967	11672
308.967	11695
309.021	16575
309.058	20306
309.076	26124
309.130	45116
309.148	52510
309.185	103943
309.238	190012
309.239	190262
309.293	179956
309.328	156549
309.348	135606
309.402	65788
309.418	47756
309.457	34242
309.508	21504
309.511	21118
309.566	18228
309.598	16869
309.620	17623
309.674	20362
309.688	21329
309.729	20033
309.778	17101
309.783	16815
309.837	13266
309.868	11144
309.892	11221
309.946	11968
309.959	12366
310.001	13662
310.049	14799
310.055	14367
310.109	9717
310.139	6977
310.163	6534
310.218	6299
310.229	6262
310.272	5840
310.319	5449
310.326	5424
310.381	5048
310.409	4956
310.435	5073
310.489	5376
310.499	5398
310.543	5514
310.589	5721
310.598	5676
310.652	5582
310.679	5328
310.706	5082
310.760	4651
310.769	4590
310.814	4661
310.859	4783
310.868	4842
310.923	4961
310.948	5119
310.977	5055
311.031	4742
311.038	4710
311.085	5097
311.128	5350
311.139	5341
311.193	5406
311.218	5382
311.247	5430
311.301	5524
311.308	5521
311.356	5277
311.398	5060
311.410	5010
311.464	4736
311.488	4623
311.518	4315
311.572	3720
311.578	3655
311.626	4773
311.668	5759
311.680	5746
311.734	5595
311.758	5521
311.788	5557
311.842	5654
311.847	5651
311.896	6677
311.937	7581
311.950	7369
312.004	6356
312.027	5904
312.058	5702
312.112	5328
312.117	5282
312.165	5575
312.207	5812
312.297	5866
312.386	6197
312.476	5111
312.566	6377
312.656	5217
312.745	5435
312.835	5384
312.925	5630
313.015	6311
313.104	6627
313.194	6423
313.284	6816
313.374	6926
313.463	6808
313.553	7454
313.643	7535
313.732	8069
313.822	7818
313.912	8994
314.001	9369
314.091	10254
314.180	9795
314.270	10475
314.360	10521
314.449	10066
314.539	8819
314.628	8769
314.718	9704
314.808	10240
314.897	10615
314.987	11553
315.076	12727
315.166	11638
315.255	12869
315.345	11394
315.434	11613
315.524	13151
315.613	16113
315.703	25186
315.792	90920
315.881	292076
315.971	76674
316.060	21559
316.150	17043
316.239	15889
316.328	11039
316.418	11288
316.507	12374
316.597	13449
316.686	13916
316.775	14482
316.865	17034
316.954	9718
317.043	10167
317.133	8792
317.222	9548
317.311	9226
317.400	9299
317.490	12541
317.579	14113
317.668	19660
317.757	39603
317.847	158182
317.936	410602
318.025	115706
318.114	115955
318.203	41398
318.293	17896
318.382	24134
318.471	21279
318.560	20543
318.649	26450
318.738	10847
318.828	8895
318.917	7191
319.006	8191
319.095	13943
319.184	27938
319.273	12896
319.362	9287
319.451	6556
319.540	7439
319.629	8908
319.718	9658
319.807	8004
319.896	13386
319.985	34658
320.074	12469
320.163	8161
320.252	10338
320.341	9904
320.430	9377
320.519	10654
320.608	9500
320.697	11501
320.786	12860
320.875	14954
320.964	15540
321.053	16569
321.142	18441
321.230	20710
321.319	21970
321.408	27217
321.497	22759
321.586	19624
321.675	19774
321.764	17976
321.852	17496
321.941	18739
322.030	18473
322.119	20310
322.207	27024
322.296	30230
322.385	28804
322.474	31071
322.562	33992
322.651	25335
322.740	20342
322.829	19225
322.917	20201
323.006	15158
323.095	14449
323.183	12923
323.272	13393
323.361	18673
323.449	39669
323.538	16361
323.626	29507
323.715	16882
323.804	11552
323.892	24806
323.981	13379
324.069	9803
324.158	16485
324.246	14168
324.335	9248
324.424	8460
324.512	7358
324.601	7454
324.689	7827
324.778	9188
324.866	10990
324.954	7755
325.043	7024
325.131	8157
325.220	12867
325.308	13319
325.397	11216
325.485	8121
325.574	6366
325.662	6412
325.750	6003
325.839	7094
325.927	5937
326.015	6636
326.104	8947
326.192	9488
326.280	6541
326.369	6206
326.457	6752
326.545	8091
326.634	6835
326.722	6471
326.810	7152
326.898	8211
326.987	8832
327.075	8568
327.163	10044
327.251	7498
327.340	8951
327.428	11485
327.516	12211
327.604	9467
327.692	8588
327.781	8277
327.869	8115
327.957	6848
328.045	5875
328.133	6266
328.221	6285
328.309	5770
328.397	7134
328.485	7449
328.574	13557
328.662	17858
328.750	12233
328.838	8599
328.926	6789
329.014	6613
329.102	6551
329.190	9071
329.278	6031
329.366	5682
329.454	5731
329.542	5391
329.630	5619
329.718	6703
329.806	6172
329.893	6349
329.981	5808
330.069	5366
330.157	6881
330.245	8544
330.333	6944
330.421	5693
330.509	6051
330.597	9937
330.684	7690
330.772	6885
330.860	7075
330.948	8939
331.036	6006
331.123	4855
331.211	6264
331.299	6142
331.387	7644
331.475	9673
331.562	6389
331.650	6659
331.738	6203
331.825	7091
331.913	6019
332.001	5967
332.089	7026
332.176	8981
332.264	14474
332.352	9817
332.439	7261
332.527	6474
332.614	6245
332.702	7529
332.790	5952
332.877	9116
332.965	14001
333.052	8295
333.140	8245
333.228	12389
333.315	7825
333.403	8004
333.490	12083
333.578	11722
333.665	16360
333.753	11197
333.840	9992
333.928	11845
334.015	16729
334.103	23899
334.190	48985
334.278	31612
334.365	36456
334.452	32283
334.540	24870
334.627	26161
334.715	34046
334.802	50784
334.889	104272
334.977	105278
335.064	48017
335.151	28293
335.239	21046
335.326	19630
335.413	32052
335.501	34510
335.588	21214
335.675	23719
335.762	30830
335.850	41050
335.937	57594
336.024	92862
336.111	148212
336.199	95438
336.286	47931
336.373	28641
336.460	21038
336.547	16576
336.635	14827
336.722	12621
336.809	11813
336.896	11171
336.983	17433
337.070	28864
337.157	39550
337.245	33198
337.332	23277
337.419	10945
337.506	9786
337.593	9960
337.680	14228
337.767	23647
337.854	10777
337.941	11443
338.028	13000
338.115	8999
338.202	10653
338.289	13188
338.376	28530
338.463	11512
338.550	16990
338.637	15432
338.724	10073
338.811	11983
338.898	7516
338.984	6376
339.071	6853
339.158	7528
339.245	9487
339.332	8012
339.419	9828
339.506	8724
339.593	5887
339.679	7770
339.766	6617
339.853	6796
339.940	7375
340.027	7205
340.113	6422
340.200	6275
340.287	6901
340.374	6572
340.460	7554
340.547	5293
340.634	6881
340.720	11792
340.807	7558
340.894	6606
340.980	6406
341.067	5399
341.154	6581
341.240	7222
341.327	8180
341.414	6944
341.500	6729
341.587	6837
341.674	6837
341.760	7282
341.847	7779
341.933	6543
342.020	6026
342.106	6355
342.193	6502
342.279	6355
342.366	6819
342.452	6813
342.539	6817
342.625	7297
342.712	10347
342.798	6924
342.885	5686
342.971	5310
343.058	6757
343.144	5567
343.230	7159
343.317	5802
343.403	5073
343.490	5348
343.576	5873
343.662	5938
343.749	6738
343.835	7263
343.921	9292
344.008	35913
344.094	54573
344.180	12678
344.267	8800
344.353	14704
344.439	14428
344.525	8493
344.612	10206
344.698	9362
344.784	7409
344.870	7044
344.957	5059
345.043	7010
345.129	6063
345.215	7276
345.301	5496
345.387	5984
345.474	6437
345.560	5900
345.646	6008
345.732	5943
345.818	6004
345.904	6458
345.990	6072
346.076	6203
346.162	8239
346.249	6538
346.335	5860
346.421	6410
346.507	11094
346.593	18261
346.679	7860
346.765	9573
346.851	13155
346.937	9324
347.023	8975
347.108	7134
347.194	6990
347.280	6384
347.366	11927
347.452	29685
347.538	40192
347.624	21919
347.710	14690
347.796	8071
347.882	7351
347.967	6918
348.053	6795
348.139	7349
348.225	6021
348.311	6330
348.397	6712
348.482	8020
348.568	9274
348.654	14566
348.740	36872
348.825	32253
348.911	16496
348.997	19344
349.083	23766
349.168	8350
349.254	7393
349.340	7302
349.425	6364
349.511	7463
349.597	7599
349.682	7934
349.768	14070
349.854	9081
349.939	6864
350.025	7129
350.110	7845
350.196	6602
350.282	6037
350.367	6816
350.453	7758
350.538	7231
350.624	7118
350.709	7356
350.795	6400
350.880	5523
350.966	7899
351.051	7979
351.137	6801
351.222	6759
351.308	8634
351.393	10611
351.479	6353
351.564	5923
351.649	6719
351.735	6433
351.820	6060
351.906	6024
351.991	6634
352.076	9499
352.162	10526
352.247	6950
352.332	6408
352.418	7635
352.503	7694
352.588	13903
352.673	10395
352.759	7570
352.844	5861
352.929	6300
353.014	6774
353.100	6073
353.185	6805
353.270	6729
353.355	7466
353.441	6180
353.526	6394
353.611	7435
353.696	7181
353.781	7434
353.866	5903
353.952	7006
354.037	6852
354.122	9341
354.207	8477
354.292	6432
354.377	6874
354.462	6246
354.547	6746
354.632	7273
354.717	7618
354.802	6048
354.887	6112
354.972	6063
355.057	6541
355.142	5026
355.227	6743
355.312	6812
355.397	7763
355.482	11846
355.567	7791
355.652	9171
355.737	8324
355.822	14456
355.907	11736
355.991	7937
356.076	6331
356.161	6729
356.246	6947
356.331	6818
356.416	9372
356.501	32214
356.585	26488
356.670	7947
356.755	9451
356.840	9382
356.924	26311
357.009	65321
357.094	22788
357.179	8466
357.263	7531
357.348	8382
357.433	8119
357.517	8417
357.602	7400
357.687	6664
357.771	10053
357.856	19834
357.941	13551
358.025	27152
358.110	81498
358.195	32364
358.279	9543
358.364	9440
358.448	13932
358.533	21882
358.617	16697
358.702	17561
358.787	9964
358.871	8297
358.956	8220
359.040	7246
359.125	6752
359.209	8421
359.294	15813
359.378	23033
359.462	12944
359.547	8332
359.631	7848
359.716	6043
359.800	7207
359.885	8384
359.969	6692
360.053	8044
360.138	7387
360.222	7213
360.306	8338
360.391	8462
360.475	12483
360.559	16406
360.644	13202
360.728	10177
360.812	22405
360.896	41289
360.981	17309
361.065	11072
361.149	9689
361.233	7656
361.318	8205
361.402	8952
361.486	10369
361.570	9540
361.654	10593
361.739	14087
361.823	36291
361.907	46766
361.991	17623
362.075	18358
362.159	27788
362.243	53152
362.327	109468
362.411	118457
362.495	48308
362.580	28767
362.664	28511
362.748	35248
362.832	57910
362.916	120986
363.000	268442
363.084	290818
363.168	134063
363.252	45956
363.336	28805
363.420	24270
363.503	38743
363.587	37699
363.671	20081
363.755	19142
363.839	23158
363.923	23558
364.007	31298
364.091	44456
364.175	74914
364.258	176292
364.342	334372
364.426	433060
364.510	206900
364.594	75275
364.677	45279
364.761	55232
364.845	35668
364.929	18945
365.013	15645
365.096	14901
365.180	13227
365.264	20552
365.347	44897
365.431	21927
365.515	10895
365.598	9028
365.682	11171
365.766	9552
365.849	10980
365.933	9127
366.017	11774
366.100	9567
366.184	9198
366.267	11221
366.351	9610
366.435	8824
366.518	8851
366.602	9421
366.685	9737
366.769	9261
366.852	10069
366.936	10710
367.019	9182
367.103	9354
367.186	12848
367.270	9013
367.353	9091
367.436	11250
367.520	10254
367.603	10672
367.687	10538
367.770	11451
367.853	12286
367.937	16388
368.020	17997
368.104	10156
368.187	10225
368.270	9699
368.353	9776
368.437	12386
368.520	20213
368.603	12443
368.687	13812
368.770	17836
368.853	9159
368.936	9828
369.020	10808
369.103	7422
369.186	7797
369.269	7863
369.352	8971
369.436	8834
369.519	9042
369.602	6130
369.685	8616
369.768	6839
369.851	7660
369.934	6941
370.018	7137
370.101	7435
370.184	9886
370.267	9764
370.350	11462
370.433	15606
370.516	58840
370.599	143556
370.682	60440
370.765	18985
370.848	17506
370.931	22188
371.014	13591
371.097	7344
371.180	8273
371.263	7990
371.346	7129
371.429	7858
371.511	6826
371.594	7828
371.677	9046
371.760	10944
371.843	11218
371.926	35484
372.009	59889
372.091	21258
372.174	14645
372.257	26323
372.340	12432
372.423	12175
372.505	13314
372.588	9320
372.671	13436
372.754	21289
372.836	13726
372.919	15293
373.002	22775
373.085	10990
373.167	11067
373.250	16012
373.332	26404
373.415	50848
373.498	90362
373.580	68919
373.663	220430
373.746	190285
373.828	34403
373.911	16587
373.993	14399
374.076	25799
374.159	23260
374.241	14803
374.324	22371
374.406	18917
374.489	32469
374.571	59512
374.654	24760
374.736	21324
374.819	43196
374.901	65485
374.983	61170
375.066	18134
375.148	14852
375.231	26594
375.313	37082
375.395	18744
375.478	14242
375.560	13142
375.643	13262
375.725	22530
375.807	54504
375.890	41121
375.972	18965
376.054	15847
376.136	19976
376.219	12382
376.301	21770
376.383	37226
376.465	17259
376.548	11792
376.630	16016
376.712	30298
376.794	15958
376.877	8695
376.959	7461
377.041	8257
377.123	9338
377.205	9569
377.287	7104
377.369	8233
377.452	8184
377.534	8191
377.616	8180
377.698	7122
377.780	7639
377.862	8128
377.944	9071
378.026	6680
378.108	8193
378.190	8191
378.272	8597
378.354	7793
378.436	7362
378.518	8432
378.600	12002
378.682	11062
378.764	14261
378.846	12536
378.928	8697
379.010	8623
379.091	8889
379.173	7786
379.255	7249
379.337	7428
379.419	11527
379.501	18621
379.583	11190
379.664	7785
379.746	9413
379.828	15650
379.910	16953
379.991	15997
380.073	8603
380.155	8043
380.237	7275
380.318	7822
380.400	7255
380.482	9315
380.564	9493
380.645	8951
380.727	9099
380.809	9845
380.890	8267
380.972	6958
381.053	7674
381.135	8668
381.217	10007
381.298	15451
381.380	10256
381.461	12407
381.543	32718
381.624	34061
381.706	11666
381.787	9153
381.869	11971
381.951	26525
382.032	65312
382.113	37640
382.195	11348
382.276	11219
382.358	15255
382.439	28415
382.521	40184
382.602	55717
382.684	28616
382.765	38800
382.846	51709
382.928	76444
383.009	44255
383.090	45716
383.172	135060
383.253	164351
383.334	57979
383.416	47660
383.497	28967
383.578	22604
383.659	41330
383.741	138458
383.822	272749
383.903	125826
383.984	43509
384.066	48202
384.147	31241
384.228	18130
384.309	19113
384.390	18601
384.471	17645
384.553	14721
384.634	15956
384.715	14681
384.796	13067
384.877	13214
384.958	20896
385.039	19197
385.120	14491
385.201	13839
385.282	14358
385.363	16344
385.444	15890
385.525	19706
385.606	31371
385.687	28003
385.768	17477
385.849	19880
385.930	42473
386.011	57006
386.092	24461
386.173	18065
386.254	15845
386.335	16025
386.416	15461
386.496	18475
386.577	21796
386.658	17265
386.739	15983
386.820	17697
386.901	16903
386.981	19918
387.062	21773
387.143	24316
387.224	29163
387.304	30967
387.385	26955
387.466	24150
387.547	29285
387.627	26942
387.708	30270
387.789	41212
387.869	40587
387.950	27033
388.031	20731
388.111	19311
388.192	23792
388.273	26343
388.353	20499
388.434	15341
388.514	19044
388.595	35686
388.676	34692
388.756	21018
388.837	18710
388.917	15572
388.998	12079
389.078	13635
389.159	12857
389.239	11180
389.320	13762
389.400	11116
389.480	15650
389.561	20868
389.641	16611
389.722	13518
389.802	12945
389.883	17379
389.963	24935
390.043	19035
390.124	13380
390.204	16002
390.284	20881
390.365	17248
390.445	28931
390.525	67129
390.605	57176
390.686	19425
390.766	15211
390.846	15558
390.927	12989
391.007	13636
391.087	15955
391.167	15450
391.247	13918
391.328	17763
391.408	19021
391.488	18375
391.568	16395
391.648	18313
391.728	21003
391.808	21635
391.888	22383
391.969	26926
392.049	28946
392.129	29177
392.209	31051
392.289	40247
392.369	37884
392.449	40935
392.529	42864
392.609	47447
392.689	56142
392.769	71758
392.849	84329
392.929	109884
393.009	158182
393.089	234801
393.169	436147
393.248	909652
393.328	1426890
393.408	1328571
393.488	745114
393.568	345503
393.648	188132
393.728	120862
393.807	85523
393.887	68245
393.967	57081
394.047	47926
394.127	42561
394.206	47553
394.286	106771
394.366	308020
394.446	284933
394.525	79325
394.605	35594
394.685	31211
394.764	38964
394.844	61745
394.924	59653
395.003	29471
395.083	22991
395.163	21779
395.242	21504
395.322	22002
395.402	20441
395.481	24933
395.561	37324
395.640	91522
395.720	128785
395.799	79006
395.879	49694
395.958	49857
396.038	137695
396.117	393024
396.197	377820
396.276	129031
396.356	72386
396.435	77931
396.515	98967
396.594	157222
396.673	336372
396.753	811726
396.832	1273690
396.912	934169
396.991	372411
397.070	163482
397.150	97344
397.229	83482
397.308	135526
397.388	184400
397.467	89882
397.546	39773
397.625	27610
397.705	27699
397.784	24043
397.863	21043
397.942	19521
398.022	18587
398.101	21746
398.180	31772
398.259	22038
398.338	16121
398.417	14263
398.497	12718
398.576	13916
398.655	12138
398.734	11713
398.813	11973
398.892	17909
398.971	30088
399.050	18530
399.129	10109
399.208	10180
399.287	10760
399.366	8754
399.445	9506
399.524	9946
399.603	8130
399.682	10452
399.761	14709
399.840	31497
399.919	24360
399.998	9831
400.077	8146
400.156	7809
400.235	10391
400.313	7883
400.392	7668
400.471	12081
400.550	13022
400.629	8101
400.708	8286
400.786	7455
400.865	10331
400.944	8604
401.023	9391
401.102	7031
401.180	6609
401.259	7198
401.338	6347
401.416	7666
401.495	6346
401.574	7085
401.652	6253
401.731	7782
401.810	5808
401.888	5899
401.967	5987
402.046	6967
402.124	7728
402.203	6532
402.281	7294
402.360	7221
402.438	10236
402.517	8045
402.596	6805
402.674	6526
402.753	6551
402.831	6468
402.910	6986
402.988	9121
403.066	11425
403.145	10255
403.223	9733
403.302	10984
403.380	11524
403.459	10124
403.537	8908
403.615	8542
403.694	7462
403.772	7845
403.850	7554
403.929	7151
404.007	6476
404.085	8449
404.164	7317
404.242	8047
404.320	19415
404.398	40558
404.477	36313
404.555	45941
404.633	38867
404.711	29048
404.789	19086
404.868	7791
404.946	6981
405.024	5995
405.102	5324
405.180	4877
405.258	4555
405.336	6150
405.415	4929
405.493	7261
405.571	6555
405.649	5399
405.727	5650
405.805	8555
405.883	8359
405.961	7937
406.039	7077
406.117	5251
406.195	6799
406.273	11466
406.351	26706
406.429	16935
406.507	6764
406.585	5406
406.663	5896
406.740	6321
406.818	5060
406.896	5442
406.974	6427
407.052	6478
407.130	17341
407.208	20760
407.285	9236
407.363	5718
407.441	5888
407.519	5770
407.596	8291
407.674	25189
407.752	67931
407.830	44104
407.907	11307
407.985	5277
408.063	6926
408.141	5598
408.218	6735
408.296	5158
408.373	6628
408.451	6463
408.529	8033
408.606	7608
408.684	8235
408.762	8564
408.839	8750
408.917	9747
408.994	10339
409.072	11955
409.149	15975
409.227	25066
409.304	34278
409.382	37523
409.459	44536
409.537	52063
409.614	46681
409.692	40812
409.769	41793
409.846	56807
409.924	60325
410.001	46624
410.079	35187
410.156	28026
410.233	21620
410.311	17872
410.388	14677
410.465	14465
410.543	13925
410.620	13112
410.697	12364
410.775	12729
410.852	10837
410.929	13197
411.006	13296
411.083	11520
411.161	12063
411.238	11983
411.315	10567
411.392	10498
411.469	10001
411.547	9736
411.624	7236
411.701	8021
411.778	7627
411.855	6883
411.932	6581
412.009	7407
412.086	7336
412.163	7141
412.240	5750
412.317	7769
412.394	6270
412.471	6220
412.548	6316
412.625	5089
412.702	6432
412.779	6661
412.856	6409
412.933	5355
413.010	6226
413.087	6541
413.164	8427
413.241	9927
413.318	5741
413.395	6576
413.471	6046
413.548	5439
413.625	5709
413.702	5332
413.779	4800
413.855	4582
413.932	4606
414.009	3519
414.086	5052
414.162	4182
414.239	5980
414.316	8273
414.393	12069
414.469	6077
414.546	4321
414.623	4349
414.699	4592
414.776	4538
414.853	4317
414.929	5115
415.006	3991
415.082	5169
415.159	4324
415.236	4650
415.312	4924
415.389	5470
415.465	4712
415.542	4551
415.618	4735
415.695	5355
415.771	4527
415.848	4032
415.924	5066
416.000	5375
416.077	4882
416.153	4381
416.230	3653
416.306	4440
416.383	4542
416.459	4485
416.535	3995
416.612	4691
416.688	4146
416.764	4700
416.841	4534
416.917	4111
416.993	4728
417.069	4768
417.146	5045
417.222	5793
417.298	5528
417.374	4387
417.451	4313
417.527	5219
417.603	4622
417.679	4514
417.755	4267
417.831	4063
417.908	5145
417.984	4608
418.060	3868
418.136	5742
418.212	5242
418.288	4519
418.364	6066
418.440	4085
418.516	5512
418.592	4797
418.668	6489
418.744	5638
418.820	6137
418.896	5241
418.972	4729
419.048	5312
419.124	7575
419.200	4709
419.276	5728
419.352	5739
419.428	6047
419.504	5499
419.579	7012
419.655	6553
419.731	7384
419.807	8377
419.883	8693
419.959	8593
420.034	8613
420.110	8771
420.186	12288
420.262	11587
420.337	9137
420.413	10022
420.489	9723
420.565	11194
420.640	11278
420.716	12095
420.792	11137
420.867	13502
420.943	13077
421.019	13982
421.094	14549
421.170	16591
421.245	16698
421.321	18628
421.397	21138
421.472	35905
421.548	55973
421.623	41433
421.699	32231
421.774	35664
421.850	38306
421.925	48408
422.001	55451
422.076	68730
422.152	85093
422.227	114247
422.302	155867
422.378	221734
422.453	327522
422.529	437856
422.604	441647
422.679	386223
422.755	480648
422.830	441606
422.905	302847
422.981	208619
423.056	149628
423.131	113825
423.207	88426
423.282	69541
423.357	58315
423.432	48867
423.508	42052
423.583	37795
423.658	32802
423.733	29584
423.808	28560
423.883	27608
423.959	30232
424.034	33493
424.109	29264
424.184	21997
424.259	18700
424.334	16761
424.409	14871
424.484	13721
424.559	13375
424.634	12517
424.709	11845
424.784	11560
424.859	10300
424.934	10587
425.009	12547
425.084	13069
425.159	9914
425.234	9952
425.309	8076
425.384	11896
425.459	12824
425.534	8796
425.609	7655
425.683	7031
425.758	7567
425.833	7311
425.908	8024
425.983	8533
426.058	12085
426.132	9117
426.207	6219
426.282	8078
426.357	5897
426.431	6995
426.506	7000
426.581	5980
426.655	6362
426.730	6239
426.805	5184
426.879	6431
426.954	5402
427.029	7138
427.103	11981
427.178	20514
427.253	11768
427.327	6633
427.402	6698
427.476	10166
427.551	7660
427.625	5722
427.700	6633
427.774	5449
427.849	6103
427.923	6521
427.998	8813
428.072	10702
428.147	25675
428.221	109031
428.296	231992
428.370	113259
428.444	21457
428.519	11641
428.593	10728
428.667	11794
428.742	16613
428.816	47980
428.890	165251
428.965	199340
429.039	50725
429.113	15144
429.188	8802
429.262	7412
429.336	7612
429.410	8551
429.485	8438
429.559	9290
429.633	10187
429.707	12937
429.781	43443
429.855	159014
429.930	179671
430.004	56894
430.078	53715
430.152	137045
430.226	327646
430.300	268021
430.374	66725
430.448	23548
430.522	20916
430.596	33419
430.670	71950
430.744	199643
430.818	174331
430.892	35773
430.966	10147
431.040	7017
431.114	6543
431.188	5242
431.262	4947
431.336	5103
431.410	7258
431.484	8921
431.557	8181
431.631	8759
431.705	20336
431.779	89808
431.853	228543
431.927	130480
432.000	22821
432.074	8410
432.148	6016
432.222	4840
432.295	4197
432.369	4039
432.443	3565
432.516	10667
432.590	20103
432.664	8298
432.737	3065
432.811	2409
432.885	2973
432.958	3886
433.032	1943
433.106	3156
433.179	3183
433.253	3259
433.326	2408
433.400	2749
433.473	2679
433.547	2662
433.620	3114
433.694	3135
433.767	4039
433.841	2805
433.914	2988
433.988	3933
434.061	2568
434.134	3180
434.208	3691
434.281	2187
434.355	2573
434.428	3054
434.501	3582
434.575	2767
434.648	3107
434.721	3329
434.795	2916
434.868	2742
434.941	3551
435.014	4108
435.088	4935
435.161	5944
435.234	7092
435.307	8588
435.381	10692
435.454	17039
435.527	25600
435.600	27560
435.673	24260
435.746	19080
435.819	14737
435.892	11541
435.966	9496
436.039	7081
436.112	6822
436.185	5380
436.258	4960
436.331	4521
436.404	4040
436.477	4179
436.550	4251
436.623	3406
436.696	3068
436.769	2911
436.842	3359
436.915	3347
436.987	3239
437.060	3861
437.133	3289
437.206	2122
437.279	2750
437.352	2976
437.425	2434
437.498	2553
437.570	2673
437.643	2640
437.716	2910
437.789	2306
437.861	2746
437.934	4141
438.007	2765
438.080	2495
438.152	1999
438.225	3602
438.298	15726
438.370	34574
438.443	13468
438.516	4577
438.588	2299
438.661	2004
438.734	2345
438.806	3179
438.879	3216
438.951	3365
439.024	2777
439.096	1841
439.169	2286
439.241	1550
439.314	2716
439.386	2733
439.459	3131
439.531	3851
439.604	2416
439.676	2597
439.749	3233
439.821	2437
439.893	2456
439.966	2809
440.038	2723
440.110	2735
440.183	2786
440.255	2586
440.327	3445
440.400	6830
440.472	17399
440.544	11456
440.617	3229
440.689	5115
440.761	3486
440.833	4969
440.905	3766
440.978	3287
441.050	2718
441.122	3025
441.194	2776
441.266	3432
441.338	3159
441.411	3961
441.483	6894
441.555	7968
441.627	4477
441.699	4973
441.771	4986
441.843	4475
441.915	4957
441.987	5180
442.059	5770
442.131	7255
442.203	9784
442.275	13800
442.347	21913
442.419	60056
442.491	227080
442.563	350663
442.635	135654
442.706	36723
442.778	18852
442.850	13296
442.922	10913
442.994	12043
443.066	13553
443.137	16707
443.209	23479
443.281	37567
443.353	87241
443.425	267214
443.496	565163
443.568	522896
443.640	218318
443.711	61840
443.783	27997
443.855	18196
443.926	12795
443.998	11034
444.070	10155
444.141	9090
444.213	8047
444.285	8243
444.356	8408
444.428	7702
444.499	6861
444.571	7155
444.642	8202
444.714	8278
444.785	9143
444.857	10904
444.928	13407
445.000	14703
445.071	19153
445.143	25635
445.214	36943
445.285	66925
445.357	170342
445.428	436120
445.500	622772
445.571	515061
445.642	325452
445.714	120401
445.785	46140
445.856	24412
445.928	17207
445.999	13011
446.070	9945
446.141	8509
446.213	7937
446.284	6259
446.355	6471
446.426	5722
446.497	3502
446.569	3440
446.640	4498
446.711	4520
446.782	3347
446.853	3498
446.924	3782
446.995	2403
447.066	3572
447.138	3395
447.209	3611
447.280	2043
447.351	1848
447.422	2306
447.493	1813
447.564	2517
447.635	1804
447.706	1588
447.777	2323
447.847	2272
447.918	1285
447.989	2285
448.060	2866
448.131	3963
448.202	3155
448.273	1948
448.344	2546
448.414	1486
448.485	2003
448.556	1364
448.627	1863
448.698	2201
448.768	1375
448.839	1633
448.910	2234
448.981	1947
449.051	1703
449.122	2061
449.193	1493
449.263	1163
449.334	1281
449.405	1640
449.475	3126
449.546	2708
449.616	3553
449.687	3882
449.758	2061
449.828	1898
449.899	1578
449.969	1259
450.040	1674
450.110	1718
450.181	2164
450.251	1860
450.322	1254
450.392	2440
450.463	1810
450.533	1666
450.604	2589
450.674	3035
450.744	4061
450.815	3418
450.885	4541
450.955	4339
451.026	3700
451.096	3465
451.166	3992
451.237	6286
451.307	8314
451.377	5871
451.447	3303
451.518	3840
451.588	2949
451.658	2960
451.728	3054
451.799	5378
451.869	5553
451.939	2946
452.009	2055
452.079	3268
452.149	4018
452.219	3743
452.289	6964
452.360	5951
452.430	4243
452.500	6816
452.570	12503
452.640	29036
452.710	60374
452.780	61300
452.850	36478
452.920	18357
452.990	11006
453.060	7952
453.129	5173
453.199	3977
453.269	8941
453.339	13356
453.409	17810
453.479	17248
453.549	23384
453.619	22075
453.688	9299
453.758	2674
453.828	2011
453.898	2365
453.968	2351
454.037	1922
454.087	2008
454.107	1992
454.168	1925
454.177	1859
454.247	2016
454.249	2045
454.316	1344
454.330	1616
454.386	2423
454.411	2823
454.456	3290
454.492	3635
454.525	3903
454.574	3171
454.595	2779
454.655	2132
454.665	1957
454.734	3154
454.736	3242
454.804	3740
454.817	4214
454.873	5916
454.898	6056
454.943	6124
454.979	5075
455.013	4051
455.060	3457
455.082	3151
455.141	3778
455.152	3886
455.221	5736
455.222	5871
455.291	9740
455.303	10731
455.360	14112
455.384	18115
455.430	23930
455.465	17898
455.499	12767
455.546	8823
455.569	6880
455.627	6259
455.638	6105
455.707	4060
455.708	4121
455.777	4556
455.789	4652
455.846	4870
455.869	4921
455.916	4683
455.950	4816
455.985	4962
456.031	4973
456.054	4863
456.112	5047
456.124	5038
456.193	4816
456.193	4749
456.262	5621
456.274	5805
456.332	6429
456.355	6406
456.401	6170
456.436	6115
456.470	5878
456.516	6627
456.540	6908
456.597	6679
456.609	6588
456.678	7716
456.678	7651
456.747	6941
456.759	7092
456.817	8114
456.840	8176
456.886	7851
456.920	8531
456.955	9192
457.001	9380
457.024	9367
457.082	9667
457.093	9613
457.162	10286
457.163	10361
457.232	11020
457.243	11136
457.301	11641
457.324	12073
457.370	12942
457.405	14197
457.439	15682
457.485	17096
457.508	18104
457.566	22480
457.577	24810
457.646	39932
457.647	40328
457.715	87329
457.727	97812
457.784	159130
457.808	196116
457.853	228330
457.889	246622
457.922	232664
457.969	179056
457.991	188805
458.050	236271
458.060	246040
458.129	375208
458.130	379166
458.198	313055
458.211	283952
458.267	173283
458.292	127577
458.336	106563
458.372	106204
458.405	143107
458.453	208889
458.474	250229
458.533	399786
458.543	406680
458.611	517533
458.614	519554
458.680	301742
458.694	244716
458.749	132932
458.775	95129
458.818	63892
458.855	49451
458.887	42136
458.936	34173
458.955	31979
459.016	27443
459.024	26963
459.093	24219
459.097	24102
459.162	20957
459.177	20648
459.230	20160
459.257	19836
459.299	19047
459.338	18478
459.368	18209
459.418	17887
459.437	17598
459.499	16519
459.505	16458
459.574	16679
459.579	16750
459.643	16531
459.659	16378
459.711	16715
459.740	17286
459.780	17216
459.820	16817
459.849	16610
459.900	16587
459.917	16483
459.981	16066
459.986	16045
460.054	15617
460.061	15785
460.123	16434
460.141	16329
460.191	16459
460.222	16388
460.260	16417
460.302	16661
460.328	16698
460.382	17326
460.397	17882
460.462	19987
460.465	20632
460.534	36568
460.543	38651
460.602	72128
460.623	85390
460.671	124200
460.703	157509
460.739	128747
460.783	78690
460.808	65556
460.864	24717
460.876	21566
460.944	17483
460.945	17430
461.013	17014
461.024	16996
461.081	16860
461.104	16871
461.150	16929
461.184	17039
461.218	17126
461.264	17223
461.286	17020
461.345	16634
461.355	16546
461.423	15713
461.425	15704
461.491	16056
461.505	16146
461.559	16625
461.585	16863
461.628	17648
461.665	18528
461.696	18759
461.745	19673
461.764	19636
461.825	17817
461.832	17768
461.901	17208
461.905	17245
461.969	16943
461.985	16811
462.037	17364
462.065	17727
462.105	17384
462.145	17087
462.173	17369
462.225	17640
462.241	17994
462.305	20032
462.310	20093
462.378	20494
462.385	20510
462.446	19602
462.465	19325
462.514	18597
462.545	18204
462.582	18060
462.625	17599
462.650	17456
462.705	17648
462.718	17725
462.785	17831
462.786	17833
462.854	17279
462.865	17212
462.922	18117
462.945	18577
462.990	18306
463.025	17859
463.058	17980
463.104	18040
463.126	18026
463.184	17938
463.194	17982
463.262	18431
463.264	18433
463.330	18339
463.344	18335
463.398	19196
463.424	19360
463.466	18293
463.504	17600
463.533	18138
463.583	18857
463.601	18813
463.663	18547
463.669	18544
463.737	18476
463.743	18458
463.805	20443
463.823	20907
463.873	21525
463.903	22070
463.940	21942
463.982	21813
464.008	21391
464.062	19874
464.076	19818
464.142	19651
464.144	19653
464.211	18613
464.221	18500
464.279	19437
464.301	19803
464.347	19994
464.381	19996
464.414	19545
464.461	18906
464.482	19304
464.540	20290
464.550	20233
464.617	19563
464.620	19511
464.685	20587
464.699	20847
464.753	21414
464.779	21589
464.820	22232
464.859	22795
464.888	22006
464.938	20671
464.956	21150
465.018	22413
465.023	22361
465.091	21290
465.098	21164
465.158	22067
465.177	22317
465.226	21857
465.257	21429
465.293	21885
465.336	22364
465.361	22503
465.416	22738
465.428	22789
465.495	22922
465.496	22965
465.563	23466
465.575	23559
465.631	24720
465.654	25192
465.698	23766
465.734	22326
465.765	22377
465.813	22307
465.833	22172
465.893	21839
465.900	21959
465.968	22658
465.972	22656
466.035	22732
466.052	22722
466.102	22759
466.131	22701
466.170	22765
466.210	22715
466.237	22766
466.290	22822
466.304	22811
466.369	22471
466.372	22525
466.439	22859
466.449	22849
466.506	23373
466.528	23529
466.573	24357
466.607	24886
466.641	26175
466.687	27943
466.708	28560
466.766	29978
466.775	29473
466.842	25252
466.845	25000
466.909	25460
466.925	25521
466.977	26167
467.004	26436
467.044	27585
467.083	28631
467.111	28966
467.163	29421
467.178	29807
467.242	31082
467.245	31118
467.312	30530
467.321	30387
467.379	29761
467.400	29441
467.446	30788
467.480	31648
467.559	32580
467.638	33116
467.717	34270
467.796	35426
467.875	38263
467.955	40623
468.034	46956
468.113	55538
468.192	68411
468.271	77961
468.350	103223
468.429	124679
468.508	118619
468.588	81136
468.667	57880
468.746	47343
468.825	42298
468.904	37902
468.983	35828
469.062	35636
469.141	34085
469.220	31070
469.299	31067
469.378	30264
469.456	32818
469.535	31002
469.614	31197
469.693	30475
469.772	30860
469.851	31127
469.930	31058
470.009	29845
470.088	31509
470.166	32252
470.245	35266
470.324	33627
470.403	33127
470.482	31848
470.560	30846
470.639	29912
470.718	30611
470.797	28300
470.875	29133
470.954	28584
471.033	29315
471.111	27457
471.190	27352
471.269	27071
471.347	27545
471.426	27585
471.505	28690
471.583	29076
471.662	29567
471.740	27877
471.819	27504
471.898	28066
471.976	28843
472.055	27158
472.133	31051
472.212	32350
472.290	28123
472.369	27163
472.447	28033
472.526	27786
472.604	27973
472.683	27387
472.761	27613
472.839	28448
472.918	29248
472.996	28370
473.075	30358
473.153	29503
473.231	29723
473.310	29729
473.388	31218
473.466	30567
473.545	31352
473.623	31449
473.701	31618
473.780	31182
473.858	30359
473.936	32031
474.014	30997
474.093	33748
474.171	34173
474.249	32675
474.327	31162
474.405	30196
474.484	30747
474.562	30109
474.640	29555
474.718	29127
474.796	29384
474.874	28715
474.952	27957
475.030	27989
475.108	29205
475.187	28028
475.265	28411
475.343	29427
475.421	29047
475.499	27524
475.577	28302
475.655	29053
475.733	30509
475.811	31067
475.889	30724
475.966	28624
476.044	26236
476.122	26985
476.200	28904
476.278	25913
476.356	26637
476.434	26920
476.512	28471
476.590	28350
476.667	27596
476.745	26591
476.823	27676
476.901	27133
476.979	27044
477.056	26798
477.134	27313
477.212	25993
477.290	27711
477.367	26840
477.445	26697
477.523	25513
477.601	26333
477.678	25677
477.756	26683
477.834	26061
477.911	26590
477.989	26123
478.066	27084
478.144	27026
478.222	27310
478.299	28821
478.377	30644
478.454	28538
478.532	26830
478.609	26765
478.687	27617
478.764	25730
478.842	27468
478.919	25717
478.997	27263
479.074	25873
479.152	27452
479.229	26882
479.307	25779
479.384	25850
479.461	26262
479.539	25766
479.616	27213
479.694	26652
479.771	27711
479.848	26094
479.926	26635
480.003	29159
480.080	28096
480.157	26166
480.235	27703
480.312	28549
480.389	29481
480.467	29708
480.544	32929
480.621	33444
480.698	34945
480.775	32149
480.853	31861
480.930	29699
481.007	31752
481.084	36694
481.161	45016
481.238	33753
481.315	30261
481.392	30558
481.470	32209
481.547	31835
481.624	32107
481.701	32432
481.778	35144
481.855	35297
481.932	38422
482.009	41619
482.086	44509
482.163	48155
482.240	51258
482.317	50871
482.393	46509
482.470	43716
482.547	44427
482.624	40202
482.701	39937
482.778	40259
482.855	40557
482.932	40969
483.009	44671
483.085	52222
483.162	59964
483.239	59740
483.316	56339
483.393	53921
483.469	47443
483.546	43642
483.623	41634
483.699	38269
483.776	36486
483.853	35441
483.930	37707
484.006	40436
484.083	44956
484.160	47256
484.236	56726
484.313	51985
484.389	51785
484.466	58062
484.543	67455
484.619	77190
484.696	74922
484.772	55329
484.849	48195
484.925	43633
485.002	43031
485.078	38993
485.155	37721
485.231	36135
485.308	35485
485.384	35478
485.461	37494
485.537	36879
485.614	38318
485.690	33384
485.766	33593
485.843	33287
485.919	34808
485.995	34723
486.072	34143
486.148	33708
486.224	34792
486.301	33643
486.377	34484
486.453	34840
486.530	38449
486.606	41981
486.682	42152
486.758	42360
486.835	45870
486.911	46350
486.987	50776
487.063	55397
487.139	66193
487.215	74182
487.292	78964
487.368	88888
487.444	110134
487.520	152775
487.596	258014
487.672	606484
487.748	1439691
487.824	1831158
487.900	763661
487.976	274092
488.052	151824
488.128	106204
488.204	79030
488.280	65099
488.356	58842
488.432	55275
488.508	53307
488.584	43664
488.660	43168
488.736	40167
488.812	37309
488.888	38352
488.964	39529
489.039	42319
489.115	46330
489.191	41241
489.267	35356
489.343	32156
489.418	32865
489.494	32916
489.570	30707
489.646	34276
489.722	34160
489.797	33387
489.873	36060
489.949	38239
490.024	37586
490.100	33939
490.176	34278
490.251	34332
490.327	34829
490.403	31952
490.478	31995
490.554	30348
490.629	31508
490.705	30284
490.781	31512
490.856	29880
490.932	30605
491.007	29728
491.083	30390
491.158	28832
491.234	29987
491.309	31585
491.385	30694
491.460	27534
491.536	28572
491.611	26209
491.686	27711
491.762	28427
491.837	30699
491.913	35058
491.988	37242
492.063	37456
492.139	27861
492.214	26129
492.289	25706
492.365	25519
492.440	26026
492.515	25482
492.590	27173
492.666	24782
492.741	26674
492.816	25399
492.891	25157
492.967	26071
493.042	26220
493.117	24559
493.192	27607
493.267	35757
493.342	61877
493.418	62995
493.493	27078
493.568	23613
493.643	24279
493.718	24463
493.793	24259
493.868	24233
493.943	24124
494.018	24144
494.093	24135
494.168	23422
494.243	22572
494.318	23580
494.393	23270
494.468	22764
494.543	23649
494.618	23105
494.693	22663
494.768	22944
494.842	23054
494.917	22211
494.992	23880
495.067	22494
495.142	22817
495.217	22414
495.292	22994
495.366	22895
495.441	23282
495.516	24942
495.591	26827
495.665	37489
495.740	49942
495.815	29382
495.890	23538
495.964	21961
496.039	26212
496.114	29226
496.188	37423
496.263	28385
496.338	22599
496.412	21909
496.487	24989
496.561	23526
496.636	23794
496.710	23208
496.785	24818
496.860	23008
496.934	22516
497.009	21942
497.083	21918
497.158	21874
497.232	22544
497.307	23357
497.381	22896
497.455	21743
497.530	24153
497.604	22375
497.679	23008
497.753	23280
497.827	23680
497.902	22801
497.976	25289
498.050	38328
498.125	80562
498.199	66803
498.273	25665
498.348	23193
498.422	22626
498.496	23120
498.570	24648
498.645	22618
498.719	22098
498.793	22324
498.867	24338
498.941	27945
499.016	48026
499.090	76807
499.164	36046
499.238	23321
499.312	23689
499.386	24875
499.460	25025
499.534	24457
499.609	26129
499.683	24518
499.757	26181
499.831	33308
499.905	58823
499.979	48095
500.053	25215
500.127	25439
500.201	24633
500.275	24528
500.349	25298
500.422	23898
500.496	25958
500.570	31355
500.644	45616
500.718	55365
500.792	29919
500.866	25783
500.940	25784
501.013	25363
501.087	26368
501.161	27166
501.235	28596
501.309	38575
501.382	55056
501.456	46019
501.530	29727
501.603	30860
501.677	25517
501.751	23386
501.825	25898
501.898	27483
501.972	33505
502.046	28705
502.119	24200
502.193	26481
502.266	32982
502.340	25925
502.413	28764
502.487	31923
502.561	27563
502.634	25848
502.708	25643
502.781	26482
502.855	26749
502.928	24401
503.002	26390
503.075	25273
503.149	26626
503.222	27350
503.295	29492
503.369	32471
503.442	36232
503.516	47452
503.589	64043
503.662	61757
503.736	66507
503.809	87506
503.882	115277
503.956	184465
504.029	384491
504.102	858367
504.175	1001300
504.249	446406
504.322	201002
504.395	118167
504.468	80321
504.542	58820
504.615	49022
504.688	42024
504.761	34719
504.834	34074
504.907	31595
504.980	30801
505.053	26626
505.127	24550
505.200	27324
505.273	23713
505.346	23213
505.419	22361
505.492	23974
505.565	22384
505.638	22329
505.711	19634
505.784	19621
505.857	18967
505.930	21529
506.003	18665
506.076	21497
506.149	18852
506.221	17751
506.294	20695
506.367	21559
506.440	31886
506.513	24319
506.586	18392
506.659	18516
506.731	17489
506.804	18309
506.877	17343
506.950	18095
507.022	18771
507.095	17377
507.168	17837
507.241	18588
507.313	15862
507.386	17199
507.459	17908
507.531	16857
507.604	16834
507.677	18972
507.749	15023
507.822	19252
507.894	20414
507.967	23327
508.040	19093
508.112	20964
508.185	18539
508.257	17308
508.330	20442
508.402	18769
508.475	19277
508.547	19620
508.620	18116
508.692	20022
508.765	18744
508.837	18785
508.909	17399
508.982	18026
509.054	18856
509.127	17049
509.199	17559
509.271	17362
509.344	17450
509.416	18554
509.488	17244
509.560	18048
509.633	18065
509.705	19752
509.777	18556
509.849	19755
509.922	18170
509.994	19292
510.066	19797
510.138	19516
510.210	25069
510.283	21827
510.355	20102
510.427	20547
510.499	19583
510.571	18846
510.643	17681
510.715	21582
510.787	16949
510.859	19936
510.931	18455
511.003	20945
511.076	19638
511.148	19206
511.219	19065
511.291	20626
511.363	20286
511.435	20424
511.507	17700
511.579	20472
511.651	19418
511.723	18596
511.795	17507
511.867	18250
511.939	18232
512.010	19066
512.082	19482
512.154	17250
512.226	18986
512.298	22523
512.369	22329
512.441	21487
512.513	20605
512.585	17868
512.656	20478
512.728	19989
512.800	17924
512.871	20024
512.943	19044
513.015	18823
513.086	19034
513.158	19644
513.230	17570
513.301	19102
513.373	20227
513.444	19072
513.516	18792
513.588	18207
513.659	20218
513.731	19716
513.802	17910
513.874	23315
513.945	21945
514.016	17973
514.088	19382
514.159	18157
514.231	20857
514.302	20772
514.374	21038
514.445	18188
514.516	22651
514.588	20183
514.659	19340
514.730	20514
514.802	20111
514.873	17278
514.944	20657
515.016	19454
515.087	17830
515.158	19662
515.229	20958
515.301	19506
515.372	18949
515.443	19013
515.514	19235
515.585	18623
515.656	21113
515.728	20604
515.799	18468
515.870	20762
515.941	21069
516.012	19707
516.083	23297
516.154	21553
516.225	23362
516.296	23723
516.367	21958
516.438	23642
516.509	25877
516.580	33021
516.651	72754
516.722	147295
516.793	55336
516.864	28208
516.935	28761
517.006	31623
517.077	36805
517.148	75316
517.219	248940
517.289	255941
517.360	56385
517.431	34087
517.502	26613
517.573	28763
517.643	27683
517.714	30134
517.785	32697
517.856	35836
517.926	40213
517.997	43390
518.068	47862
518.138	60471
518.209	88152
518.280	241374
518.350	542889
518.421	199996
518.492	116550
518.562	146735
518.633	208617
518.703	354719
518.774	764953
518.845	1399851
518.915	1016805
518.986	375367
519.056	182780
519.127	122058
519.197	93430
519.268	80391
519.338	61560
519.408	46525
519.479	41597
519.549	36429
519.620	34826
519.690	30990
519.760	29906
519.831	28146
519.901	26024
519.971	26896
520.042	24306
520.112	25412
520.182	24607
520.253	24623
520.323	22990
520.393	23833
520.463	26764
520.534	20702
520.604	27606
520.674	23185
520.744	22351
520.814	27925
520.885	25498
520.955	26943
521.025	38888
521.095	25779
521.165	22981
521.235	21103
521.305	20753
521.375	22660
521.445	21796
521.515	21318
521.585	23070
521.655	20672
521.725	21807
521.795	22379
521.865	18680
521.935	24222
522.005	20051
522.075	20212
522.145	21931
522.215	21519
522.285	22045
522.355	22983
522.424	26681
522.494	24486
522.564	22389
522.634	27029
522.704	33862
522.774	22359
522.843	22228
522.913	22631
522.983	22475
523.053	21299
523.122	23166
523.192	22428
523.262	27429
523.331	25135
523.401	22516
523.471	22487
523.540	22314
523.610	22802
523.680	23921
523.749	24726
523.819	27119
523.888	26688
523.958	24416
524.027	24011
524.097	23756
524.166	24348
524.236	23352
524.305	26074
524.375	23047
524.444	24073
524.514	26578
524.583	25565
524.653	24839
524.722	26623
524.791	24124
524.861	28639
524.930	27192
524.999	28554
525.069	29479
525.138	30666
525.207	32354
525.277	34938
525.346	37675
525.415	42953
525.484	47214
525.554	54438
525.623	66784
525.692	79666
525.761	89933
525.830	111432
525.900	152157
525.969	265899
526.038	497280
526.107	1112672
526.176	2083435
526.245	1353763
526.314	609657
526.383	1341174
526.452	1438417
526.522	1924268
526.591	1312064
526.660	335542
526.729	219478
526.797	242649
526.867	410501
526.935	1134857
527.004	2274781
527.073	1273829
527.142	300177
527.211	145006
527.280	97305
527.349	75638
527.418	58253
527.487	52066
527.555	43436
527.624	39313
527.693	35067
527.762	36937
527.831	32917
527.899	32790
527.968	29698
528.037	27847
528.106	27836
528.174	28725
528.243	27622
528.312	29309
528.380	28279
528.449	25323
528.518	26545
528.586	24368
528.655	26258
528.723	25534
528.792	24748
528.861	26233
528.929	23013
528.998	26747
529.066	29896
529.135	36170
529.203	34395
529.272	42903
529.340	44388
529.409	42635
529.477	38567
529.545	39414
529.614	44278
529.682	47367
529.751	48749
529.819	55895
529.887	56216
529.956	51907
530.024	50382
530.092	48545
530.161	48765
530.229	50861
530.297	52252
530.365	52261
530.434	55971
530.502	53803
530.570	48663
530.638	46247
530.707	44818
530.775	45063
530.843	46506
530.911	50514
530.979	49558
531.047	55540
531.115	50373
531.183	48128
531.252	47083
531.320	45821
531.388	44933
531.456	52714
531.524	50935
531.592	55659
531.660	59258
531.728	54081
531.796	52029
531.864	51544
531.932	51858
532.000	52255
532.067	56104
532.135	59000
532.203	63271
532.271	65606
532.339	67859
532.407	68194
532.475	61793
532.542	59148
532.610	59595
532.678	63332
532.746	77799
532.814	87624
532.881	67545
532.949	63353
533.017	59024
533.084	57156
533.152	55226
533.220	54904
533.287	56458
533.355	58944
533.423	58893
533.490	61228
533.558	59570
533.625	58774
533.693	56718
533.761	56192
533.828	56163
533.896	56827
533.963	64871
534.031	67991
534.098	75403
534.166	77115
534.233	73187
534.300	78839
534.368	77899
534.435	76626
534.503	79466
534.570	87239
534.637	94207
534.705	107276
534.772	143556
534.840	330364
534.907	1144785
534.974	850192
535.041	149988
535.109	86977
535.176	73408
535.243	71322
535.310	67247
535.378	64465
535.445	64227
535.512	62758
535.579	60322
535.646	60536
535.714	62436
535.781	65178
535.848	65684
535.915	64985
535.982	65527
536.049	62342
536.116	62281
536.183	57178
536.250	54759
536.317	56949
536.384	59029
536.451	61592
536.518	61688
536.585	58908
536.652	61854
536.719	61548
536.786	55696
536.853	56929
536.920	58587
536.987	60037
537.053	56859
537.120	71005
537.187	67676
537.254	63236
537.321	61144
537.388	62237
537.454	60035
537.521	59566
537.588	58274
537.654	60005
537.721	63441
537.788	61304
537.855	59671
537.921	60965
537.988	59185
538.055	56265
538.121	52614
538.188	51940
538.254	51024
538.321	52883
538.388	57585
538.454	63507
538.521	62150
538.587	62424
538.654	59199
538.720	58775
538.787	58571
538.853	58073
538.920	54045
538.986	51550
539.053	51597
539.119	54522
539.185	53847
539.252	57782
539.318	59086
539.385	65350
539.451	59049
539.517	57648
539.583	57143
539.650	60081
539.716	61557
539.782	54905
539.849	53171
539.915	54087
539.981	54029
540.047	53355
540.114	53420
540.180	57547
540.246	59477
540.312	61036
540.378	60584
540.444	60067
540.510	62930
540.576	66023
540.643	55305
540.709	53829
540.775	55628
540.841	52529
540.907	53989
540.973	57220
541.039	54221
541.105	56672
541.171	59563
541.237	60962
541.303	57796
541.369	60226
541.435	58856
541.500	57402
541.566	50759
541.632	52764
541.698	54442
541.764	57100
541.830	54373
541.896	55384
541.961	54176
542.027	55035
542.093	61076
542.159	59479
542.224	55015
542.290	58176
542.356	55084
542.421	55370
542.487	51036
542.553	51685
542.618	52679
542.684	53073
542.750	54468
542.815	56107
542.881	56766
542.947	66056
543.012	58345
543.078	52168
543.143	51240
543.209	54447
543.274	50521
543.340	54002
543.405	57482
543.471	60048
543.536	55904
543.602	55565
543.667	53654
543.732	58008
543.798	54561
543.863	57171
543.928	56358
543.994	55471
544.059	57887
544.124	60343
544.190	59427
544.255	61496
544.320	60683
544.386	59798
544.451	61320
544.516	60530
544.581	60818
544.646	67626
544.712	68473
544.777	63680
544.842	62059
544.907	62665
544.972	62980
545.037	65707
545.102	67050
545.168	67228
545.233	67244
545.298	68713
545.363	69126
545.428	72416
545.493	75732
545.558	74197
545.623	72332
545.688	72263
545.753	77012
545.818	78685
545.883	84136
545.947	84675
546.012	86934
546.077	89604
546.142	94245
546.207	96794
546.272	102729
546.337	103262
546.401	108366
546.466	112456
546.531	116413
546.596	125766
546.661	128393
546.725	135367
546.790	145866
546.855	157568
546.919	175175
546.984	187825
547.049	205160
547.113	232467
547.178	257045
547.243	290863
547.307	334453
547.372	361083
547.436	357235
547.501	386744
547.565	395480
547.630	358214
547.695	354927
547.759	357351
547.823	362422
547.888	371051
547.952	379061
548.017	396208
548.081	401107
548.146	394468
548.210	411680
548.274	443127
548.339	415434
548.403	383545
548.468	366956
548.532	365884
548.596	373328
548.660	378001
548.725	414144
548.789	438378
548.853	414568
548.917	406341
548.982	383013
549.046	349905
549.110	319759
549.174	347995
549.238	403326
549.303	428800
549.367	426558
549.431	403364
549.495	385606
549.559	395405
549.623	467818
549.687	476092
549.751	490978
549.815	576721
549.879	555401
549.943	550176
550.007	573463
550.071	549985
550.135	494446
550.199	485262
550.263	465485
550.327	447759
550.391	472091
550.455	521685
550.519	545714
550.582	584514
550.646	644077
550.710	643585
550.774	636799
550.838	649986
550.901	675700
550.965	714859
551.029	756302
551.093	816092
551.156	898971
551.220	987533
551.284	956799
551.347	776252
551.411	687816
551.475	669838
551.538	676550
551.602	619507
551.666	592752
551.729	559251
551.793	546351
551.856	534226
551.920	528385
551.983	528619
552.047	520546
552.110	526943
552.174	536637
552.237	534819
552.301	494019
552.364	479070
552.428	466994
552.491	487776
552.554	487290
552.618	489243
552.681	491051
552.745	474455
552.808	497931
552.871	515675
552.934	501764
552.998	484303
553.061	474104
553.124	454335
553.187	462644
553.251	473388
553.314	468718
553.377	479052
553.440	514290
553.503	548638
553.567	539918
553.630	507053
553.693	499750
553.756	499813
553.819	482843
553.882	462967
553.945	472532
554.008	471643
554.071	480357
554.134	469889
554.197	441432
554.260	438360
554.323	444959
554.386	458344
554.449	478633
554.512	468853
554.575	452889
554.638	452452
554.701	448397
554.764	438056
554.827	424104
554.889	409236
554.952	387044
555.015	386451
555.078	393656
555.141	395363
555.203	384328
555.266	387367
555.329	379957
555.391	366550
555.454	361254
555.517	352551
555.580	337819
555.642	330131
555.705	322910
555.768	321326
555.830	307919
555.893	294598
555.955	289867
556.018	285945
556.080	288526
556.143	297917
556.206	287808
556.268	284353
556.330	277672
556.393	272205
556.455	264988
556.518	258451
556.580	248443
556.643	242369
556.705	239030
556.767	234534
556.830	231191
556.892	226964
556.955	224647
557.017	219017
557.079	219889
557.142	213483
557.204	214256
557.266	214842
557.328	194601
557.391	185722
557.453	182346
557.515	183320
557.577	187813
557.639	187973
557.701	189029
557.764	188613
557.826	192995
557.888	200015
557.950	206330
558.012	235025
558.074	333507
558.136	790025
558.198	1175490
558.260	376680
558.322	222571
558.384	215200
558.446	220211
558.508	237034
558.570	262227
558.632	309537
558.694	420148
558.756	771974
558.818	1760472
558.880	2252756
558.942	1317671
559.003	1341025
559.065	536099
559.127	291160
559.189	275310
559.251	315870
559.312	493159
559.374	1142622
559.436	1966349
559.498	892495
559.559	333657
559.621	277123
559.683	332126
559.744	594884
559.806	1480546
559.868	1375159
559.929	406647
559.991	335836
560.052	635452
560.114	1264453
560.176	678877
560.237	934535
560.299	937509
560.360	217233
560.422	125358
560.483	108073
560.545	99005
560.606	95723
560.667	90257
560.729	86670
560.790	81780
560.852	79562
560.913	76959
560.974	74367
561.036	74329
561.097	75131
561.158	73092
561.220	71949
561.281	68097
561.342	67851
561.403	68127
561.465	68080
561.526	68817
561.587	68589
561.648	63120
561.709	63070
561.771	60773
561.832	60594
561.893	60090
561.954	59561
562.015	57330
562.076	57275
562.137	56711
562.198	55387
562.259	56805
562.320	58279
562.381	57013
562.442	57984
562.503	54239
562.564	53852
562.625	52874
562.686	52727
562.747	53062
562.808	50987
562.869	50570
562.930	51754
562.991	48490
563.051	49875
563.112	48576
563.173	49766
563.234	47466
563.294	47678
563.355	47718
563.416	47335
563.477	46544
563.537	47325
563.598	46692
563.659	46890
563.720	45838
563.780	46871
563.841	45732
563.901	46735
563.962	45044
564.023	46216
564.083	44716
564.144	44525
564.204	44313
564.265	44018
564.325	42867
564.386	45979
564.446	44760
564.507	41956
564.567	41873
564.628	42276
564.688	41428
564.749	41961
564.809	41280
564.869	42803
564.930	41713
564.990	41662
565.050	41085
565.111	42517
565.171	40880
565.231	41943
565.292	41481
565.352	41114
565.412	40367
565.472	41995
565.532	40645
565.593	40672
565.653	39640
565.713	40146
565.773	40902
565.833	43757
565.893	42854
565.953	38392
566.013	38996
566.074	38992
566.134	38392
566.194	38573
566.254	39822
566.314	39386
566.374	37164
566.434	37824
566.494	38750
566.554	38330
566.614	38792
566.673	39956
566.733	40112
566.793	40216
566.853	40763
566.913	40327
566.973	40221
567.033	40155
567.092	39668
567.152	40499
567.212	40490
567.272	41166
567.331	41137
567.391	43062
567.451	42716
567.511	44907
567.570	43298
567.630	41764
567.690	39047
567.749	40182
567.809	39594
567.868	40474
567.928	39594
567.988	40362
568.047	39848
568.107	40938
568.166	40521
568.226	40461
568.285	41409
568.345	41988
568.404	42241
568.464	40898
568.523	39661
568.582	41904
568.642	39978
568.701	38822
568.761	38134
568.820	37490
568.879	37732
568.939	41438
568.998	40258
569.057	39356
569.116	39242
569.176	40297
569.235	39098
569.294	39746
569.353	37780
569.413	38102
569.472	37349
569.531	37375
569.590	35961
569.649	37713
569.708	36712
569.767	39271
569.827	37625
569.886	37609
569.945	37092
570.004	39423
570.063	38338
570.122	39642
570.181	40334
570.240	40978
570.299	40290
570.358	40842
570.417	39480
570.475	40557
570.534	39794
570.593	40374
570.652	41843
570.711	41520
570.770	39609
570.829	40019
570.887	40389
570.946	41638
571.005	40527
571.064	41270
571.122	40018
571.181	40735
571.240	38873
571.299	39812
571.357	38233
571.416	38710
571.475	39899
571.533	43054
571.592	41808
571.650	43144
571.709	46376
571.768	51481
571.826	52076
571.885	46896
571.943	42210
572.002	40790
572.060	38229
572.119	38554
572.177	39543
572.236	38941
572.294	40800
572.352	43873
572.411	42530
572.469	40510
572.528	38991
572.586	36334
572.644	37374
572.703	38815
572.761	37227
572.819	36057
572.877	35722
572.936	35677
572.994	35206
573.052	36161
573.110	37706
573.169	39498
573.227	38739
573.285	37684
573.343	38059
573.401	37846
573.459	38503
573.517	39088
573.576	40746
573.634	39744
573.692	40527
573.750	40234
573.808	37446
573.866	36950
573.924	36686
573.982	36746
574.040	36829
574.098	37333
574.155	34255
574.213	36026
574.271	38129
574.329	41207
574.387	37849
574.445	34998
574.503	33526
574.560	34052
574.618	35005
574.676	35829
574.734	34487
574.792	33375
574.849	31350
574.907	30365
574.965	28693
575.022	28648
575.080	28048
575.138	28203
575.195	28462
575.253	26420
575.311	27521
575.368	27943
575.426	26321
575.483	28871
575.541	30000
575.598	29310
575.656	29093
575.713	31261
575.771	32915
575.828	30253
575.886	28241
575.943	29053
576.001	26711
576.058	27716
576.115	27431
576.173	28678
576.230	29790
576.287	29878
576.345	27555
576.402	31720
576.459	30450
576.517	29110
576.574	26244
576.631	26939
576.688	25333
576.746	26198
576.803	25897
576.860	25481
576.917	26964
576.974	27865
577.031	27181
577.089	26896
577.146	24832
577.203	24886
577.260	24698
577.317	25829
577.374	24216
577.431	25287
577.488	24976
577.545	25253
577.602	25433
577.659	25964
577.716	25638
577.773	27729
577.830	25164
577.886	24713
577.943	23877
578.000	25594
578.057	24572
578.114	25846
578.171	27810
578.227	31070
578.284	28488
578.341	28488
578.398	26995
578.454	26327
578.511	26114
578.568	27235
578.625	25238
578.681	25009
578.738	25211
578.794	24955
578.851	23966
578.908	26114
578.964	25583
579.021	25158
579.077	25716
579.134	26325
579.190	25598
579.247	25406
579.303	24001
579.360	25531
579.416	24612
579.473	25806
579.529	25800
579.586	25394
579.642	26301
579.698	27339
579.755	26080
579.811	26842
579.867	26331
579.924	27559
579.980	27690
580.036	29155
580.093	32155
580.149	39109
580.205	36598
580.261	33268
580.317	31880
580.374	31058
580.430	30214
580.486	28842
580.542	28286
580.598	29823
580.619	29834
580.654	29890
580.692	30116
580.710	30299
580.765	29546
580.767	29562
580.823	30625
580.838	30794
580.879	31401
580.911	31155
580.935	31023
580.984	29956
580.991	29865
581.047	30499
581.057	30215
581.103	29087
581.130	30125
581.159	31300
581.203	30163
581.215	29898
581.270	29709
581.276	29499
581.326	27821
581.349	28510
581.382	29585
581.422	28500
581.438	28109
581.494	28574
581.494	28534
581.550	27174
581.567	27360
581.606	27894
581.640	27339
581.661	27009
581.713	28445
581.717	28592
581.773	27712
581.786	27856
581.829	28360
581.859	28255
581.885	28287
581.932	28308
581.940	28313
581.996	28956
582.004	28988
582.052	29242
582.077	29106
582.107	29046
582.150	28383
582.163	28219
582.219	27625
582.223	27626
582.274	27712
582.296	27981
582.330	28518
582.368	29208
582.386	29577
582.441	28837
582.441	28849
582.497	28961
582.514	28537
582.552	27761
582.587	28894
582.608	29576
582.659	28975
582.663	28928
582.719	30397
582.732	30109
582.774	29439
582.805	29694
582.830	29911
582.877	31072
582.885	31284
582.941	33139
582.950	33319
582.996	34148
583.023	35238
583.052	36672
583.095	37247
583.107	37327
583.162	36894
583.168	36797
583.218	35788
583.240	34714
583.273	33035
583.313	31428
583.328	30926
583.384	30284
583.385	30255
583.439	29070
583.458	29025
583.494	29175
583.531	28252
583.549	27719
583.603	28231
583.605	28246
583.660	27585
583.676	27867
583.715	28612
583.748	27841
583.770	27338
583.820	27824
583.825	27830
583.881	26983
583.893	26853
583.936	26981
583.965	27196
583.991	27011
584.038	27473
584.046	27601
584.101	27531
584.110	27701
584.156	28587
584.183	28377
584.211	28060
584.255	28610
584.266	28706
584.321	28313
584.328	28421
584.376	29436
584.400	29686
584.431	29755
584.472	29985
584.486	30121
584.541	30911
584.545	30986
584.596	31852
584.617	31829
584.651	32031
584.689	33671
584.706	34164
584.761	34552
584.762	34583
584.816	35672
584.834	36233
584.871	37240
584.906	38703
584.926	39581
584.978	40989
584.980	41007
585.035	43906
585.051	44847
585.090	47838
585.123	50969
585.145	52743
585.195	56582
585.200	57019
585.254	65021
585.267	67481
585.309	75616
585.340	82616
585.364	88356
585.412	102958
585.419	105197
585.473	134164
585.484	144193
585.528	191460
585.556	247038
585.583	322278
585.628	524086
585.637	582827
585.692	1122006
585.700	1172795
585.747	1331852
585.772	1123746
585.801	729398
585.845	320058
585.856	258043
585.910	133518
585.917	123660
585.965	91031
585.989	80568
586.019	70976
586.061	62586
586.074	60313
586.128	54301
586.133	53869
586.183	48967
586.205	47677
586.237	46103
586.277	44149
586.292	43247
586.346	42626
586.349	42577
586.401	41099
586.421	41058
586.455	41039
586.493	40850
586.509	41041
586.564	42649
586.565	42777
586.618	46665
586.637	48407
586.672	51130
586.709	56147
586.727	58523
586.781	62229
586.781	62135
586.835	48812
586.853	46209
586.889	41343
586.925	37782
586.944	36730
586.996	36215
586.998	36144
587.052	35724
587.068	35721
587.106	35344
587.140	34808
587.161	34597
587.212	35657
587.215	35638
587.269	34952
587.284	35152
587.323	35412
587.356	35958
587.377	36301
587.427	36784
587.431	36731
587.485	36882
587.499	36987
587.539	37347
587.571	38406
587.593	39041
587.643	40346
587.648	40378
587.702	40593
587.715	40807
587.755	40541
587.786	40415
587.810	40427
587.858	41066
587.864	41014
587.917	40901
587.930	40908
587.971	41180
588.001	41543
588.025	41154
588.073	40803
588.079	40726
588.133	40724
588.145	40895
588.187	41308
588.217	41330
588.241	41685
588.288	43741
588.295	43862
588.348	44952
588.360	45169
588.402	45851
588.431	46830
588.456	47095
588.503	48291
588.510	48712
588.564	52875
588.575	53979
588.617	56449
588.646	58214
588.671	60429
588.718	66309
588.725	67677
588.778	83326
588.789	88010
588.832	133793
588.861	172944
588.886	256743
588.932	447982
588.939	468545
588.993	567753
589.004	566763
589.047	286590
589.075	134751
589.100	104277
589.147	63089
589.154	62167
589.207	57012
589.218	56358
589.261	57322
589.290	58756
589.314	60242
589.361	65618
589.368	68047
589.421	92748
589.433	99793
589.475	177980
589.504	244411
589.528	332538
589.576	495035
589.582	477719
589.635	230868
589.647	186699
589.689	103296
589.718	52378
589.742	48893
589.790	43254
589.795	42979
589.849	41970
589.861	41951
589.902	41802
589.932	41443
589.955	40291
590.004	38569
590.009	38330
590.062	36581
590.075	36407
590.115	36172
590.146	36044
590.168	35651
590.218	35400
590.222	35374
590.275	36759
590.289	37236
590.328	37729
590.360	38170
590.381	37830
590.431	37494
590.435	37365
590.488	37572
590.503	37714
590.541	38023
590.574	38498
590.594	38327
590.645	38969
590.647	38881
590.700	40080
590.716	40668
590.753	41290
590.787	42138
590.806	42299
590.859	43128
590.859	42970
590.912	42872
590.930	43160
590.965	43240
591.001	43599
591.018	43170
591.071	41925
591.072	42081
591.124	41465
591.143	41500
591.177	41275
591.214	41454
591.230	41526
591.283	42434
591.285	42625
591.336	41722
591.356	41795
591.389	41643
591.427	41660
591.442	41004
591.495	39261
591.498	39315
591.547	40113
591.569	40865
591.600	40817
591.640	41018
591.653	40917
591.706	41391
591.711	41629
591.759	42680
591.782	43698
591.811	44840
591.853	46681
591.864	46096
591.917	44195
591.924	44111
591.969	44027
591.995	44478
592.022	44226
592.066	44232
592.075	44407
592.127	47023
592.137	47699
592.180	47515
592.208	47824
592.233	47634
592.279	47926
592.285	47728
592.338	48132
592.350	48465
592.390	48464
592.421	48920
592.443	48904
592.491	49687
592.495	49439
592.548	49555
592.562	49844
592.600	49447
592.633	49607
592.653	49241
592.704	48719
592.705	49009
592.775	50043
592.846	52492
592.916	50897
592.987	52055
593.058	52973
593.128	53148
593.199	53266
593.270	53883
593.341	52953
593.411	56381
593.482	57967
593.553	60030
593.623	58533
593.694	62457
593.764	63339
593.835	62090
593.906	62755
593.976	64816
594.047	65248
594.117	70842
594.188	71265
594.258	71284
594.329	70872
594.399	72320
594.470	74380
594.540	76568
594.611	78637
594.681	78271
594.751	77579
594.822	82186
594.892	85675
594.963	86879
595.033	87644
595.103	91257
595.174	92648
595.244	97570
595.314	101767
595.384	100437
595.455	101418
595.525	105865
595.595	109446
595.665	108745
595.736	106519
595.806	110346
595.876	110542
595.946	110657
596.016	115442
596.087	120104
596.157	119733
596.227	121319
596.297	126329
596.367	135935
596.437	142744
596.507	144178
596.577	145154
596.647	147630
596.717	154119
596.787	156684
596.857	155750
596.927	158555
596.997	159180
597.067	160140
597.137	163857
597.207	164623
597.277	163040
597.347	159896
597.417	154491
597.487	154960
597.557	156844
597.626	163368
597.696	163524
597.766	164125
597.836	156425
597.906	147860
597.975	143781
598.045	147411
598.115	153941
598.185	163742
598.254	184497
598.324	197846
598.394	200026
598.464	195578
598.533	191042
598.603	181440
598.672	176058
598.742	181885
598.812	180876
598.881	185419
598.951	184162
599.020	187120
599.090	193850
599.159	197643
599.229	190510
599.299	186045
599.368	192209
599.437	189632
599.507	176116
599.576	170124
599.646	167761
599.715	167201
599.785	166208
599.854	162751
599.924	159312
599.993	160261
600.062	163336
600.132	167780
600.201	177300
600.270	203807
600.340	214286
600.409	209803
600.478	209353
600.547	214094
600.617	196115
600.686	161539
600.755	149160
600.824	142507
600.894	139324
600.963	140896
601.032	139681
601.101	137515
601.170	132475
601.239	130795
601.308	130754
601.378	131542
601.447	134191
601.516	135145
601.585	137657
601.654	140348
601.723	140409
601.792	145153
601.861	150878
601.930	155325
601.999	157280
602.068	156768
602.137	158680
602.206	159932
602.275	162170
602.343	165870
602.412	164101
602.481	168232
602.550	167938
602.619	172213
602.688	173329
602.756	176232
602.825	174781
602.894	182023
602.963	181028
603.032	186805
603.100	184885
603.169	185267
603.238	187228
603.307	185202
603.375	187616
603.444	193250
603.513	191931
603.581	195080
603.650	197857
603.719	188740
603.787	188490
603.856	194164
603.924	197855
603.993	206262
604.061	212214
604.130	220868
604.198	225045
604.267	228834
604.335	232096
604.404	235738
604.472	238694
604.541	239076
604.609	243300
604.678	246395
604.746	248519
604.815	258285
604.883	256843
604.951	255918
605.020	259961
605.088	259222
605.156	259129
605.225	265357
605.293	261974
605.361	263431
605.429	265783
605.498	271408
605.566	275988
605.634	288547
605.702	297043
605.771	304156
605.839	305528
605.907	298095
605.975	289282
606.043	283662
606.111	279700
606.180	285555
606.248	275445
606.316	275913
606.384	277448
606.452	268431
606.520	267516
606.588	277165
606.656	276989
606.724	270264
606.792	254592
606.860	231252
606.928	211712
606.996	206458
607.064	202465
607.132	206802
607.200	218473
607.267	227478
607.335	230499
607.403	235714
607.471	224744
607.539	220450
607.607	222005
607.674	195793
607.742	197573
607.810	194179
607.878	195115
607.946	200452
608.013	208367
608.081	213003
608.149	213324
608.216	221886
608.284	227397
608.352	228325
608.419	224690
608.487	221856
608.555	216233
608.622	225316
608.690	238815
608.757	258581
608.825	266147
608.893	258671
608.960	243980
609.028	235493
609.095	233899
609.163	234731
609.230	208691
609.298	193068
609.365	202256
609.432	218839
609.500	235392
609.567	268854
609.635	305536
609.702	320013
609.769	305614
609.837	243981
609.904	215404
609.971	231185
610.039	263428
610.106	345492
610.173	632437
610.241	1361148
610.308	832977
610.375	323338
610.442	244485
610.509	225518
610.577	220588
610.644	222091
610.711	228748
610.778	234829
610.845	243127
610.912	257744
610.980	269012
611.047	272390
611.114	262891
611.181	253127
611.248	252970
611.315	266811
611.382	275455
611.449	281813
611.516	287551
611.583	285502
611.650	289122
611.717	295396
611.784	303251
611.851	319621
611.918	348871
611.984	414647
612.051	571948
612.118	1049614
612.185	2194814
612.252	1521777
612.319	519412
612.386	399948
612.452	356703
612.519	333299
612.586	321423
612.653	325219
612.719	335252
612.786	322586
612.853	297516
612.919	291975
612.986	296504
613.053	279509
613.120	262533
613.186	252733
613.253	255583
613.319	254301
613.386	256417
613.453	262338
613.519	261339
613.586	257193
613.652	261023
613.719	260331
613.785	262284
613.852	266078
613.918	262724
613.985	269323
614.051	279431
614.118	290632
614.184	279215
614.250	263763
614.317	268615
614.383	264013
614.449	268998
614.516	268581
614.582	268460
614.648	264177
614.715	262006
614.781	257926
614.847	255876
614.914	254783
614.980	247540
615.046	251590
615.112	257463
615.179	258366
615.245	259839
615.311	257809
615.377	261767
615.443	266043
615.509	269621
615.575	279248
615.642	278344
615.708	288058
615.774	305085
615.840	327992
615.906	361751
615.972	446444
616.038	650863
616.104	1242321
616.170	2421412
616.236	2126856
616.302	744955
616.368	550457
616.434	402582
616.500	358008
616.565	396912
616.631	503248
616.697	421783
616.763	427476
616.829	625287
616.895	1090454
616.961	1051846
617.026	480093
617.092	316841
617.158	286205
617.224	272885
617.289	252506
617.355	237805
617.421	235619
617.487	237055
617.552	224710
617.618	220703
617.684	219285
617.749	221680
617.815	211650
617.880	208088
617.946	209093
618.012	210263
618.077	214804
618.143	205235
618.208	207330
618.274	221761
618.339	224187
618.405	186824
618.470	186820
618.536	185507
618.601	182727
618.667	171124
618.732	163181
618.798	160504
618.863	161178
618.928	158905
618.994	161083
619.059	160054
619.124	162636
619.190	158720
619.255	159193
619.320	160293
619.386	159757
619.451	159409
619.516	154092
619.581	153626
619.647	160193
619.712	160325
619.777	152970
619.842	154222
619.907	157327
619.972	158910
620.038	157857
620.103	154780
620.168	153624
620.233	158059
620.298	157340
620.363	157860
620.428	164333
620.493	166990
620.558	168985
620.623	170085
620.688	169509
620.753	168927
620.818	172513
620.883	173740
620.948	173655
621.013	170625
621.078	168554
621.143	169011
621.207	171622
621.272	168909
621.337	163186
621.402	163506
621.467	162215
621.532	162503
621.596	161926
621.661	157184
621.726	157690
621.791	158796
621.855	158522
621.920	156532
621.985	159291
622.049	164300
622.114	163615
622.179	164726
622.243	167556
622.308	171615
622.373	180208
622.437	174796
622.502	164832
622.566	163054
622.631	163443
622.695	166891
622.760	164869
622.824	166684
622.889	168448
622.953	167649
623.018	177140
623.082	178735
623.147	176877
623.211	170860
623.276	171086
623.340	163568
623.404	161335
623.469	160242
623.533	163649
623.597	157867
623.662	156678
623.726	146266
623.790	138654
623.854	133638
623.919	138253
623.983	138778
624.047	141639
624.111	141441
624.176	146787
624.240	145809
624.304	152667
624.368	145188
624.432	146034
624.496	146411
624.560	156178
624.625	155258
624.689	154951
624.753	162205
624.817	154393
624.881	149666
624.945	136275
625.009	131472
625.073	134618
625.137	138579
625.201	145227
625.265	144822
625.329	140239
625.393	141080
625.456	140649
625.520	144500
625.584	147773
625.648	153044
625.712	157856
625.776	164741
625.839	160577
625.903	127120
625.967	115998
626.031	126350
626.095	152102
626.158	136095
626.222	106785
626.286	100619
626.349	96944
626.413	90341
626.477	90736
626.540	91060
626.604	90617
626.668	89114
626.731	87554
626.795	86165
626.858	88931
626.922	85899
626.986	85839
627.049	83493
627.113	89006
627.176	86754
627.240	83973
627.303	82734
627.366	82595
627.430	84357
627.493	83866
627.557	80449
627.620	84333
627.684	86611
627.747	88621
627.810	80360
627.874	72837
627.937	69172
628.000	73854
628.064	69580
628.127	62940
628.190	61870
628.253	60925
628.317	59031
628.380	56354
628.443	52726
628.506	53611
628.569	51871
628.632	49686
628.696	49526
628.759	49157
628.822	47312
628.885	45974
628.948	44886
629.011	45328
629.074	42147
629.137	41800
629.200	40321
629.263	42570
629.326	39829
629.389	40128
629.452	40551
629.515	39932
629.578	38760
629.641	40419
629.704	39897
629.767	39938
629.830	38511
629.892	37778
629.955	37319
630.018	39600
630.081	36563
630.144	39594
630.207	36350
630.269	38522
630.332	34829
630.395	36112
630.458	34547
630.520	34532
630.583	34741
630.646	35251
630.708	34937
630.771	35761
630.834	37639
630.896	37541
630.959	36962
631.021	35132
631.084	35861
631.146	37222
631.209	38154
631.272	36871
631.334	37799
631.397	39339
631.459	39001
631.522	42565
631.584	42938
631.646	47039
631.709	49769
631.771	49854
631.834	46603
631.896	44199
631.958	40067
632.021	39790
632.083	36655
632.145	37302
632.208	35196
632.270	35486
632.332	34175
632.395	33671
632.457	35050
632.519	33896
632.581	34364
632.643	32478
632.706	33929
632.768	33331
632.830	33438
632.892	35126
632.954	33093
633.016	35912
633.078	32676
633.141	33658
633.203	33980
633.265	35064
633.327	34255
633.389	34263
633.451	36208
633.513	35159
633.575	35746
633.637	34473
633.698	36197
633.760	39629
633.822	39838
633.884	41835
633.946	43399
634.008	44450
634.070	47175
634.132	51505
634.193	56916
634.255	62305
634.317	62086
634.379	60872
634.441	53336
634.502	47513
634.564	44308
634.626	40772
634.687	38509
634.749	37197
634.811	36684
634.873	35238
634.934	34835
634.996	36103
635.057	33274
635.119	35573
635.181	36963
635.242	38472
635.304	34408
635.365	39758
635.427	36434
635.488	36968
635.550	36744
635.611	37302
635.673	36243
635.734	43368
635.796	44807
635.857	49919
635.918	53924
635.980	60326
636.041	63568
636.102	68891
636.164	69226
636.225	67831
636.286	56086
636.348	50603
636.409	43558
636.470	40316
636.531	38242
636.593	36868
636.654	34845
636.715	32327
636.776	32312
636.838	30846
636.899	31306
636.960	30694
637.021	29941
637.082	30150
637.143	28787
637.204	28138
637.265	27250
637.326	29407
637.387	29301
637.448	29109
637.509	29050
637.570	29339
637.631	28103
637.692	25625
637.753	25095
637.814	26686
637.875	26197
637.936	27702
637.997	26117
638.058	26087
638.119	25554
638.179	26753
638.240	24743
638.301	25966
638.362	23507
638.423	24402
638.483	25247
638.544	22775
638.605	24198
638.666	24572
638.726	24459
638.787	24949
638.848	23763
638.908	22646
638.969	22554
639.030	23287
639.090	21766
639.151	22889
639.211	23704
639.272	24589
639.332	25947
639.393	25298
639.453	27254
639.514	28944
639.574	23544
639.635	21826
639.695	22494
639.756	21355
639.816	21313
639.877	21532
639.937	23394
639.997	23353
640.058	20596
640.118	21737
640.178	21939
640.239	21373
640.299	21535
640.359	23030
640.420	24406
640.480	29005
640.540	33443
640.600	33683
640.661	28956
640.721	27280
640.781	29671
640.841	24177
640.901	22946
640.961	23966
641.021	24364
641.082	26619
641.142	22809
641.202	22568
641.262	18895
641.322	21666
641.382	19606
641.442	21401
641.502	20432
641.562	21631
641.622	21718
641.682	24173
641.742	28457
641.802	26788
641.861	21541
641.921	20227
641.981	20097
642.041	20135
642.101	19032
642.161	17767
642.221	18356
642.280	19211
642.340	18857
642.400	19795
642.460	20843
642.519	19968
642.579	20276
642.639	21889
642.698	18568
642.758	23446
642.818	20430
642.877	20615
642.937	20307
642.997	20875
643.056	20864
643.116	19774
643.175	23320
643.235	22826
643.294	23459
643.354	27842
643.414	29505
643.473	37080
643.532	46621
643.592	67375
643.651	101456
643.711	173397
643.770	322102
643.830	737195
643.889	1411787
643.948	431766
644.008	91280
644.067	53476
644.126	36967
644.186	32463
644.245	28815
644.304	24637
644.363	25529
644.423	23433
644.482	24691
644.541	27166
644.600	27437
644.659	37310
644.719	48279
644.778	71981
644.837	119469
644.896	245262
644.955	555810
645.014	200362
645.073	46833
645.132	30865
645.191	27288
645.250	26776
645.309	30011
645.368	32039
645.427	42707
645.486	74675
645.545	133331
645.604	42982
645.663	25462
645.722	24796
645.781	28936
645.840	34229
645.898	43578
645.957	64809
646.016	96583
646.075	165796
646.134	309895
646.192	772591
646.251	1111655
646.310	222095
646.369	64663
646.427	49813
646.486	36054
646.545	28035
646.603	24952
646.662	24009
646.721	22767
646.779	24426
646.838	24790
646.896	33945
646.955	46011
647.014	72507
647.072	137038
647.131	373089
647.189	192198
647.248	31161
647.306	21596
647.365	19824
647.423	14778
647.481	17760
647.540	15299
647.598	15446
647.657	14468
647.715	16246
647.773	13647
647.832	15626
647.890	12459
647.948	13223
648.007	13892
648.065	12592
648.123	12675
648.181	14434
648.240	13827
648.298	13191
648.356	11399
648.414	13550
648.472	11233
648.531	12751
648.589	11905
648.647	12496
648.705	11895
648.763	12768
648.821	14547
648.879	16110
648.937	18294
648.995	25243
649.053	32359
649.111	49556
649.169	80547
649.227	137924
649.285	284352
649.343	773787
649.401	401144
649.459	58658
649.516	32555
649.574	27086
649.632	33039
649.690	37453
649.748	37134
649.806	53248
649.863	97681
649.921	263893
649.979	192876
650.037	28763
650.094	14127
650.152	13379
650.210	10000
650.268	12212
650.325	10521
650.383	11954
650.440	9136
650.498	10121
650.556	8350
650.613	8596
650.671	9602
650.728	10040
650.786	10052
650.843	15904
650.901	11489
650.958	8890
651.016	7288
651.073	8589
651.131	7702
651.188	7455
651.246	7378
651.303	7876
651.360	8016
651.418	7045
651.475	7393
651.532	6891
651.590	7640
651.647	7260
651.704	6624
651.762	7358
651.819	7320
651.876	6682
651.933	6479
651.990	7232
652.048	5676
652.105	6256
652.162	6669
652.219	6314
652.276	6180
652.333	6858
652.390	4424
652.448	6699
652.505	6445
652.562	7098
652.619	6529
652.676	8121
652.733	8373
652.790	6107
652.847	4547
652.904	6201
652.961	4121
653.017	6246
653.074	6254
653.131	5998
653.188	4361
653.245	6170
653.302	5456
653.359	6087
653.415	5873
653.472	5228
653.529	5962
653.586	5027
653.642	5166
653.699	7001
653.756	5877
653.813	5822
653.869	6508
653.926	5608
653.983	4937
654.039	6580
654.096	5516
654.152	6970
654.209	4136
654.266	5837
654.322	4639
654.379	5603
654.435	5739
654.492	5656
654.548	4912
654.605	6036
654.661	6277
654.717	5524
654.774	5087
654.830	5126
654.887	5196
654.943	6103
655.000	5388
655.056	6370
655.112	5647
655.168	5887
655.225	5151
655.281	7036
655.337	6486
655.394	6439
655.450	6154
655.506	6535
655.562	6453
655.618	7523
655.675	4924
655.731	6403
655.787	4941
655.843	6781
655.899	4939
655.955	6540
656.011	6577
656.067	6769
656.123	7420
656.179	7688
656.235	8952
656.291	8474
656.347	8570
656.403	7039
656.459	6921
656.515	7291
656.571	6547
656.627	6768
656.683	5196
656.739	6299
656.795	5174
656.850	5597
656.906	5815
656.962	7056
657.018	5550
657.074	8115
657.129	10232
657.185	16421
657.241	36696
657.297	23866
657.352	6802
657.408	6013
657.464	5577
657.519	5064
657.575	3820
657.630	4983
657.686	4395
657.742	4449
657.797	3828
657.853	4423
657.908	5063
657.964	3866
658.019	4576
658.075	4979
658.130	4156
658.186	4076
658.241	4407
658.297	3530
658.352	3542
658.407	5101
658.463	4283
658.518	4680
658.573	4699
658.629	4055
658.684	3301
658.739	5384
658.795	3819
658.850	5106
658.905	4133
658.960	4463
659.016	3731
659.071	4468
659.126	3490
659.181	4178
659.236	5855
659.291	5148
659.346	3494
659.401	4766
659.457	4482
659.512	4852
659.567	4710
659.622	3796
659.677	3603
659.732	3442
659.787	3770
659.842	4416
659.897	4989
659.952	4607
660.007	3936
660.061	4291
660.116	2845
660.171	4060
660.226	3737
660.281	4233
660.336	3485
660.391	4657
660.445	3289
660.500	4554
660.555	2726
660.610	3681
660.664	4624
660.719	3724
660.774	3682
660.828	4288
660.883	3057
660.938	4362
660.992	3190
661.047	4439
661.101	2979
661.156	4463
661.211	3284
661.265	4470
661.320	4230
661.374	4180
661.429	3186
661.483	4786
661.538	3253
661.592	4394
661.647	4202
661.701	4709
661.755	4223
661.810	4282
661.864	3616
661.919	3850
661.973	3751
662.027	4050
662.081	2757
662.136	3864
662.190	3622
662.244	4068
662.299	3793
662.353	4397
662.407	2591
662.461	3617
662.515	4263
662.569	2876
662.624	3744
662.678	3968
662.732	3563
662.786	3928
662.840	3988
662.894	4696
662.948	4157
663.002	4340
663.056	2965
663.110	3127
663.164	4017
663.218	4348
663.272	3609
663.326	4979
663.380	3700
663.434	3817
663.488	3155
663.542	4461
663.595	3139
663.649	4286
663.703	4402
663.757	4465
663.811	3727
663.864	4391
663.918	4025
663.972	4108
664.026	4150
664.079	3929
664.133	4325
664.187	4698
664.240	3431
664.294	4396
664.348	3371
664.401	5375
664.455	4114
664.508	4812
664.562	2802
664.615	4630
664.669	3396
664.722	4639
664.776	3360
664.829	4355
664.883	2763
664.936	4086
664.990	4075
665.043	4747
665.097	3964
665.150	4967
665.203	3837
665.257	4820
665.310	3719
665.363	5374
665.417	5118
665.470	5351
665.523	4447
665.576	4150
665.630	4326
665.683	5501
665.736	4397
665.789	4350
665.842	4110
665.895	4597
665.949	4360
666.002	4821
666.055	4082
666.108	5604
666.161	4676
666.214	5608
666.267	4266
666.320	5114
666.373	4942
666.426	5164
666.479	4742
666.532	4727
666.585	5820
666.638	5808
666.691	5123
666.744	5364
666.796	4273
666.849	6252
666.902	3967
666.955	4694
667.008	3951
667.060	4324
667.113	4032
667.166	5803
667.219	4505
667.271	5610
667.324	4953
667.377	5694
667.430	4434
667.482	5650
667.535	5076
667.587	5630
667.640	5142
667.693	4931
667.745	5638
667.798	6294
667.850	4902
667.903	6152
667.955	4403
668.008	5849
668.060	4437
668.113	5713
668.165	4699
668.218	5411
668.270	5566
668.322	5134
668.375	4027
668.427	3794
668.479	4580
668.532	5699
668.584	5368
668.636	4749
668.689	4630
668.741	4380
668.793	4408
668.845	5865
668.898	5208
668.950	5408
669.002	4965
669.054	4326
669.106	4421
669.158	5657
669.211	4887
669.263	5206
669.315	5460
669.367	5066
669.419	4787
669.471	5433
669.523	5724
669.575	6818
669.627	5204
669.679	6260
669.731	5388
669.783	5707
669.835	6285
669.886	4896
669.938	5613
669.990	6613
670.042	4788
670.094	6098
670.146	5828
670.197	6260
670.249	7145
670.301	8154
670.353	10867
670.404	14721
670.456	18291
670.508	28635
670.560	45939
670.611	77335
670.663	132000
670.715	313881
670.766	497981
670.818	155964
670.869	29374
670.921	17719
670.972	14225
671.024	10716
671.075	9428
671.127	8590
671.178	7346
671.230	9303
671.281	8929
671.333	11300
671.384	12559
671.436	16016
671.487	22345
671.538	30052
671.590	43605
671.641	68372
671.692	120190
671.744	230526
671.795	200625
671.846	84718
671.897	39118
671.949	24754
672.000	16835
672.051	13188
672.102	10819
672.153	9024
672.204	8239
672.256	8553
672.307	6394
672.358	6777
672.409	5523
672.460	6774
672.511	6244
672.562	5667
672.613	3725
672.664	4817
672.715	4205
672.766	5085
672.817	4608
672.868	4339
672.919	4851
672.970	3528
673.021	4014
673.071	4123
673.122	3517
673.173	4976
673.224	4651
673.275	4823
673.326	3977
673.376	3604
673.427	2902
673.478	4602
673.528	4236
673.579	4570
673.630	4443
673.680	5838
673.731	3371
673.782	4039
673.832	4250
673.883	5004
673.934	3559
673.984	4692
674.035	4796
674.085	5300
674.136	4689
674.186	4744
674.237	4463
674.287	5364
674.338	4114
674.388	4776
674.438	4207
674.489	5355
674.539	5079
674.589	6921
674.640	6172
674.690	5766
674.740	5597
674.791	5712
674.841	5501
674.891	5028
674.942	4030
674.992	4043
675.042	4034
675.092	4300
675.142	3752
675.193	4463
675.243	3823
675.293	4356
675.343	3495
675.393	5049
675.443	4168
675.493	4645
675.543	3739
675.593	4379
675.643	3877
675.693	5714
675.743	2907
675.793	3529
675.843	3454
675.893	4096
675.943	2313
675.993	3197
676.043	3470
676.093	4076
676.142	3326
676.192	3672
676.242	3227
676.292	4173
676.341	3241
676.391	3628
676.441	2488
676.491	4388
676.540	2178
676.590	3782
676.640	2674
676.689	3679
676.739	3290
676.789	3707
676.838	2232
676.888	3354
676.937	2980
676.987	3449
677.037	2994
677.086	3487
677.136	2538
677.185	3877
677.235	2737
677.284	2820
677.333	2419
677.383	3437
677.432	2069
677.482	3585
677.531	3689
677.580	3283
677.630	2412
677.679	2726
677.728	3078
677.778	3743
677.827	2138
677.876	2469
677.925	2587
677.975	3390
678.024	3149
678.073	4061
678.122	3284
678.171	4377
678.220	4677
678.269	5463
678.319	5716
678.368	7208
678.417	4516
678.466	4224
678.515	3807
678.564	3424
678.613	2444
678.662	2650
678.711	2479
678.760	4323
678.809	3177
678.857	3705
678.906	4064
678.955	3573
679.004	2990
679.053	2836
679.102	2780
679.151	3406
679.199	3042
679.248	3538
679.297	3136
679.346	3287
679.394	2693
679.443	3225
679.492	2551
679.540	3270
679.589	1911
679.638	3310
679.686	3068
679.735	4525
679.784	3601
679.832	5711
679.881	4131
679.929	4472
679.978	1945
680.026	3284
680.075	2335
680.123	2794
680.172	2267
680.220	2408
680.268	3200
680.317	2476
680.365	1986
680.414	2771
680.462	1767
680.510	4023
680.559	3196
680.607	2757
680.655	2288
680.703	2907
680.752	2586
680.800	3426
680.848	2043
680.896	2089
680.945	2962
680.993	2509
681.041	2144
681.089	2863
681.137	2207
681.185	2891
681.233	1945
681.258	2567
681.281	3135
681.329	1477
681.377	3003
681.380	3021
681.425	2976
681.473	3215
681.502	2551
681.521	2049
681.569	3938
681.617	2184
681.624	2323
681.665	3041
681.713	2726
681.745	3491
681.761	3824
681.809	2876
681.857	4041
681.867	3842
681.904	3086
681.952	3477
681.989	3091
682.000	2941
682.048	4078
682.096	1858
682.111	2373
682.143	3425
682.191	3280
682.233	4354
682.239	4493
682.286	2922
682.334	4175
682.354	3845
682.382	3359
682.430	3965
682.476	3814
682.477	3790
682.525	3749
682.572	2713
682.598	3533
682.620	4239
682.667	4492
682.715	4525
682.720	4525
682.763	4319
682.810	4249
682.841	4215
682.857	4149
682.905	4071
682.952	4407
682.963	4388
683.000	4290
683.047	4249
683.085	4864
683.095	5012
683.142	4524
683.190	4328
683.206	4257
683.237	4044
683.284	4580
683.328	4643
683.332	4633
683.379	4635
683.426	3488
683.449	4301
683.473	5121
683.521	4329
683.568	4975
683.571	4972
683.615	4638
683.662	4846
683.693	4416
683.709	4158
683.757	5087
683.804	4889
683.814	4838
683.851	4670
683.898	4933
683.936	5385
683.945	5468
683.992	4657
684.039	5273
684.057	5269
684.086	5233
684.133	5410
684.179	3941
684.180	3878
684.227	5598
684.274	5025
684.300	5186
684.321	5305
684.368	4532
684.415	5649
684.422	5490
684.462	4584
684.509	5518
684.543	5104
684.556	4898
684.603	5639
684.649	4810
684.665	5047
684.696	5552
684.743	5347
684.786	5951
684.790	5982
684.837	4853
684.883	5995
684.908	5674
684.930	5382
684.977	6264
685.023	5973
685.029	5999
685.070	6098
685.117	5746
685.150	6114
685.164	6250
685.210	6055
685.257	6379
685.272	6272
685.303	6046
685.350	6423
685.393	5898
685.396	5834
685.443	6247
685.490	5818
685.514	5944
685.536	6116
685.583	6137
685.629	6383
685.636	6330
685.675	5963
685.722	6119
685.757	6282
685.768	6317
685.815	6475
685.861	6178
685.878	6304
685.908	6611
685.954	6004
686.000	6925
686.000	6935
686.047	6660
686.093	7812
686.121	7631
686.139	7390
686.185	7284
686.232	7169
686.242	7174
686.278	7267
686.324	7420
686.363	7471
686.370	7456
686.416	6551
686.463	7742
686.484	7020
686.509	6347
686.555	7194
686.601	6503
686.606	6586
686.647	7126
686.693	6914
686.727	7111
686.739	7205
686.785	6743
686.831	7525
686.848	7436
686.877	7244
686.923	6784
686.969	7205
686.969	7208
687.015	7598
687.061	8137
687.090	8392
687.107	8373
687.153	8045
687.199	7990
687.211	7848
687.245	7538
687.291	7948
687.332	7683
687.336	7671
687.382	7744
687.428	7939
687.453	8199
687.474	8382
687.520	8378
687.565	8368
687.574	8224
687.611	7770
687.657	8833
687.695	8955
687.702	9009
687.748	9572
687.794	10446
687.816	10560
687.839	10231
687.885	9033
687.931	8237
687.937	8145
687.976	8122
688.022	8307
688.058	8569
688.067	8615
688.113	8630
688.158	8241
688.179	8180
688.204	8122
688.249	8005
688.295	8484
688.300	8452
688.340	8459
688.386	8881
688.421	8686
688.431	8605
688.477	8705
688.522	8807
688.542	9258
688.567	9885
688.613	9472
688.658	9890
688.663	9843
688.703	9245
688.749	8996
688.784	8794
688.794	8807
688.839	9400
688.884	9153
688.905	9161
688.930	9091
688.975	9086
689.020	8985
689.026	8968
689.065	9058
689.110	9167
689.146	8994
689.155	8938
689.201	9851
689.246	9389
689.267	9431
689.291	9545
689.336	9361
689.381	9811
689.388	9746
689.426	9427
689.471	9844
689.509	9723
689.516	9697
689.561	9747
689.606	9369
689.630	9678
689.651	10022
689.696	9294
689.741	9625
689.750	9604
689.785	9643
689.830	10301
689.871	10010
689.875	9973
689.920	10341
689.965	9790
689.992	9853
690.010	9953
690.054	9801
690.099	10202
690.112	10098
690.144	9901
690.189	10564
690.233	9657
690.233	9665
690.278	10019
690.323	10401
690.354	10735
690.367	10935
690.412	11123
690.457	11011
690.474	11211
690.501	11308
690.546	11496
690.590	11273
690.595	11252
690.635	11499
690.680	11318
690.716	11644
690.724	11911
690.769	13167
690.813	14886
690.836	15025
690.857	16124
690.902	19959
690.946	23169
690.957	24143
690.991	31946
691.035	42144
691.077	52989
691.080	53079
691.124	49225
691.168	45755
691.198	43444
691.213	40334
691.257	32448
691.301	23350
691.318	20278
691.346	19152
691.390	16454
691.434	14076
691.439	13807
691.478	13470
691.522	13418
691.559	12612
691.567	12550
691.611	12666
691.655	11932
691.680	12077
691.699	12088
691.743	11527
691.787	11585
691.800	11242
691.831	10904
691.875	11442
691.919	11512
691.921	11502
691.964	11430
692.008	11264
692.041	11193
692.052	11289
692.096	10794
692.139	11728
692.162	11597
692.183	11334
692.227	11458
692.271	11304
692.282	11272
692.315	11305
692.359	11167
692.402	11215
692.403	11232
692.447	10282
692.490	10583
692.523	9842
692.534	9793
692.578	10684
692.622	10520
692.643	10907
692.666	11036
692.709	10846
692.753	10647
692.763	10529
692.797	10563
692.840	11040
692.884	11148
692.884	11169
692.928	11279
692.971	11285
693.004	11404
693.015	11454
693.059	11288
693.102	11682
693.124	11521
693.146	11501
693.189	11826
693.233	12152
693.245	12190
693.276	12775
693.320	13457
693.363	14429
693.365	14417
693.407	14965
693.450	16148
693.485	16802
693.493	17358
693.537	20214
693.580	22810
693.605	24668
693.624	27984
693.667	35041
693.710	43142
693.725	45762
693.753	60333
693.797	83963
693.840	107823
693.845	110223
693.883	104585
693.926	97144
693.966	91594
693.970	89807
694.013	68830
694.056	48572
694.086	34393
694.099	32730
694.142	27641
694.185	22083
694.206	19622
694.229	19008
694.272	17251
694.315	16223
694.326	15720
694.358	15200
694.401	14853
694.444	14675
694.446	14614
694.487	13975
694.530	13400
694.566	13163
694.573	13191
694.616	12802
694.659	12553
694.686	12407
694.702	12446
694.745	12662
694.787	12483
694.806	12469
694.830	12509
694.873	12573
694.916	12494
694.926	12434
694.959	12546
695.002	12958
695.044	13058
695.046	13036
695.087	13016
695.130	13011
695.166	13016
695.172	13086
695.215	13205
695.258	13765
695.286	13744
695.301	13686
695.343	13644
695.386	13681
695.406	13589
695.428	13990
695.471	14635
695.514	15742
695.526	15943
695.556	16808
695.599	18338
695.641	19109
695.646	19204
695.684	18310
695.726	17005
695.766	16026
695.769	16042
695.811	15578
695.854	15165
695.886	14861
695.896	14964
695.938	15235
695.981	15321
696.005	15550
696.023	16038
696.065	16890
696.108	17906
696.125	18172
696.150	18396
696.192	18913
696.235	19357
696.245	19460
696.277	19586
696.319	19464
696.361	19472
696.365	19425
696.404	19545
696.446	19696
696.485	19795
696.488	19819
696.530	19452
696.572	19175
696.604	18908
696.614	18894
696.656	18522
696.698	18395
696.724	18064
696.740	18111
696.783	18522
696.825	18742
696.844	18787
696.867	18846
696.909	18815
696.951	18970
696.964	18918
696.992	18908
697.034	19036
697.076	18980
697.083	18940
697.118	19698
697.160	20505
697.202	21398
697.203	21371
697.244	20334
697.286	19263
697.323	18223
697.327	18344
697.369	19069
697.411	19744
697.442	20302
697.453	20360
697.494	20239
697.536	20299
697.562	20191
697.578	20216
697.620	20267
697.661	20173
697.682	20171
697.703	20532
697.744	21066
697.786	21647
697.801	21751
697.828	21711
697.869	21744
697.911	21672
697.921	21612
697.952	21566
697.994	21406
698.035	21276
698.040	21207
698.077	21096
698.118	20926
698.160	20730
698.160	20678
698.201	21525
698.243	22296
698.279	22933
698.284	22999
698.325	23055
698.367	23221
698.399	23201
698.408	23360
698.449	23902
698.491	24394
698.518	24696
698.532	24790
698.573	24869
698.614	24974
698.638	24954
698.656	24928
698.697	24750
698.738	24559
698.757	24421
698.779	24462
698.820	24396
698.862	24346
698.877	24267
698.903	24329
698.944	24338
698.985	24346
698.996	24292
699.026	24377
699.067	24410
699.116	24393
699.235	24720
699.354	23929
699.474	23292
699.593	23958
699.713	23179
699.832	24004
699.951	23411
700.070	24022
700.190	22206
700.309	22827
700.428	22257
700.547	21034
700.667	20906
700.786	21411
700.905	20218
701.024	20381
701.143	19611
701.262	21301
701.381	22523
701.500	21529
701.619	21073
701.738	20661
701.857	21214
701.976	19383
702.095	19287
702.214	21165
702.333	19944
702.452	20329
702.571	21341
702.690	20736
702.809	20592
702.928	19763
703.047	18659
703.165	19979
703.284	18905
703.403	19313
703.522	18996
703.640	18256
703.759	18648
703.878	18610
703.997	18378
704.115	19807
704.234	18358
704.353	18549
704.471	16983
704.590	17541
704.708	16888
704.827	16612
704.946	16337
705.064	17611
705.183	15254
705.301	17455
705.420	16897
705.538	16781
705.656	16185
705.775	15596
705.893	21252
706.012	22497
706.130	16103
706.249	17142
706.367	15443
706.485	16007
706.604	15724
706.722	16212
706.840	17760
706.958	21282
707.077	17488
707.195	16050
707.313	14831
707.431	13798
707.549	13892
707.668	13214
707.786	16400
707.904	14261
708.022	14122
708.140	14768
708.258	13850
708.376	15166
708.494	12779
708.612	15209
708.730	16931
708.848	15611
708.966	15726
709.084	15687
709.202	15648
709.320	14072
709.438	14461
709.556	13957
709.674	13204
709.791	14399
709.909	13519
710.027	12849
710.145	12814
710.263	13404
710.380	13206
710.498	13728
710.616	13018
710.733	12291
710.851	12617
710.969	13073
711.086	11525
711.204	11852
711.322	12453
711.439	12129
711.557	12545
711.674	12703
711.792	11771
711.909	13267
712.027	13286
712.144	12656
712.262	12222
712.379	12375
712.497	13294
712.614	13928
712.732	12343
712.849	12412
712.966	13479
713.084	13877
713.201	12760
713.318	13352
713.436	14129
713.553	13700
713.670	15074
713.787	14916
713.905	14472
714.022	14965
714.139	16687
714.256	22255
714.373	34604
714.490	72243
714.608	206037
714.725	855318
714.842	736489
714.959	68074
715.076	27738
715.193	21003
715.310	18230
715.427	13189
715.544	13435
715.661	13875
715.778	11900
715.895	13014
716.011	13114
716.128	12221
716.245	12294
716.362	11478
716.479	10456
716.596	10526
716.713	11487
716.829	11100
716.946	9631
717.063	10455
717.180	9612
717.296	10071
717.413	9914
717.530	10250
717.646	9478
717.763	10057
717.880	9532
717.996	8948
718.113	8164
718.229	8688
718.346	8269
718.462	9328
718.579	8449
718.695	9880
718.812	9656
718.928	10485
719.045	8949
719.161	9641
719.277	9601
719.394	10351
719.510	10729
719.626	12153
719.743	17068
719.859	30319
719.975	71793
720.092	310009
720.208	597925
720.324	67846
720.440	17696
720.557	13421
720.673	12283
720.789	11771
720.905	16065
721.021	11075
721.137	8943
721.253	8940
721.369	8302
721.486	9057
721.602	9161
721.718	8624
721.834	7822
721.950	8549
722.066	7526
722.181	7679
722.297	7155
722.413	7765
722.529	7160
722.645	7598
722.761	7744
722.877	9170
722.993	8251
723.108	12251
723.224	10609
723.340	8626
723.456	7284
723.571	6927
723.687	6892
723.803	7810
723.918	6479
724.034	6509
724.150	7477
724.265	6929
724.381	7289
724.497	9497
724.612	7028
724.728	6766
724.843	6708
724.959	6382
725.074	8335
725.190	9182
725.305	7237
725.421	6711
725.536	6747
725.651	7294
725.767	7205
725.882	7160
725.997	6337
726.113	6743
726.228	6330
726.343	5725
726.459	6260
726.574	5864
726.689	5925
726.804	6897
726.920	6134
727.035	6293
727.150	7023
727.265	6260
727.380	5873
727.495	6523
727.610	5723
727.725	6155
727.841	6843
727.956	10791
728.071	8623
728.186	5822
728.301	5478
728.416	6862
728.531	6733
728.645	6163
728.760	6076
728.875	6225
728.990	6261
729.105	6561
729.220	6600
729.335	7002
729.449	6254
729.564	6467
729.679	5828
729.794	6625
729.908	6942
730.023	6145
730.138	6405
730.253	6835
730.367	5560
730.482	6185
730.596	7194
730.711	7702
730.826	9531
730.940	10160
731.055	8435
731.169	8976
731.284	8170
731.398	8835
731.513	8934
731.627	10406
731.742	13493
731.856	15966
731.970	15785
732.085	22558
732.199	34480
732.313	68030
732.428	186727
732.542	512002
732.656	252592
732.771	48448
732.885	25873
732.999	21801
733.113	21101
733.227	19217
733.342	17568
733.456	16435
733.570	16491
733.684	15498
733.798	14674
733.912	15437
734.026	14344
734.140	13883
734.254	13626
734.368	14477
734.482	15651
734.596	13774
734.710	12290
734.824	12534
734.938	13263
735.052	13305
735.166	13664
735.280	12792
735.393	12271
735.507	12968
735.621	12355
735.735	13489
735.849	13251
735.962	11979
736.076	12404
736.190	12565
736.303	13075
736.417	12379
736.531	11934
736.644	11742
736.758	10963
736.872	11228
736.985	11222
737.099	11959
737.212	11581
737.326	11454
737.439	12555
737.553	10420
737.666	10994
737.780	10686
737.893	11624
738.007	11047
738.120	11233
738.233	10123
738.347	11315
738.460	10793
738.573	10395
738.687	10361
738.800	9818
738.913	10736
739.026	10401
739.140	10312
739.253	10276
739.366	10215
739.479	9466
739.592	10587
739.705	8687
739.818	10299
739.932	8774
740.045	11630
740.158	9268
740.271	10806
740.384	10078
740.497	8810
740.610	10293
740.723	9134
740.836	9058
740.949	10397
741.062	9770
741.174	9533
741.287	8565
741.400	9820
741.513	8030
741.626	10045
741.739	8460
741.851	9073
741.964	8738
742.077	8906
742.189	8284
742.302	10904
742.415	10057
742.527	9018
742.640	8965
742.753	7937
742.865	8510
742.978	8657
743.090	8673
743.203	9333
743.316	7190
743.428	7681
743.541	8204
743.653	7432
743.766	8074
743.878	8685
743.990	8453
744.103	10559
744.215	10628
744.327	7766
744.440	9245
744.552	8781
744.664	7473
744.777	8255
744.889	7679
745.001	8197
745.113	8435
745.226	7389
745.338	7456
745.450	8511
745.562	6872
745.674	7594
745.786	7821
745.898	7733
746.010	7057
746.122	8445
746.234	8173
746.347	7900
746.459	6965
746.570	7312
746.682	9567
746.794	13018
746.906	7660
747.018	7760
747.130	7817
747.242	6703
747.354	6536
747.466	7307
747.577	6936
747.689	7733
747.801	7313
747.913	7365
748.024	7103
748.136	7347
748.248	6192
748.359	7372
748.471	6975
748.583	6553
748.694	6460
748.806	8572
748.918	6724
749.029	6356
749.141	7309
749.252	7978
749.364	5516
749.475	6406
749.587	6059
749.698	5900
749.809	6220
749.921	6265
750.032	6529
750.144	6250
750.255	5346
750.366	7012
750.478	5746
750.589	6557
750.700	5749
750.811	6398
750.923	5512
751.034	6652
751.145	6490
751.256	5850
751.367	5601
751.479	5267
751.590	5649
751.701	6347
751.812	5886
751.923	6854
752.034	6941
752.145	6617
752.256	5838
752.367	6067
752.478	5579
752.589	6179
752.700	5959
752.811	5756
752.922	5780
753.032	6540
753.143	5947
753.254	5463
753.365	7379
753.476	6710
753.586	5592
753.697	5877
753.808	5607
753.919	6232
754.029	5273
754.140	6049
754.251	4807
754.361	6140
754.472	6044
754.582	5360
754.693	6720
754.804	6413
754.914	4786
755.025	4694
755.135	5420
755.246	6196
755.356	5513
755.466	5922
755.577	5451
755.687	5896
755.798	5229
755.908	5438
756.018	5577
756.129	5909
756.239	6579
756.349	6541
756.460	7394
756.570	7393
756.680	6695
756.790	6244
756.900	6463
757.011	6388
757.121	5856
757.231	5816
757.341	6194
757.451	5931
757.561	5635
757.671	6361
757.781	5679
757.891	6401
758.001	6087
758.111	6862
758.221	7155
758.331	6802
758.441	7261
758.551	7783
758.661	7575
758.771	8039
758.880	7049
758.990	7851
759.100	6006
759.210	7231
759.320	8318
759.429	8308
759.539	9416
759.649	9580
759.758	10722
759.868	11150
759.978	11227
760.087	11984
760.197	10934
760.307	11657
760.416	10790
760.526	9892
760.635	11182
760.745	11200
760.854	11879
760.964	14237
761.073	14045
761.182	13127
761.292	11856
761.401	10281
761.511	9435
761.620	9401
761.729	9467
761.839	8515
761.948	8219
762.057	9035
762.166	9692
762.276	8705
762.385	10161
762.494	10103
762.603	9490
762.712	10899
762.822	9906
762.931	10223
763.040	9741
763.149	9591
763.258	11655
763.367	12034
763.476	12233
763.585	11913
763.694	12763
763.803	13969
763.912	14682
764.021	14540
764.130	15480
764.238	18003
764.347	18984
764.456	19545
764.565	20363
764.674	21643
764.783	24306
764.891	26612
765.000	31119
765.109	34279
765.217	36949
765.326	44238
765.435	52610
765.543	63480
765.652	77392
765.761	100736
765.869	132614
765.978	188147
766.086	278391
766.195	431251
766.303	666381
766.412	719486
766.520	603719
766.629	559128
766.737	377796
766.846	250050
766.954	174852
767.062	129634
767.171	98443
767.279	77506
767.387	63048
767.496	52126
767.604	44645
767.712	39240
767.820	35139
767.928	32542
768.037	29998
768.145	29793
768.253	26676
768.361	27128
768.469	26781
768.577	26090
768.685	29546
768.793	30702
768.901	32244
769.009	39008
769.117	45694
769.225	59558
769.333	79720
769.441	120371
769.549	193463
769.657	350353
769.765	612408
769.873	596962
769.981	488331
770.088	303459
770.196	176811
770.304	117640
770.412	83570
770.519	63697
770.627	50470
770.735	40625
770.842	35866
770.950	30509
771.058	27864
771.165	26124
771.273	23816
771.380	23377
771.488	22256
771.595	21905
771.703	20838
771.810	18364
771.918	18959
772.025	20064
772.133	20991
772.240	17982
772.348	20616
772.455	18242
772.562	16757
772.670	16404
772.777	16859
772.884	17063
772.991	15542
773.099	16120
773.206	13847
773.313	15214
773.420	14771
773.528	13907
773.635	13861
773.742	14286
773.849	13052
773.956	13112
774.063	13165
774.170	13295
774.277	12966
774.384	12753
774.491	10879
774.598	11628
774.705	12368
774.812	12162
774.919	11973
775.026	11987
775.133	11219
775.239	12503
775.346	11526
775.453	11050
775.560	10418
775.667	11123
775.773	10611
775.880	11499
775.987	10271
776.093	10246
776.200	10451
776.307	9202
776.413	9467
776.520	11676
776.627	10660
776.733	9617
776.840	8038
776.946	13035
777.053	13551
777.159	19146
777.266	12535
777.372	16292
777.478	15209
777.585	11331
777.691	7885
777.798	9628
777.904	8809
778.010	8892
778.117	8087
778.223	8404
778.329	9032
778.435	8290
778.542	10090
778.648	7866
778.754	7901
778.860	8316
778.966	8406
779.072	8123
779.178	8168
779.284	7332
779.391	8000
779.497	8389
779.603	9366
779.708	9966
779.815	16691
779.920	47813
780.026	89473
780.132	17532
780.238	8526
780.344	7452
780.450	9333
780.556	6702
780.661	6156
780.767	8328
780.873	5206
780.979	6551
781.085	7197
781.190	6501
781.296	6018
781.402	6613
781.507	6792
781.613	5401
781.719	6063
781.824	8032
781.930	6210
782.035	6087
782.141	6876
782.246	5722
782.352	5593
782.457	6724
782.563	5639
782.668	7546
782.773	5399
782.879	5041
782.984	6690
783.090	5924
783.195	6350
783.300	6374
783.405	5709
783.511	5394
783.616	6293
783.721	5855
783.826	5005
783.932	6172
784.037	6216
784.142	5483
784.247	4441
784.352	5327
784.457	3962
784.562	6413
784.667	5638
784.772	3943
784.877	3513
784.982	5412
785.087	5405
785.192	5539
785.297	5038
785.402	6048
785.507	4885
785.611	4539
785.716	4533
785.821	5035
785.926	5095
786.031	4445
786.135	4547
786.240	4968
786.345	3331
786.450	4653
786.554	4667
786.659	4322
786.763	3849
786.868	5093
786.973	5249
787.077	4280
787.182	4508
787.286	4743
787.391	4484
787.495	3215
787.600	3334
787.704	4816
787.809	5564
787.913	3396
788.017	4279
788.122	5229
788.226	4344
788.330	2553
788.435	4182
788.539	4834
788.643	3388
788.747	2451
788.852	2629
788.956	3614
789.060	4504
789.164	4535
789.268	3195
789.372	5500
789.476	3411
789.580	3077
789.684	3270
789.788	4696
789.892	2793
789.996	3109
790.100	3095
790.204	4153
790.308	4103
790.412	3160
790.516	2450
790.620	3573
790.724	4179
790.828	4001
790.931	1895
791.035	4624
791.139	3747
791.242	2737
791.346	3765
791.450	3931
791.554	2927
791.657	1853
791.761	3472
791.864	4111
791.968	3500
792.072	4502
792.175	2634
792.279	2254
792.382	3465
792.486	3127
792.589	2732
792.693	3962
792.796	2295
792.899	3299
793.003	4655
793.106	1892
793.209	2176
793.313	3718
793.416	1254
793.519	3645
793.623	3729
793.726	3583
793.829	1810
793.932	1821
794.035	1449
794.138	4307
794.242	4909
794.345	2405
794.448	4237
794.551	6419
794.654	25215
794.757	49004
794.860	9132
794.963	3988
795.066	2874
795.169	3940
795.272	2239
795.375	3054
795.477	2169
795.580	2928
795.683	1764
795.786	3132
795.889	729
795.991	2992
796.094	3143
796.197	2449
796.300	3568
796.402	2194
796.505	1858
796.608	2233
796.710	2440
796.813	3675
796.915	3680
797.018	4242
797.120	2895
797.223	1702
797.326	3942
797.428	2751
797.530	2123
797.633	3379
797.735	3735
797.838	3248
797.940	4130
798.042	2192
798.145	2141
798.247	3459
798.349	1191
798.452	3939
798.554	2618
798.656	2472
798.758	4795
798.860	2744
798.962	2034
799.065	2376
799.167	1643
799.269	3853
799.371	3034
799.473	5107
799.575	3166
799.677	3137
799.779	2977
799.881	1628
799.983	3142
800.085	2542
800.187	2341
800.289	1780
800.390	1999
800.492	3034
800.594	3489
800.696	2135
800.798	1723
800.899	1894
801.001	1624
801.103	2593
801.205	2378
801.306	2108
801.408	1799
801.509	1828
801.611	2162
801.713	2689
801.814	1321
801.916	2138
802.017	1016
802.119	547
802.220	2017
802.322	1826
802.423	3223
802.525	701
802.626	1329
802.727	2930
802.829	2675
802.930	-117
803.031	2705
803.133	2030
803.234	1963
803.335	2949
803.436	612
803.538	2011
803.639	1810
803.740	2087
803.841	1396
803.942	3227
804.043	2251
804.144	839
804.245	1387
804.346	1255
804.447	911
804.548	1789
804.649	2762
804.750	1185
804.851	1549
804.952	1978
805.053	2006
805.154	827
805.255	2457
805.355	1190
805.456	1540
805.557	1511
805.658	756
805.758	2117
805.859	1621
805.960	1658
806.061	769
806.161	1130
806.262	1380
806.362	1460
806.463	1368
806.564	2255
806.664	2168
806.765	2531
806.865	923
806.966	1519
807.066	636
807.166	3195
807.267	2277
807.367	889
807.468	2333
807.568	583
807.668	1385
807.769	2213
807.869	914
807.969	1790
808.069	1290
808.170	1923
808.270	1084
808.370	1664
808.470	1450
808.570	832
808.670	1554
808.770	1934
808.870	1050
808.970	2094
809.070	1126
809.170	1480
809.271	1609
809.370	1939
809.470	1394
809.570	622
809.670	1206
809.770	1331
809.870	1844
809.970	1517
810.070	1943
810.169	2208
810.269	-309
810.369	1484
810.469	1322
810.568	685
810.668	803
810.768	941
810.867	1250
810.967	975
811.066	1356
811.166	907
811.265	1208
811.365	1495
811.464	881
811.564	2066
811.663	2044
811.763	1188
811.862	1253
811.962	2050
812.061	1592
812.160	1312
812.260	1170
812.359	2047
812.458	1778
812.557	3716
812.657	4306
812.756	2653
812.855	1471
812.954	1464
813.053	945
813.153	1951
813.252	1455
813.351	2012
813.450	1697
813.549	728
813.648	1040
813.747	1703
813.846	1825
813.945	1368
814.044	917
814.143	1899
814.242	1672
814.341	1530
814.439	1420
814.538	2170
814.637	1364
814.736	2071
814.835	2417
814.933	1254
815.032	3091
815.131	3491
815.229	7144
815.328	9285
815.427	6547
815.525	6824
815.624	5184
815.722	5566
815.821	5298
815.919	6077
816.018	6193
816.116	6779
816.215	6696
816.313	6661
816.412	8088
816.510	7834
816.609	9373
816.707	10123
816.805	8836
816.904	8284
817.002	7957
817.100	9613
817.198	9448
817.296	8773
817.395	7884
817.493	8411
817.591	6664
817.689	8753
817.787	7593
817.885	8296
817.983	7230
818.081	9170
818.179	9481
818.277	14568
818.375	13373
818.473	9085
818.571	7543
818.669	8023
818.767	8436
818.865	7462
818.963	5932
819.061	7538
819.158	6378
819.256	10156
819.354	10712
819.452	19653
819.549	14709
819.647	9296
819.745	6687
819.842	6346
819.940	6824
820.038	7091
820.135	6483
820.233	8300
820.330	6067
820.428	5927
820.525	6665
820.623	6113
820.720	4983
820.818	7119
820.915	6623
821.012	6532
821.110	5089
821.207	6577
821.304	6426
821.402	6937
821.499	7940
821.596	8304
821.693	6947
821.791	6991
821.888	5976
821.985	7058
822.082	5732
822.179	7415
822.276	7053
822.373	5713
822.470	5046
822.567	5569
822.664	4493
822.761	6049
822.858	5064
822.955	5521
823.052	4718
823.149	5730
823.246	6470
823.343	4395
823.440	4932
823.536	5745
823.633	5159
823.730	5223
823.827	5076
823.923	4864
824.020	5130
824.117	5914
824.213	5609
824.310	4558
824.407	3965
824.503	5824
824.600	4601
824.696	5195
824.793	6250
824.889	5858
824.986	3779
825.082	4129
825.179	4739
825.275	5665
825.371	5115
825.468	4500
825.564	2478
825.660	5726
825.757	6260
825.853	5028
825.949	3415
826.045	3468
826.142	4557
826.238	5281
826.334	5385
826.430	3817
826.526	3199
826.622	3018
826.718	4627
826.814	5367
826.910	5198
827.006	2412
827.102	2664
827.198	5882
827.294	4659
827.390	4709
827.486	3528
827.582	1886
827.678	3057
827.774	5482
827.869	2716
827.965	4525
828.061	2477
828.157	5131
828.252	4561
828.348	2991
828.444	3887
828.539	3407
828.635	3852
828.731	4730
828.826	3452
828.922	4585
829.017	4496
829.113	5552
829.208	3667
829.304	4433
829.399	5923
829.495	4100
829.590	4200
829.685	3424
829.781	4400
829.876	4945
829.971	2034
830.066	2453
830.162	3923
830.257	5708
830.352	4248
830.447	3173
830.543	3678
830.638	4029
830.733	5109
830.828	3570
830.923	4039
831.018	4336
831.113	5386
831.208	2675
831.303	2356
831.398	2918
831.493	3661
831.588	6154
831.683	2643
831.778	2522
831.873	2896
831.967	4976
832.062	3582
832.157	3468
832.252	3838
832.346	3289
832.441	4979
832.536	3167
832.631	3632
832.725	3796
832.820	2924
832.914	2843
833.009	2950
833.104	2266
833.198	2886
833.293	3625
833.387	4794
833.482	3859
833.576	3108
833.670	3935
833.765	4133
833.859	4736
833.954	5220
834.048	3662
834.142	2454
834.237	1993
834.331	3168
834.425	3462
834.519	2129
834.613	2918
834.708	2059
834.802	2736
834.896	2733
834.990	3370
835.084	1860
835.178	1673
835.272	2781
835.366	4000
835.460	4254
835.554	3192
835.648	2549
835.742	1970
835.836	1996
835.930	2219
836.024	3353
836.117	3342
836.211	2296
836.305	2322
836.399	2868
836.493	1297
836.586	3984
836.680	2745
836.774	1531
836.867	2478
836.961	1559
837.055	2174
837.148	2240
837.242	2733
837.335	2647
837.429	2721
837.522	1801
837.616	2498
837.709	2987
837.803	3129
837.896	3638
837.989	2683
838.083	1809
838.176	1907
838.269	1291
838.363	3680
838.456	1064
838.549	3396
838.642	1898
838.735	3274
838.829	3914
838.922	2533
839.015	1982
839.108	2226
839.201	1548
839.294	2301
839.387	2155
839.480	1678
839.573	1342
839.666	2040
839.759	1776
839.852	1987
839.945	2706
840.038	1791
840.131	1548
840.223	1782
840.316	2274
840.409	3016
840.502	1645
840.594	3074
840.687	1260
840.780	1745
840.873	762
840.965	1100
841.058	2428
841.150	3155
841.243	715
841.336	2482
841.428	1001
841.521	2097
841.613	1139
841.706	1980
841.798	2324
841.890	2868
841.983	1224
842.075	3046
842.167	1969
842.260	2275
842.352	3029
842.444	2669
842.537	1915
842.629	2249
842.721	708
842.813	2435
842.905	348
842.997	2703
843.090	2423
843.182	1914
843.274	625
843.366	3121
843.458	4552
843.550	5085
843.642	1655
843.734	1490
843.826	971
843.918	1934
844.009	1338
844.101	1613
844.193	1321
844.285	2484
844.377	2681
844.469	3501
844.560	2588
844.652	1915
844.744	1663
844.835	2007
844.927	2301
845.019	1854
845.110	2074
845.202	2453
845.293	1594
845.385	1313
845.476	1998
845.568	2297
845.659	1896
845.751	1283
845.842	1550
845.934	1344
846.025	1188
846.116	1815
846.208	1025
846.299	541
846.390	1422
846.482	1213
846.573	2122
846.664	1013
846.755	1384
846.846	2200
846.937	516
847.029	874
847.120	845
847.211	1459
847.302	2034
847.393	1014
847.484	1525
847.575	864
847.666	1193
847.757	1190
847.847	1415
847.938	1807
848.029	2201
848.120	1488
848.211	1053
848.302	958
848.392	1097
848.483	1879
848.574	1837
848.664	1948
848.755	1641
848.846	1925
848.936	1635
849.027	2013
849.118	2573
849.208	3154
849.299	5886
849.389	10244
849.480	21814
849.570	42431
849.661	81909
849.751	115972
849.841	35093
849.932	7057
850.022	3479
850.112	3792
850.203	2664
850.293	2654
850.383	1907
850.474	1663
850.564	1881
850.654	1006
850.744	1710
850.834	1931
850.924	2699
851.014	3217
851.104	1820
851.194	2126
851.284	2329
851.374	1860
851.464	926
851.554	2062
851.644	1947
851.734	2621
851.824	2020
851.914	2765
852.004	3135
852.094	2898
852.183	1247
852.273	2310
852.363	1559
852.452	2074
852.542	1985
852.632	1820
852.721	2137
852.811	2061
852.901	2345
852.990	3852
853.080	3241
853.169	3578
853.259	4082
853.348	4683
853.438	6238
853.527	8490
853.617	13933
853.706	27204
853.795	46454
853.885	95587
853.974	163038
854.063	291433
854.152	359566
854.242	140586
854.331	36481
854.420	16458
854.509	12981
854.598	9160
854.687	7179
854.777	6149
854.866	4171
854.955	4510
855.044	3264
855.133	3204
855.222	2510
855.311	2215
855.400	2234
855.488	2435
855.577	1398
855.666	2207
855.755	2672
855.844	2549
855.933	2138
856.021	1686
856.110	1769
856.199	1333
856.288	778
856.376	1659
856.465	703
856.554	2118
856.642	2399
856.731	2297
856.819	2063
856.908	2394
856.996	1315
857.085	1656
857.173	1418
857.262	1428
857.350	806
857.438	1574
857.527	2119
857.615	1570
857.703	1883
857.792	1090
857.880	1025
857.968	1521
858.056	1152
858.145	1422
858.233	1064
858.321	643
858.409	2318
858.497	2057
858.585	944
858.673	1211
858.761	209
858.849	1320
858.937	930
859.025	1662
859.113	1586
859.201	2024
859.289	2668
859.377	1585
859.465	1671
859.552	815
859.640	1169
859.728	1092
859.816	1251
859.903	1511
859.991	460
860.079	1806
860.166	1051
860.254	2076
860.342	1066
860.429	2042
860.517	1189
860.604	1896
860.692	1394
860.779	1179
860.867	843
860.954	2050
861.042	2192
861.129	2269
861.216	2334
861.304	2112
861.391	1085
861.478	1364
861.565	1572
861.653	2834
861.740	998
861.827	731
861.914	1660
862.001	1072
862.089	1128
862.176	1313
862.263	1668
862.350	1510
862.437	1361
862.524	1027
862.611	1702
862.698	2417
862.785	2889
862.871	3117
862.958	2265
863.045	2183
863.132	1932
863.219	2117
863.306	360
863.392	2085
863.479	1632
863.566	2274
863.652	2104
863.739	1824
863.826	2652
863.912	3285
863.999	1823
864.086	2480
864.172	2766
864.259	3493
864.345	2766
864.432	3776
864.518	2800
864.604	2957
864.691	3856
864.777	3508
864.863	5064
864.950	6643
865.036	9503
865.122	15223
865.209	15433
865.295	13518
865.381	13513
865.467	14967
865.553	16479
865.639	23587
865.726	34828
865.812	59970
865.898	98123
865.984	141859
866.070	247453
866.156	221673
866.242	71352
866.328	26433
866.414	17147
866.499	15302
866.585	14600
866.671	12583
866.757	11799
866.843	12292
866.928	10461
867.014	11636
867.100	11684
867.186	11114
867.271	10992
867.357	10509
867.442	10189
867.528	10129
867.614	11155
867.699	11534
867.785	10968
867.870	11146
867.956	11429
868.041	10721
868.127	10343
868.212	10419
868.297	10022
868.383	10043
868.468	9159
868.553	11579
868.639	9897
868.724	9563
868.809	9434
868.894	9222
868.979	10006
869.065	9366
869.150	7246
869.235	9002
869.320	8439
869.405	7860
869.490	8506
869.575	8546
869.660	6895
869.745	9996
869.830	10179
869.915	7690
870.000	6751
870.085	7677
870.169	10107
870.254	9607
870.339	6612
870.424	7372
870.509	8208
870.593	9181
870.678	9065
870.763	7094
870.847	7601
870.932	9135
871.016	8338
871.101	7013
871.186	8853
871.270	9575
871.355	6154
871.439	7802
871.523	7829
871.608	6587
871.692	6867
871.777	9302
871.861	8235
871.945	7599
872.030	8369
872.114	7857
872.198	6195
872.282	7710
872.367	6211
872.451	7986
872.535	6323
872.619	7871
872.703	7304
872.787	8637
872.871	7130
872.955	5387
873.039	5550
873.123	7842
873.207	7179
873.291	4774
873.375	6652
873.459	8294
873.543	6133
873.627	5246
873.711	5834
873.794	7501
873.878	6565
873.962	5115
874.045	5876
874.129	6050
874.137	6029
874.213	5819
874.245	5932
874.296	6115
874.352	5001
874.380	4455
874.460	6473
874.464	6553
874.547	6022
874.568	6247
874.631	6946
874.676	6963
874.714	6931
874.784	7006
874.798	7024
874.881	6188
874.892	6173
874.965	6166
874.999	6328
875.048	6484
875.107	6594
875.131	6609
875.215	4741
875.215	4741
875.298	4613
875.323	5210
875.381	6573
875.430	7669
875.465	8358
875.538	6335
875.548	6054
875.631	4894
875.646	4745
875.714	4185
875.753	4779
875.798	5556
875.861	6453
875.881	6637
875.964	6252
875.968	6187
876.047	5251
876.076	5468
876.130	6005
876.183	6653
876.213	6975
876.291	7776
876.296	7809
876.379	6033
876.398	5859
876.462	5245
876.506	4850
876.545	4777
876.613	5650
876.628	5821
876.711	6325
876.721	6478
876.794	7660
876.828	7417
876.877	6618
876.935	5345
876.960	5073
877.043	5697
877.043	5700
877.125	6770
877.150	7126
877.208	7552
877.258	6688
877.291	6029
877.365	5034
877.374	4972
877.456	5669
877.472	5505
877.539	4944
877.579	5979
877.622	7170
877.687	7333
877.704	7228
877.787	6353
877.794	6385
877.869	7347
877.901	7433
877.952	6962
878.008	5449
878.034	4953
878.115	5899
878.117	5924
878.199	5845
878.222	6183
878.282	7426
878.329	7816
878.364	7921
878.437	8368
878.447	8317
878.529	5287
878.544	5222
878.611	5594
878.651	5907
878.694	6815
878.758	7533
878.776	7444
878.858	7684
878.865	7598
878.941	6339
878.972	5858
879.023	5465
879.078	6160
879.105	6825
879.185	7522
879.187	7530
879.269	8576
879.292	8473
879.351	7841
879.399	7282
879.433	6786
879.506	6269
879.516	6326
879.598	6943
879.613	6918
879.680	6426
879.720	6859
879.762	7567
879.827	7240
879.844	6985
879.926	7105
879.933	7071
880.007	7438
880.040	7043
880.089	6212
880.147	6701
880.171	7355
880.253	8734
880.254	8729
880.335	7784
880.360	7728
880.417	8879
880.467	9749
880.499	9907
880.574	9587
880.580	9620
880.662	9423
880.680	9189
880.744	6788
880.787	5993
880.825	6291
880.893	6944
880.907	6974
880.989	6250
881.000	6325
881.070	7937
881.106	8164
881.152	7458
881.213	6683
881.233	6615
881.315	7102
881.319	7074
881.396	7372
881.426	7487
881.478	7594
881.532	8557
881.559	9100
881.639	8617
881.641	8579
881.722	7218
881.745	6856
881.803	7723
881.852	8535
881.885	8382
881.958	6584
881.966	6518
882.047	8442
882.064	8348
882.129	6580
882.171	6035
882.210	6050
882.277	5414
882.291	5571
882.372	7623
882.383	7833
882.454	9656
882.489	10165
882.535	9798
882.596	9706
882.616	9694
882.697	9204
882.702	9136
882.778	7019
882.808	6409
882.859	6443
882.914	6597
882.940	6837
883.020	7047
883.021	7069
883.102	8434
883.127	8872
883.183	10510
883.233	11070
883.264	9573
883.339	6466
883.345	6381
883.426	4636
883.445	4551
883.507	5927
883.551	6792
883.587	7994
883.657	9747
883.668	9877
883.749	10742
883.763	10758
883.830	7951
883.869	6497
883.910	6246
883.975	6313
883.991	6689
884.072	8181
884.081	8339
884.152	10394
884.187	11244
884.233	11853
884.292	12057
884.314	10994
884.394	6830
884.398	6649
884.475	5879
884.504	5425
884.555	5446
884.610	5892
884.636	6653
884.716	8410
884.716	8449
884.797	11863
884.821	12737
884.877	11482
884.927	10293
884.958	9640
885.033	7877
885.038	7839
885.118	7230
885.139	6979
885.199	6731
885.244	6791
885.279	7598
885.350	9170
885.359	9564
885.439	12888
885.456	13357
885.520	10948
885.561	9595
885.600	8575
885.667	7121
885.680	7452
885.760	8761
885.773	8973
885.840	7186
885.878	6306
885.920	6910
885.984	7725
886.000	8147
886.080	10012
886.089	10174
886.160	10573
886.195	10689
886.240	10169
886.300	9720
886.320	9855
886.400	10075
886.406	10064
886.480	7997
886.511	7084
886.560	7453
886.616	7870
886.640	7916
886.720	8102
886.722	8083
886.800	7594
886.827	7483
886.879	8520
886.932	9394
886.959	10137
887.038	12386
887.039	12395
887.119	10428
887.143	9768
887.198	9813
887.248	9805
887.278	9458
887.354	8555
887.358	8630
887.437	9604
887.459	9907
887.517	10041
887.564	9920
887.596	9232
887.669	7696
887.676	7572
887.755	5915
887.774	5457
887.835	6332
887.880	7094
887.914	7788
887.985	9029
887.994	9358
888.073	12154
888.090	12686
888.153	13857
888.195	14486
888.232	12726
888.300	9602
888.311	9338
888.391	7138
888.405	6739
888.470	7564
888.510	8012
888.549	8277
888.615	8794
888.628	9283
888.708	11972
888.720	12360
888.787	11479
888.825	10865
888.866	9456
888.930	7357
888.945	7623
889.024	8881
889.035	9027
889.103	11122
889.140	12158
889.182	10815
889.245	8863
889.261	9206
889.340	10681
889.349	10823
889.419	10029
889.454	9607
889.498	9066
889.559	8275
889.577	8706
889.656	10492
889.664	10646
889.735	10972
889.768	11073
889.814	10984
889.873	10795
889.978	10051
890.083	8947
890.187	11247
890.292	11620
890.397	9219
890.501	9379
890.606	7007
890.710	9929
890.815	13821
890.919	11608
891.024	11038
891.128	8314
891.233	7682
891.337	11183
891.442	12307
891.546	10446
891.650	8662
891.755	7915
891.859	10233
891.963	12837
892.068	9762
892.172	8916
892.276	6318
892.380	8287
892.484	11940
892.589	12259
892.693	10540
892.797	6996
892.901	6757
893.005	7556
893.109	13120
893.213	12661
893.317	10023
893.421	6405
893.525	6678
893.629	6761
893.733	11595
893.837	9922
893.941	9867
894.045	6848
894.148	6807
894.252	8461
894.356	11733
894.460	13717
894.564	9105
894.667	8533
894.771	5790
894.875	5823
894.978	8417
895.082	9452
895.186	10842
895.289	8440
895.393	7080
895.496	11818
895.600	8737
895.703	6471
895.807	8737
895.910	8186
896.014	9412
896.117	7632
896.221	9358
896.324	9637
896.427	7149
896.531	6768
896.634	9151
896.737	7654
896.840	8480
896.944	10660
897.047	11651
897.150	9128
897.253	6176
897.356	6368
897.460	5977
897.563	7047
897.666	10656
897.769	9766
897.872	6779
897.975	6689
898.078	7985
898.181	7337
898.284	7397
898.387	11173
898.490	11278
898.593	7113
898.695	7499
898.798	7160
898.901	6774
899.004	6681
899.107	7732
899.209	8025
899.312	11805
899.415	8144
899.518	5764
899.620	5861
899.723	6533
899.826	7507
899.928	6698
900.031	7213
900.133	10704
900.236	8371
900.338	5489
900.441	6488
900.543	7196
900.646	8244
900.748	8097
900.851	9340
900.953	7554
901.055	6180
901.158	6685
901.260	6168
901.362	5958
901.465	5891
901.567	9596
901.669	10044
901.771	7193
901.873	7906
901.976	7809
902.078	7731
902.180	7209
902.282	6700
902.384	7375
902.486	10719
902.588	9144
902.690	6254
902.792	6033
902.894	6679
902.996	9823
903.098	8690
903.200	6006
903.302	5653
903.404	6835
903.505	6638
903.607	6712
903.709	11120
903.811	11438
903.913	7362
904.014	6298
904.116	4884
904.218	6277
904.319	8058
904.421	11923
904.523	9871
904.624	6988
904.726	5830
904.827	5150
904.929	6371
905.030	7492
905.132	10291
905.233	9317
905.335	6559
905.436	5969
905.537	6034
905.639	6341
905.740	7740
905.841	9585
905.943	8189
906.044	6628
906.145	6048
906.247	5288
906.348	6802
906.449	7871
906.550	9518
906.651	6577
906.752	6600
906.854	5508
906.955	5281
907.056	7675
907.157	9217
907.258	10018
907.359	5171
907.460	6360
907.561	4793
907.662	5800
907.762	7193
907.863	8128
907.964	9011
908.065	7213
908.166	5398
908.267	7014
908.367	5197
908.468	6239
908.569	6844
908.670	9083
908.770	6912
908.871	7757
908.971	8335
909.072	7114
909.173	6058
909.273	7977
909.374	9679
909.474	8363
909.575	6218
909.675	6491
909.776	7347
909.876	7309
909.977	7067
910.077	8071
910.177	8899
910.278	8268
910.378	6330
910.478	7191
910.579	9380
910.679	8819
910.779	8642
910.879	8316
910.980	7599
911.080	9159
911.180	6952
911.280	5874
911.380	5609
911.480	6730
911.580	7283
911.680	7477
911.780	8365
911.880	8042
911.980	6658
912.080	6763
912.180	7846
912.280	6820
912.380	7268
912.480	5519
912.580	5221
912.679	6428
912.779	9920
912.879	8257
912.979	6377
913.078	5958
913.178	5782
913.278	5977
913.377	5812
913.477	6125
913.577	6146
913.676	9028
913.776	8411
913.875	9066
913.975	6743
914.074	6907
914.174	8745
914.273	6398
914.373	6894
914.472	7338
914.572	6395
914.671	6035
914.770	6177
914.870	6634
914.969	6065
915.068	8236
915.167	9131
915.267	7636
915.366	6717
915.465	7696
915.564	8544
915.663	7911
915.763	8221
915.862	9898
915.961	9030
916.060	6388
916.159	6097
916.258	5946
916.357	6515
916.456	8515
916.555	8143
916.654	8769
916.752	9383
916.851	9449
916.950	6231
917.049	7963
917.148	6364
917.247	6405
917.345	5931
917.444	6567
917.543	6359
917.642	7225
917.740	8508
917.839	11878
917.937	11755
918.036	10648
918.135	7253
918.233	7093
918.332	7393
918.430	7716
918.529	6699
918.627	8162
918.726	10753
918.824	8242
918.923	7882
919.021	7064
919.119	6558
919.218	7212
919.316	7925
919.414	8660
919.512	10778
919.611	10213
919.709	8694
919.807	11178
919.905	11821
920.003	11229
920.102	11400
920.200	11294
920.298	12171
920.396	12206
920.494	9071
920.592	10373
920.690	10698
920.788	11015
920.886	11219
920.984	12073
921.082	12568
921.180	13665
921.277	12734
921.375	15252
921.473	20139
921.571	19546
921.669	17750
921.766	17328
921.864	17764
921.962	17876
922.060	16004
922.157	17657
922.255	19446
922.352	18111
922.450	19208
922.548	19854
922.645	22439
922.743	28364
922.840	40058
922.938	47888
923.035	41320
923.133	41263
923.230	45693
923.327	55856
923.425	51065
923.522	49802
923.619	46964
923.717	43576
923.814	42184
923.911	41905
924.008	43204
924.106	41092
924.203	40504
924.300	42961
924.397	41100
924.494	42141
924.591	40389
924.688	39316
924.786	40702
924.883	41726
924.979	41750
925.077	41537
925.173	38722
925.270	40117
925.367	38829
925.464	41966
925.561	42560
925.658	44289
925.755	36818
925.852	42255
925.948	40592
926.045	39625
926.142	40816
926.239	42208
926.335	33561
926.432	38697
926.529	39778
926.625	42971
926.722	35420
926.818	34388
926.915	40567
927.011	37649
927.108	36604
927.204	38327
927.301	33234
927.397	38833
927.494	43282
927.590	31594
927.687	31561
927.783	42270
927.879	41792
927.976	36023
928.072	32101
928.168	37759
928.264	38679
928.361	34942
928.457	40724
928.553	33539
928.649	34398
928.745	37438
928.841	32501
928.937	34282
929.033	36124
929.129	33369
929.225	37890
929.321	33864
929.417	29249
929.513	37331
929.609	32981
929.705	31078
929.801	35832
929.897	30858
929.993	30770
930.089	33230
930.184	29677
930.280	33829
930.376	38540
930.471	31973
930.567	26971
930.663	31030
930.758	28464
930.854	30190
930.950	30400
931.045	28476
931.141	29314
931.236	35478
931.332	32348
931.427	25680
931.523	35274
931.618	34253
931.714	23627
931.809	26731
931.905	33317
932.000	24933
932.095	22398
932.191	33032
932.286	37199
932.381	32155
932.476	23966
932.572	28940
932.667	24856
932.762	26194
932.857	29233
932.952	33573
933.047	29070
933.142	24110
933.237	28006
933.332	30618
933.427	32736
933.522	28462
933.617	23624
933.712	25939
933.807	32573
933.902	34765
933.997	35254
934.092	25826
934.187	26441
934.282	29295
934.376	29476
934.471	32537
934.566	24288
934.661	24581
934.755	28193
934.850	30966
934.945	26329
935.039	22171
935.134	21282
935.228	24895
935.323	36335
935.417	23780
935.512	18680
935.606	19778
935.701	26640
935.795	29513
935.890	26457
935.984	22281
936.079	18679
936.173	24017
936.267	21978
936.362	21353
936.456	24490
936.550	31400
936.644	26183
936.738	19939
936.833	20260
936.927	18256
937.021	21462
937.115	23848
937.209	26716
937.303	22940
937.397	18494
937.491	22248
937.585	25707
937.679	25441
937.773	20182
937.867	18519
937.961	18475
938.055	27269
938.149	24776
938.243	17440
938.337	16083
938.430	19682
938.524	27925
938.618	23060
938.712	18730
938.805	20477
938.899	24688
938.993	29727
939.086	19543
939.180	15402
939.274	18128
939.367	24322
939.461	26204
939.554	20090
939.648	18969
939.741	18541
939.835	21448
939.928	28724
940.022	26414
940.115	21591
940.208	24265
940.302	27991
940.395	29138
940.488	20796
940.582	19113
940.675	18189
940.768	16548
940.861	23480
940.954	25724
941.048	17025
941.141	14904
941.234	17216
941.327	20317
941.420	21125
941.513	22718
941.606	19020
941.699	16879
941.792	22455
941.885	21342
941.978	19913
942.071	20677
942.164	16623
942.257	15133
942.349	18649
942.442	21017
942.535	16237
942.628	15908
942.721	17053
942.813	19104
942.906	19891
942.999	18737
943.091	15133
943.184	17234
943.277	17994
943.369	14962
943.462	12325
943.554	16540
943.647	18567
943.739	21112
943.832	23943
943.924	13074
944.017	13644
944.109	14530
944.201	15783
944.294	15596
944.386	16936
944.478	15668
944.571	15016
944.663	15563
944.755	17322
944.847	19451
944.940	17411
945.032	12412
945.124	13169
945.216	16523
945.308	16715
945.400	16617
945.492	15779
945.584	20436
945.676	22319
945.768	17717
945.860	19061
945.952	21687
946.044	17952
946.136	14057
946.228	17103
946.320	14674
946.412	16920
946.503	20547
946.595	20458
946.687	14817
946.779	11978
946.870	12651
946.962	14630
947.054	14448
947.145	17706
947.237	15058
947.329	15233
947.420	17022
947.512	14910
947.603	12029
947.695	12032
947.786	13122
947.878	13273
947.969	15176
948.061	17329
948.152	15934
948.243	11086
948.335	11002
948.426	12313
948.517	15442
948.609	17794
948.700	16365
948.791	14373
948.882	10719
948.973	11503
949.065	14888
949.156	14937
949.247	10808
949.338	12651
949.429	10558
949.520	11370
949.611	14110
949.702	17660
949.793	12332
949.884	14626
949.975	13522
950.066	10149
950.157	10575
950.247	11764
950.338	11791
950.429	11165
950.520	13252
950.611	11572
950.701	13516
950.792	16801
950.883	15983
950.973	13336
951.064	15165
951.155	16554
951.245	15917
951.336	15517
951.427	16547
951.517	18946
951.608	15037
951.698	13126
951.788	11636
951.879	10024
951.969	11314
952.060	12201
952.150	13743
952.240	16030
952.331	15232
952.421	14354
952.511	11050
952.602	8367
952.692	8733
952.782	9931
952.872	11401
952.962	13364
953.052	12330
953.143	11735
953.233	11117
953.323	11970
953.413	13491
953.503	14299
953.593	13330
953.683	12619
953.773	9524
953.863	9411
953.953	9180
954.042	11289
954.132	13613
954.222	12860
954.312	10151
954.402	10895
954.492	10496
954.581	12239
954.671	12621
954.761	11157
954.850	11616
954.940	7695
955.030	7941
955.119	9770
955.209	10273
955.298	11150
955.388	13536
955.477	13886
955.567	10112
955.656	10280
955.746	10927
955.835	10273
955.925	10225
956.014	12823
956.103	15184
956.193	17380
956.282	15114
956.371	12536
956.461	12198
956.550	12242
956.639	11744
956.728	10675
956.817	11519
956.906	11388
956.995	13856
957.085	11754
957.174	11244
957.263	10403
957.352	10700
957.441	11485
957.530	10974
957.619	10020
957.708	10625
957.796	10713
957.885	10925
957.974	9770
958.063	10805
958.152	8591
958.241	9475
958.329	8934
958.418	10922
958.507	10698
958.596	14108
958.684	11085
958.773	12231
958.861	9838
958.950	7999
959.039	9275
959.127	9604
959.216	11095
959.304	10352
959.393	10591
959.481	11777
959.570	9444
959.658	8492
959.746	8743
959.835	9937
959.923	9563
960.011	8742
960.100	10478
960.188	11683
960.276	10685
960.365	9253
960.453	8869
960.541	7124
960.629	8475
960.717	7795
960.805	7002
960.893	8188
960.981	11198
961.069	13080
961.158	14604
961.245	16121
961.333	14683
961.421	9776
961.509	10552
961.597	11405
961.685	10206
961.773	9905
961.861	12311
961.949	11715
962.036	9021
962.124	8972
962.212	8671
962.299	9167
962.387	8240
962.475	9147
962.562	8848
962.650	11194
962.738	9188
962.825	6409
962.913	8229
963.000	7970
963.088	10890
963.175	10527
963.263	8613
963.350	8692
963.438	9505
963.525	8156
963.612	8796
963.700	8169
963.787	10520
963.874	9325
963.962	7922
964.049	7015
964.136	7512
964.223	7792
964.310	7568
964.398	7536
964.485	8511
964.572	9434
964.659	10007
964.746	8781
964.833	7147
964.920	8272
965.007	7575
965.094	7422
965.181	8947
965.268	10442
965.355	10432
965.441	8823
965.528	8240
965.615	9468
965.702	9658
965.789	8153
965.875	9681
965.962	10573
966.049	10067
966.136	11214
966.222	11645
966.309	11966
966.395	11273
966.482	11192
966.569	9857
966.655	10276
966.742	9629
966.828	8317
966.915	6784
967.001	7887
967.087	6611
967.174	7303
967.260	8132
967.347	7766
967.433	8998
967.519	9546
967.605	9435
967.692	8219
967.778	8677
967.864	7039
967.950	8698
968.036	6913
968.123	9464
968.209	8607
968.295	6307
968.381	7609
968.467	7923
968.553	5913
968.639	9627
968.725	8400
968.811	11214
968.897	10830
968.983	9194
969.069	6711
969.154	6959
969.240	6787
969.326	5591
969.412	7380
969.497	7645
969.583	6575
969.669	8295
969.755	10220
969.840	9019
969.926	13606
970.012	17485
970.097	20479
970.183	17356
970.268	13165
970.354	10002
970.439	8408
970.525	8712
970.610	8061
970.696	10253
970.781	7883
970.866	6870
970.952	7903
971.037	7703
971.122	9207
971.208	8978
971.293	8543
971.378	8548
971.463	8822
971.549	7341
971.634	6743
971.719	8806
971.804	7665
971.889	7049
971.974	7928
972.059	8172
972.144	8150
972.229	7929
972.314	7884
972.399	7575
972.484	6119
972.569	6689
972.654	6569
972.739	8007
972.824	7004
972.908	7636
972.993	5941
973.078	6329
973.163	7822
973.247	8313
973.332	6808
973.417	8536
973.501	7167
973.586	8730
973.671	8128
973.755	7650
973.840	7858
973.924	10295
974.009	11107
974.093	12459
974.178	11628
974.262	9855
974.346	8960
974.431	9593
974.515	9062
974.600	9094
974.684	9359
974.768	7929
974.852	9226
974.937	8267
975.021	8772
975.105	8998
975.189	8449
975.273	8460
975.358	6472
975.442	6266
975.526	8490
975.610	6223
975.694	7264
975.778	8725
975.862	7785
975.946	6033
976.030	9105
976.114	6652
976.198	6721
976.281	7675
976.365	8671
976.449	8002
976.533	7118
976.617	6875
976.700	6720
976.784	6152
976.868	6379
976.951	7094
977.035	6526
977.119	7172
977.202	7676
977.286	8661
977.369	10926
977.453	16293
977.536	14518
977.620	12059
977.703	10758
977.787	10199
977.870	10414
977.953	10843
978.037	7538
978.120	8284
978.203	9693
978.287	9667
978.370	9299
978.453	7652
978.536	7512
978.620	8510
978.703	8988
978.786	7998
978.869	7364
978.952	7069
979.035	9670
979.118	8245
979.201	7322
979.284	9091
979.367	8397
979.450	8135
979.533	6503
979.616	6511
979.699	7759
979.782	8821
979.865	8313
979.948	8554
980.030	8042
980.113	8017
980.196	6859
980.279	8509
980.361	8193
980.444	8091
980.526	10618
980.609	13930
980.692	17168
980.774	14861
980.857	11530
980.939	13429
981.022	10719
981.104	10975
981.187	9144
981.269	10479
981.352	9642
981.434	9280
981.516	9144
981.599	10316
981.681	9702
981.763	9181
981.846	9517
981.928	10004
982.010	9323
982.092	9063
982.174	10100
982.256	9450
982.339	9369
982.421	8671
982.503	9243
982.585	8397
982.667	7918
982.749	9853
982.831	8362
982.913	9091
982.995	10211
983.077	9144
983.158	11453
983.240	10286
983.322	13163
983.404	17792
983.486	16398
983.568	15277
983.649	13689
983.731	13580
983.813	12062
983.894	11158
983.976	12372
984.058	12471
984.139	11714
984.221	10089
984.302	11431
984.384	11270
984.465	11287
984.547	12342
984.628	10595
984.710	12411
984.791	11574
984.872	10862
984.954	11310
985.035	11687
985.116	11495
985.198	10643
985.279	12090
985.360	12084
985.441	10799
985.522	13186
985.604	12045
985.685	10333
985.766	11426
985.847	12619
985.928	11586
986.009	12245
986.090	12454
986.171	13366
986.252	12456
986.333	11903
986.414	12187
986.495	11942
986.576	12448
986.656	13379
986.737	14179
986.818	14239
986.899	13161
986.980	12669
987.060	13241
987.141	13175
987.222	16584
987.302	16208
987.383	17121
987.464	15696
987.544	16580
987.625	15014
987.705	17287
987.786	17075
987.866	15613
987.947	16064
988.027	16321
988.108	15129
988.188	15051
988.268	13752
988.349	14767
988.429	15168
988.509	14695
988.589	13141
988.670	13022
988.750	14038
988.830	12876
988.910	15302
988.990	14597
989.070	13481
989.151	13362
989.231	12816
989.311	13496
989.391	11801
989.471	13231
989.551	13007
989.631	11825
989.711	13875
989.791	12870
989.870	12482
989.950	13045
990.030	12961
990.110	12660
990.190	11299
990.269	11177
990.349	12320
990.429	13128
990.509	11563
990.588	9057
990.668	11592
990.747	12591
990.827	10805
990.907	11420
990.986	12851
991.066	11867
991.145	9413
991.225	11249
991.304	11991
991.383	11496
991.463	10102
991.542	11787
991.622	9979
991.701	9576
991.780	9709
991.859	9574
991.939	9264
992.018	11252
992.097	11246
992.176	8757
992.256	10124
992.335	10141
992.414	11804
992.493	8884
992.572	8756
992.651	10458
992.730	9796
992.809	8494
992.888	8355
992.967	9466
993.046	9900
993.125	7343
993.203	8939
993.282	9214
993.361	9523
993.440	9032
993.519	8478
993.597	9633
993.676	8968
993.755	9095
993.834	9784
993.912	6881
993.991	8484
994.069	7557
994.148	8869
994.226	7374
994.305	7343
994.384	8070
994.462	10032
994.540	7258
994.619	6273
994.697	8688
994.776	8396
994.854	8968
994.932	6799
995.011	7348
995.089	6530
995.167	7047
995.245	7512
995.324	8118
995.402	7972
995.480	7673
995.558	6475
995.636	5745
995.714	6743
995.792	8547
995.870	6062
995.948	5948
996.026	6766
996.104	5683
996.182	8010
996.260	4923
996.338	6629
996.416	6364
996.494	7262
996.572	7871
996.649	5745
996.727	5682
996.805	7668
996.883	6176
996.960	6800
997.038	6306
997.116	6715
997.193	5843
997.271	5391
997.348	3447
997.426	5052
997.504	5900
997.581	7491
997.658	5251
997.736	3041
997.813	3527
997.891	7400
997.968	5407
998.046	5664
998.123	4646
998.200	7473
998.277	5990
998.355	6199
998.432	3350
998.509	4215
998.586	4711
998.663	5650
998.741	5482
998.818	4177
998.895	4605
998.972	5215
999.049	5326
999.126	5407
999.203	4041
999.280	4508
999.357	4195
999.434	4227
999.511	4752
999.587	3633
999.664	2036
999.741	4307
999.818	4552
999.895	5094
999.971	3884
1000.048	4427
1000.125	4555
1000.202	4057
1000.278	4278
1000.355	5286
1000.431	3999
1000.508	2936
1000.584	2625
1000.661	2965
1000.738	2967
1000.814	3810
1000.890	4482
1000.967	3760
1001.043	3922
1001.120	3154
1001.196	3636
1001.272	2486
1001.349	3453
1001.425	4641
1001.501	3695
1001.577	3832
1001.654	4267
1001.730	3139
1001.806	3603
1001.882	2779
1001.958	4947
1002.034	4407
1002.110	2756
1002.186	2300
1002.262	2719
1002.338	2040
1002.414	3395
1002.490	3473
1002.566	2827
1002.642	2743
1002.718	3034
1002.794	2684
1002.870	2816
1002.945	2942
1003.021	2167
1003.097	2657
1003.173	2487
1003.248	3391
1003.324	3602
1003.400	2694
1003.475	2151
1003.551	2228
1003.626	2372
1003.702	2028
1003.777	1475
1003.853	2029
1003.928	1760
1004.004	2086
1004.079	2261
1004.155	3878
1004.230	1647
1004.305	2698
1004.381	1459
1004.456	1211
1004.531	1445
1004.607	2234
1004.682	2307
1004.757	2129
1004.832	2013
1004.907	1988
1004.982	2419
1005.057	1887
1005.133	1472
1005.208	1536
1005.283	716
1005.358	1757
1005.433	231
1005.508	1759
1005.583	1242
1005.657	2559
1005.732	2142
1005.807	1162
1005.882	1451
1005.957	1531
1006.032	789
1006.106	1252
1006.181	641
1006.256	2701
1006.331	1722
1006.405	738
1006.480	1219
1006.554	659
1006.629	822
1006.704	506
1006.778	1408
1006.853	2227
1006.927	939
1007.002	997
1007.076	1499
1007.150	809
1007.225	977
1007.299	1396
1007.373	649
1007.448	984
1007.522	1224
1007.596	367
1007.671	489
1007.745	1379
1007.819	494
1007.893	958
1007.967	1298
1008.041	823
1008.115	1278
1008.190	133
1008.264	584
1008.338	-101
1008.412	483
1008.486	1001
1008.560	401
1008.633	571
1008.707	1394
1008.781	1502
1008.855	1436
1008.929	1573
1009.003	-2
1009.076	723
1009.150	298
1009.224	708
1009.298	1049
1009.371	-319
1009.445	709
1009.519	329
1009.592	507
1009.666	713
1009.739	-416
1009.813	-17
1009.886	1515
1009.960	63
1010.033	704
1010.107	1107
1010.180	-280
1010.253	-72
1010.327	-401
1010.400	1
1010.473	-637
1010.547	773
1010.620	-186
1010.693	-195
1010.766	-319
1010.840	708
1010.913	-188
1010.986	-477
1011.059	-685
1011.132	-558
1011.205	1276
1011.278	676
1011.351	199
1011.424	376
1011.497	-158
1011.570	223
1011.643	277
1011.716	-332
1011.789	699
1011.862	-162
1011.934	-56
1012.007	-1207
1012.080	177
1012.153	-296
1012.225	287
1012.298	-872
1012.371	2
1012.443	290
1012.516	-843
1012.588	370
1012.661	89
1012.733	-188
1012.806	-595
1012.879	-615
1012.951	-565
1013.023	-492
1013.096	-582
1013.168	-554
1013.241	803
1013.313	-678
1013.385	-626
1013.458	-451
1013.530	-860
1013.602	-1434
1013.674	-831
1013.746	-1128
1013.819	-254
1013.891	-225
1013.963	-640
1014.035	363
1014.107	-153
1014.179	-390
1014.251	-1077
1014.323	-719
1014.395	-801
1014.467	-110
1014.539	-595
1014.611	-1265
1014.683	-1099
1014.754	-1161
1014.826	-1843
1014.898	290
1014.970	-580
1015.042	162
1015.113	98
1015.185	-602
1015.257	-588
1015.328	-378
1015.400	-594
1015.471	-376
1015.543	-606
1015.615	-819
1015.686	-826
1015.757	-1044
1015.829	-644
1015.901	-1252
1015.972	-751
1016.043	-1137
1016.115	-380
1016.186	-1012
1016.257	-1323
1016.328	-938
1016.400	-192
1016.471	-1511
1016.542	-1339
1016.613	-841
1016.685	-792
1016.756	124
1016.827	-358
1016.898	-800
1016.969	-900
1017.040	-1512
1017.111	-1186
1017.182	-1627
1017.253	-1042
1017.324	-1802
1017.395	-713
1017.466	-576
1017.537	-1339
1017.608	-761
1017.678	-1034
1017.749	-1191
1017.820	-1150
1017.891	-1102
1017.961	-1244
1018.032	-638
1018.103	-1077
1018.173	-1179
1018.244	-957
1018.315	-1211
1018.385	-547
1018.456	-184
1018.526	-1386
1018.597	-1550
1018.667	-1404
1018.738	-2319
1018.808	-1198
1018.878	-1628
1018.949	-1760
1019.019	-1026
1019.089	-989
1019.160	-566
1019.230	-2120
1019.300	-1042
1019.371	-2075
1019.441	-1142
1019.511	-1345
1019.581	-1332
1019.651	-1197
1019.721	-1503
1019.791	-813
1019.861	-1414
1019.931	-638
1020.001	-885
1020.071	-663
1020.141	-605
1020.211	-1542
1020.281	-1763
1020.351	-1482
1020.421	-1556
1020.491	-1439
1020.560	-1686
1020.630	-93
1020.700	-1596
1020.770	-2000
1020.839	-1485
1020.909	-651
1020.979	-790
1021.048	-1673
1021.118	-1687
1021.187	-1593
1021.257	-1228
1021.326	-467
1021.396	-1151
1021.465	-1627
1021.535	-2056
1021.604	-1513
1021.674	-827
1021.743	-1749
1021.812	-1140
1021.882	-1767
1021.951	-576
1022.020	-1524
1022.089	-516
1022.159	-1239
1022.228	-1023
1022.297	-1446
1022.366	-1428
1022.435	-1191
1022.504	-1294
1022.573	-1776
1022.642	-1530
1022.711	-1901
1022.781	-1997
1022.849	-782
1022.918	-1490
1022.987	-1715
1023.056	-1619
1023.125	-880
1023.194	-1164
1023.263	-1615
1023.331	-1039
1023.400	-1716
1023.469	-1505
1023.538	-1162
1023.606	-1957
1023.675	-1559
1023.744	-2203
1023.812	-2138
1023.881	-1299
1023.949	-1030
1024.018	-426
1024.086	-1464
1024.155	-815
1024.223	-2103
1024.292	-821
1024.360	-1814
1024.429	-1963
1024.497	-2120
1024.565	-1447
1024.634	-1320
1024.702	-1351
1024.770	-1266
1024.838	-1317
1024.907	-1232
1024.975	-1770
1025.043	-1197
1025.111	-1735
1025.179	-1456
1025.247	-1919
1025.315	-2111
1025.383	-1600
1025.451	-1301
1025.519	-1232
1025.587	-1617
1025.655	-2123
1025.723	-2331
1025.791	-1841
1025.859	-899
1025.927	-1044
1025.995	-1533
1026.062	-1299
1026.130	-1705
1026.198	-1545
1026.266	-1429
1026.333	-949
1026.401	-1465
1026.469	-1460
1026.536	-1592
1026.604	-1621
1026.671	-1478
1026.739	-2178
1026.806	-1594
1026.874	-1608
1026.941	-2642
1027.009	-2129
1027.076	-1931
1027.144	-948
1027.211	-917
1027.278	-1858
1027.345	-1564
1027.413	-1911
1027.480	-2256
1027.547	-1696
1027.614	-787
1027.682	-2014
1027.749	-1946
1027.816	-1666
1027.883	-1552
1027.950	-893
1028.017	-2911
1028.084	-598
1028.151	-2894
1028.218	-1780
1028.285	-2015
1028.352	-2152
1028.419	-2540
1028.486	-1393
1028.553	-1303
1028.619	-1364
1028.686	-1816
1028.753	-1937
1028.820	-2044
1028.886	-1494
1028.953	-2080
1029.020	-2924
1029.086	-1690
1029.153	-2324
1029.220	-1454
1029.286	-2203
1029.353	-1998
1029.419	-2761
1029.486	-2155
1029.552	-2018
1029.619	-1725
1029.685	-1761
1029.751	-1799
1029.818	-1626
1029.884	-1698
1029.951	-1376
1030.017	-1117
1030.083	-1790
1030.149	-2809
1030.216	-2202
1030.282	-1862
1030.348	-2030
1030.414	-2591
1030.480	-2178
1030.546	-2438
1030.612	-1558
1030.678	-2768
1030.744	-1639
1030.810	-1878
1030.876	-971
1030.942	-2838
1031.008	-1420
1031.074	-2476
1031.140	-1588
1031.206	-1733
1031.272	-2513
1031.337	-3071
1031.403	-2169
1031.469	-1393
1031.534	-1810
1031.600	-2169
1031.666	-1247
1031.731	-2590
1031.797	-1821
1031.863	-2007
1031.928	-1904
1031.994	-2350
1032.059	-2289
1032.125	-1676
1032.190	-1945
1032.256	-2160
1032.321	-2447
1032.386	-2895
1032.452	-2182
1032.517	-2299
1032.582	-2690
1032.647	-2349
1032.713	-1693
1032.778	-2949
1032.843	-2160
1032.908	-2406
1032.974	-2113
1033.039	-1782
1033.104	-2668
1033.169	-1834
1033.234	-2006
1033.299	-2248
1033.364	-1446
1033.429	-2093
1033.494	-1474
1033.559	-1768
1033.624	-1331
1033.688	-1671
1033.753	-1759
1033.818	-440
1033.883	-784
1033.948	-12
1034.013	1465
1034.077	1549
1034.142	2458
1034.207	4107
1034.271	7299
1034.336	9497
1034.400	6204
1034.465	3020
1034.530	180
1034.594	-1127
1034.658	-1128
1034.723	-1720
1034.787	-2334
1034.852	-1641
1034.916	-2730
1034.981	-1788
1035.045	-1528
1035.109	-2937
1035.173	-1405
1035.238	-2543
1035.302	-2427
1035.366	-1979
1035.430	-2057
1035.495	-2059
1035.559	-1676
1035.623	-1832
1035.687	-1932
1035.751	-1709
1035.815	-1797
1035.879	-2161
1035.943	-1775
1036.007	-2209
1036.071	-2120
1036.135	-1996
1036.198	-2451
1036.262	-2875
1036.326	-1918
1036.390	-1430
1036.454	-1271
1036.517	-3117
1036.581	-2519
1036.645	-2687
1036.709	-1572
1036.772	-2384
1036.836	-2010
1036.900	-2304
1036.963	-1977
1037.026	-1607
1037.090	-2705
1037.154	-2847
1037.217	-1881
1037.280	-2205
1037.344	-2292
1037.407	-3070
1037.471	-1283
1037.534	-3399
1037.597	-2166
1037.661	-1583
1037.724	-1550
1037.787	-2575
1037.850	-1534
1037.913	-2283
1037.977	-1355
1038.040	-2120
1038.103	-1541
1038.166	-2969
1038.229	-2371
1038.292	-2526
1038.355	-2423
1038.418	-2153
1038.481	-995
1038.544	-2348
1038.607	-2398
1038.670	-1988
1038.732	-2195
1038.795	-2913
1038.858	-2188
1038.921	-2393
1038.984	-2054
1039.046	-2404
1039.109	-2011
1039.172	-2775
1039.234	-2435
1039.297	-2219
1039.360	-2994
1039.422	-1960
1039.485	-2300
1039.547	-2734
1039.610	-1555
1039.672	-2197
1039.734	-2484
1039.797	-2510
1039.859	-1953
1039.922	-2201
1039.984	-2443
1040.046	-2051
1040.109	-2481
1040.171	-2631
1040.233	-1874
1040.295	-2468
1040.358	-2877
1040.420	-1552
1040.482	-1638
1040.544	-2553
1040.606	-2161
1040.668	-2960
1040.730	-1933
1040.792	-3279
1040.854	-2325
1040.916	-2370
1040.978	-2857
1041.040	-1751
1041.102	-2432
1041.164	-2781
1041.225	-1746
1041.287	-2463
1041.349	-2713
1041.411	-2218
1041.472	-1628
1041.534	-2254
1041.596	-2953
1041.657	-2199
1041.719	-2200
1041.781	-2378
1041.842	-2352
1041.904	-2474
1041.965	-2777
1042.027	-2386
1042.088	-2764
1042.150	-2698
1042.211	-2587
1042.272	-2351
1042.334	-1972
1042.395	-2158
1042.456	-3104
1042.518	-2514
1042.579	-2475
1042.640	-2433
1042.701	-2182
1042.763	-2892
1042.824	-1751
1042.885	-2701
1042.946	-2371
1043.007	-2511
1043.068	-2302
1043.129	-2585
1043.190	-2569
1043.251	-2176
1043.312	-2457
1043.373	-2198
1043.434	-2022
1043.495	-3253
1043.556	-2225
1043.616	-2769
1043.677	-2680
1043.738	-2551
1043.799	-3103
1043.859	-2668
1043.920	-3037
1043.981	-2235
1044.041	-2910
1044.102	-1719
1044.162	-2076
1044.223	-2807
1044.284	-2331
1044.344	-1970
1044.405	-2091
1044.465	-1904
1044.525	-1994
1044.586	-2088
1044.646	-2398
1044.707	-2109
1044.767	-1494
1044.827	-2420
1044.887	-1925
1044.948	-935
1045.008	-2009
1045.068	-1752
1045.128	-1484
1045.188	-1712
1045.249	-1742
1045.309	-2616
1045.369	-1988
1045.429	-2468
1045.489	-3045
1045.549	-2215
1045.609	-1624
1045.669	-2358
1045.729	-1884
1045.789	-2385
1045.848	-2174
1045.908	-2711
1045.968	-1682
1046.028	-2727
1046.088	-1222
1046.147	-1114
1046.207	-2284
1046.267	-2267
1046.326	-2067
1046.386	-1379
1046.446	-951
1046.505	-717
1046.565	-1058
1046.624	-1206
1046.684	-1002
1046.743	-1310
1046.803	-449
1046.862	-1229
1046.922	0
