'Start Wavelength	183.907
'End Wavelength	1046.922
'Gate Delay	5.000
'Gate Width (ms)	1.050
'Laser Output Level	0.000
'X Position	0.000
'Y Position	0.000
'Z Position	0.000
'Grid Point Number	1.000
'Shot Number	100.000
183.907	-147.000
183.977	-103.000
184.047	-391
184.116	686
184.186	-264
184.256	-181
184.325	-219
184.395	-457
184.465	879
184.534	-538
184.604	-112
184.674	388
184.743	230
184.813	351
184.883	255
184.952	690
185.022	849
185.092	293
185.161	197
185.231	-41
185.301	-48
185.370	675
185.440	587
185.509	-587
185.579	-70
185.649	-430
185.718	495
185.788	385
185.857	149
185.927	206
185.996	-110
186.066	-64
186.136	131
186.205	260
186.275	454
186.344	62
186.414	47
186.483	-905
186.553	1256
186.622	449
186.692	905
186.761	-43
186.831	87
186.900	-477
186.970	34
187.039	-106
187.109	1149
187.178	-756
187.248	20
187.317	-276
187.387	-137
187.456	-804
187.526	-925
187.595	412
187.664	575
187.734	147
187.803	442
187.873	318
187.942	-273
188.012	-706
188.081	272
188.150	505
188.220	-234
188.289	-378
188.358	-268
188.428	-249
188.497	-845
188.567	586
188.636	214
188.705	35
188.775	-16
188.844	-618
188.913	455
188.983	109
189.052	303
189.121	-500
189.191	-141
189.260	-509
189.329	-518
189.399	-348
189.468	-566
189.537	-1
189.606	-678
189.676	3
189.745	378
189.814	319
189.883	-247
189.953	-340
190.022	-281
190.091	-35
190.161	-499
190.230	-345
190.299	-586
190.368	13
190.437	152
190.507	-408
190.576	31
190.645	194
190.714	-456
190.783	-321
190.853	786
190.922	-250
190.991	-317
191.060	-738
191.129	616
191.198	-424
191.268	79
191.337	-248
191.406	880
191.475	33
191.544	-98
191.613	55
191.682	173
191.752	-549
191.821	157
191.890	-277
191.959	-1
192.028	35
192.097	590
192.166	15
192.235	0
192.304	241
192.373	100
192.442	-349
192.511	294
192.580	-241
192.650	1396
192.719	76
192.788	273
192.857	189
192.926	422
192.995	17
193.064	220
193.133	-588
193.202	116
193.271	-236
193.340	924
193.409	-367
193.478	10
193.547	-213
193.615	47
193.684	-609
193.753	529
193.822	316
193.891	-703
193.960	-164
194.029	-25
194.098	246
194.167	157
194.236	661
194.305	740
194.374	460
194.443	248
194.512	141
194.580	371
194.649	-373
194.718	301
194.787	-423
194.856	-474
194.925	-154
194.994	-394
195.062	512
195.131	-536
195.200	412
195.269	-196
195.338	330
195.407	506
195.475	-344
195.544	729
195.613	-526
195.682	-115
195.751	-477
195.819	-280
195.888	2
195.957	1413
196.026	-304
196.094	1519
196.163	-162
196.232	78
196.301	-303
196.369	7
196.438	-424
196.507	301
196.576	-255
196.644	-106
196.713	-65
196.782	-612
196.850	153
196.919	-152
196.988	-467
197.056	-23
197.125	217
197.194	437
197.262	-431
197.331	-332
197.400	-456
197.468	278
197.537	-285
197.606	-323
197.674	-282
197.743	642
197.812	-325
197.880	57
197.949	-835
198.017	124
198.086	11
198.155	-292
198.223	217
198.292	387
198.360	-786
198.429	-233
198.497	-228
198.566	378
198.635	58
198.703	350
198.772	-343
198.840	239
198.909	-602
198.977	301
199.046	246
199.114	349
199.183	253
199.251	283
199.320	-593
199.388	333
199.457	-152
199.525	587
199.594	-201
199.662	-335
199.731	256
199.799	564
199.867	-359
199.936	114
200.004	52
200.073	698
200.141	-286
200.210	-284
200.278	-242
200.346	-61
200.415	69
200.483	-52
200.552	624
200.620	389
200.688	287
200.757	1071
200.825	-555
200.893	-600
200.962	-636
201.030	332
201.098	-691
201.167	681
201.235	-648
201.303	237
201.372	267
201.440	400
201.508	-137
201.577	533
201.645	361
201.713	544
201.781	-749
201.850	59
201.918	-498
201.986	202
202.055	398
202.123	-144
202.191	414
202.259	321
202.327	-155
202.396	-505
202.464	-82
202.532	-481
202.600	-342
202.669	-3
202.737	-669
202.805	-156
202.873	83
202.941	262
203.009	-27
203.078	36
203.146	422
203.214	-375
203.282	307
203.350	538
203.418	193
203.487	-247
203.555	-248
203.623	594
203.691	-427
203.759	23
203.827	106
203.895	-69
203.963	-328
204.031	-196
204.099	-534
204.168	-67
204.236	207
204.304	24
204.372	-293
204.440	177
204.508	-880
204.576	-33
204.644	-625
204.712	-528
204.780	-114
204.848	42
204.916	-273
204.984	652
205.052	-255
205.120	161
205.188	-399
205.256	-21
205.324	-457
205.392	-478
205.460	-180
205.528	-410
205.596	254
205.664	-73
205.732	-1502
205.799	368
205.867	-829
205.935	-78
206.003	951
206.071	-276
206.139	-481
206.207	540
206.275	14
206.343	-579
206.411	-78
206.478	224
206.546	-824
206.614	-12
206.682	-498
206.750	254
206.818	-169
206.885	721
206.953	-924
207.021	-145
207.089	541
207.157	-255
207.225	-1039
207.292	-1196
207.360	113
207.428	-770
207.496	-940
207.563	585
207.631	-348
207.699	-71
207.767	-681
207.834	-308
207.902	-813
207.970	-310
208.038	-56
208.105	-320
208.173	-433
208.241	400
208.309	-28
208.376	-703
208.444	-189
208.512	-790
208.579	-729
208.647	513
208.715	323
208.782	-487
208.850	-81
208.918	411
208.985	-55
209.053	-578
209.120	-211
209.188	-297
209.256	-495
209.323	-412
209.391	-647
209.459	1231
209.526	-487
209.594	-319
209.661	-306
209.729	-228
209.796	-513
209.864	438
209.932	-780
209.999	994
210.067	87
210.134	-1030
210.202	-598
210.269	816
210.337	255
210.404	308
210.472	-287
210.539	-403
210.607	-227
210.674	-564
210.742	-572
210.809	-285
210.877	-3
210.944	126
211.012	-448
211.079	1074
211.146	-194
211.214	-11
211.281	-221
211.349	658
211.416	171
211.484	71
211.551	-480
211.618	1066
211.686	-267
211.753	403
211.821	244
211.888	66
211.955	-806
212.023	-250
212.090	154
212.157	-477
212.225	-10
212.292	168
212.359	-144
212.427	738
212.494	454
212.561	-381
212.629	-401
212.696	-89
212.763	-270
212.831	-422
212.898	5
212.965	-598
213.032	-287
213.100	125
213.167	-293
213.234	1055
213.301	-57
213.369	537
213.436	138
213.503	-482
213.570	-229
213.638	-313
213.705	-623
213.772	-432
213.839	352
213.906	186
213.973	641
214.041	-399
214.108	28
214.175	503
214.242	-14
214.309	373
214.376	-579
214.444	398
214.511	80
214.578	-178
214.645	172
214.712	168
214.779	397
214.846	-1150
214.913	288
214.980	391
215.048	145
215.115	745
215.182	286
215.249	219
215.316	-188
215.383	419
215.450	288
215.517	-285
215.584	75
215.651	-2
215.718	-636
215.785	591
215.852	-487
215.919	4
215.986	-122
216.053	13
216.120	-449
216.187	264
216.254	-332
216.321	28
216.388	-675
216.455	482
216.522	252
216.589	169
216.656	-768
216.722	-26
216.789	-598
216.856	-69
216.923	-466
216.990	439
217.057	-333
217.124	94
217.191	-754
217.258	836
217.324	0
217.391	-60
217.458	-468
217.525	436
217.592	-150
217.659	-492
217.725	554
217.792	-535
217.859	264
217.926	-406
217.993	-89
218.059	340
218.126	-487
218.193	592
218.260	-644
218.327	57
218.393	-539
218.460	-823
218.527	-489
218.594	358
218.660	-702
218.727	921
218.794	-799
218.860	786
218.927	-537
218.994	-614
219.061	-101
219.127	122
219.194	-357
219.261	17
219.327	-483
219.394	474
219.461	-379
219.527	108
219.594	492
219.661	-123
219.727	-805
219.794	944
219.860	-328
219.927	605
219.994	535
220.060	1531
220.127	500
220.193	1084
220.260	-94
220.326	798
220.393	-147
220.460	227
220.526	-404
220.593	-335
220.659	1156
220.726	384
220.792	-12
220.859	-139
220.925	249
220.992	941
221.058	553
221.125	722
221.191	60
221.258	300
221.324	-52
221.391	410
221.457	-516
221.524	-267
221.590	-334
221.657	613
221.723	-720
221.789	368
221.856	642
221.922	-475
221.989	647
222.055	-250
222.121	-1228
222.188	1882
222.254	-294
222.321	-135
222.387	252
222.453	397
222.520	-143
222.586	627
222.652	38
222.719	-871
222.785	67
222.851	580
222.918	5
222.984	127
223.050	-211
223.116	-879
223.183	718
223.249	-990
223.315	-612
223.382	25
223.448	-302
223.514	-486
223.580	-116
223.647	-287
223.713	-689
223.779	-539
223.845	-733
223.911	337
223.978	-1165
224.044	-81
224.110	-154
224.176	-572
224.242	-709
224.309	-438
224.375	-51
224.441	32
224.507	-534
224.573	-1162
224.639	320
224.705	-283
224.772	-770
224.838	-159
224.904	-353
224.970	-48
225.036	-414
225.102	-777
225.168	850
225.234	39
225.300	-913
225.366	-28
225.432	677
225.499	150
225.565	-242
225.631	-79
225.697	-229
225.763	34
225.829	-160
225.895	-139
225.961	-1053
226.027	641
226.093	-25
226.159	-211
226.225	1433
226.291	1539
226.357	943
226.423	596
226.489	142
226.554	-146
226.620	-131
226.686	-105
226.752	391
226.818	956
226.884	2333
226.950	1795
227.016	53
227.082	354
227.148	-146
227.214	524
227.279	-268
227.345	216
227.411	116
227.477	117
227.543	2387
227.609	2446
227.674	1827
227.740	488
227.806	527
227.872	339
227.938	-4
228.003	509
228.069	-896
228.135	-585
228.201	-514
228.267	69
228.332	-681
228.398	-1342
228.464	-892
228.530	-133
228.595	-186
228.661	-661
228.727	-355
228.792	-250
228.858	-1597
228.924	-1041
228.990	470
229.055	-1594
229.121	-75
229.187	-343
229.252	-396
229.318	-528
229.384	143
229.449	-304
229.515	-1952
229.581	-913
229.646	1246
229.712	347
229.777	-909
229.843	-140
229.909	-520
229.974	34
230.040	249
230.105	-61
230.171	-1091
230.236	-168
230.302	-427
230.368	-242
230.433	-1023
230.499	-543
230.564	-173
230.630	-533
230.695	-41
230.761	221
230.826	-1369
230.892	200
230.957	-1175
231.023	-340
231.088	-285
231.154	-189
231.219	535
231.284	-746
231.350	284
231.415	-1085
231.481	-430
231.546	-117
231.612	122
231.677	-811
231.742	-1795
231.808	997
231.873	-54
231.939	-1548
232.004	452
232.069	506
232.135	-903
232.200	-806
232.265	169
232.331	-987
232.396	-375
232.461	-935
232.527	-678
232.592	-960
232.657	192
232.723	207
232.788	-1008
232.853	694
232.918	-143
232.984	-737
233.049	-824
233.114	-813
233.179	-241
233.245	-83
233.310	-1122
233.375	-629
233.440	768
233.506	-134
233.571	-790
233.636	-32
233.701	-72
233.766	-308
233.832	-634
233.897	-680
233.962	-1770
234.027	781
234.092	-344
234.157	-91
234.222	-133
234.288	-574
234.353	-1291
234.418	503
234.483	333
234.548	-120
234.613	-311
234.678	-73
234.743	-764
234.808	74
234.873	-1876
234.938	216
235.004	-304
235.069	268
235.134	-1397
235.199	-362
235.264	-521
235.329	-1498
235.394	-343
235.459	879
235.524	-1275
235.589	507
235.654	-21
235.719	-1278
235.784	571
235.849	160
235.913	-618
235.978	-699
236.043	-1311
236.108	-160
236.173	-1293
236.238	677
236.303	-1128
236.368	-310
236.433	727
236.498	-1020
236.563	-34
236.627	580
236.692	3426
236.757	2403
236.822	822
236.887	-188
236.952	12
237.017	-972
237.081	777
237.146	-833
237.211	935
237.276	2899
237.341	5065
237.405	1752
237.470	712
237.535	326
237.600	-165
237.664	1534
237.729	-1251
237.794	-1065
237.859	609
237.923	-264
237.988	-339
238.053	563
238.118	-613
238.182	311
238.247	857
238.312	-1110
238.376	456
238.441	-2512
238.506	68
238.570	-679
238.635	836
238.700	-224
238.764	-439
238.829	19
238.893	-1160
238.958	677
239.023	478
239.087	34
239.152	52
239.216	-518
239.281	50
239.346	251
239.410	-353
239.475	-722
239.539	-120
239.604	-522
239.668	985
239.733	1015
239.797	2460
239.862	4659
239.926	2911
239.991	1853
240.055	1591
240.120	840
240.184	-399
240.249	-273
240.313	143
240.378	-128
240.442	-694
240.507	-132
240.571	-286
240.635	-872
240.700	-259
240.764	-841
240.829	-196
240.893	-548
240.957	320
241.022	-291
241.086	524
241.151	-1393
241.215	-1367
241.279	-170
241.344	-1543
241.408	-469
241.472	-1005
241.537	739
241.601	-301
241.665	-1452
241.730	-1178
241.794	471
241.858	-1018
241.922	-209
241.987	-475
242.051	-398
242.115	-1050
242.179	-367
242.244	-1149
242.308	-93
242.372	-150
242.436	-721
242.501	-535
242.565	-1851
242.629	57
242.693	-264
242.757	-1249
242.822	-150
242.886	-378
242.950	182
243.014	-1457
243.078	-313
243.142	-584
243.206	-728
243.271	-495
243.335	-627
243.399	-457
243.463	-58
243.527	2386
243.591	600
243.655	-738
243.719	-1157
243.783	516
243.847	120
243.911	269
243.975	-879
244.040	-1361
244.104	1155
244.168	-337
244.232	-1277
244.296	-721
244.360	-141
244.424	-1044
244.488	-169
244.552	189
244.615	-1585
244.679	-17
244.743	-275
244.807	-1080
244.871	51
244.935	-460
244.999	-1715
245.063	-1173
245.127	163
245.191	-157
245.255	-484
245.319	-175
245.383	-1633
245.446	926
245.510	-2056
245.574	-795
245.638	114
245.702	-1469
245.766	434
245.829	-192
245.893	-1262
245.957	-1723
246.021	337
246.085	-785
246.149	-232
246.212	798
246.276	216
246.340	-1298
246.404	-125
246.467	297
246.531	-1099
246.595	1005
246.659	39
246.722	-1639
246.786	-110
246.850	-339
246.913	-253
246.977	-1531
247.041	606
247.104	-1236
247.168	197
247.232	171
247.295	1225
247.359	-322
247.423	-655
247.486	-862
247.550	707
247.614	-1248
247.677	163
247.741	-409
247.804	-371
247.868	-572
247.932	-645
247.995	1083
248.059	-122
248.122	-811
248.186	817
248.249	-161
248.313	2382
248.376	2206
248.440	1189
248.503	-1026
248.567	1034
248.630	-794
248.694	-77
248.757	720
248.821	1760
248.884	1636
248.948	-209
249.011	1646
249.075	3025
249.138	2701
249.202	1337
249.265	-1088
249.328	174
249.392	-943
249.455	320
249.519	-839
249.582	-492
249.645	434
249.709	173
249.772	-344
249.835	-500
249.899	-207
249.962	364
250.025	-1622
250.089	221
250.152	1049
250.215	-240
250.279	-408
250.342	399
250.405	-521
250.468	-303
250.532	329
250.595	559
250.658	704
250.721	5457
250.785	521
250.848	972
250.911	-722
250.974	835
251.038	-773
251.101	1810
251.164	-635
251.227	1010
251.290	-203
251.354	238
251.417	3097
251.480	3754
251.543	2132
251.606	7936
251.669	5208
251.732	1722
251.795	924
251.859	2227
251.922	3565
251.985	2286
252.048	994
252.111	-472
252.174	-855
252.237	526
252.300	3046
252.363	918
252.426	7004
252.489	598
252.552	989
252.615	-315
252.678	704
252.741	1783
252.804	1228
252.867	6821
252.930	3261
252.993	1155
253.056	-99
253.119	6
253.182	-629
253.245	-427
253.308	440
253.371	-546
253.434	-442
253.497	623
253.559	434
253.622	4
253.685	151
253.748	-159
253.811	-821
253.874	-14
253.937	-1120
254.000	441
254.062	119
254.125	184
254.188	916
254.251	-41
254.314	-733
254.376	-449
254.439	537
254.502	-51
254.565	-707
254.628	710
254.690	173
254.753	43
254.816	-1220
254.878	-225
254.941	237
255.004	524
255.067	-845
255.129	-51
255.192	-488
255.255	-1053
255.317	-544
255.380	172
255.443	-352
255.505	-390
255.568	-508
255.631	-1016
255.693	-1178
255.756	-679
255.819	609
255.881	-184
255.944	-559
256.006	69
256.069	-951
256.132	-820
256.194	-975
256.257	-652
256.319	-321
256.382	-366
256.444	953
256.507	-324
256.569	-1
256.632	-294
256.694	-748
256.757	2186
256.819	5568
256.882	1882
256.944	-379
257.007	1268
257.069	-487
257.132	-447
257.194	-170
257.257	156
257.319	-1935
257.381	-246
257.444	732
257.506	5309
257.569	7285
257.631	1485
257.693	910
257.756	-555
257.818	-1170
257.880	313
257.943	338
258.005	-507
258.067	-1003
258.130	325
258.192	-189
258.254	68
258.317	-842
258.379	536
258.441	-440
258.503	960
258.566	-531
258.628	429
258.690	-927
258.753	-8
258.815	-309
258.877	-514
258.939	280
259.001	-73
259.064	-1042
259.126	-444
259.188	-626
259.250	-235
259.312	-246
259.375	-521
259.437	-907
259.499	-299
259.561	-483
259.623	115
259.685	-610
259.747	-469
259.809	-191
259.872	444
259.934	908
259.996	1051
260.058	86
260.120	-453
260.182	-109
260.244	-931
260.306	-607
260.368	-114
260.430	-789
260.492	94
260.554	880
260.616	-419
260.678	-203
260.740	-9
260.802	-589
260.864	203
260.926	-1007
260.988	382
261.050	-250
261.112	-1050
261.174	1325
261.236	330
261.298	-188
261.359	72
261.421	-135
261.483	-819
261.545	-405
261.607	-465
261.669	-427
261.731	-1127
261.793	63
261.854	-1475
261.916	575
261.978	-686
262.040	-278
262.102	-507
262.164	-693
262.225	-116
262.287	-309
262.349	-1303
262.411	-196
262.472	869
262.534	-1142
262.596	-124
262.658	-93
262.719	-881
262.781	-148
262.843	-717
262.904	192
262.966	-450
263.028	-823
263.090	-300
263.151	1219
263.213	6
263.275	-829
263.336	-137
263.398	-200
263.459	-614
263.521	-356
263.583	786
263.644	-771
263.706	-572
263.767	-779
263.829	154
263.891	-976
263.952	-114
264.014	-965
264.075	-167
264.137	-39
264.198	-174
264.260	-972
264.321	-358
264.383	99
264.444	1696
264.506	440
264.567	101
264.629	646
264.690	-424
264.752	321
264.813	45
264.875	-1392
264.936	682
264.998	-882
265.059	-212
265.120	-348
265.182	93
265.243	1403
265.305	2497
265.366	206
265.427	39
265.489	-190
265.550	-1651
265.611	-588
265.673	-37
265.734	-748
265.795	42
265.857	-693
265.918	-658
265.979	329
266.040	4766
266.102	3875
266.163	1725
266.224	-197
266.286	33
266.347	-890
266.408	-42
266.469	-89
266.530	-1141
266.592	-16
266.653	-153
266.714	-920
266.775	-304
266.836	-64
266.898	-423
266.959	-1674
267.020	-1359
267.081	602
267.142	-404
267.203	-1309
267.264	-1266
267.326	-176
267.387	69
267.448	-682
267.509	226
267.570	-800
267.631	-1000
267.692	-828
267.753	-27
267.814	-1391
267.875	93
267.936	-159
267.997	-112
268.058	82
268.119	-568
268.180	-690
268.241	-665
268.302	-11
268.363	-263
268.424	-702
268.485	-326
268.546	-95
268.607	-598
268.668	-983
268.729	-862
268.790	-581
268.851	156
268.912	-954
268.972	720
269.033	-1171
269.094	-29
269.155	-254
269.216	-525
269.277	-243
269.338	-891
269.398	-926
269.459	-615
269.520	-187
269.581	-489
269.642	-788
269.702	-869
269.763	-222
269.824	-791
269.885	-491
269.945	-14
270.006	-1518
270.067	-1447
270.128	-620
270.188	-501
270.249	-1559
270.310	-277
270.370	222
270.431	-537
270.492	-661
270.553	280
270.613	-49
270.674	267
270.734	-976
270.795	-136
270.856	23
270.916	-179
270.977	-446
271.038	142
271.098	-1070
271.159	-533
271.219	-487
271.280	-1260
271.340	126
271.401	-548
271.462	519
271.522	-89
271.583	5
271.643	203
271.704	-734
271.764	-74
271.825	-361
271.885	1714
271.946	2597
272.006	1246
272.066	1017
272.127	3231
272.187	2713
272.248	549
272.308	55
272.369	2655
272.429	-362
272.489	217
272.550	-548
272.610	964
272.671	-668
272.731	811
272.791	-434
272.852	-365
272.912	-38
272.972	48
273.033	-1026
273.093	-297
273.153	361
273.214	-24
273.274	-186
273.334	907
273.394	1174
273.455	-272
273.515	762
273.575	1328
273.635	799
273.696	1074
273.756	1544
273.816	206
273.876	-356
273.936	612
273.997	6
274.057	-661
274.117	-705
274.177	301
274.237	2478
274.297	1958
274.358	326
274.418	865
274.478	498
274.538	102
274.598	-712
274.658	508
274.718	1325
274.778	62
274.838	-386
274.898	-468
274.958	170
275.018	1662
275.078	1153
275.138	231
275.198	-673
275.258	-856
275.318	-55
275.378	587
275.438	-594
275.498	631
275.558	-506
275.618	811
275.678	242
275.738	529
275.798	41
275.858	132
275.918	-450
275.978	-94
276.038	-128
276.098	-138
276.157	-197
276.217	1035
276.277	133
276.337	64
276.397	2
276.457	-77
276.517	-492
276.576	839
276.636	-845
276.696	176
276.756	307
276.815	-366
276.875	-316
276.935	-643
276.995	-232
277.055	87
277.114	177
277.174	-394
277.234	340
277.293	-193
277.353	-665
277.413	-272
277.472	-734
277.532	-77
277.592	572
277.651	661
277.711	2664
277.771	672
277.830	4141
277.890	2709
277.950	1839
278.009	6998
278.069	2737
278.128	2891
278.188	3795
278.248	1682
278.307	3937
278.367	2339
278.426	249
278.486	556
278.545	-214
278.605	424
278.664	-424
278.724	-1082
278.783	-140
278.843	2102
278.902	535
278.962	43
279.021	-164
279.081	668
279.140	177
279.199	-131
279.259	320
279.318	959
279.378	1707
279.437	964
279.496	3092
279.556	14747
279.615	11559
279.675	2598
279.734	1056
279.793	993
279.853	2612
279.912	337
279.971	629
280.031	-52
280.090	821
280.149	1838
280.208	1504
280.268	10743
280.327	10037
280.386	1719
280.445	1261
280.505	557
280.564	1141
280.623	-138
280.682	275
280.742	760
280.801	376
280.860	-116
280.919	374
280.978	144
281.037	-774
281.097	-478
281.156	437
281.215	-595
281.274	-195
281.333	890
281.392	935
281.451	-25
281.510	3
281.569	-240
281.628	152
281.688	283
281.747	-475
281.806	-846
281.865	23
281.924	-417
281.983	283
282.042	-491
282.101	-603
282.160	875
282.219	445
282.278	-14
282.337	-153
282.396	-282
282.454	-434
282.513	-99
282.572	274
282.631	601
282.690	-685
282.749	-326
282.808	606
282.867	179
282.926	-530
282.985	-208
283.043	-322
283.102	-806
283.161	-97
283.220	766
283.279	894
283.338	656
283.396	-21
283.455	-228
283.514	-235
283.573	575
283.631	293
283.690	23
283.749	95
283.808	134
283.866	309
283.925	-325
283.984	-241
284.043	166
284.101	114
284.160	-366
284.219	13
284.277	450
284.336	508
284.395	2066
284.453	892
284.512	466
284.570	729
284.629	583
284.688	628
284.746	1424
284.805	1508
284.863	2644
284.922	2256
284.981	4016
285.039	5537
285.098	10001
285.156	17821
285.215	25934
285.273	23806
285.332	19845
285.390	11494
285.449	6953
285.507	4072
285.566	2950
285.624	2003
285.683	2033
285.741	1565
285.799	1216
285.858	666
285.916	1011
285.975	325
286.033	401
286.091	-114
286.150	262
286.208	795
286.267	784
286.325	312
286.383	-115
286.442	352
286.500	221
286.558	-208
286.616	-320
286.675	127
286.733	1009
286.791	302
286.850	804
286.908	-543
286.966	919
287.024	-272
287.083	237
287.141	-354
287.199	168
287.257	-116
287.315	-269
287.374	-406
287.432	297
287.490	327
287.548	-138
287.606	151
287.664	474
287.723	213
287.781	671
287.839	-50
287.897	246
287.955	239
288.013	417
288.071	393
288.129	5833
288.187	17181
288.245	7959
288.303	1997
288.361	832
288.419	722
288.477	1124
288.535	564
288.593	327
288.651	437
288.709	-229
288.767	595
288.825	156
288.883	-545
288.941	509
288.999	-250
289.057	174
289.115	-885
289.173	575
289.231	329
289.289	-505
289.346	-406
289.404	242
289.462	-245
289.520	322
289.578	-207
289.636	193
289.694	-120
289.751	289
289.809	-521
289.867	19
289.925	-6
289.983	145
290.040	181
290.098	-209
290.156	25
290.214	110
290.271	-561
290.329	1005
290.387	-117
290.444	1135
290.502	-12
290.560	194
290.617	236
290.675	87
290.733	-99
290.790	222
290.848	4
290.906	-410
290.963	777
291.021	634
291.078	89
291.136	-81
291.194	196
291.251	1250
291.309	1167
291.366	-163
291.424	233
291.481	-481
291.539	-167
291.596	-44
291.654	-692
291.711	310
291.769	168
291.826	-289
291.884	458
291.941	313
291.999	-328
292.056	458
292.114	6
292.171	369
292.228	456
292.286	832
292.343	860
292.401	1310
292.458	-149
292.515	-75
292.573	723
292.630	139
292.687	440
292.745	-30
292.802	41
292.859	485
292.917	1018
292.974	499
293.031	655
293.089	-127
293.146	-209
293.203	-505
293.260	-172
293.318	-24
293.375	-196
293.432	-473
293.489	-211
293.546	-404
293.604	174
293.661	1640
293.718	2768
293.775	1829
293.832	622
293.889	426
293.947	-102
294.004	513
294.061	-405
294.118	495
294.175	1681
294.232	1982
294.289	661
294.346	1
294.403	159
294.460	-482
294.517	-594
294.574	535
294.631	286
294.688	271
294.745	518
294.802	3064
294.859	3226
294.916	747
294.973	-573
295.030	327
295.087	-323
295.144	190
295.201	-14
295.258	-463
295.315	200
295.372	837
295.429	2027
295.486	1329
295.542	-229
295.599	1268
295.656	2452
295.713	175
295.770	1996
295.827	680
295.883	-15
295.940	-79
295.997	110
296.054	-150
296.111	-302
296.167	385
296.224	532
296.281	-59
296.338	45
296.394	729
296.451	0
296.508	72
296.564	1243
296.621	1555
296.678	2841
296.734	3483
296.791	1303
296.848	473
296.904	-354
296.961	1100
297.018	2723
297.074	1064
297.131	813
297.187	-179
297.244	635
297.301	2575
297.357	4990
297.414	2515
297.470	1
297.527	-105
297.583	551
297.640	917
297.696	98
297.753	-129
297.809	-63
297.866	-769
297.922	-196
297.979	-68
298.035	-261
298.092	-38
298.148	1172
298.204	1147
298.261	-111
298.317	1214
298.374	3228
298.430	1196
298.486	580
298.543	82
298.599	-330
298.656	432
298.712	919
298.768	1253
298.824	511
298.881	278
298.937	-952
298.993	282
299.050	-1103
299.106	19
299.162	-158
299.218	87
299.275	-399
299.331	428
299.387	801
299.443	4538
299.500	9042
299.556	6448
299.612	2080
299.668	1963
299.724	5655
299.780	7046
299.837	2615
299.893	3138
299.949	5646
300.005	8391
300.061	6082
300.117	11029
300.173	4400
300.229	1305
300.285	1166
300.341	1261
300.397	315
300.453	10
300.510	965
300.566	306
300.622	3007
300.678	10199
300.734	12261
300.790	6229
300.845	4989
300.901	6175
300.957	9030
301.013	4002
301.069	491
301.125	997
301.181	491
301.237	492
301.293	-373
301.349	751
301.405	-476
301.461	-649
301.516	-138
301.572	97
301.628	151
301.684	-116
301.740	63
301.796	1693
301.851	384
301.907	1376
301.963	1338
302.019	2022
302.074	8551
302.130	8352
302.186	3230
302.242	1199
302.297	965
302.353	557
302.409	846
302.464	1395
302.520	-9
302.576	2346
302.631	2749
302.687	1482
302.743	340
302.798	197
302.854	-555
302.910	716
302.965	503
303.021	514
303.076	129
303.132	1057
303.187	222
303.243	854
303.299	-172
303.354	-344
303.410	255
303.465	-150
303.521	808
303.576	-89
303.632	574
303.687	1008
303.743	2079
303.798	2296
303.853	459
303.909	809
303.964	-1131
304.020	-550
304.075	110
304.130	452
304.186	-125
304.241	1999
304.297	134
304.352	332
304.358	313
304.407	153
304.449	-78
304.463	-154
304.518	64
304.539	-12
304.573	-141
304.629	-365
304.630	-347
304.684	426
304.720	1585
304.739	2146
304.794	3098
304.811	2634
304.850	1531
304.902	443
304.905	373
304.960	233
304.992	29
305.015	-124
305.071	74
305.083	106
305.126	216
305.173	335
305.181	365
305.236	-386
305.264	-141
305.292	77
305.347	10
305.354	88
305.402	617
305.445	663
305.457	648
305.512	16
305.535	105
305.567	359
305.622	-56
305.626	-26
305.678	586
305.716	1960
305.733	2423
305.788	2733
305.807	2445
305.843	2133
305.897	3091
305.898	3100
305.953	2944
305.988	2068
306.008	1507
306.063	597
306.078	387
306.118	127
306.168	-38
306.173	-64
306.228	321
306.259	-34
306.283	-192
306.338	389
306.349	360
306.393	14
306.440	250
306.448	319
306.503	920
306.530	848
306.558	875
306.613	795
306.620	871
306.668	1445
306.711	2269
306.723	2289
306.778	1772
306.801	1359
306.833	1249
306.888	1321
306.892	1276
306.943	612
306.982	948
306.997	1101
307.052	994
307.072	977
307.107	816
307.162	610
307.163	605
307.217	638
307.253	438
307.272	294
307.327	295
307.343	381
307.381	703
307.434	606
307.436	631
307.491	1121
307.524	1987
307.546	2163
307.600	2155
307.614	2032
307.655	1563
307.704	821
307.710	808
307.765	869
307.795	867
307.819	900
307.874	2049
307.885	1922
307.929	1615
307.975	2641
307.984	2835
308.038	3598
308.065	4046
308.093	7835
308.148	17418
308.156	19466
308.202	27809
308.246	32712
308.257	31500
308.312	16172
308.336	10058
308.366	7104
308.421	4449
308.426	4172
308.475	2475
308.517	1876
308.530	1853
308.585	2095
308.607	1980
308.639	1804
308.694	1945
308.697	1925
308.748	1598
308.787	1771
308.803	1914
308.857	2204
308.877	2313
308.912	2267
308.967	2099
308.967	2088
309.021	3274
309.058	4984
309.076	6521
309.130	10583
309.148	12340
309.185	25149
309.238	46310
309.239	46391
309.293	46641
309.328	40549
309.348	34834
309.402	16617
309.418	12103
309.457	8562
309.508	5296
309.511	5251
309.566	5211
309.598	5344
309.620	6122
309.674	8210
309.688	8900
309.729	8582
309.778	7228
309.783	7065
309.837	4875
309.868	3617
309.892	3856
309.946	5028
309.959	5344
310.001	6088
310.049	6733
310.055	6582
310.109	4484
310.139	3509
310.163	3037
310.218	1990
310.229	1768
310.272	1725
310.319	1901
310.326	1872
310.381	1465
310.409	1236
310.435	1167
310.489	1159
310.499	1143
310.543	1082
310.589	1002
310.598	1076
310.652	1617
310.679	1791
310.706	1643
310.760	1280
310.769	1266
310.814	1691
310.859	1784
310.868	1709
310.923	1466
310.948	1331
310.977	1476
311.031	1629
311.038	1669
311.085	1616
311.128	1404
311.139	1491
311.193	2009
311.218	2222
311.247	1911
311.301	1275
311.308	1196
311.356	1754
311.398	2203
311.410	2156
311.464	1905
311.488	1833
311.518	1802
311.572	1596
311.578	1564
311.626	1727
311.668	1955
311.680	1999
311.734	2067
311.758	2112
311.788	1912
311.842	1493
311.847	1448
311.896	2494
311.937	3381
311.950	3208
312.004	2382
312.027	2019
312.058	2192
312.112	2499
312.117	2523
312.165	1898
312.207	1357
312.297	2298
312.386	1200
312.476	2464
312.566	1826
312.656	2137
312.745	1908
312.835	2596
312.925	1926
313.015	1804
313.104	2634
313.194	2641
313.284	1399
313.374	3268
313.463	2118
313.553	2959
313.643	3172
313.732	3384
313.822	2223
313.912	3583
314.001	2507
314.091	3323
314.180	3203
314.270	4130
314.360	3052
314.449	4004
314.539	2327
314.628	3634
314.718	2709
314.808	3809
314.897	3472
314.987	4291
315.076	4157
315.166	3758
315.255	3728
315.345	3787
315.434	2436
315.524	3329
315.613	2957
315.703	4895
315.792	9815
315.881	27538
315.971	7714
316.060	4311
316.150	4097
316.239	3744
316.328	3414
316.418	3700
316.507	3344
316.597	4671
316.686	4382
316.775	4001
316.865	4011
316.954	3969
317.043	3229
317.133	2921
317.222	2172
317.311	2887
317.400	1523
317.490	4386
317.579	2937
317.668	4146
317.757	5011
317.847	15270
317.936	41240
318.025	12655
318.114	12022
318.203	5445
318.293	4218
318.382	6642
318.471	6967
318.560	7028
318.649	10869
318.738	4728
318.828	2489
318.917	2694
319.006	2651
319.095	4171
319.184	10690
319.273	5281
319.362	4083
319.451	2711
319.540	1993
319.629	3332
319.718	2840
319.807	3470
319.896	4573
319.985	13847
320.074	4641
320.163	3526
320.252	3594
320.341	4313
320.430	2765
320.519	3661
320.608	3656
320.697	4236
320.786	4226
320.875	5896
320.964	5278
321.053	6505
321.142	6789
321.230	8413
321.319	7949
321.408	10086
321.497	7737
321.586	8200
321.675	6942
321.764	6906
321.852	6464
321.941	6860
322.030	5370
322.119	7614
322.207	10320
322.296	10197
322.385	10068
322.474	11734
322.562	12224
322.651	9300
322.740	7314
322.829	7365
322.917	5917
323.006	4834
323.095	4640
323.183	4778
323.272	4205
323.361	4868
323.449	7741
323.538	5674
323.626	5473
323.715	4928
323.804	3125
323.892	5039
323.981	3979
324.069	3153
324.158	4681
324.246	4058
324.335	3667
324.424	4245
324.512	2150
324.601	3185
324.689	3359
324.778	4276
324.866	3304
324.954	2965
325.043	2124
325.131	2320
325.220	3232
325.308	3551
325.397	2908
325.485	3358
325.574	2672
325.662	2876
325.750	1904
325.839	3639
325.927	2054
326.015	2547
326.104	2197
326.192	2936
326.280	2091
326.369	2617
326.457	2501
326.545	2985
326.634	1975
326.722	2323
326.810	2062
326.898	3931
326.987	2315
327.075	2651
327.163	3674
327.251	3268
327.340	3117
327.428	4261
327.516	3966
327.604	3727
327.692	2757
327.781	2484
327.869	2403
327.957	2278
328.045	2271
328.133	2385
328.221	1845
328.309	3041
328.397	3176
328.485	3705
328.574	4601
328.662	6843
328.750	3922
328.838	3891
328.926	2189
329.014	3182
329.102	2248
329.190	3938
329.278	2649
329.366	2894
329.454	1653
329.542	2095
329.630	1807
329.718	3097
329.806	2473
329.893	2768
329.981	1956
330.069	2973
330.157	3836
330.245	8211
330.333	4204
330.421	2893
330.509	2351
330.597	4602
330.684	2404
330.772	2719
330.860	1857
330.948	2923
331.036	2292
331.123	2538
331.211	1398
331.299	2531
331.387	3814
331.475	4553
331.562	2738
331.650	2761
331.738	1953
331.825	3096
331.913	2430
332.001	2927
332.089	1995
332.176	3194
332.264	2758
332.352	3100
332.439	2137
332.527	2547
332.614	2302
332.702	2645
332.790	2716
332.877	3450
332.965	3968
333.052	3090
333.140	2844
333.228	5774
333.315	2021
333.403	2974
333.490	3540
333.578	3764
333.665	6195
333.753	4893
333.840	2968
333.928	4415
334.015	5672
334.103	8169
334.190	16172
334.278	11220
334.365	12984
334.452	13334
334.540	8663
334.627	9309
334.715	10774
334.802	15765
334.889	26990
334.977	33541
335.064	18797
335.151	10691
335.239	7922
335.326	7705
335.413	11933
335.501	13314
335.588	6838
335.675	7938
335.762	9029
335.850	14285
335.937	18016
336.024	29294
336.111	45816
336.199	37693
336.286	17222
336.373	10663
336.460	7460
336.547	6870
336.635	5865
336.722	5019
336.809	4000
336.896	4270
336.983	6759
337.070	11702
337.157	14202
337.245	8379
337.332	5913
337.419	3957
337.506	3140
337.593	3988
337.680	5816
337.767	10704
337.854	3537
337.941	4086
338.028	3518
338.115	2694
338.202	3669
338.289	5208
338.376	5388
338.463	4105
338.550	7349
338.637	6840
338.724	3201
338.811	3940
338.898	2589
338.984	2653
339.071	2125
339.158	2551
339.245	3220
339.332	4066
339.419	2588
339.506	2994
339.593	1722
339.679	3785
339.766	1534
339.853	2645
339.940	1835
340.027	2720
340.113	2096
340.200	2893
340.287	2271
340.374	2533
340.460	2620
340.547	2441
340.634	2319
340.720	4764
340.807	2340
340.894	2569
340.980	2334
341.067	2775
341.154	2876
341.240	3100
341.327	4044
341.414	3139
341.500	1979
341.587	3416
341.674	2553
341.760	4178
341.847	2723
341.933	3205
342.020	1300
342.106	2665
342.193	2064
342.279	3018
342.366	1958
342.452	2721
342.539	2291
342.625	2825
342.712	3224
342.798	3245
342.885	1129
342.971	1950
343.058	1956
343.144	2187
343.230	2198
343.317	2738
343.403	2356
343.490	2709
343.576	1873
343.662	2168
343.749	1916
343.835	2069
343.921	3221
344.008	13081
344.094	22494
344.180	5793
344.267	2272
344.353	7250
344.439	6022
344.525	3016
344.612	2986
344.698	2851
344.784	1751
344.870	2527
344.957	1712
345.043	3137
345.129	1539
345.215	3001
345.301	1758
345.387	1570
345.474	1980
345.560	1833
345.646	1310
345.732	2301
345.818	2436
345.904	3218
345.990	2314
346.076	2805
346.162	2092
346.249	2801
346.335	1920
346.421	2151
346.507	4459
346.593	9992
346.679	1480
346.765	3200
346.851	3964
346.937	4085
347.023	3341
347.108	3090
347.194	1696
347.280	2932
347.366	3414
347.452	10844
347.538	17099
347.624	11208
347.710	6700
347.796	3479
347.882	2676
347.967	2484
348.053	2119
348.139	2784
348.225	2428
348.311	2574
348.397	1785
348.482	3607
348.568	2626
348.654	4722
348.740	13211
348.825	12402
348.911	6552
348.997	7785
349.083	10968
349.168	2968
349.254	2537
349.340	2783
349.425	2752
349.511	2849
349.597	2497
349.682	3523
349.768	6607
349.854	4111
349.939	2535
350.025	2295
350.110	2979
350.196	2130
350.282	2332
350.367	3182
350.453	2507
350.538	2192
350.624	2287
350.709	3417
350.795	1367
350.880	2493
350.966	1891
351.051	2395
351.137	2031
351.222	3142
351.308	3367
351.393	5737
351.479	2477
351.564	2418
351.649	2545
351.735	3013
351.820	1861
351.906	2697
351.991	1763
352.076	3780
352.162	5092
352.247	2548
352.332	1902
352.418	3261
352.503	3302
352.588	7653
352.673	3908
352.759	2291
352.844	1549
352.929	1787
353.014	1139
353.100	2640
353.185	2191
353.270	2199
353.355	2862
353.441	2638
353.526	2051
353.611	3131
353.696	1338
353.781	2833
353.866	409
353.952	2894
354.037	1846
354.122	3830
354.207	2583
354.292	2690
354.377	2081
354.462	2438
354.547	1782
354.632	2754
354.717	2687
354.802	1892
354.887	1571
354.972	2534
355.057	2517
355.142	1785
355.227	2159
355.312	2210
355.397	1757
355.482	4196
355.567	2445
355.652	3899
355.737	2933
355.822	7429
355.907	4660
355.991	4060
356.076	1838
356.161	2869
356.246	1774
356.331	2736
356.416	3291
356.501	14108
356.585	11336
356.670	3189
356.755	3742
356.840	3930
356.924	8748
357.009	23713
357.094	9264
357.179	3250
357.263	2619
357.348	4140
357.433	2580
357.517	3269
357.602	2288
357.687	2679
357.771	3074
357.856	7478
357.941	4936
358.025	9184
358.110	26773
358.195	12069
358.279	2847
358.364	3183
358.448	4989
358.533	10377
358.617	7833
358.702	8423
358.787	3960
358.871	3410
358.956	2697
359.040	2575
359.125	2363
359.209	2961
359.294	4947
359.378	7769
359.462	4573
359.547	3628
359.631	2384
359.716	2073
359.800	2246
359.885	4437
359.969	2304
360.053	3372
360.138	1962
360.222	2995
360.306	2539
360.391	3063
360.475	3499
360.559	6273
360.644	4698
360.728	3096
360.812	8489
360.896	17812
360.981	6304
361.065	4315
361.149	3403
361.233	3221
361.318	2363
361.402	3510
361.486	4556
361.570	3917
361.654	3449
361.739	4792
361.823	14044
361.907	18627
361.991	5890
362.075	6652
362.159	8364
362.243	16530
362.327	34123
362.411	46535
362.495	19618
362.580	10058
362.664	9291
362.748	10715
362.832	17061
362.916	35191
363.000	86960
363.084	109806
363.168	52895
363.252	17402
363.336	10048
363.420	9495
363.503	13858
363.587	13885
363.671	6300
363.755	6269
363.839	8673
363.923	7123
364.007	10402
364.091	13199
364.175	22392
364.258	55580
364.342	101765
364.426	152860
364.510	79959
364.594	29554
364.677	16766
364.761	21335
364.845	14344
364.929	7772
365.013	5173
365.096	5767
365.180	4057
365.264	7529
365.347	18029
365.431	8030
365.515	3412
365.598	3670
365.682	4463
365.766	2782
365.849	4164
365.933	4391
366.017	5488
366.100	3841
366.184	2525
366.267	3931
366.351	3296
366.435	3336
366.518	2407
366.602	3713
366.685	2829
366.769	3689
366.852	3739
366.936	4494
367.019	3096
367.103	2849
367.186	5235
367.270	3590
367.353	2554
367.436	4690
367.520	3100
367.603	3905
367.687	2877
367.770	4455
367.853	4371
367.937	8094
368.020	8133
368.104	3916
368.187	4270
368.270	4828
368.353	3519
368.437	3634
368.520	4718
368.603	3989
368.687	5159
368.770	8996
368.853	3360
368.936	4519
369.020	3814
369.103	3445
369.186	1590
369.269	2854
369.352	2873
369.436	3058
369.519	2774
369.602	1446
369.685	3073
369.768	2950
369.851	2941
369.934	2684
370.018	1957
370.101	1722
370.184	4224
370.267	3813
370.350	3089
370.433	4537
370.516	11404
370.599	20343
370.682	6708
370.765	6761
370.848	7923
370.931	10392
371.014	5730
371.097	2137
371.180	2991
371.263	3293
371.346	1159
371.429	3504
371.511	1564
371.594	2985
371.677	3662
371.760	4946
371.843	3718
371.926	13292
372.009	23979
372.091	10595
372.174	5832
372.257	12930
372.340	5254
372.423	4543
372.505	5232
372.588	3238
372.671	5037
372.754	10001
372.836	6188
372.919	6651
373.002	9456
373.085	4288
373.167	4183
373.250	6038
373.332	11448
373.415	18069
373.498	29877
373.580	16295
373.663	31532
373.746	31523
373.828	7392
373.911	5194
373.993	4831
374.076	9588
374.159	7600
374.241	6444
374.324	9829
374.406	7909
374.489	11711
374.571	27458
374.654	11011
374.736	8297
374.819	17174
374.901	25409
374.983	22849
375.066	6737
375.148	5079
375.231	10425
375.313	14350
375.395	6806
375.478	4332
375.560	5525
375.643	4694
375.725	8547
375.807	20129
375.890	15895
375.972	3643
376.054	4698
376.136	5226
376.219	3494
376.301	8548
376.383	16556
376.465	7955
376.548	3771
376.630	6077
376.712	14213
376.794	6903
376.877	2604
376.959	1747
377.041	3041
377.123	3140
377.205	4152
377.287	2048
377.369	3670
377.452	3225
377.534	3896
377.616	2709
377.698	3114
377.780	1759
377.862	2806
377.944	3292
378.026	2602
378.108	3075
378.190	2921
378.272	2464
378.354	2864
378.436	2342
378.518	2517
378.600	3015
378.682	5278
378.764	6563
378.846	5789
378.928	2481
379.010	2910
379.091	2574
379.173	3113
379.255	1774
379.337	2247
379.419	3846
379.501	9850
379.583	4644
379.664	2886
379.746	2093
379.828	7728
379.910	7532
379.991	7428
380.073	2463
380.155	3188
380.237	2438
380.318	2130
380.400	1560
380.482	3095
380.564	2827
380.645	3211
380.727	1652
380.809	3466
380.890	2050
380.972	1531
381.053	1625
381.135	2950
381.217	3530
381.298	7247
381.380	4846
381.461	4337
381.543	12864
381.624	15259
381.706	4175
381.787	3754
381.869	3348
381.951	8959
382.032	21937
382.113	16638
382.195	2961
382.276	5354
382.358	5272
382.439	13238
382.521	16512
382.602	22536
382.684	11584
382.765	16952
382.846	23672
382.928	38221
383.009	20558
383.090	20347
383.172	57645
383.253	73312
383.334	26692
383.416	21756
383.497	12449
383.578	9939
383.659	16414
383.741	55651
383.822	109752
383.903	54121
383.984	18977
384.066	24216
384.147	13373
384.228	7402
384.309	6251
384.390	7183
384.471	5687
384.553	5491
384.634	4261
384.715	4416
384.796	3707
384.877	4156
384.958	7459
385.039	7137
385.120	4338
385.201	5346
385.282	4318
385.363	5816
385.444	4415
385.525	6929
385.606	12800
385.687	11692
385.768	5829
385.849	5899
385.930	15031
386.011	21894
386.092	8194
386.173	5603
386.254	4470
386.335	6303
386.416	5553
386.496	6846
386.577	8379
386.658	6214
386.739	3914
386.820	5773
386.901	4455
386.981	6736
387.062	5350
387.143	7769
387.224	10944
387.304	12594
387.385	9907
387.466	7226
387.547	9783
387.627	9262
387.708	10414
387.789	18624
387.869	18144
387.950	10523
388.031	6239
388.111	4514
388.192	6705
388.273	8645
388.353	5545
388.434	5450
388.514	5889
388.595	16103
388.676	15518
388.756	8709
388.837	7654
388.917	6235
388.998	2347
389.078	4817
389.159	3897
389.239	3183
389.320	5888
389.400	2938
389.480	5641
389.561	8836
389.641	6121
389.722	4586
389.802	3846
389.883	6583
389.963	11881
390.043	7435
390.124	2460
390.204	5730
390.284	7595
390.365	5789
390.445	7037
390.525	9245
390.605	8736
390.686	5438
390.766	4589
390.846	5084
390.927	3501
391.007	3781
391.087	5374
391.167	4112
391.247	3161
391.328	5277
391.408	5318
391.488	5774
391.568	2339
391.648	5261
391.728	4878
391.808	6454
391.888	4932
391.969	8578
392.049	9173
392.129	8236
392.209	9330
392.289	14269
392.369	10358
392.449	11468
392.529	9395
392.609	11823
392.689	13468
392.769	19513
392.849	20073
392.929	26384
393.009	36897
393.089	48258
393.169	82645
393.248	174076
393.328	300863
393.408	287784
393.488	157805
393.568	74784
393.648	41444
393.728	27067
393.807	18318
393.887	16351
393.967	12579
394.047	10951
394.127	9753
394.206	12565
394.286	24735
394.366	77430
394.446	76821
394.525	20297
394.605	7577
394.685	8403
394.764	10589
394.844	19240
394.924	19840
395.003	9384
395.083	6162
395.163	6424
395.242	5448
395.322	5968
395.402	3473
395.481	7755
395.561	8873
395.640	27822
395.720	42785
395.799	28756
395.879	14049
395.958	12241
396.038	30863
396.117	100462
396.197	101299
396.276	33647
396.356	16630
396.435	16755
396.515	21143
396.594	30816
396.673	64232
396.753	157150
396.832	269345
396.912	204555
396.991	81499
397.070	38719
397.150	21918
397.229	21048
397.308	36960
397.388	59958
397.467	31229
397.546	12314
397.625	6054
397.705	8499
397.784	6016
397.863	6230
397.942	4777
398.022	5557
398.101	5989
398.180	12413
398.259	7561
398.338	5393
398.417	3282
398.497	3524
398.576	4468
398.655	2888
398.734	3362
398.813	3611
398.892	5948
398.971	11398
399.050	5908
399.129	3319
399.208	3610
399.287	3237
399.366	2015
399.445	3255
399.524	2819
399.603	1809
399.682	3591
399.761	5352
399.840	11878
399.919	10417
399.998	2935
400.077	1405
400.156	604
400.235	4548
400.313	1494
400.392	1991
400.471	4693
400.550	5650
400.629	1639
400.708	3199
400.786	1270
400.865	2586
400.944	2025
401.023	4608
401.102	875
401.180	2686
401.259	2165
401.338	2203
401.416	1919
401.495	2202
401.574	2646
401.652	2175
401.731	2174
401.810	1452
401.888	1204
401.967	1778
402.046	1418
402.124	2272
402.203	818
402.281	2623
402.360	1333
402.438	3631
402.517	1693
402.596	2714
402.674	1197
402.753	1787
402.831	1980
402.910	3370
402.988	1484
403.066	3359
403.145	3058
403.223	3156
403.302	2724
403.380	3875
403.459	2341
403.537	2499
403.615	2422
403.694	1317
403.772	2905
403.850	2907
403.929	1851
404.007	1668
404.085	2740
404.164	1554
404.242	1587
404.320	5132
404.398	8805
404.477	9503
404.555	17719
404.633	14912
404.711	6736
404.789	4720
404.868	1421
404.946	1037
405.024	2182
405.102	1830
405.180	960
405.258	698
405.336	2130
405.415	1019
405.493	1589
405.571	3006
405.649	1567
405.727	914
405.805	3350
405.883	3222
405.961	2830
406.039	1617
406.117	494
406.195	2687
406.273	3404
406.351	12552
406.429	8106
406.507	1738
406.585	452
406.663	2114
406.740	1357
406.818	1542
406.896	830
406.974	2775
407.052	995
407.130	8728
407.208	9598
407.285	3945
407.363	927
407.441	1500
407.519	1841
407.596	2348
407.674	4873
407.752	15532
407.830	11545
407.907	3534
407.985	948
408.063	1715
408.141	650
408.218	2543
408.296	799
408.373	1853
408.451	2212
408.529	2883
408.606	2023
408.684	3221
408.762	2306
408.839	2641
408.917	2484
408.994	4053
409.072	2672
409.149	4527
409.227	7507
409.304	11190
409.382	11652
409.459	14864
409.537	17814
409.614	15444
409.692	13291
409.769	13439
409.846	17989
409.924	21524
410.001	15019
410.079	12014
410.156	9220
410.233	7229
410.311	4905
410.388	5006
410.465	4688
410.543	4305
410.620	4814
410.697	4278
410.775	3854
410.852	3040
410.929	4085
411.006	4885
411.083	3244
411.161	4402
411.238	4041
411.315	3399
411.392	4220
411.469	3340
411.547	2674
411.624	1732
411.701	1665
411.778	3188
411.855	2675
411.932	1697
412.009	1646
412.086	2421
412.163	2342
412.240	2327
412.317	2351
412.394	1775
412.471	2132
412.548	1981
412.625	1410
412.702	2086
412.779	1473
412.856	2428
412.933	1087
413.010	1882
413.087	1939
413.164	3094
413.241	4076
413.318	1593
413.395	2408
413.471	1707
413.548	1724
413.625	2151
413.702	399
413.779	1907
413.855	992
413.932	778
414.009	1005
414.086	1496
414.162	1658
414.239	2791
414.316	3278
414.393	6503
414.469	1401
414.546	815
414.623	1084
414.699	1858
414.776	950
414.853	1370
414.929	1891
415.006	1409
415.082	1399
415.159	1036
415.236	914
415.312	1936
415.389	1487
415.465	1520
415.542	482
415.618	778
415.695	1897
415.771	1297
415.848	903
415.924	2041
416.000	233
416.077	1990
416.153	-581
416.230	948
416.306	642
416.383	1874
416.459	1214
416.535	1163
416.612	474
416.688	908
416.764	668
416.841	840
416.917	172
416.993	1592
417.069	1078
417.146	1253
417.222	883
417.298	1436
417.374	560
417.451	1922
417.527	288
417.603	1189
417.679	1223
417.755	1068
417.831	95
417.908	2056
417.984	1107
418.060	832
418.136	1495
418.212	2218
418.288	1445
418.364	1677
418.440	374
418.516	2809
418.592	1113
418.668	2103
418.744	1809
418.820	3490
418.896	1610
418.972	985
419.048	1556
419.124	2786
419.200	545
419.276	2616
419.352	1214
419.428	2909
419.504	1127
419.579	1614
419.655	1452
419.731	1990
419.807	2190
419.883	3492
419.959	2108
420.034	3523
420.110	2683
420.186	4911
420.262	4093
420.337	2712
420.413	2457
420.489	3252
420.565	4472
420.640	4105
420.716	4879
420.792	3773
420.867	4639
420.943	4777
421.019	5619
421.094	5403
421.170	5920
421.245	7177
421.321	7128
421.397	8062
421.472	11657
421.548	17021
421.623	14851
421.699	13484
421.774	13738
421.850	15952
421.925	18195
422.001	22794
422.076	27729
422.152	34276
422.227	43201
422.302	59359
422.378	82612
422.453	121928
422.529	171537
422.604	178389
422.679	142215
422.755	166561
422.830	163390
422.905	122329
422.981	86630
423.056	62907
423.131	48065
423.207	36752
423.282	29406
423.357	26026
423.432	20144
423.508	18764
423.583	14356
423.658	14139
423.733	12394
423.808	12440
423.883	11716
423.959	11637
424.034	12329
424.109	12090
424.184	8521
424.259	7970
424.334	5700
424.409	6009
424.484	5496
424.559	5227
424.634	4244
424.709	5138
424.784	4353
424.859	4357
424.934	3296
425.009	4824
425.084	6545
425.159	3899
425.234	3551
425.309	2992
425.384	3663
425.459	4429
425.534	3452
425.609	1998
425.683	2234
425.758	2861
425.833	1975
425.908	3394
425.983	2681
426.058	4775
426.132	3333
426.207	2420
426.282	3106
426.357	2243
426.431	1433
426.506	2922
426.581	2155
426.655	2462
426.730	1545
426.805	1568
426.879	2008
426.954	1250
427.029	1583
427.103	5423
427.178	9551
427.253	5302
427.327	1768
427.402	1660
427.476	3518
427.551	2991
427.625	1887
427.700	1813
427.774	1102
427.849	2780
427.923	1790
427.998	2795
428.072	2736
428.147	7327
428.221	29515
428.296	73794
428.370	40670
428.444	7694
428.519	2999
428.593	3640
428.667	3182
428.742	4940
428.816	12114
428.890	49456
428.965	67002
429.039	19630
429.113	4619
429.188	2384
429.262	1350
429.336	2538
429.410	2968
429.485	2614
429.559	3308
429.633	2898
429.707	3219
429.781	11604
429.855	46195
429.930	60293
430.004	19512
430.078	16788
430.152	38862
430.226	100015
430.300	90191
430.374	23280
430.448	8199
430.522	7209
430.596	11247
430.670	20651
430.744	60264
430.818	60991
430.892	13143
430.966	3778
431.040	1309
431.114	1275
431.188	953
431.262	1819
431.336	594
431.410	3189
431.484	1832
431.557	2633
431.631	1363
431.705	5416
431.779	23828
431.853	70632
431.927	45750
432.000	9043
432.074	2001
432.148	1631
432.222	1110
432.295	939
432.369	312
432.443	1121
432.516	4363
432.590	10059
432.664	3361
432.737	759
432.811	-618
432.885	589
432.958	18
433.032	527
433.106	-160
433.179	1294
433.253	41
433.326	567
433.400	400
433.473	418
433.547	-715
433.620	1274
433.694	126
433.767	448
433.841	130
433.914	233
433.988	348
434.061	718
434.134	349
434.208	-46
434.281	-53
434.355	639
434.428	714
434.501	539
434.575	-570
434.648	382
434.721	-344
434.795	1321
434.868	-587
434.941	722
435.014	501
435.088	1242
435.161	851
435.234	1691
435.307	1781
435.381	3620
435.454	5365
435.527	8280
435.600	8631
435.673	7885
435.746	5245
435.819	4369
435.892	2886
435.966	2419
436.039	1311
436.112	2283
436.185	784
436.258	1239
436.331	-36
436.404	490
436.477	828
436.550	837
436.623	1061
436.696	1006
436.769	782
436.842	1227
436.915	40
436.987	600
437.060	31
437.133	486
437.206	-76
437.279	1465
437.352	-22
437.425	567
437.498	380
437.570	491
437.643	429
437.716	688
437.789	-560
437.861	-33
437.934	1056
438.007	157
438.080	154
438.152	772
438.225	408
438.298	5591
438.370	14660
438.443	6027
438.516	319
438.588	1039
438.661	-181
438.734	933
438.806	145
438.879	1713
438.951	313
439.024	176
439.096	-428
439.169	42
439.241	-363
439.314	649
439.386	428
439.459	1347
439.531	-99
439.604	350
439.676	374
439.749	561
439.821	-498
439.893	562
439.966	233
440.038	716
440.110	793
440.183	248
440.255	-91
440.327	1361
440.400	2217
440.472	8515
440.544	4705
440.617	1074
440.689	1240
440.761	882
440.833	766
440.905	1046
440.978	275
441.050	777
441.122	947
441.194	483
441.266	554
441.338	771
441.411	1011
441.483	2453
441.555	2967
441.627	1523
441.699	1314
441.771	724
441.843	518
441.915	1309
441.987	940
442.059	597
442.131	1733
442.203	2346
442.275	3466
442.347	6614
442.419	17071
442.491	65089
442.563	110478
442.635	47180
442.706	11130
442.778	6107
442.850	3882
442.922	3787
442.994	3105
443.066	4362
443.137	4977
443.209	6875
443.281	10418
443.353	23920
443.425	74472
443.496	165222
443.568	161001
443.640	72190
443.711	20221
443.783	9605
443.855	5628
443.926	4192
443.998	2526
444.070	3400
444.141	2223
444.213	2952
444.285	2080
444.356	2250
444.428	1331
444.499	1638
444.571	1471
444.642	2513
444.714	1809
444.785	3225
444.857	2781
444.928	3482
445.000	4198
445.071	5981
445.143	8006
445.214	11103
445.285	19204
445.357	47971
445.428	126827
445.500	186352
445.571	155746
445.642	104831
445.714	40176
445.785	16139
445.856	6887
445.928	5036
445.999	3686
446.070	2457
446.141	2414
446.213	1849
446.284	1356
446.355	1361
446.426	1203
446.497	1092
446.569	650
446.640	1621
446.711	651
446.782	1210
446.853	308
446.924	1074
446.995	673
447.066	467
447.138	-158
447.209	385
447.280	-109
447.351	778
447.422	-25
447.493	-15
447.564	-490
447.635	-725
447.706	-607
447.777	-406
447.847	-548
447.918	320
447.989	103
448.060	241
448.131	-6
448.202	803
448.273	-552
448.344	355
448.414	-548
448.485	596
448.556	-262
448.627	-214
448.698	243
448.768	-209
448.839	-777
448.910	221
448.981	271
449.051	403
449.122	-129
449.193	47
449.263	-359
449.334	311
449.405	158
449.475	600
449.546	320
449.616	946
449.687	707
449.758	927
449.828	-322
449.899	-426
449.969	-678
450.040	393
450.110	-474
450.181	85
450.251	450
450.322	390
450.392	198
450.463	-197
450.533	-523
450.604	127
450.674	-67
450.744	1109
450.815	-491
450.885	621
450.955	1120
451.026	90
451.096	-348
451.166	343
451.237	1520
451.307	2652
451.377	1299
451.447	368
451.518	488
451.588	684
451.658	173
451.728	536
451.799	1026
451.869	1215
451.939	-552
452.009	490
452.079	608
452.149	706
452.219	189
452.289	1883
452.360	527
452.430	1025
452.500	1168
452.570	3376
452.640	8256
452.710	19142
452.780	20693
452.850	12153
452.920	5267
452.990	2995
453.060	2533
453.129	1318
453.199	584
453.269	3141
453.339	4502
453.409	5889
453.479	6291
453.549	8213
453.619	7760
453.688	2759
453.758	208
453.828	426
453.898	106
453.968	337
454.037	668
454.087	220
454.107	27
454.168	-551
454.177	-653
454.247	-292
454.249	-286
454.316	-498
454.330	-307
454.386	401
454.411	145
454.456	-371
454.492	443
454.525	1169
454.574	1024
454.595	951
454.655	374
454.665	260
454.734	122
454.736	151
454.804	724
454.817	829
454.873	1237
454.898	1487
454.943	1906
454.979	1532
455.013	1157
455.060	888
455.082	753
455.141	292
455.152	199
455.221	2049
455.222	2058
455.291	1338
455.303	1528
455.360	2285
455.384	2970
455.430	4058
455.465	3170
455.499	2314
455.546	1403
455.569	975
455.627	929
455.638	908
455.707	475
455.708	486
455.777	911
455.789	894
455.846	628
455.869	768
455.916	1114
455.950	644
455.985	37
456.031	219
456.054	333
456.112	519
456.124	571
456.193	1442
456.193	1431
456.262	495
456.274	720
456.332	1628
456.355	1331
456.401	692
456.436	973
456.470	1319
456.516	1221
456.540	1108
456.597	806
456.609	735
456.678	1296
456.678	1286
456.747	1681
456.759	1471
456.817	427
456.840	636
456.886	800
456.920	1007
456.955	1323
457.001	1967
457.024	2176
457.082	1100
457.093	917
457.162	1646
457.163	1658
457.232	1612
457.243	1725
457.301	2185
457.324	1950
457.370	1493
457.405	1933
457.439	2362
457.485	2712
457.508	3040
457.566	3567
457.577	3848
457.646	6449
457.647	6507
457.715	14410
457.727	16308
457.784	26169
457.808	33945
457.853	41727
457.889	45981
457.922	46741
457.969	34162
457.991	34003
458.050	40502
458.060	41797
458.129	69882
458.130	70655
458.198	64203
458.211	56848
458.267	34150
458.292	24717
458.336	17055
458.372	17662
458.405	24236
458.453	35960
458.474	42678
458.533	70404
458.543	71612
458.611	99751
458.614	99880
458.680	61332
458.694	48674
458.749	23344
458.775	17564
458.818	11337
458.855	8861
458.887	7234
458.936	5809
458.955	5299
459.016	4572
459.024	4487
459.093	4633
459.097	4566
459.162	3015
459.177	3097
459.230	3800
459.257	3873
459.299	3838
459.338	3756
459.368	3610
459.418	3518
459.437	3511
459.499	3666
459.505	3656
459.574	3056
459.579	3064
459.643	3003
459.659	2833
459.711	2640
459.740	3059
459.780	3317
459.820	2873
459.849	2718
459.900	3238
459.917	3403
459.981	3119
459.986	3074
460.054	3240
460.061	3221
460.123	3089
460.141	3173
460.191	3495
460.222	3545
460.260	3507
460.302	3672
460.328	3816
460.382	3642
460.397	3672
460.462	4433
460.465	4616
460.534	8580
460.543	9142
460.602	17980
460.623	21710
460.671	33367
460.703	43734
460.739	36360
460.783	22118
460.808	18762
460.864	6275
460.876	5127
460.944	3839
460.945	3814
461.013	3299
461.024	3130
461.081	2858
461.104	3163
461.150	3202
461.184	2806
461.218	2777
461.264	3450
461.286	3677
461.345	3201
461.355	3140
461.423	3512
461.425	3506
461.491	2799
461.505	2889
461.559	3563
461.585	3441
461.628	3354
461.665	3913
461.696	4370
461.745	4516
461.764	4274
461.825	3465
461.832	3504
461.901	3818
461.905	3847
461.969	2989
461.985	2807
462.037	3841
462.065	4359
462.105	3674
462.145	3003
462.173	3298
462.225	3985
462.241	3991
462.305	3832
462.310	3821
462.378	3898
462.385	3827
462.446	3177
462.465	3186
462.514	3391
462.545	3339
462.582	3297
462.625	3305
462.650	3298
462.705	3531
462.718	3520
462.785	3314
462.786	3320
462.854	3108
462.865	3162
462.922	3307
462.945	3200
462.990	3293
463.025	3435
463.058	3214
463.104	2990
463.126	3003
463.184	3141
463.194	3235
463.262	3252
463.264	3283
463.330	3627
463.344	3623
463.398	4121
463.424	4258
463.466	4101
463.504	4010
463.533	3879
463.583	3714
463.601	3886
463.663	4098
463.669	4008
463.737	3441
463.743	3361
463.805	4107
463.823	4406
463.873	4793
463.903	4926
463.940	4749
463.982	4552
464.008	4363
464.062	3853
464.076	3864
464.142	3957
464.144	3952
464.211	3367
464.221	3313
464.279	3297
464.301	3345
464.347	3587
464.381	3651
464.414	3662
464.461	3729
464.482	3733
464.540	3826
464.550	3865
464.617	3660
464.620	3666
464.685	4326
464.699	4404
464.753	4729
464.779	4918
464.820	5233
464.859	5402
464.888	4721
464.938	3794
464.956	4203
465.018	5292
465.023	5266
465.091	4918
465.098	4885
465.158	4270
465.177	4101
465.226	4601
465.257	4770
465.293	4599
465.336	4509
465.361	4815
465.416	5355
465.428	5227
465.495	4742
465.496	4750
465.563	4707
465.575	4738
465.631	5435
465.654	5686
465.698	5237
465.734	4844
465.765	4914
465.813	4799
465.833	4685
465.893	4571
465.900	4590
465.968	4693
465.972	4686
466.035	4722
466.052	4730
466.102	4639
466.131	4562
466.170	4507
466.210	4418
466.237	4306
466.290	4162
466.304	4215
466.369	4250
466.372	4267
466.439	4655
466.449	4682
466.506	4515
466.528	4492
466.573	5660
466.607	6440
466.641	6295
466.687	6203
466.708	6459
466.766	7015
466.775	6795
466.842	5110
466.845	5020
466.909	4913
466.925	4888
466.977	5089
467.004	5187
467.044	5129
467.083	5075
467.111	5827
467.163	7174
467.178	6914
467.242	5797
467.245	5797
467.312	5610
467.321	5581
467.379	6087
467.400	6249
467.446	6106
467.480	5989
467.559	6650
467.638	6222
467.717	5454
467.796	7072
467.875	6096
467.955	6142
468.034	8176
468.113	9875
468.192	11888
468.271	11975
468.350	15622
468.429	20638
468.508	21074
468.588	13972
468.667	8958
468.746	6975
468.825	7063
468.904	7256
468.983	5688
469.062	6054
469.141	7244
469.220	5164
469.299	6183
469.378	5443
469.456	6531
469.535	6327
469.614	5094
469.693	5061
469.772	6872
469.851	6566
469.930	5934
470.009	6598
470.088	5423
470.166	6241
470.245	6727
470.324	7291
470.403	6578
470.482	6448
470.560	6281
470.639	5171
470.718	5679
470.797	4970
470.875	5368
470.954	5145
471.033	6227
471.111	6112
471.190	4497
471.269	5645
471.347	5111
471.426	5743
471.505	6345
471.583	5475
471.662	5967
471.740	6253
471.819	5289
471.898	6118
471.976	5561
472.055	5291
472.133	5535
472.212	7152
472.290	4800
472.369	5456
472.447	5791
472.526	5384
472.604	5605
472.683	5967
472.761	5453
472.839	5457
472.918	5422
472.996	5247
473.075	6213
473.153	6283
473.231	5884
473.310	6111
473.388	6274
473.466	5747
473.545	6450
473.623	5802
473.701	6228
473.780	5889
473.858	5217
473.936	7426
474.014	5089
474.093	5498
474.171	6989
474.249	6653
474.327	4975
474.405	5693
474.484	5491
474.562	5739
474.640	5051
474.718	5495
474.796	5408
474.874	6492
474.952	4547
475.030	5369
475.108	5231
475.187	5508
475.265	6039
475.343	6169
475.421	6061
475.499	5360
475.577	5755
475.655	7055
475.733	6194
475.811	5534
475.889	6593
475.966	6077
476.044	4401
476.122	5721
476.200	5636
476.278	4923
476.356	5308
476.434	5101
476.512	5383
476.590	5316
476.667	4430
476.745	4338
476.823	5237
476.901	4790
476.979	4914
477.056	5135
477.134	5441
477.212	5498
477.290	5668
477.367	5309
477.445	4970
477.523	4422
477.601	5128
477.678	5608
477.756	5377
477.834	5711
477.911	4943
477.989	5649
478.066	5173
478.144	5300
478.222	5050
478.299	5235
478.377	5909
478.454	5970
478.532	4939
478.609	5033
478.687	5180
478.764	4249
478.842	4925
478.919	4599
478.997	5691
479.074	5291
479.152	5062
479.229	5069
479.307	5089
479.384	5117
479.461	4041
479.539	4652
479.616	4833
479.694	4349
479.771	5728
479.848	4534
479.926	4295
480.003	5705
480.080	5561
480.157	5081
480.235	4530
480.312	4861
480.389	5144
480.467	5149
480.544	6046
480.621	5590
480.698	5944
480.775	5511
480.853	5877
480.930	5215
481.007	5888
481.084	6124
481.161	7812
481.238	5988
481.315	5132
481.392	6131
481.470	5758
481.547	5280
481.624	5284
481.701	5684
481.778	5193
481.855	4965
481.932	6185
482.009	7371
482.086	7587
482.163	6950
482.240	7845
482.317	7635
482.393	6417
482.470	6204
482.547	5865
482.624	5936
482.701	5459
482.778	6036
482.855	5091
482.932	6435
483.009	5792
483.085	7978
483.162	8722
483.239	8981
483.316	7435
483.393	7491
483.469	6387
483.546	7024
483.623	6247
483.699	5271
483.776	5394
483.853	5500
483.930	5894
484.006	6251
484.083	9243
484.160	9742
484.236	12554
484.313	9592
484.389	8061
484.466	10446
484.543	11481
484.619	13695
484.696	14516
484.772	10440
484.849	9557
484.925	8182
485.002	7353
485.078	8368
485.155	7582
485.231	7252
485.308	7124
485.384	7149
485.461	7088
485.537	7872
485.614	7523
485.690	6958
485.766	6689
485.843	6305
485.919	6401
485.995	6900
486.072	6475
486.148	7013
486.224	6357
486.301	7521
486.377	7196
486.453	6332
486.530	8126
486.606	9237
486.682	8911
486.758	8166
486.835	8706
486.911	7780
486.987	10694
487.063	9556
487.139	10736
487.215	11947
487.292	13218
487.368	13895
487.444	14773
487.520	21405
487.596	35693
487.672	97698
487.748	249012
487.824	314251
487.900	86151
487.976	28769
488.052	16673
488.128	13644
488.204	10383
488.280	9966
488.356	8613
488.432	9227
488.508	10265
488.584	6818
488.660	7544
488.736	7485
488.812	6190
488.888	7030
488.964	6908
489.039	7808
489.115	8942
489.191	8148
489.267	7122
489.343	6654
489.418	6529
489.494	6227
489.570	5021
489.646	7396
489.722	5992
489.797	5752
489.873	6630
489.949	7920
490.024	7021
490.100	5071
490.176	6223
490.251	6482
490.327	6285
490.403	5397
490.478	5830
490.554	6431
490.629	5589
490.705	5863
490.781	6484
490.856	5303
490.932	5474
491.007	5413
491.083	4453
491.158	4948
491.234	5895
491.309	6986
491.385	6293
491.460	3550
491.536	5642
491.611	4887
491.686	5571
491.762	6318
491.837	5985
491.913	6360
491.988	7244
492.063	7385
492.139	5538
492.214	5593
492.289	4884
492.365	4682
492.440	4813
492.515	5247
492.590	4631
492.666	4662
492.741	5508
492.816	5235
492.891	4744
492.967	4694
493.042	3537
493.117	3812
493.192	5342
493.267	7127
493.342	9449
493.418	9967
493.493	5300
493.568	4552
493.643	4584
493.718	4287
493.793	4518
493.868	4208
493.943	4083
494.018	5011
494.093	4384
494.168	4912
494.243	3823
494.318	4918
494.393	5327
494.468	4641
494.543	4140
494.618	4381
494.693	4630
494.768	3981
494.842	4098
494.917	4383
494.992	3567
495.067	4150
495.142	4995
495.217	4168
495.292	3981
495.366	4174
495.441	3542
495.516	4887
495.591	5214
495.665	7698
495.740	9752
495.815	6046
495.890	4422
495.964	2429
496.039	5475
496.114	5963
496.188	6176
496.263	5843
496.338	4731
496.412	4532
496.487	4923
496.561	3966
496.636	4194
496.710	4773
496.785	4458
496.860	4450
496.934	4147
497.009	4782
497.083	3290
497.158	4555
497.232	5492
497.307	5461
497.381	3601
497.455	3749
497.530	5462
497.604	4780
497.679	4809
497.753	4456
497.827	4703
497.902	3775
497.976	6238
498.050	11799
498.125	27468
498.199	24160
498.273	5754
498.348	4543
498.422	4860
498.496	4513
498.570	4828
498.645	4303
498.719	3658
498.793	4395
498.867	4440
498.941	6090
499.016	14074
499.090	25658
499.164	9325
499.238	4490
499.312	4480
499.386	4783
499.460	4335
499.534	4723
499.609	5802
499.683	4759
499.757	5551
499.831	8201
499.905	18499
499.979	15202
500.053	5028
500.127	4596
500.201	3667
500.275	4416
500.349	3731
500.422	4628
500.496	5005
500.570	6617
500.644	13113
500.718	17393
500.792	6131
500.866	4801
500.940	4508
501.013	4381
501.087	4317
501.161	4548
501.235	4497
501.309	10027
501.382	16158
501.456	13844
501.530	5468
501.603	4844
501.677	4761
501.751	3420
501.825	5887
501.898	4573
501.972	7299
502.046	5188
502.119	3663
502.193	6401
502.266	7297
502.340	4445
502.413	5118
502.487	6835
502.561	4737
502.634	3981
502.708	4472
502.781	3735
502.855	4920
502.928	2687
503.002	3968
503.075	2960
503.149	3213
503.222	4139
503.295	4957
503.369	5533
503.442	4895
503.516	9387
503.589	12485
503.662	10212
503.736	9698
503.809	13963
503.882	15881
503.956	27489
504.029	57649
504.102	144839
504.175	167006
504.249	54004
504.322	22241
504.395	12751
504.468	9253
504.542	6460
504.615	5359
504.688	5943
504.761	3482
504.834	5776
504.907	3987
504.980	4975
505.053	3570
505.127	1357
505.200	5602
505.273	3162
505.346	2899
505.419	2565
505.492	3837
505.565	2972
505.638	3548
505.711	2829
505.784	2241
505.857	2716
505.930	4196
506.003	2118
506.076	4733
506.149	2436
506.221	816
506.294	4733
506.367	3642
506.440	8298
506.513	5600
506.586	2866
506.659	2026
506.731	3175
506.804	2751
506.877	1929
506.950	2836
507.022	3898
507.095	865
507.168	3224
507.241	3697
507.313	2287
507.386	2271
507.459	3283
507.531	2337
507.604	2438
507.677	3643
507.749	1603
507.822	3900
507.894	3763
507.967	5384
508.040	3285
508.112	3595
508.185	3889
508.257	2482
508.330	4834
508.402	3103
508.475	2790
508.547	3243
508.620	2512
508.692	3416
508.765	3463
508.837	2281
508.909	2835
508.982	3147
509.054	3259
509.127	2516
509.199	3846
509.271	1956
509.344	2303
509.416	2836
509.488	3117
509.560	4377
509.633	2624
509.705	2998
509.777	2428
509.849	3517
509.922	2240
509.994	2872
510.066	3501
510.138	2639
510.210	6840
510.283	4314
510.355	4271
510.427	4391
510.499	3162
510.571	3694
510.643	2117
510.715	4675
510.787	2126
510.859	5165
510.931	3464
511.003	3830
511.076	4206
511.148	2866
511.219	3115
511.291	4001
511.363	4192
511.435	3165
511.507	2543
511.579	3816
511.651	3453
511.723	3007
511.795	3343
511.867	2823
511.939	2711
512.010	3239
512.082	3779
512.154	2497
512.226	3213
512.298	5255
512.369	5153
512.441	4868
512.513	3376
512.585	1820
512.656	4366
512.728	3004
512.800	2744
512.871	4171
512.943	3129
513.015	2084
513.086	3099
513.158	3214
513.230	2675
513.301	2518
513.373	4524
513.444	3680
513.516	3149
513.588	2434
513.659	3593
513.731	3278
513.802	1795
513.874	4948
513.945	4127
514.016	2611
514.088	3594
514.159	1225
514.231	4027
514.302	4382
514.374	4019
514.445	2117
514.516	6538
514.588	3592
514.659	4003
514.730	3393
514.802	5440
514.873	1879
514.944	4727
515.016	4293
515.087	3276
515.158	4158
515.229	5350
515.301	2707
515.372	4126
515.443	2079
515.514	3916
515.585	1418
515.656	4439
515.728	3684
515.799	3553
515.870	3830
515.941	3615
516.012	2712
516.083	4903
516.154	2757
516.225	4737
516.296	5787
516.367	4245
516.438	4008
516.509	4805
516.580	7573
516.651	20896
516.722	42723
516.793	15796
516.864	5357
516.935	6593
517.006	6239
517.077	8438
517.148	20564
517.219	72345
517.289	77530
517.360	15834
517.431	8555
517.502	4024
517.573	6433
517.643	5772
517.714	4942
517.785	6168
517.856	5378
517.926	7815
517.997	8271
518.068	7941
518.138	12240
518.209	17419
518.280	64054
518.350	153332
518.421	45095
518.492	16655
518.562	19163
518.633	25206
518.703	40807
518.774	111027
518.845	247346
518.915	170459
518.986	45628
519.056	21553
519.127	15357
519.197	13516
519.268	14516
519.338	11366
519.408	7564
519.479	6176
519.549	5705
519.620	6086
519.690	4403
519.760	4841
519.831	3885
519.901	3707
519.971	4788
520.042	4560
520.112	3349
520.182	5212
520.253	5444
520.323	3169
520.393	3328
520.463	6667
520.534	1829
520.604	7928
520.674	4808
520.744	3585
520.814	4557
520.885	5592
520.955	6092
521.025	12109
521.095	5649
521.165	5001
521.235	3777
521.305	3573
521.375	4233
521.445	4247
521.515	4297
521.585	4558
521.655	2146
521.725	4139
521.795	4626
521.865	1995
521.935	5840
522.005	2978
522.075	2998
522.145	4951
522.215	2641
522.285	3773
522.355	3765
522.424	5751
522.494	4721
522.564	4165
522.634	5157
522.704	8122
522.774	3966
522.843	4763
522.913	3962
522.983	3953
523.053	3434
523.122	4674
523.192	2901
523.262	5129
523.331	3634
523.401	4760
523.471	4031
523.540	4793
523.610	3441
523.680	4056
523.749	4445
523.819	4382
523.888	4258
523.958	4537
524.027	4398
524.097	4725
524.166	4518
524.236	3438
524.305	5249
524.375	4351
524.444	2638
524.514	6848
524.583	5021
524.653	3687
524.722	4870
524.791	4270
524.861	6710
524.930	3926
524.999	4450
525.069	5590
525.138	4377
525.207	5164
525.277	6990
525.346	5644
525.415	7520
525.484	7959
525.554	8392
525.623	10986
525.692	12677
525.761	14521
525.830	18216
525.900	23654
525.969	42244
526.038	81358
526.107	202852
526.176	441910
526.245	255458
526.314	99152
526.383	252775
526.452	269325
526.522	445136
526.591	263509
526.660	47281
526.729	31491
526.797	38790
526.867	68384
526.935	231806
527.004	610006
527.073	253958
527.142	39449
527.211	19346
527.280	14312
527.349	11404
527.418	7474
527.487	8687
527.555	5769
527.624	6010
527.693	4967
527.762	7026
527.831	4953
527.899	6123
527.968	5360
528.037	4206
528.106	5617
528.174	4510
528.243	4058
528.312	5631
528.380	4736
528.449	4041
528.518	6019
528.586	3110
528.655	4804
528.723	4194
528.792	4465
528.861	3871
528.929	3841
528.998	5969
529.066	6126
529.135	8956
529.203	7693
529.272	10071
529.340	11060
529.409	11470
529.477	9015
529.545	9659
529.614	13125
529.682	11314
529.751	13399
529.819	16624
529.887	16145
529.956	14797
530.024	13997
530.092	12492
530.161	14376
530.229	14623
530.297	13826
530.365	15557
530.434	16536
530.502	14578
530.570	13808
530.638	11587
530.707	12445
530.775	12749
530.843	12975
530.911	13483
530.979	14535
531.047	15205
531.115	16268
531.183	13427
531.252	12205
531.320	11791
531.388	11764
531.456	15132
531.524	13254
531.592	16793
531.660	17414
531.728	14048
531.796	13871
531.864	14607
531.932	14254
532.000	14416
532.067	15766
532.135	16473
532.203	18694
532.271	17697
532.339	19319
532.407	18726
532.475	17851
532.542	16154
532.610	17776
532.678	17662
532.746	24761
532.814	28591
532.881	20068
532.949	17985
533.017	17392
533.084	16269
533.152	15087
533.220	15682
533.287	15641
533.355	16513
533.423	17383
533.490	17205
533.558	17786
533.625	16917
533.693	15513
533.761	16447
533.828	15625
533.896	14668
533.963	17527
534.031	17669
534.098	20937
534.166	20205
534.233	18978
534.300	21123
534.368	19833
534.435	17520
534.503	19914
534.570	21387
534.637	22173
534.705	23850
534.772	29751
534.840	62720
534.907	234028
534.974	173066
535.041	28534
535.109	19458
535.176	17483
535.243	17985
535.310	17595
535.378	15681
535.445	17525
535.512	16088
535.579	16016
535.646	14520
535.714	16530
535.781	16894
535.848	17255
535.915	15956
535.982	16152
536.049	17004
536.116	16452
536.183	14744
536.250	14609
536.317	14705
536.384	16383
536.451	16151
536.518	16325
536.585	14242
536.652	17698
536.719	16597
536.786	14032
536.853	14040
536.920	16407
536.987	15105
537.053	14340
537.120	20587
537.187	19335
537.254	16602
537.321	16544
537.388	17610
537.454	15809
537.521	15459
537.588	14747
537.654	16704
537.721	16230
537.788	15831
537.855	15586
537.921	15476
537.988	14891
538.055	15945
538.121	13114
538.188	13296
538.254	13947
538.321	13454
538.388	16025
538.454	17093
538.521	16813
538.587	16764
538.654	16929
538.720	15934
538.787	15940
538.853	15945
538.920	14742
538.986	13231
539.053	13896
539.119	14485
539.185	12982
539.252	16708
539.318	16411
539.385	18036
539.451	14935
539.517	15487
539.583	15745
539.650	15763
539.716	17267
539.782	13974
539.849	14046
539.915	14808
539.981	13794
540.047	14273
540.114	14279
540.180	15801
540.246	15269
540.312	16262
540.378	15631
540.444	16969
540.510	17316
540.576	18905
540.643	15650
540.709	13848
540.775	14805
540.841	13830
540.907	13998
540.973	14846
541.039	14844
541.105	15460
541.171	15569
541.237	15501
541.303	16120
541.369	16567
541.435	15375
541.500	15367
541.566	12726
541.632	13889
541.698	14951
541.764	15909
541.830	14455
541.896	13386
541.961	14969
542.027	13712
542.093	17494
542.159	14862
542.224	14033
542.290	16108
542.356	14157
542.421	14647
542.487	14487
542.553	13546
542.618	14042
542.684	13423
542.750	14905
542.815	15344
542.881	15385
542.947	18263
543.012	17534
543.078	13862
543.143	13785
543.209	14453
543.274	12675
543.340	14831
543.405	15931
543.471	15857
543.536	15627
543.602	15305
543.667	13478
543.732	16952
543.798	13682
543.863	15634
543.928	14106
543.994	15075
544.059	15086
544.124	16454
544.190	15776
544.255	16048
544.320	16991
544.386	15230
544.451	16703
544.516	16075
544.581	16589
544.646	18425
544.712	20142
544.777	18008
544.842	16095
544.907	16564
544.972	17351
545.037	18118
545.102	18830
545.168	17829
545.233	19266
545.298	19362
545.363	18577
545.428	19761
545.493	20985
545.558	21106
545.623	21444
545.688	19850
545.753	21004
545.818	21992
545.883	23992
545.947	22626
546.012	24170
546.077	25036
546.142	27272
546.207	26527
546.272	29031
546.337	29366
546.401	30662
546.466	31717
546.531	32565
546.596	34028
546.661	36701
546.725	38560
546.790	41453
546.855	44555
546.919	49314
546.984	53549
547.049	57686
547.113	66565
547.178	72731
547.243	84006
547.307	97933
547.372	104434
547.436	105277
547.501	112720
547.565	116689
547.630	105585
547.695	104132
547.759	104550
547.823	105308
547.888	108054
547.952	111730
548.017	115632
548.081	118447
548.146	115069
548.210	123876
548.274	130048
548.339	123683
548.403	113834
548.468	107024
548.532	108099
548.596	110599
548.660	113488
548.725	124033
548.789	130979
548.853	126286
548.917	121637
548.982	116936
549.046	104306
549.110	97001
549.174	103009
549.238	119982
549.303	129620
549.367	130831
549.431	122594
549.495	116994
549.559	120851
549.623	144097
549.687	148079
549.751	153375
549.815	177318
549.879	174063
549.943	170968
550.007	180268
550.071	171068
550.135	156059
550.199	151940
550.263	146949
550.327	141858
550.391	145858
550.455	162026
550.519	169105
550.582	182667
550.646	204799
550.710	201701
550.774	198745
550.838	201752
550.901	208665
550.965	218168
551.029	229062
551.093	240369
551.156	256053
551.220	273809
551.284	273663
551.347	231415
551.411	214699
551.475	214499
551.538	217000
551.602	202950
551.666	195110
551.729	182657
551.793	182215
551.856	179759
551.920	177812
551.983	177531
552.047	176132
552.110	178796
552.174	180397
552.237	181751
552.301	170101
552.364	165595
552.428	160753
552.491	167656
552.554	168118
552.618	168785
552.681	171189
552.745	162768
552.808	172059
552.871	175398
552.934	172666
552.998	167771
553.061	165216
553.124	159851
553.187	162970
553.251	165011
553.314	166238
553.377	169288
553.440	180192
553.503	188538
553.567	188289
553.630	180999
553.693	180722
553.756	183262
553.819	179861
553.882	177647
553.945	178662
554.008	177760
554.071	178190
554.134	179924
554.197	170591
554.260	170653
554.323	172671
554.386	173954
554.449	180077
554.512	178505
554.575	171194
554.638	171661
554.701	171762
554.764	166132
554.827	163108
554.889	155722
554.952	150084
555.015	147991
555.078	149593
555.141	150591
555.203	146301
555.266	148293
555.329	145445
555.391	139833
555.454	138668
555.517	132840
555.580	127112
555.642	124379
555.705	122506
555.768	121409
555.830	117871
555.893	113656
555.955	111413
556.018	107668
556.080	109988
556.143	110568
556.206	107400
556.268	106188
556.330	103313
556.393	101721
556.455	98860
556.518	95999
556.580	93417
556.643	90300
556.705	89161
556.767	86506
556.830	86418
556.892	84023
556.955	81624
557.017	79637
557.079	78749
557.142	77467
557.204	75263
557.266	74198
557.328	69519
557.391	66539
557.453	65431
557.515	65007
557.577	65783
557.639	65012
557.701	64922
557.764	62173
557.826	62653
557.888	65138
557.950	65535
558.012	70718
558.074	91195
558.136	195643
558.198	284621
558.260	95164
558.322	63049
558.384	63987
558.446	65317
558.508	68323
558.570	72489
558.632	80557
558.694	104307
558.756	183582
558.818	485986
558.880	666310
558.942	282741
559.003	309055
559.065	119760
559.127	72576
559.189	70702
559.251	78876
559.312	118859
559.374	288017
559.436	561112
559.498	201308
559.559	75002
559.621	67171
559.683	81343
559.744	141842
559.806	390752
559.868	350000
559.929	88223
559.991	77832
560.052	146511
560.114	299957
560.176	150886
560.237	215199
560.299	215788
560.360	50667
560.422	34127
560.483	31607
560.545	30112
560.606	30494
560.667	28700
560.729	27399
560.790	26353
560.852	26333
560.913	25592
560.974	25267
561.036	23784
561.097	24192
561.158	23946
561.220	24341
561.281	23104
561.342	22314
561.403	23528
561.465	22198
561.526	23441
561.587	23744
561.648	19776
561.709	20009
561.771	21599
561.832	20987
561.893	19934
561.954	19303
562.015	20022
562.076	18399
562.137	18960
562.198	18619
562.259	19288
562.320	18258
562.381	19266
562.442	19074
562.503	18214
562.564	17751
562.625	18399
562.686	17138
562.747	16902
562.808	18802
562.869	17474
562.930	17504
562.991	17789
563.051	16822
563.112	16950
563.173	16883
563.234	15574
563.294	16000
563.355	16068
563.416	15857
563.477	16586
563.537	15745
563.598	16148
563.659	16048
563.720	15302
563.780	14726
563.841	15545
563.901	15335
563.962	15282
564.023	15434
564.083	15344
564.144	14345
564.204	14903
564.265	15088
564.325	14894
564.386	15960
564.446	14925
564.507	14208
564.567	13897
564.628	14084
564.688	15124
564.749	14035
564.809	15279
564.869	14213
564.930	14132
564.990	14478
565.050	13742
565.111	15136
565.171	14124
565.231	14085
565.292	15365
565.352	13497
565.412	15086
565.472	13263
565.532	13688
565.593	13832
565.653	13936
565.713	14199
565.773	14560
565.833	14526
565.893	15512
565.953	13475
566.013	13761
566.074	14066
566.134	15182
566.194	13325
566.254	13992
566.314	12699
566.374	12994
566.434	12662
566.494	13613
566.554	13555
566.614	13060
566.673	14941
566.733	15048
566.793	14378
566.853	13632
566.913	13902
566.973	14458
567.033	14575
567.092	13779
567.152	14406
567.212	14160
567.272	15129
567.331	15112
567.391	15458
567.451	15434
567.511	14788
567.570	15619
567.630	14617
567.690	14126
567.749	13668
567.809	13787
567.868	14951
567.928	14457
567.988	14264
568.047	15662
568.107	14056
568.166	15278
568.226	15850
568.285	17273
568.345	15877
568.404	15598
568.464	14398
568.523	14982
568.582	16074
568.642	16029
568.701	15038
568.761	16506
568.820	18548
568.879	17224
568.939	17459
568.998	15785
569.057	14605
569.116	14739
569.176	14559
569.235	15126
569.294	14381
569.353	14196
569.413	14199
569.472	13323
569.531	13790
569.590	13178
569.649	13539
569.708	13215
569.767	14431
569.827	13708
569.886	13020
569.945	12734
570.004	13700
570.063	14629
570.122	14515
570.181	14135
570.240	14173
570.299	14992
570.358	14117
570.417	15081
570.475	14546
570.534	14774
570.593	14606
570.652	14484
570.711	14941
570.770	14549
570.829	14718
570.887	14582
570.946	14274
571.005	13566
571.064	14233
571.122	14722
571.181	14025
571.240	14360
571.299	14846
571.357	13676
571.416	14207
571.475	13810
571.533	14054
571.592	15426
571.650	14762
571.709	14681
571.768	17008
571.826	16444
571.885	15173
571.943	14605
572.002	15031
572.060	14068
572.119	14004
572.177	14538
572.236	14341
572.294	14707
572.352	15177
572.411	14903
572.469	14411
572.528	14298
572.586	13258
572.644	14552
572.703	14223
572.761	13883
572.819	12528
572.877	12756
572.936	12440
572.994	13354
573.052	12770
573.110	13769
573.169	12982
573.227	13702
573.285	13273
573.343	13174
573.401	12979
573.459	14060
573.517	14003
573.576	12906
573.634	13431
573.692	12923
573.750	12788
573.808	11668
573.866	13627
573.924	13298
573.982	13773
574.040	12162
574.098	12510
574.155	11600
574.213	11831
574.271	12527
574.329	13260
574.387	12108
574.445	12278
574.503	11533
574.560	10632
574.618	12061
574.676	12193
574.734	11492
574.792	11135
574.849	10900
574.907	9915
574.965	10685
575.022	8978
575.080	10472
575.138	9916
575.195	9809
575.253	8935
575.311	10606
575.368	9436
575.426	9834
575.483	11099
575.541	10586
575.598	9968
575.656	9542
575.713	10633
575.771	10000
575.828	9974
575.886	10068
575.943	9854
576.001	9595
576.058	8764
576.115	9538
576.173	9797
576.230	9975
576.287	9820
576.345	9682
576.402	9623
576.459	9628
576.517	9807
576.574	9201
576.631	10155
576.688	9790
576.746	8981
576.803	9141
576.860	8294
576.917	10056
576.974	9991
577.031	9597
577.089	9728
577.146	8762
577.203	8524
577.260	8320
577.317	9820
577.374	9091
577.431	8612
577.488	9346
577.545	7910
577.602	9680
577.659	9132
577.716	9263
577.773	9181
577.830	8985
577.886	9865
577.943	8694
578.000	8904
578.057	8887
578.114	9276
578.171	9470
578.227	9218
578.284	9206
578.341	9304
578.398	9258
578.454	8687
578.511	9321
578.568	9738
578.625	10164
578.681	8484
578.738	8915
578.794	9513
578.851	9133
578.908	9234
578.964	9232
579.021	8903
579.077	8014
579.134	9086
579.190	8626
579.247	8995
579.303	9509
579.360	8730
579.416	8795
579.473	9231
579.529	9453
579.586	9046
579.642	9585
579.698	9809
579.755	10050
579.811	9180
579.867	9462
579.924	9529
579.980	8826
580.036	10733
580.093	11036
580.149	12023
580.205	11796
580.261	10812
580.317	11713
580.374	11386
580.430	10840
580.486	11273
580.542	9944
580.598	11108
580.619	11062
580.654	10991
580.692	10490
580.710	10254
580.765	10530
580.767	10547
580.823	11425
580.838	11382
580.879	11309
580.911	10812
580.935	10451
580.984	11121
580.991	11228
581.047	11671
581.057	11580
581.103	11156
581.130	11339
581.159	11561
581.203	11310
581.215	11241
581.270	11471
581.276	11388
581.326	10698
581.349	10985
581.382	11441
581.422	11740
581.438	11840
581.494	11901
581.494	11886
581.550	10863
581.567	11192
581.606	11921
581.640	11530
581.661	11291
581.713	13305
581.717	13473
581.773	12057
581.786	12176
581.829	12477
581.859	12421
581.885	12445
581.932	12659
581.940	12686
581.996	12591
582.004	12662
582.052	13116
582.077	12943
582.107	12711
582.150	12780
582.163	12803
582.219	12722
582.223	12707
582.274	12539
582.296	12319
582.330	12035
582.368	12898
582.386	13293
582.441	13184
582.441	13184
582.497	13080
582.514	13121
582.552	13330
582.587	13164
582.608	13088
582.659	13458
582.663	13475
582.719	14185
582.732	14208
582.774	14472
582.805	14664
582.830	14685
582.877	15492
582.885	15687
582.941	16114
582.950	16351
582.996	17392
583.023	18041
583.052	18859
583.095	19133
583.107	19092
583.162	18421
583.168	18316
583.218	17270
583.240	16727
583.273	15947
583.313	15400
583.328	15288
583.384	15610
583.385	15598
583.439	14779
583.458	14543
583.494	14475
583.531	14690
583.549	14681
583.603	14138
583.605	14128
583.660	15059
583.676	14829
583.715	14157
583.748	14338
583.770	14570
583.820	14957
583.825	14957
583.881	14807
583.893	14777
583.936	15095
583.965	15128
583.991	14957
584.038	14974
584.046	15031
584.101	15115
584.110	15403
584.156	16699
584.183	16037
584.211	15324
584.255	16167
584.266	16446
584.321	17295
584.328	17303
584.376	17310
584.400	17600
584.431	17767
584.472	17633
584.486	17704
584.541	18706
584.545	18692
584.596	18240
584.617	18159
584.651	18479
584.689	19870
584.706	20323
584.761	19970
584.762	19968
584.816	20483
584.834	20573
584.871	20916
584.906	21486
584.926	21865
584.978	22829
584.980	22869
585.035	23872
585.051	24201
585.090	25580
585.123	26398
585.145	26724
585.195	27955
585.200	28209
585.254	30720
585.267	31946
585.309	36220
585.340	38063
585.364	39888
585.412	45903
585.419	46924
585.473	57225
585.484	60182
585.528	78359
585.556	97044
585.583	130694
585.628	209069
585.637	236651
585.692	464569
585.700	488498
585.747	552882
585.772	494242
585.801	323510
585.845	147416
585.856	127110
585.910	67212
585.917	60803
585.965	47309
585.989	42003
586.019	39336
586.061	36301
586.074	35692
586.128	32786
586.133	32536
586.183	30682
586.205	30026
586.237	29548
586.277	29474
586.292	29530
586.346	28542
586.349	28502
586.401	28347
586.421	28176
586.455	27702
586.493	27106
586.509	27471
586.564	28845
586.565	28861
586.618	30781
586.637	31372
586.672	33083
586.709	35815
586.727	37373
586.781	39349
586.781	39378
586.835	32895
586.853	31508
586.889	29720
586.925	27589
586.944	27199
586.996	27013
586.998	27036
587.052	26766
587.068	26650
587.106	27176
587.140	27330
587.161	27205
587.212	27215
587.215	27270
587.269	27786
587.284	28007
587.323	28800
587.356	29171
587.377	29534
587.427	30289
587.431	30349
587.485	30707
587.499	30722
587.539	31086
587.571	31610
587.593	32358
587.643	33841
587.648	34005
587.702	34945
587.715	35074
587.755	34649
587.786	34782
587.810	35390
587.858	35570
587.864	35580
587.917	35980
587.930	35912
587.971	36858
588.001	37758
588.025	37908
588.073	37857
588.079	38004
588.133	38671
588.145	38847
588.187	39752
588.217	40554
588.241	41530
588.288	42863
588.295	43190
588.348	45681
588.360	46205
588.402	48362
588.431	49690
588.456	51201
588.503	54631
588.510	55324
588.564	60707
588.575	61827
588.617	68209
588.646	73011
588.671	78175
588.718	89502
588.725	93021
588.778	124722
588.789	132572
588.832	199251
588.861	251199
588.886	325683
588.932	474981
588.939	484956
588.993	514036
589.004	509628
589.047	351358
589.075	253307
589.100	199402
589.147	115145
589.154	111850
589.207	89928
589.218	85810
589.261	84534
589.290	83658
589.314	86336
589.361	94399
589.368	98535
589.421	136422
589.433	145778
589.475	232022
589.504	299770
589.528	364280
589.576	470825
589.582	458860
589.635	297480
589.647	265320
589.689	161552
589.718	96020
589.742	84843
589.790	63806
589.795	63152
589.849	56861
589.861	55513
589.902	52716
589.932	50146
589.955	48982
590.004	46587
590.009	46574
590.062	45755
590.075	45424
590.115	44302
590.146	43503
590.168	43431
590.218	42634
590.222	42733
590.275	43206
590.289	43246
590.328	43864
590.360	44158
590.381	44439
590.431	45038
590.435	45104
590.488	44545
590.503	44296
590.541	45349
590.574	46301
590.594	46334
590.645	45805
590.647	45950
590.700	47514
590.716	47935
590.753	49325
590.787	50444
590.806	51002
590.859	52044
590.859	52160
590.912	52587
590.930	52623
590.965	53436
591.001	54076
591.018	53901
591.071	52773
591.072	52648
591.124	52116
591.143	51765
591.177	52261
591.214	52800
591.230	53099
591.283	53498
591.285	53395
591.336	52680
591.356	52229
591.389	52715
591.427	53107
591.442	53246
591.495	53203
591.498	53090
591.547	52992
591.569	52806
591.600	53578
591.640	54142
591.653	54459
591.706	55481
591.711	55470
591.759	56921
591.782	57449
591.811	58491
591.853	59748
591.864	59807
591.917	59236
591.924	59047
591.969	60199
591.995	60604
592.022	61267
592.066	62055
592.075	62545
592.127	64674
592.137	64917
592.180	64852
592.208	64577
592.233	65573
592.279	67003
592.285	67332
592.338	68847
592.350	69011
592.390	68847
592.421	68497
592.443	69027
592.491	69652
592.495	69941
592.548	71710
592.562	72032
592.600	72065
592.633	71778
592.653	71963
592.704	71611
592.705	72034
592.775	72611
592.846	74375
592.916	76271
592.987	76134
593.058	76335
593.128	77638
593.199	78275
593.270	79551
593.341	79819
593.411	84148
593.482	85039
593.553	88384
593.623	88278
593.694	91976
593.764	92940
593.835	93277
593.906	93700
593.976	95591
594.047	97667
594.117	103156
594.188	106912
594.258	104124
594.329	103533
594.399	108729
594.470	110873
594.540	114357
594.611	117357
594.681	116813
594.751	115662
594.822	122198
594.892	126926
594.963	128437
595.033	133407
595.103	137361
595.174	137227
595.244	142191
595.314	146267
595.384	149613
595.455	153257
595.525	157501
595.595	163855
595.665	163084
595.736	159804
595.806	163377
595.876	165962
595.946	165469
596.016	173002
596.087	180188
596.157	179419
596.227	182098
596.297	188322
596.367	202529
596.437	213198
596.507	212695
596.577	212836
596.647	218269
596.717	231231
596.787	232538
596.857	229893
596.927	234866
596.997	234043
597.067	236618
597.137	242521
597.207	244383
597.277	246084
597.347	236372
597.417	229903
597.487	228507
597.557	234414
597.626	240922
597.696	245681
597.766	244406
597.836	232289
597.906	223218
597.975	214677
598.045	220763
598.115	229676
598.185	249385
598.254	272281
598.324	294690
598.394	298807
598.464	290151
598.533	287774
598.603	269737
598.672	261746
598.742	267128
598.812	269597
598.881	277961
598.951	277289
599.020	283815
599.090	289207
599.159	297373
599.229	284417
599.299	280626
599.368	290778
599.437	285851
599.507	266994
599.576	259712
599.646	257711
599.715	253506
599.785	254553
599.854	250228
599.924	246277
599.993	248162
600.062	252195
600.132	259060
600.201	274230
600.270	309156
600.340	325989
600.409	319631
600.478	317022
600.547	326500
600.617	301313
600.686	253186
600.755	237553
600.824	229263
600.894	226272
600.963	228808
601.032	229141
601.101	223048
601.170	217455
601.239	216330
601.308	213330
601.378	218885
601.447	219772
601.516	223311
601.585	225736
601.654	228979
601.723	232607
601.792	241167
601.861	248178
601.930	257387
601.999	261765
602.068	259179
602.137	262673
602.206	266140
602.275	270482
602.343	273096
602.412	272865
602.481	277723
602.550	279535
602.619	286222
602.688	285074
602.756	289389
602.825	291011
602.894	298928
602.963	298647
603.032	305423
603.100	304632
603.169	304415
603.238	310593
603.307	305511
603.375	306132
603.444	318656
603.513	309519
603.581	316107
603.650	327941
603.719	301543
603.787	300772
603.856	307975
603.924	313274
603.993	323539
604.061	334366
604.130	345477
604.198	349070
604.267	357810
604.335	363568
604.404	367902
604.472	375011
604.541	376176
604.609	383065
604.678	387284
604.746	388363
604.815	404615
604.883	398432
604.951	395823
605.020	404533
605.088	397037
605.156	398578
605.225	400622
605.293	400240
605.361	403618
605.429	403392
605.498	412391
605.566	414652
605.634	434573
605.702	443604
605.771	455030
605.839	459734
605.907	443640
605.975	439414
606.043	428164
606.111	424156
606.180	434691
606.248	419410
606.316	415562
606.384	426633
606.452	403056
606.520	391981
606.588	408547
606.656	408262
606.724	404587
606.792	383814
606.860	348966
606.928	319449
606.996	307027
607.064	303915
607.132	311417
607.200	327348
607.267	338624
607.335	345420
607.403	353170
607.471	342443
607.539	331868
607.607	333633
607.674	295311
607.742	297445
607.810	294796
607.878	292343
607.946	300868
608.013	312424
608.081	316550
608.149	321131
608.216	331664
608.284	338970
608.352	339520
608.419	337413
608.487	328699
608.555	323836
608.622	334960
608.690	352002
608.757	383235
608.825	393240
608.893	381784
608.960	361852
609.028	346906
609.095	348108
609.163	348580
609.230	311306
609.298	285983
609.365	303255
609.432	326947
609.500	349715
609.567	397867
609.635	446564
609.702	469140
609.769	445967
609.837	355857
609.904	309892
609.971	317969
610.039	337999
610.106	395863
610.173	601850
610.241	1075413
610.308	784989
610.375	418208
610.442	343900
610.509	323648
610.577	324619
610.644	329414
610.711	338495
610.778	344559
610.845	360872
610.912	379055
610.980	393123
611.047	393338
611.114	386678
611.181	376093
611.248	374207
611.315	395865
611.382	402291
611.449	413588
611.516	420211
611.583	414361
611.650	417102
611.717	424838
611.784	427829
611.851	441570
611.918	455632
611.984	499057
612.051	606950
612.118	886312
612.185	1445552
612.252	1191376
612.319	642747
612.386	546202
612.452	500287
612.519	474882
612.586	465228
612.653	471614
612.719	486206
612.786	467657
612.853	440081
612.919	432331
612.986	439269
613.053	416622
613.120	391657
613.186	380961
613.253	383051
613.319	382032
613.386	384393
613.453	389024
613.519	389247
613.586	385732
613.652	389584
613.719	386908
613.785	390666
613.852	396408
613.918	392898
613.985	394237
614.051	413133
614.118	409047
614.184	393789
614.250	392559
614.317	401992
614.383	397359
614.449	401411
614.516	400261
614.582	398699
614.648	395252
614.715	392408
614.781	386099
614.847	386215
614.914	384019
614.980	374626
615.046	375503
615.112	385087
615.179	387447
615.245	392121
615.311	387080
615.377	390729
615.443	394715
615.509	397284
615.575	409211
615.642	405809
615.708	413298
615.774	430668
615.840	444452
615.906	462701
615.972	513103
616.038	654041
616.104	1015975
616.170	1559616
616.236	1446232
616.302	821088
616.368	666133
616.434	528028
616.500	480086
616.565	507489
616.631	605721
616.697	536111
616.763	531713
616.829	684869
616.895	1051494
616.961	1036525
617.026	606670
617.092	449813
617.158	423056
617.224	407896
617.289	382061
617.355	364868
617.421	359671
617.487	359172
617.552	342344
617.618	340954
617.684	340399
617.749	341494
617.815	327559
617.880	320161
617.946	322270
618.012	328661
618.077	334787
618.143	321314
618.208	323614
618.274	344965
618.339	348031
618.405	295029
618.470	293633
618.536	296352
618.601	288597
618.667	271995
618.732	259236
618.798	256081
618.863	254665
618.928	253202
618.994	255094
619.059	253566
619.124	256431
619.190	252401
619.255	253727
619.320	253865
619.386	254920
619.451	253041
619.516	246916
619.581	249683
619.647	258819
619.712	260285
619.777	248509
619.842	249722
619.907	255002
619.972	256998
620.038	257618
620.103	249801
620.168	252302
620.233	254691
620.298	257118
620.363	258435
620.428	265859
620.493	269824
620.558	273231
620.623	274064
620.688	275765
620.753	271965
620.818	279813
620.883	278547
620.948	279553
621.013	277994
621.078	272514
621.143	274964
621.207	279592
621.272	273920
621.337	267579
621.402	268660
621.467	264506
621.532	263782
621.596	266388
621.661	257428
621.726	256521
621.791	258994
621.855	259214
621.920	256941
621.985	261052
622.049	265344
622.114	266249
622.179	268573
622.243	273913
622.308	283679
622.373	291496
622.437	286358
622.502	274629
622.566	269232
622.631	269558
622.695	273721
622.760	272479
622.824	272497
622.889	272600
622.953	273042
623.018	287804
623.082	290163
623.147	288071
623.211	282301
623.276	282162
623.340	270929
623.404	266372
623.469	264505
623.533	268590
623.597	263216
623.662	260465
623.726	245595
623.790	231779
623.854	225040
623.919	232030
623.983	233189
624.047	235362
624.111	236677
624.176	241189
624.240	244604
624.304	251201
624.368	241728
624.432	241139
624.496	247870
624.560	258039
624.625	259186
624.689	258383
624.753	271305
624.817	256733
624.881	250078
624.945	230957
625.009	222621
625.073	228342
625.137	232646
625.201	241665
625.265	243476
625.329	233389
625.393	235785
625.456	238530
625.520	243070
625.584	246970
625.648	250093
625.712	256920
625.776	259140
625.839	247681
625.903	209820
625.967	195189
626.031	209692
626.095	243335
626.158	227493
626.222	180981
626.286	171284
626.349	165754
626.413	155357
626.477	154320
626.540	155732
626.604	155898
626.668	154545
626.731	150733
626.795	151817
626.858	150710
626.922	146424
626.986	146247
627.049	146388
627.113	153062
627.176	148403
627.240	142930
627.303	142979
627.366	141455
627.430	142316
627.493	141179
627.557	139041
627.620	141973
627.684	145162
627.747	146735
627.810	134273
627.874	122778
627.937	117953
628.000	123851
628.064	120364
628.127	108829
628.190	105956
628.253	104259
628.317	100408
628.380	96766
628.443	93497
628.506	92404
628.569	88851
628.632	84764
628.696	84176
628.759	84838
628.822	80987
628.885	79796
628.948	77245
629.011	76545
629.074	74778
629.137	73952
629.200	70049
629.263	71316
629.326	69365
629.389	68914
629.452	70183
629.515	67526
629.578	67674
629.641	67859
629.704	66246
629.767	67866
629.830	65105
629.892	64296
629.955	63184
630.018	65741
630.081	63005
630.144	64525
630.207	61546
630.269	64062
630.332	59810
630.395	60018
630.458	58907
630.520	57949
630.583	58415
630.646	59496
630.708	58002
630.771	59995
630.834	63130
630.896	61953
630.959	61037
631.021	58850
631.084	58803
631.146	60318
631.209	60127
631.272	59470
631.334	60435
631.397	60532
631.459	61044
631.522	63655
631.584	64476
631.646	68125
631.709	70068
631.771	69670
631.834	66142
631.896	64497
631.958	61478
632.021	61563
632.083	57216
632.145	58348
632.208	56633
632.270	58043
632.332	57005
632.395	56600
632.457	57273
632.519	55711
632.581	55244
632.643	53523
632.706	55142
632.768	53921
632.830	55175
632.892	57418
632.954	55717
633.016	58013
633.078	56022
633.141	55926
633.203	55566
633.265	55461
633.327	54271
633.389	56255
633.451	56738
633.513	56860
633.575	56681
633.637	56845
633.698	56734
633.760	61273
633.822	61847
633.884	63850
633.946	64441
634.008	64576
634.070	67062
634.132	68795
634.193	73913
634.255	78642
634.317	79579
634.379	78854
634.441	71611
634.502	67879
634.564	62696
634.626	59577
634.687	56964
634.749	54633
634.811	54508
634.873	53983
634.934	54951
634.996	56401
635.057	54103
635.119	55092
635.181	56059
635.242	56860
635.304	54719
635.365	58719
635.427	54981
635.488	55850
635.550	54286
635.611	56610
635.673	54979
635.734	59581
635.796	61660
635.857	66490
635.918	69293
635.980	74250
636.041	77914
636.102	82457
636.164	82424
636.225	80085
636.286	69739
636.348	66027
636.409	60765
636.470	57529
636.531	55187
636.593	54029
636.654	53500
636.715	51418
636.776	51046
636.838	50601
636.899	49702
636.960	48217
637.021	47986
637.082	47893
637.143	45863
637.204	46303
637.265	46161
637.326	47882
637.387	47299
637.448	46566
637.509	46241
637.570	46441
637.631	45221
637.692	45047
637.753	43347
637.814	43422
637.875	43249
637.936	43400
637.997	43442
638.058	42637
638.119	44526
638.179	44391
638.240	41789
638.301	44439
638.362	41462
638.423	41489
638.483	41189
638.544	40477
638.605	41511
638.666	40367
638.726	41197
638.787	41949
638.848	40848
638.908	40352
638.969	39578
639.030	39150
639.090	37575
639.151	38887
639.211	39811
639.272	40921
639.332	40639
639.393	40486
639.453	41697
639.514	43575
639.574	39631
639.635	37385
639.695	37256
639.756	35924
639.816	35547
639.877	36163
639.937	36839
639.997	37492
640.058	35477
640.118	37040
640.178	37340
640.239	36929
640.299	36050
640.359	36418
640.420	39510
640.480	43019
640.540	44872
640.600	45926
640.661	43231
640.721	41407
640.781	42219
640.841	38558
640.901	37372
640.961	38120
641.021	37696
641.082	39929
641.142	37387
641.202	37281
641.262	34542
641.322	36279
641.382	33997
641.442	35215
641.502	33909
641.562	35990
641.622	35341
641.682	37438
641.742	41060
641.802	40149
641.861	36077
641.921	33072
641.981	32859
642.041	32913
642.101	32052
642.161	30555
642.221	32298
642.280	32897
642.340	31869
642.400	31021
642.460	33458
642.519	33539
642.579	33012
642.639	34986
642.698	31251
642.758	36463
642.818	34161
642.877	33611
642.937	34055
642.997	34151
643.056	33745
643.116	32560
643.175	35982
643.235	35706
643.294	35193
643.354	37524
643.414	39733
643.473	43720
643.532	48162
643.592	59401
643.651	83585
643.711	130439
643.770	232474
643.830	491758
643.889	814454
643.948	316982
644.008	95557
644.067	60127
644.126	45736
644.186	41506
644.245	38085
644.304	34694
644.363	36153
644.423	32923
644.482	33142
644.541	36579
644.600	33712
644.659	42478
644.719	47448
644.778	67467
644.837	104753
644.896	200742
644.955	413704
645.014	161201
645.073	51670
645.132	41845
645.191	38074
645.250	36152
645.309	38904
645.368	40941
645.427	51977
645.486	83307
645.545	139509
645.604	49428
645.663	34150
645.722	33476
645.781	34663
645.840	38862
645.898	42936
645.957	54334
646.016	75042
646.075	121931
646.134	219530
646.192	500912
646.251	650284
646.310	178810
646.369	68575
646.427	58415
646.486	43940
646.545	36422
646.603	32658
646.662	32177
646.721	30072
646.779	29285
646.838	30095
646.896	36921
646.955	45658
647.014	67867
647.072	121094
647.131	302846
647.189	155079
647.248	36617
647.306	29811
647.365	27883
647.423	24179
647.481	26192
647.540	22898
647.598	25046
647.657	24248
647.715	24857
647.773	22873
647.832	24039
647.890	21202
647.948	21431
648.007	21511
648.065	20189
648.123	20679
648.181	21119
648.240	20486
648.298	18904
648.356	19022
648.414	21102
648.472	18839
648.531	20015
648.589	17866
648.647	19116
648.705	18091
648.763	18491
648.821	19530
648.879	19837
648.937	22001
648.995	24447
649.053	28338
649.111	39167
649.169	61112
649.227	101328
649.285	200343
649.343	487159
649.401	259087
649.459	54190
649.516	32356
649.574	25911
649.632	26866
649.690	30976
649.748	34576
649.806	47819
649.863	86209
649.921	225229
649.979	152929
650.037	29677
650.094	18457
650.152	18538
650.210	15629
650.268	16853
650.325	16286
650.383	16214
650.440	13254
650.498	14760
650.556	14205
650.613	14659
650.671	13988
650.728	14267
650.786	14796
650.843	21236
650.901	15605
650.958	14058
651.016	12500
651.073	12531
651.131	11292
651.188	11713
651.246	12153
651.303	11270
651.360	12119
651.418	11815
651.475	12181
651.532	10818
651.590	12437
651.647	10539
651.704	11090
651.762	11440
651.819	11060
651.876	10229
651.933	10667
651.990	12060
652.048	9000
652.105	9740
652.162	10853
652.219	9828
652.276	10243
652.333	11082
652.390	8639
652.448	9945
652.505	10371
652.562	10172
652.619	8819
652.676	10384
652.733	11132
652.790	9273
652.847	8257
652.904	10286
652.961	8035
653.017	9097
653.074	9648
653.131	9543
653.188	7854
653.245	9218
653.302	9278
653.359	8851
653.415	9630
653.472	8752
653.529	8738
653.586	8567
653.642	8210
653.699	10122
653.756	7666
653.813	9235
653.869	10181
653.926	9033
653.983	8399
654.039	9076
654.096	8510
654.152	8986
654.209	6829
654.266	8676
654.322	7225
654.379	8778
654.435	8588
654.492	7784
654.548	8284
654.605	8389
654.661	9211
654.717	9234
654.774	8398
654.830	8590
654.887	8821
654.943	8052
655.000	8448
655.056	9103
655.112	8046
655.168	7877
655.225	8563
655.281	9265
655.337	8982
655.394	8737
655.450	7788
655.506	8370
655.562	7898
655.618	8555
655.675	6129
655.731	7789
655.787	6637
655.843	8771
655.899	6946
655.955	8438
656.011	7746
656.067	7076
656.123	7716
656.179	8022
656.235	8162
656.291	7246
656.347	8739
656.403	7833
656.459	7477
656.515	8107
656.571	7508
656.627	8508
656.683	6226
656.739	8250
656.795	7872
656.850	8103
656.906	7658
656.962	9281
657.018	8323
657.074	10434
657.129	13668
657.185	20949
657.241	47072
657.297	25600
657.352	8907
657.408	8136
657.464	7911
657.519	7480
657.575	6168
657.630	7501
657.686	7058
657.742	7122
657.797	6612
657.853	7221
657.908	7720
657.964	6992
658.019	6083
658.075	7159
658.130	6329
658.186	6273
658.241	6347
658.297	6426
658.352	6378
658.407	7160
658.463	6047
658.518	7460
658.573	6573
658.629	5848
658.684	5962
658.739	7391
658.795	6057
658.850	6724
658.905	6625
658.960	6990
659.016	5760
659.071	6097
659.126	6731
659.181	5750
659.236	6843
659.291	7519
659.346	6118
659.401	6710
659.457	6113
659.512	6943
659.567	7644
659.622	5769
659.677	5788
659.732	5396
659.787	6128
659.842	5809
659.897	6483
659.952	6710
660.007	6282
660.061	6262
660.116	4903
660.171	5713
660.226	5753
660.281	7486
660.336	5422
660.391	6424
660.445	5533
660.500	6022
660.555	5809
660.610	5453
660.664	5985
660.719	6421
660.774	5911
660.828	5812
660.883	6024
660.938	5982
660.992	4868
661.047	5851
661.101	5420
661.156	5242
661.211	4974
661.265	5509
661.320	4776
661.374	5505
661.429	6110
661.483	5647
661.538	4900
661.592	5589
661.647	4892
661.701	6210
661.755	5240
661.810	5680
661.864	4978
661.919	5734
661.973	5641
662.027	5981
662.081	5112
662.136	5325
662.190	4969
662.244	5691
662.299	4393
662.353	6168
662.407	4694
662.461	5017
662.515	5039
662.569	5253
662.624	5140
662.678	4647
662.732	4914
662.786	5221
662.840	4704
662.894	5278
662.948	4520
663.002	5214
663.056	5771
663.110	6170
663.164	5350
663.218	5833
663.272	5069
663.326	6018
663.380	4421
663.434	5661
663.488	4233
663.542	5043
663.595	4976
663.649	5582
663.703	4892
663.757	5579
663.811	4816
663.864	5554
663.918	4834
663.972	4587
664.026	4500
664.079	5254
664.133	5098
664.187	5566
664.240	4680
664.294	5406
664.348	5375
664.401	6186
664.455	5452
664.508	4612
664.562	5439
664.615	4658
664.669	3926
664.722	5366
664.776	4456
664.829	5579
664.883	4456
664.936	4693
664.990	4115
665.043	5970
665.097	4234
665.150	6331
665.203	4703
665.257	4990
665.310	4836
665.363	5518
665.417	5461
665.470	6014
665.523	4546
665.576	5940
665.630	4727
665.683	6209
665.736	4734
665.789	5592
665.842	4521
665.895	5693
665.949	5177
666.002	4619
666.055	5101
666.108	6385
666.161	5057
666.214	5734
666.267	5640
666.320	5974
666.373	5350
666.426	5964
666.479	5844
666.532	6001
666.585	5940
666.638	6710
666.691	5609
666.744	6351
666.796	4956
666.849	5767
666.902	5783
666.955	6221
667.008	4441
667.060	5419
667.113	5378
667.166	5514
667.219	6333
667.271	5656
667.324	5647
667.377	6445
667.430	5286
667.482	6481
667.535	5871
667.587	6192
667.640	5823
667.693	5009
667.745	4973
667.798	6926
667.850	5113
667.903	5185
667.955	5889
668.008	6032
668.060	5723
668.113	5587
668.165	5753
668.218	6546
668.270	5374
668.322	6255
668.375	5133
668.427	5954
668.479	5434
668.532	6230
668.584	5389
668.636	5160
668.689	5403
668.741	5490
668.793	4543
668.845	5748
668.898	5370
668.950	6067
669.002	5903
669.054	5220
669.106	4492
669.158	5781
669.211	5101
669.263	5342
669.315	4682
669.367	5487
669.419	4138
669.471	6220
669.523	4776
669.575	5962
669.627	5172
669.679	5741
669.731	5324
669.783	5596
669.835	5456
669.886	5633
669.938	5148
669.990	4975
670.042	5225
670.094	5318
670.146	4796
670.197	6402
670.249	6432
670.301	6806
670.353	8010
670.404	10702
670.456	12268
670.508	19476
670.560	30555
670.611	50716
670.663	87274
670.715	197210
670.766	286411
670.818	95831
670.869	21759
670.921	13134
670.972	10784
671.024	7947
671.075	6651
671.127	7115
671.178	6789
671.230	6964
671.281	7460
671.333	8273
671.384	7975
671.436	11638
671.487	15405
671.538	21286
671.590	34289
671.641	55782
671.692	95460
671.744	174402
671.795	131467
671.846	53451
671.897	26712
671.949	16879
672.000	11880
672.051	9803
672.102	8616
672.153	7550
672.204	6832
672.256	6039
672.307	5835
672.358	5589
672.409	4256
672.460	4610
672.511	4508
672.562	4316
672.613	3909
672.664	4283
672.715	4808
672.766	3909
672.817	2573
672.868	3907
672.919	2800
672.970	3577
673.021	3801
673.071	2956
673.122	2488
673.173	3707
673.224	3086
673.275	3774
673.326	3488
673.376	3197
673.427	2630
673.478	3693
673.528	3644
673.579	4085
673.630	2308
673.680	4858
673.731	2340
673.782	4445
673.832	2859
673.883	4088
673.934	3329
673.984	3331
674.035	4120
674.085	3748
674.136	2751
674.186	3746
674.237	3262
674.287	4006
674.338	2785
674.388	3982
674.438	3210
674.489	4273
674.539	3993
674.589	4193
674.640	4442
674.690	3973
674.740	3442
674.791	3026
674.841	2858
674.891	3479
674.942	3334
674.992	2648
675.042	1567
675.092	3584
675.142	1901
675.193	2475
675.243	2357
675.293	3246
675.343	2821
675.393	2707
675.443	3340
675.493	3522
675.543	2229
675.593	3200
675.643	3178
675.693	3339
675.743	2532
675.793	2954
675.843	1628
675.893	2730
675.943	2650
675.993	2195
676.043	2675
676.093	3276
676.142	2789
676.192	2774
676.242	2252
676.292	3092
676.341	1826
676.391	2661
676.441	1531
676.491	2160
676.540	2199
676.590	2717
676.640	2335
676.689	2368
676.739	1445
676.789	3160
676.838	1701
676.888	1930
676.937	2208
676.987	2606
677.037	1497
677.086	1261
677.136	1706
677.185	1882
677.235	1855
677.284	2125
677.333	1477
677.383	2065
677.432	1061
677.482	2159
677.531	2066
677.580	1692
677.630	1251
677.679	2304
677.728	1070
677.778	2181
677.827	1765
677.876	1517
677.925	1228
677.975	2457
678.024	1425
678.073	1561
678.122	1374
678.171	3229
678.220	1931
678.269	3363
678.319	3079
678.368	3561
678.417	2870
678.466	2884
678.515	1523
678.564	1582
678.613	952
678.662	1339
678.711	1265
678.760	2716
678.809	1675
678.857	1564
678.906	1832
678.955	2045
679.004	1364
679.053	1568
679.102	989
679.151	1469
679.199	1168
679.248	1830
679.297	1481
679.346	1909
679.394	1409
679.443	1486
679.492	1466
679.540	2061
679.589	895
679.638	1816
679.686	1987
679.735	1860
679.784	2946
679.832	3096
679.881	1299
679.929	2053
679.978	1653
680.026	1964
680.075	1883
680.123	1166
680.172	645
680.220	2023
680.268	2371
680.317	1079
680.365	663
680.414	1229
680.462	1204
680.510	2233
680.559	1528
680.607	788
680.655	388
680.703	1796
680.752	1317
680.800	1921
680.848	1049
680.896	1933
680.945	1030
680.993	1715
681.041	632
681.089	1137
681.137	957
681.185	1775
681.233	958
681.258	1169
681.281	1324
681.329	1555
681.377	1364
681.380	1409
681.425	1400
681.473	2050
681.502	1562
681.521	1149
681.569	2230
681.617	1645
681.624	1846
681.665	2792
681.713	1306
681.745	2415
681.761	2886
681.809	1993
681.857	2867
681.867	2833
681.904	2523
681.952	2978
681.989	2816
682.000	2705
682.048	3308
682.096	2786
682.111	2899
682.143	3038
682.191	2155
682.233	4271
682.239	4537
682.286	3247
682.334	3121
682.354	3189
682.382	3199
682.430	4178
682.476	2737
682.477	2669
682.525	3702
682.572	2850
682.598	3323
682.620	3639
682.667	3341
682.715	3980
682.720	4026
682.763	4036
682.810	4610
682.841	4568
682.857	4483
682.905	4280
682.952	4071
682.963	4234
683.000	4737
683.047	4209
683.085	5598
683.095	5911
683.142	4557
683.190	5350
683.206	5053
683.237	4408
683.284	4985
683.328	4891
683.332	4852
683.379	5108
683.426	4875
683.449	5175
683.473	5467
683.521	5296
683.568	5542
683.571	5509
683.615	4552
683.662	6413
683.693	6003
683.709	5690
683.757	5542
683.804	5778
683.814	5813
683.851	5877
683.898	4848
683.936	5868
683.945	6098
683.992	6352
684.039	6602
684.057	6503
684.086	6255
684.133	6110
684.179	5631
684.180	5588
684.227	6631
684.274	5751
684.300	6633
684.321	7314
684.368	6327
684.415	7476
684.422	7393
684.462	6754
684.509	7302
684.543	6829
684.556	6636
684.603	7797
684.649	7443
684.665	7688
684.696	8044
684.743	7396
684.786	8088
684.790	8114
684.837	7474
684.883	7896
684.908	7584
684.930	7409
684.977	8837
685.023	8119
685.029	8211
685.070	8475
685.117	7685
685.150	8026
685.164	8183
685.210	7749
685.257	8713
685.272	8851
685.303	9099
685.350	8784
685.393	9049
685.396	9036
685.443	8561
685.490	8647
685.514	8813
685.536	9037
685.583	8094
685.629	8859
685.636	8861
685.675	8766
685.722	8918
685.757	8939
685.768	8892
685.815	9079
685.861	8711
685.878	8850
685.908	9336
685.954	9246
686.000	10138
686.000	10136
686.047	10048
686.093	10705
686.121	10436
686.139	10284
686.185	10275
686.232	10277
686.242	10411
686.278	10720
686.324	9911
686.363	10666
686.370	10804
686.416	10283
686.463	10895
686.484	10877
686.509	10814
686.555	10685
686.601	10370
686.606	10440
686.647	11016
686.693	10145
686.727	10669
686.739	10878
686.785	10329
686.831	11190
686.848	11052
686.877	10849
686.923	11545
686.969	10904
686.969	10898
687.015	11451
687.061	11320
687.090	12023
687.107	12387
687.153	12221
687.199	12987
687.211	12721
687.245	11794
687.291	11922
687.332	11661
687.336	11677
687.382	12211
687.428	11983
687.453	12409
687.474	12617
687.520	12515
687.565	12563
687.574	12457
687.611	12344
687.657	13413
687.695	13631
687.702	13685
687.748	14385
687.794	14950
687.816	15073
687.839	14857
687.885	14187
687.931	14303
687.937	14172
687.976	13602
688.022	13416
688.058	13347
688.067	13359
688.113	13447
688.158	13242
688.179	13402
688.204	13721
688.249	13189
688.295	14057
688.300	14036
688.340	13838
688.386	14583
688.421	14227
688.431	14114
688.477	13983
688.522	14031
688.542	14177
688.567	14763
688.613	15106
688.658	15991
688.663	16017
688.703	15405
688.749	14766
688.784	14771
688.794	14947
688.839	14829
688.884	15440
688.905	15469
688.930	15217
688.975	14952
689.020	15342
689.026	15190
689.065	14484
689.110	14724
689.146	14633
689.155	14683
689.201	15613
689.246	15697
689.267	15645
689.291	15489
689.336	15311
689.381	15136
689.388	15084
689.426	14889
689.471	15689
689.509	15175
689.516	15134
689.561	15578
689.606	15536
689.630	15766
689.651	15904
689.696	15696
689.741	15804
689.750	15879
689.785	16403
689.830	16339
689.871	16197
689.875	16152
689.920	16213
689.965	15680
689.992	15410
690.010	15546
690.054	15753
690.099	15998
690.112	15927
690.144	15685
690.189	16244
690.233	15767
690.233	15787
690.278	16029
690.323	15840
690.354	16181
690.367	16381
690.412	15627
690.457	15821
690.474	15888
690.501	16007
690.546	16268
690.590	15789
690.595	15739
690.635	15785
690.680	16042
690.716	16026
690.724	16040
690.769	16346
690.813	16955
690.836	16716
690.857	17185
690.902	18866
690.946	20169
690.957	20691
690.991	23671
691.035	26344
691.077	29785
691.080	29801
691.124	27899
691.168	26662
691.198	25670
691.213	24814
691.257	22223
691.301	19142
691.318	18322
691.346	18582
691.390	17790
691.434	18073
691.439	18000
691.478	17701
691.522	18177
691.559	17608
691.567	17611
691.611	18067
691.655	18237
691.680	18449
691.699	18536
691.743	18618
691.787	18598
691.800	18528
691.831	18472
691.875	18413
691.919	18385
691.921	18356
691.964	18672
692.008	18351
692.041	18661
692.052	18778
692.096	18469
692.139	19236
692.162	19019
692.183	18658
692.227	18278
692.271	17893
692.282	17771
692.315	18158
692.359	18497
692.402	18950
692.403	18985
692.447	18543
692.490	18485
692.523	18323
692.534	18363
692.578	18386
692.622	17689
692.643	17789
692.666	18171
692.709	18250
692.753	18607
692.763	18612
692.797	18618
692.840	18964
692.884	18849
692.884	18886
692.928	18941
692.971	18587
693.004	18522
693.015	18533
693.059	18417
693.102	18632
693.124	18287
693.146	18307
693.189	19109
693.233	18917
693.245	19081
693.276	19359
693.320	19161
693.363	19334
693.365	19298
693.407	19988
693.450	20281
693.485	20595
693.493	20740
693.537	21737
693.580	21837
693.605	22336
693.624	23403
693.667	25373
693.710	27459
693.725	28200
693.753	32823
693.797	40204
693.840	47148
693.845	47910
693.883	45132
693.926	41056
693.966	38020
693.970	37597
694.013	32118
694.056	27028
694.086	23099
694.099	22732
694.142	21811
694.185	20665
694.206	20178
694.229	20378
694.272	20367
694.315	20754
694.326	20626
694.358	20379
694.401	20869
694.444	20796
694.446	20745
694.487	20564
694.530	20519
694.566	20419
694.573	20476
694.616	20169
694.659	20323
694.686	20298
694.702	20489
694.745	21006
694.787	21190
694.806	21343
694.830	21458
694.873	21488
694.916	21696
694.926	21558
694.959	21536
695.002	21927
695.044	22216
695.046	22173
695.087	22614
695.130	22856
695.166	23423
695.172	23522
695.215	23355
695.258	23459
695.286	23295
695.301	23335
695.343	23669
695.386	23790
695.406	23798
695.428	24396
695.471	25313
695.514	26572
695.526	26832
695.556	28503
695.599	30800
695.641	32862
695.646	33024
695.684	31678
695.726	30027
695.766	28575
695.769	28615
695.811	28051
695.854	27503
695.886	27051
695.896	27147
695.938	27309
695.981	27308
696.005	27386
696.023	28261
696.065	30040
696.108	32054
696.125	32670
696.150	32748
696.192	33011
696.235	33044
696.245	33031
696.277	33589
696.319	34038
696.361	34506
696.365	34457
696.404	33836
696.446	33250
696.485	32456
696.488	32544
696.530	32815
696.572	32806
696.604	32887
696.614	32965
696.656	32778
696.698	32748
696.724	32519
696.740	32808
696.783	33675
696.825	34327
696.844	34600
696.867	34537
696.909	34085
696.951	33684
696.964	33486
696.992	33738
697.034	33942
697.076	34141
697.083	34107
697.118	35185
697.160	36255
697.202	37368
697.203	37304
697.244	37049
697.286	36693
697.323	36228
697.327	36273
697.369	35964
697.411	35566
697.442	35163
697.453	35335
697.494	35691
697.536	36016
697.562	36127
697.578	36105
697.620	35840
697.661	35544
697.682	35368
697.703	36235
697.744	37610
697.786	39120
697.801	39518
697.828	39337
697.869	38995
697.911	38535
697.921	38351
697.952	38390
697.994	38243
698.035	38132
698.040	38016
698.077	37823
698.118	37520
698.160	37163
698.160	37064
698.201	38605
698.243	40086
698.279	41356
698.284	41542
698.325	42161
698.367	42863
698.399	43284
698.408	43493
698.449	43943
698.491	44378
698.518	44549
698.532	44685
698.573	44757
698.614	44826
698.638	44758
698.656	44958
698.697	45120
698.738	45299
698.757	45268
698.779	45277
698.820	45059
698.862	44841
698.877	44646
698.903	44906
698.944	45130
698.985	45360
698.996	45305
699.026	45221
699.067	44945
699.116	44500
699.235	43780
699.354	42539
699.474	42015
699.593	41208
699.713	41753
699.832	41329
699.951	43166
700.070	42355
700.190	40085
700.309	38279
700.428	38260
700.547	37592
700.667	36793
700.786	38179
700.905	36011
701.024	36830
701.143	37352
701.262	38228
701.381	39397
701.500	37885
701.619	37192
701.738	37999
701.857	37947
701.976	35325
702.095	36539
702.214	37423
702.333	35708
702.452	37697
702.571	37498
702.690	36963
702.809	37554
702.928	35366
703.047	34415
703.165	33484
703.284	35932
703.403	33136
703.522	33979
703.640	32220
703.759	32463
703.878	30504
703.997	33239
704.115	32540
704.234	32686
704.353	33657
704.471	30746
704.590	30652
704.708	29738
704.827	29999
704.946	30131
705.064	29869
705.183	30307
705.301	30166
705.420	29857
705.538	28833
705.656	27636
705.775	27097
705.893	30416
706.012	30472
706.130	27545
706.249	29343
706.367	27921
706.485	27488
706.604	26969
706.722	26464
706.840	29792
706.958	33029
707.077	28264
707.195	25567
707.313	26873
707.431	23346
707.549	25881
707.668	23514
707.786	26682
707.904	24170
708.022	25428
708.140	24011
708.258	23904
708.376	25827
708.494	23481
708.612	24679
708.730	26974
708.848	24466
708.966	25389
709.084	24874
709.202	25308
709.320	23028
709.438	23942
709.556	23417
709.674	22268
709.791	21718
709.909	22680
710.027	21735
710.145	22828
710.263	21170
710.380	21854
710.498	21060
710.616	21172
710.733	20960
710.851	20820
710.969	21224
711.086	20638
711.204	20886
711.322	20219
711.439	20818
711.557	20516
711.674	19977
711.792	20102
711.909	20204
712.027	20076
712.144	19392
712.262	20164
712.379	19969
712.497	21099
712.614	19734
712.732	20626
712.849	18709
712.966	20293
713.084	20377
713.201	18644
713.318	19609
713.436	21444
713.553	19575
713.670	20446
713.787	20857
713.905	19305
714.022	20773
714.139	21896
714.256	23971
714.373	32462
714.490	50921
714.608	120505
714.725	418579
714.842	423190
714.959	63792
715.076	30857
715.193	25125
715.310	23049
715.427	19131
715.544	19175
715.661	18482
715.778	18341
715.895	18877
716.011	18099
716.128	17740
716.245	17889
716.362	17754
716.479	16358
716.596	16486
716.713	17163
716.829	16543
716.946	15657
717.063	15722
717.180	15282
717.296	15198
717.413	15335
717.530	15048
717.646	13860
717.763	14836
717.880	15059
717.996	13193
718.113	15298
718.229	14028
718.346	13696
718.462	14045
718.579	14627
718.695	14282
718.812	14746
718.928	14198
719.045	13568
719.161	13738
719.277	14517
719.394	14852
719.510	14603
719.626	15936
719.743	18647
719.859	25280
719.975	46965
720.092	158175
720.208	337846
720.324	56454
720.440	20071
720.557	15920
720.673	15974
720.789	15306
720.905	16647
721.021	14598
721.137	13305
721.253	12457
721.369	13161
721.486	12794
721.602	13262
721.718	12283
721.834	12565
721.950	12079
722.066	12167
722.181	11930
722.297	12409
722.413	11880
722.529	12141
722.645	11767
722.761	12556
722.877	11076
722.993	12772
723.108	14883
723.224	13010
723.340	12086
723.456	11299
723.571	10441
723.687	10683
723.803	10571
723.918	11141
724.034	10092
724.150	11343
724.265	11467
724.381	11239
724.497	10762
724.612	10856
724.728	11096
724.843	10630
724.959	10556
725.074	12031
725.190	12119
725.305	10542
725.421	10978
725.536	10851
725.651	10886
725.767	10468
725.882	11149
725.997	11052
726.113	11116
726.228	10433
726.343	10067
726.459	10350
726.574	9930
726.689	10340
726.804	10471
726.920	10481
727.035	10288
727.150	10493
727.265	9882
727.380	10268
727.495	10603
727.610	9997
727.725	10198
727.841	10058
727.956	10700
728.071	11540
728.186	8597
728.301	9668
728.416	10267
728.531	10044
728.645	9225
728.760	9012
728.875	10552
728.990	9444
729.105	9122
729.220	9185
729.335	9462
729.449	9639
729.564	9515
729.679	8984
729.794	9186
729.908	9736
730.023	9591
730.138	9005
730.253	8955
730.367	9267
730.482	9666
730.596	10418
730.711	10628
730.826	15366
730.940	13612
731.055	13069
731.169	11460
731.284	12825
731.398	10957
731.513	12495
731.627	14291
731.742	17229
731.856	21201
731.970	21353
732.085	24561
732.199	34340
732.313	55468
732.428	127957
732.542	336810
732.656	212009
732.771	53268
732.885	31542
732.999	28262
733.113	28247
733.227	27812
733.342	27004
733.456	26347
733.570	25915
733.684	23795
733.798	24469
733.912	22973
734.026	24235
734.140	23071
734.254	22836
734.368	22151
734.482	22590
734.596	22863
734.710	22433
734.824	20384
734.938	20674
735.052	21221
735.166	21815
735.280	20634
735.393	19850
735.507	19764
735.621	20773
735.735	19697
735.849	21346
735.962	18891
736.076	20391
736.190	19452
736.303	19370
736.417	19657
736.531	18164
736.644	18669
736.758	18607
736.872	18217
736.985	19137
737.099	17366
737.212	17118
737.326	17499
737.439	19105
737.553	16385
737.666	18427
737.780	15933
737.893	18713
738.007	16958
738.120	19493
738.233	15700
738.347	18370
738.460	15587
738.573	18316
738.687	15749
738.800	17603
738.913	17111
739.026	17934
739.140	15466
739.253	16044
739.366	15554
739.479	15898
739.592	16336
739.705	15171
739.818	16837
739.932	14273
740.045	15616
740.158	15266
740.271	15777
740.384	16336
740.497	14356
740.610	15408
740.723	14496
740.836	14692
740.949	14409
741.062	16112
741.174	15008
741.287	14486
741.400	14512
741.513	12851
741.626	14708
741.739	13353
741.851	13293
741.964	14554
742.077	13673
742.189	12327
742.302	14248
742.415	13923
742.527	13718
742.640	14289
742.753	10921
742.865	13538
742.978	12681
743.090	12801
743.203	13245
743.316	12518
743.428	12398
743.541	13874
743.653	10983
743.766	12909
743.878	12637
743.990	11293
744.103	11939
744.215	12489
744.327	10965
744.440	13940
744.552	12481
744.664	10828
744.777	12187
744.889	12130
745.001	11228
745.113	12863
745.226	11135
745.338	11162
745.450	12853
745.562	11030
745.674	9988
745.786	11987
745.898	11748
746.010	10835
746.122	10910
746.234	11977
746.347	11450
746.459	12256
746.570	9163
746.682	11306
746.794	12551
746.906	10105
747.018	10841
747.130	11681
747.242	9694
747.354	9671
747.466	10789
747.577	10032
747.689	10678
747.801	11130
747.913	9801
748.024	10035
748.136	9851
748.248	10328
748.359	9023
748.471	10895
748.583	9140
748.694	9231
748.806	11070
748.918	9534
749.029	8847
749.141	9982
749.252	10392
749.364	9124
749.475	9360
749.587	8752
749.698	8574
749.809	10284
749.921	9795
750.032	9128
750.144	7702
750.255	8885
750.366	9006
750.478	9127
750.589	9086
750.700	8181
750.811	9629
750.923	8248
751.034	8973
751.145	10114
751.256	8758
751.367	8620
751.479	8871
751.590	7646
751.701	7667
751.812	7905
751.923	7297
752.034	9188
752.145	8651
752.256	9138
752.367	7392
752.478	9110
752.589	8343
752.700	8294
752.811	7319
752.922	8897
753.032	7846
753.143	8837
753.254	7379
753.365	9070
753.476	8227
753.586	8577
753.697	7729
753.808	7823
753.919	7714
754.029	8190
754.140	7790
754.251	8570
754.361	7980
754.472	9319
754.582	7593
754.693	7627
754.804	8361
754.914	7233
755.025	6556
755.135	7790
755.246	8342
755.356	7456
755.466	7175
755.577	7038
755.687	6911
755.798	7828
755.908	6959
756.018	6608
756.129	7478
756.239	8798
756.349	7236
756.460	7375
756.570	8160
756.680	7716
756.790	7799
756.900	8263
757.011	7012
757.121	7703
757.231	7353
757.341	7782
757.451	6386
757.561	6597
757.671	7184
757.781	6864
757.891	7764
758.001	7212
758.111	7532
758.221	8569
758.331	8180
758.441	8077
758.551	7419
758.661	8227
758.771	8151
758.880	7853
758.990	6665
759.100	8038
759.210	7737
759.320	7899
759.429	8177
759.539	8208
759.649	7661
759.758	9272
759.868	9432
759.978	9134
760.087	10277
760.197	10272
760.307	9926
760.416	9318
760.526	8801
760.635	10231
760.745	9325
760.854	10503
760.964	11239
761.073	11189
761.182	11115
761.292	10728
761.401	8435
761.511	8225
761.620	7165
761.729	8590
761.839	7064
761.948	8225
762.057	7227
762.166	7969
762.276	7531
762.385	9231
762.494	7172
762.603	6904
762.712	8033
762.822	7957
762.931	7576
763.040	8231
763.149	7874
763.258	7782
763.367	8465
763.476	7584
763.585	7567
763.694	8175
763.803	8017
763.912	9028
764.021	8616
764.130	9081
764.238	10134
764.347	9816
764.456	10154
764.565	11007
764.674	10411
764.783	10848
764.891	11286
765.000	12379
765.109	13759
765.217	14165
765.326	16207
765.435	19692
765.543	22120
765.652	26610
765.761	33411
765.869	46268
765.978	65512
766.086	102422
766.195	173524
766.303	307065
766.412	394686
766.520	325636
766.629	272241
766.737	156362
766.846	95506
766.954	63633
767.062	47016
767.171	35454
767.279	28272
767.387	23754
767.496	20926
767.604	18409
767.712	16303
767.820	15301
767.928	14048
768.037	12125
768.145	13300
768.253	12770
768.361	12973
768.469	12537
768.577	12893
768.685	13189
768.793	12319
768.901	13718
769.009	16151
769.117	18716
769.225	22245
769.333	31702
769.441	44649
769.549	73694
769.657	143824
769.765	290884
769.873	325205
769.981	247471
770.088	124644
770.196	68265
770.304	44434
770.412	33186
770.519	24380
770.627	21850
770.735	17281
770.842	16445
770.950	14882
771.058	14908
771.165	14811
771.273	15423
771.380	14793
771.488	17861
771.595	19510
771.703	17743
771.810	16280
771.918	15755
772.025	18599
772.133	21011
772.240	17658
772.348	22071
772.455	20639
772.562	18442
772.670	18114
772.777	18522
772.884	18262
772.991	16664
773.099	17902
773.206	16857
773.313	17801
773.420	16935
773.528	16117
773.635	15753
773.742	16552
773.849	15186
773.956	15786
774.063	15488
774.170	15902
774.277	16331
774.384	14465
774.491	15429
774.598	15976
774.705	14716
774.812	14929
774.919	15008
775.026	14690
775.133	14499
775.239	13959
775.346	14446
775.453	13411
775.560	14441
775.667	13302
775.773	13429
775.880	14171
775.987	14078
776.093	13046
776.200	15093
776.307	10178
776.413	12606
776.520	14833
776.627	13691
776.733	11054
776.840	11075
776.946	14834
777.053	13343
777.159	11689
777.266	10472
777.372	11847
777.478	11896
777.585	12546
777.691	11392
777.798	13007
777.904	13054
778.010	11271
778.117	11882
778.223	11641
778.329	12076
778.435	10220
778.542	12686
778.648	11285
778.754	10384
778.860	11595
778.966	11543
779.072	10917
779.178	10642
779.284	8864
779.391	9165
779.497	11223
779.603	13070
779.708	11747
779.815	14397
779.920	28317
780.026	49449
780.132	15246
780.238	12064
780.344	9188
780.450	12621
780.556	8378
780.661	8857
780.767	11677
780.873	8145
780.979	8596
781.085	10482
781.190	8908
781.296	8634
781.402	10310
781.507	10631
781.613	8242
781.719	8764
781.824	10728
781.930	9086
782.035	8779
782.141	10168
782.246	7164
782.352	8326
782.457	9192
782.563	9025
782.668	8854
782.773	8033
782.879	7109
782.984	9419
783.090	8407
783.195	8707
783.300	9266
783.405	8211
783.511	7252
783.616	8736
783.721	8189
783.826	7931
783.932	6995
784.037	9196
784.142	7808
784.247	8302
784.352	8818
784.457	6436
784.562	8755
784.667	8775
784.772	6639
784.877	5631
784.982	7757
785.087	8485
785.192	6939
785.297	7081
785.402	7367
785.507	7812
785.611	7256
785.716	6500
785.821	7542
785.926	7782
786.031	7195
786.135	7073
786.240	6862
786.345	6341
786.450	6832
786.554	7685
786.659	5287
786.763	5964
786.868	6888
786.973	7581
787.077	5914
787.182	6382
787.286	6427
787.391	8658
787.495	5643
787.600	5800
787.704	5753
787.809	6881
787.913	5540
788.017	6791
788.122	6377
788.226	6326
788.330	4582
788.435	5839
788.539	7273
788.643	6160
788.747	4212
788.852	6091
788.956	5625
789.060	7434
789.164	5654
789.268	5888
789.372	6869
789.476	5930
789.580	4683
789.684	4740
789.788	6674
789.892	6039
789.996	5692
790.100	4714
790.204	6037
790.308	7166
790.412	5153
790.516	4880
790.620	4932
790.724	6976
790.828	5160
790.931	3724
791.035	5808
791.139	5678
791.242	5064
791.346	6202
791.450	5602
791.554	5485
791.657	3972
791.761	6262
791.864	5276
791.968	6111
792.072	5499
792.175	4288
792.279	3827
792.382	5242
792.486	3427
792.589	5210
792.693	5252
792.796	4301
792.899	5317
793.003	5847
793.106	2511
793.209	4568
793.313	4631
793.416	2626
793.519	4859
793.623	6670
793.726	4713
793.829	3891
793.932	3211
794.035	3746
794.138	5712
794.242	6747
794.345	4166
794.448	4090
794.551	5673
794.654	14463
794.757	27356
794.860	7323
794.963	4367
795.066	4462
795.169	5504
795.272	3961
795.375	5895
795.477	4127
795.580	3835
795.683	3245
795.786	5452
795.889	3597
795.991	3750
796.094	4750
796.197	3186
796.300	6161
796.402	3830
796.505	3324
796.608	3479
796.710	5038
796.813	4641
796.915	4835
797.018	5105
797.120	4304
797.223	3549
797.326	6028
797.428	3498
797.530	3158
797.633	3348
797.735	4751
797.838	4085
797.940	5836
798.042	3106
798.145	3678
798.247	4126
798.349	2488
798.452	4612
798.554	4443
798.656	3449
798.758	5160
798.860	3439
798.962	3540
799.065	2958
799.167	2510
799.269	4822
799.371	4989
799.473	4787
799.575	4619
799.677	3925
799.779	4067
799.881	2339
799.983	4981
800.085	3740
800.187	3944
800.289	2370
800.390	3999
800.492	4161
800.594	4612
800.696	2593
800.798	2811
800.899	3344
801.001	3004
801.103	3545
801.205	3299
801.306	3699
801.408	3297
801.509	3203
801.611	4271
801.713	3618
801.814	3823
801.916	2235
802.017	3018
802.119	2275
802.220	3456
802.322	1420
802.423	5015
802.525	1578
802.626	2881
802.727	3798
802.829	4630
802.930	321
803.031	4436
803.133	2653
803.234	3351
803.335	3719
803.436	2233
803.538	3272
803.639	2288
803.740	3865
803.841	2688
803.942	3604
804.043	3380
804.144	1833
804.245	3030
804.346	2619
804.447	2439
804.548	2349
804.649	3442
804.750	2027
804.851	2103
804.952	3268
805.053	3342
805.154	1235
805.255	4252
805.355	3514
805.456	3320
805.557	2534
805.658	2564
805.758	3356
805.859	3015
805.960	2491
806.061	2812
806.161	1889
806.262	2751
806.362	2642
806.463	2904
806.564	2952
806.664	4146
806.765	2208
806.865	2773
806.966	2085
807.066	2096
807.166	3543
807.267	4253
807.367	1461
807.468	3080
807.568	1209
807.668	2727
807.769	3847
807.869	2992
807.969	3053
808.069	2907
808.170	1454
808.270	1904
808.370	2427
808.470	3130
808.570	995
808.670	1939
808.770	2372
808.870	2206
808.970	3111
809.070	2121
809.170	1148
809.271	2792
809.370	2057
809.470	2344
809.570	2292
809.670	2095
809.770	2625
809.870	3018
809.970	2556
810.070	3257
810.169	3157
810.269	1698
810.369	2777
810.469	3291
810.568	2573
810.668	2052
810.768	1640
810.867	1552
810.967	1243
811.066	1823
811.166	2245
811.265	3571
811.365	1623
811.464	2461
811.564	2569
811.663	2984
811.763	1401
811.862	3408
811.962	2684
812.061	2840
812.160	1428
812.260	2770
812.359	2072
812.458	3174
812.557	4101
812.657	4148
812.756	3478
812.855	3283
812.954	1670
813.053	2183
813.153	2160
813.252	1731
813.351	2296
813.450	2674
813.549	2415
813.648	2504
813.747	1987
813.846	3407
813.945	1819
814.044	3371
814.143	3041
814.242	3813
814.341	2609
814.439	3612
814.538	2967
814.637	4054
814.736	2508
814.835	3844
814.933	2445
815.032	5182
815.131	5547
815.229	10979
815.328	14736
815.427	11453
815.525	9992
815.624	9492
815.722	8429
815.821	10546
815.919	9834
816.018	9700
816.116	9196
816.215	9540
816.313	9981
816.412	13148
816.510	12745
816.609	14927
816.707	14315
816.805	13861
816.904	10679
817.002	13635
817.100	12910
817.198	13636
817.296	11606
817.395	12426
817.493	12043
817.591	11102
817.689	11658
817.787	12178
817.885	11885
817.983	11868
818.081	14653
818.179	20103
818.277	39803
818.375	35478
818.473	15664
818.571	11508
818.669	11736
818.767	12088
818.865	11172
818.963	10128
819.061	12665
819.158	13244
819.256	20602
819.354	31525
819.452	62348
819.549	42954
819.647	18762
819.745	12446
819.842	10451
819.940	11489
820.038	10730
820.135	9624
820.233	11268
820.330	9320
820.428	8970
820.525	10665
820.623	8734
820.720	8639
820.818	9637
820.915	10370
821.012	8913
821.110	8804
821.207	10074
821.304	8940
821.402	9949
821.499	9978
821.596	7847
821.693	7734
821.791	9572
821.888	8660
821.985	9728
822.082	8181
822.179	8567
822.276	8699
822.373	7390
822.470	7702
822.567	8499
822.664	7529
822.761	8295
822.858	8173
822.955	7845
823.052	6988
823.149	7881
823.246	9359
823.343	5775
823.440	7319
823.536	8594
823.633	7908
823.730	7490
823.827	7621
823.923	7629
824.020	7333
824.117	7707
824.213	9417
824.310	7018
824.407	5869
824.503	7906
824.600	7297
824.696	5843
824.793	9509
824.889	7264
824.986	5966
825.082	4839
825.179	6565
825.275	7277
825.371	9528
825.468	6166
825.564	3880
825.660	6232
825.757	9921
825.853	6384
825.949	5495
826.045	6100
826.142	5813
826.238	7775
826.334	7254
826.430	6130
826.526	5234
826.622	4382
826.718	7865
826.814	8003
826.910	7669
827.006	3226
827.102	4905
827.198	6287
827.294	7629
827.390	7018
827.486	6133
827.582	3892
827.678	4991
827.774	7711
827.869	5233
827.965	5113
828.061	4861
828.157	7550
828.252	7211
828.348	4929
828.444	5768
828.539	5122
828.635	6263
828.731	5027
828.826	4369
828.922	5898
829.017	6413
829.113	6500
829.208	4300
829.304	4581
829.399	7467
829.495	5512
829.590	5300
829.685	5206
829.781	6699
829.876	6403
829.971	3247
830.066	2933
830.162	5550
830.257	7794
830.352	5278
830.447	4291
830.543	4034
830.638	4642
830.733	7570
830.828	3724
830.923	6089
831.018	5874
831.113	6048
831.208	3968
831.303	2196
831.398	3423
831.493	4031
831.588	7703
831.683	4537
831.778	2982
831.873	3553
831.967	5226
832.062	5561
832.157	3863
832.252	5135
832.346	3460
832.441	5751
832.536	4132
832.631	5622
832.725	3309
832.820	4049
832.914	4675
833.009	4133
833.104	3331
833.198	3456
833.293	3782
833.387	5102
833.482	4532
833.576	4971
833.670	4932
833.765	4012
833.859	4388
833.954	5652
834.048	4332
834.142	3541
834.237	1725
834.331	4597
834.425	4280
834.519	4464
834.613	3844
834.708	4216
834.802	3445
834.896	4365
834.990	4408
835.084	3506
835.178	2097
835.272	3993
835.366	3994
835.460	5625
835.554	3769
835.648	3181
835.742	1265
835.836	2722
835.930	3250
836.024	4878
836.117	4099
836.211	3539
836.305	2726
836.399	3455
836.493	2950
836.586	4837
836.680	3686
836.774	2862
836.867	3656
836.961	1789
837.055	2291
837.148	2809
837.242	3337
837.335	3395
837.429	3315
837.522	1796
837.616	2623
837.709	3313
837.803	2971
837.896	4295
837.989	3206
838.083	2907
838.176	2588
838.269	2263
838.363	2327
838.456	3194
838.549	4096
838.642	3381
838.735	2918
838.829	3218
838.922	2554
839.015	3759
839.108	1838
839.201	3547
839.294	3279
839.387	3654
839.480	1773
839.573	2367
839.666	2379
839.759	3196
839.852	2126
839.945	3986
840.038	2970
840.131	2798
840.223	1882
840.316	3599
840.409	3363
840.502	4018
840.594	4658
840.687	1106
840.780	2173
840.873	1292
840.965	1026
841.058	3597
841.150	4647
841.243	2199
841.336	2465
841.428	3058
841.521	2093
841.613	1506
841.706	3238
841.798	1841
841.890	3086
841.983	2071
842.075	2341
842.167	1728
842.260	2255
842.352	4377
842.444	2814
842.537	2556
842.629	1764
842.721	1727
842.813	1384
842.905	2548
842.997	2685
843.090	2462
843.182	1484
843.274	1427
843.366	2443
843.458	3697
843.550	4443
843.642	2399
843.734	1987
843.826	1416
843.918	1815
844.009	2991
844.101	2345
844.193	2320
844.285	2693
844.377	3048
844.469	2089
844.560	1051
844.652	1484
844.744	2165
844.835	1863
844.927	2472
845.019	2865
845.110	2088
845.202	2363
845.293	2120
845.385	856
845.476	2879
845.568	1959
845.659	2412
845.751	2093
845.842	1575
845.934	1607
846.025	2354
846.116	1704
846.208	2473
846.299	1391
846.390	1785
846.482	1524
846.573	2524
846.664	2111
846.755	1984
846.846	1935
846.937	1198
847.029	1923
847.120	1615
847.211	1004
847.302	3011
847.393	1351
847.484	2868
847.575	1036
847.666	1440
847.757	2303
847.847	3098
847.938	2806
848.029	2467
848.120	1290
848.211	2036
848.302	898
848.392	1433
848.483	1560
848.574	2569
848.664	1801
848.755	2148
848.846	1246
848.936	1777
849.027	2404
849.118	2026
849.208	1593
849.299	3292
849.389	4231
849.480	6414
849.570	11868
849.661	20991
849.751	35232
849.841	15570
849.932	4001
850.022	1760
850.112	2071
850.203	2574
850.293	1776
850.383	1453
850.474	1229
850.564	1347
850.654	1449
850.744	1680
850.834	2152
850.924	1796
851.014	2997
851.104	2684
851.194	1771
851.284	1988
851.374	1600
851.464	1275
851.554	1121
851.644	2208
851.734	2489
851.824	3130
851.914	1601
852.004	3664
852.094	1766
852.183	1241
852.273	1203
852.363	1514
852.452	1846
852.542	2373
852.632	913
852.721	2575
852.811	1862
852.901	2715
852.990	2262
853.080	2754
853.169	2438
853.259	2323
853.348	2091
853.438	2836
853.527	4026
853.617	3816
853.706	7675
853.795	13309
853.885	26062
853.974	43727
854.063	74687
854.152	102172
854.242	49000
854.331	15660
854.420	8174
854.509	5492
854.598	4484
854.687	3169
854.777	4120
854.866	2724
854.955	2570
855.044	1692
855.133	1818
855.222	2859
855.311	916
855.400	2422
855.488	1480
855.577	1385
855.666	1370
855.755	1547
855.844	881
855.933	2130
856.021	1499
856.110	1454
856.199	-278
856.288	985
856.376	735
856.465	946
856.554	1371
856.642	2251
856.731	2365
856.819	2094
856.908	1178
856.996	2024
857.085	1131
857.173	1173
857.262	565
857.350	1844
857.438	752
857.527	1987
857.615	1023
857.703	2057
857.792	997
857.880	610
857.968	1417
858.056	2035
858.145	1131
858.233	1534
858.321	762
858.409	2814
858.497	1171
858.585	1366
858.673	1270
858.761	843
858.849	658
858.937	1537
859.025	762
859.113	2187
859.201	1046
859.289	3689
859.377	1166
859.465	1402
859.552	378
859.640	1079
859.728	1551
859.816	1989
859.903	1063
859.991	654
860.079	424
860.166	783
860.254	1658
860.342	2023
860.429	1422
860.517	1472
860.604	2065
860.692	1224
860.779	773
860.867	1127
860.954	1264
861.042	2371
861.129	1562
861.216	2329
861.304	1178
861.391	2592
861.478	1756
861.565	1931
861.653	1882
861.740	163
861.827	1225
861.914	1693
862.001	836
862.089	1606
862.176	2009
862.263	1805
862.350	1062
862.437	1730
862.524	533
862.611	2752
862.698	1528
862.785	2026
862.871	2381
862.958	2304
863.045	1790
863.132	2929
863.219	1876
863.306	1228
863.392	1548
863.479	2543
863.566	1035
863.652	2925
863.739	1795
863.826	2609
863.912	2138
863.999	1985
864.086	1449
864.172	3563
864.259	3057
864.345	2379
864.432	2721
864.518	2990
864.604	2539
864.691	2687
864.777	3712
864.863	4854
864.950	5423
865.036	8482
865.122	14213
865.209	16358
865.295	12356
865.381	11115
865.467	11914
865.553	12405
865.639	12857
865.726	15906
865.812	23254
865.898	33008
865.984	43357
866.070	68945
866.156	72199
866.242	32386
866.328	16191
866.414	12743
866.499	12105
866.585	12054
866.671	10573
866.757	10637
866.843	10553
866.928	11172
867.014	9572
867.100	10589
867.186	9443
867.271	10596
867.357	9917
867.442	9493
867.528	9631
867.614	9578
867.699	9114
867.785	9789
867.870	9352
867.956	9305
868.041	9736
868.127	9483
868.212	8429
868.297	9072
868.383	9014
868.468	9223
868.553	10569
868.639	9270
868.724	8416
868.809	9693
868.894	8592
868.979	8560
869.065	9072
869.150	7396
869.235	8627
869.320	8144
869.405	6858
869.490	9273
869.575	7934
869.660	7518
869.745	8049
869.830	8813
869.915	7706
870.000	7803
870.085	6953
870.169	10346
870.254	9934
870.339	7026
870.424	6020
870.509	8616
870.593	8090
870.678	8634
870.763	7777
870.847	6862
870.932	8122
871.016	8998
871.101	5406
871.186	7502
871.270	10547
871.355	6254
871.439	5763
871.523	8150
871.608	6105
871.692	6369
871.777	9291
871.861	8258
871.945	6227
872.030	7454
872.114	7368
872.198	6793
872.282	6477
872.367	7060
872.451	6547
872.535	6500
872.619	7150
872.703	5948
872.787	6705
872.871	7195
872.955	5315
873.039	5150
873.123	7108
873.207	8206
873.291	4536
873.375	5629
873.459	7656
873.543	6312
873.627	5070
873.711	4399
873.794	6299
873.878	6423
873.962	4077
874.045	5268
874.129	5206
874.137	5338
874.213	6656
874.245	6186
874.296	5430
874.352	5171
874.380	5048
874.460	5640
874.464	5666
874.547	4694
874.568	5231
874.631	6817
874.676	6120
874.714	5523
874.784	6248
874.798	6397
874.881	5875
874.892	5604
874.965	3810
874.999	4519
875.048	5409
875.107	5181
875.131	5118
875.215	4649
875.215	4647
875.298	3120
875.323	3745
875.381	5300
875.430	6419
875.465	7131
875.538	6500
875.548	6433
875.631	3853
875.646	3793
875.714	3409
875.753	3433
875.798	3573
875.861	5448
875.881	5966
875.964	4429
875.968	4391
876.047	3969
876.076	4408
876.130	5132
876.183	5302
876.213	5424
876.291	5128
876.296	5103
876.379	5157
876.398	4955
876.462	4283
876.506	4338
876.545	4371
876.613	3331
876.628	3147
876.711	4570
876.721	4622
876.794	4842
876.828	4851
876.877	4879
876.935	4079
876.960	3699
877.043	3525
877.043	3528
877.125	4577
877.150	4957
877.208	5573
877.258	4456
877.291	3812
877.365	3536
877.374	3469
877.456	3239
877.472	3196
877.539	3339
877.579	3911
877.622	4393
877.687	4676
877.704	4784
877.787	3808
877.794	3914
877.869	5000
877.901	4635
877.952	3901
878.008	3678
878.034	3652
878.115	2528
878.117	2505
878.199	3975
878.222	4014
878.282	4076
878.329	4274
878.364	4465
878.437	4457
878.447	4407
878.529	4131
878.544	3910
878.611	3283
878.651	3515
878.694	3728
878.758	4062
878.776	4189
878.858	4785
878.865	4737
878.941	3469
878.972	3104
879.023	2977
879.078	3022
879.105	3046
879.185	4156
879.187	4177
879.269	4459
879.292	4550
879.351	4471
879.399	3613
879.433	3030
879.506	3703
879.516	3826
879.598	3447
879.613	3449
879.680	3434
879.720	3938
879.762	4416
879.827	3632
879.844	3370
879.926	3105
879.933	3139
880.007	3880
880.040	3561
880.089	2901
880.147	3230
880.171	3482
880.253	4151
880.254	4153
880.335	4030
880.360	4128
880.417	4769
880.467	5151
880.499	5203
880.574	4573
880.580	4510
880.662	4471
880.680	4124
880.744	2830
880.787	2822
880.825	2848
880.893	3196
880.907	3322
880.989	3126
881.000	3215
881.070	3733
881.106	3817
881.152	3920
881.213	3200
881.233	2820
881.315	2923
881.319	2911
881.396	3440
881.426	3582
881.478	3577
881.532	3513
881.559	3563
881.639	3447
881.641	3433
881.722	2708
881.745	2780
881.803	3671
881.852	3912
881.885	3530
881.958	2975
881.966	3033
882.047	3458
882.064	3493
882.129	3042
882.171	2570
882.210	2135
882.277	2363
882.291	2476
882.372	2739
882.383	2797
882.454	3752
882.489	4076
882.535	3895
882.596	3819
882.616	3915
882.697	3437
882.702	3447
882.778	2846
882.808	2475
882.859	2308
882.914	2709
882.940	2779
883.020	2565
883.021	2570
883.102	3442
883.127	3733
883.183	3944
883.233	3898
883.264	3725
883.339	2538
883.345	2387
883.426	1458
883.445	1269
883.507	2137
883.551	2915
883.587	3268
883.657	3180
883.668	3237
883.749	4282
883.763	4321
883.830	2935
883.869	2324
883.910	2399
883.975	2719
883.991	2769
884.072	2786
884.081	2816
884.152	3954
884.187	4603
884.233	4703
884.292	3792
884.314	3243
884.394	1766
884.398	1701
884.475	1803
884.504	1923
884.555	2137
884.610	2272
884.636	2294
884.716	2640
884.716	2652
884.797	4674
884.821	5072
884.877	4266
884.927	3189
884.958	2701
885.033	2125
885.038	2093
885.118	1586
885.139	1486
885.199	1812
885.244	2111
885.279	2573
885.350	3650
885.359	3793
885.439	4506
885.456	4690
885.520	3774
885.561	2893
885.600	2413
885.667	2335
885.680	2434
885.760	2490
885.773	2504
885.840	2176
885.878	2085
885.920	1950
885.984	1969
886.000	2202
886.080	2772
886.089	2877
886.160	3139
886.195	3080
886.240	2898
886.300	2830
886.320	2723
886.400	2267
886.406	2232
886.480	2447
886.511	2464
886.560	1951
886.616	1609
886.640	1898
886.720	2652
886.722	2671
886.800	2133
886.827	1872
886.879	2260
886.932	2709
886.959	3050
887.038	4037
887.039	4028
887.119	2769
887.143	2469
887.198	2629
887.248	2816
887.278	2899
887.354	2975
887.358	2947
887.437	2360
887.459	2235
887.517	3038
887.564	3495
887.596	3280
887.669	2857
887.676	2781
887.755	1899
887.774	1658
887.835	1578
887.880	1668
887.914	2078
887.985	2691
887.994	2798
888.073	3929
888.090	4126
888.153	4315
888.195	4385
888.232	3651
888.300	2324
888.311	2283
888.391	2148
888.405	2084
888.470	1676
888.510	1511
888.549	1828
888.615	2363
888.628	2517
888.708	3410
888.720	3538
888.787	3486
888.825	3479
888.866	2770
888.930	1583
888.945	1760
889.024	2810
889.035	2947
889.103	2839
889.140	2751
889.182	2782
889.245	2862
889.261	2855
889.340	2804
889.349	2796
889.419	2966
889.454	3042
889.498	2495
889.559	1745
889.577	1942
889.656	2819
889.664	2906
889.735	3007
889.768	3051
889.814	2597
889.873	1987
889.978	2541
890.083	2820
890.187	3034
890.292	3344
890.397	2409
890.501	2852
890.606	1735
890.710	2528
890.815	2823
890.919	3213
891.024	2603
891.128	2231
891.233	1579
891.337	3652
891.442	2767
891.546	3161
891.650	1577
891.755	2508
891.859	2612
891.963	3792
892.068	2941
892.172	2417
892.276	1351
892.380	1927
892.484	2752
892.589	2784
892.693	1908
892.797	1139
892.901	1608
893.005	2386
893.109	3320
893.213	4151
893.317	2246
893.421	2007
893.525	623
893.629	1848
893.733	3077
893.837	3103
893.941	2298
894.045	2102
894.148	1042
894.252	2306
894.356	2698
894.460	3890
894.564	1912
894.667	1819
894.771	1090
894.875	1468
894.978	2140
895.082	1790
895.186	3243
895.289	2327
895.393	1302
895.496	2038
895.600	1739
895.703	1180
895.807	1473
895.910	1709
896.014	2119
896.117	1919
896.221	2609
896.324	2542
896.427	1256
896.531	1305
896.634	1739
896.737	1983
896.840	1821
896.944	3038
897.047	2375
897.150	1961
897.253	1068
897.356	1179
897.460	532
897.563	1754
897.666	2855
897.769	2290
897.872	1399
897.975	1399
898.078	1444
898.181	1759
898.284	1268
898.387	2847
898.490	1989
898.593	1856
898.695	1090
898.798	1611
898.901	1804
899.004	2320
899.107	863
899.209	1818
899.312	3157
899.415	1715
899.518	179
899.620	797
899.723	1394
899.826	913
899.928	675
900.031	1939
900.133	2414
900.236	1349
900.338	1487
900.441	1905
900.543	1526
900.646	2316
900.748	1439
900.851	1821
900.953	1262
901.055	977
901.158	1285
901.260	2115
901.362	83
901.465	1093
901.567	1042
901.669	2549
901.771	1654
901.873	1795
901.976	1648
902.078	2205
902.180	1333
902.282	1328
902.384	1168
902.486	3121
902.588	1755
902.690	1894
902.792	666
902.894	1888
902.996	1673
903.098	1820
903.200	889
903.302	1037
903.404	1087
903.505	1402
903.607	1221
903.709	3457
903.811	2052
903.913	1991
904.014	-98
904.116	1326
904.218	524
904.319	1958
904.421	2061
904.523	1907
904.624	978
904.726	735
904.827	968
904.929	1531
905.030	1158
905.132	2202
905.233	1730
905.335	997
905.436	388
905.537	1177
905.639	640
905.740	1634
905.841	1241
905.943	1793
906.044	801
906.145	925
906.247	1242
906.348	665
906.449	700
906.550	2339
906.651	448
906.752	1646
906.854	169
906.955	2107
907.056	1600
907.157	2230
907.258	1692
907.359	921
907.460	828
907.561	1232
907.662	667
907.762	1766
907.863	440
907.964	2597
908.065	593
908.166	990
908.267	588
908.367	1071
908.468	1464
908.569	1713
908.670	1596
908.770	1238
908.871	1930
908.971	1437
909.072	349
909.173	290
909.273	951
909.374	2534
909.474	1662
909.575	1120
909.675	865
909.776	1315
909.876	1071
909.977	1197
910.077	1011
910.177	2141
910.278	1294
910.378	1779
910.478	172
910.579	1905
910.679	1703
910.779	1356
910.879	1704
910.980	1789
911.080	1372
911.180	878
911.280	1284
911.380	661
911.480	589
911.580	1048
911.680	1419
911.780	1518
911.880	1508
911.980	734
912.080	680
912.180	1759
912.280	1839
912.380	1305
912.480	-308
912.580	1377
912.679	906
912.779	1798
912.879	1045
912.979	1367
913.078	326
913.178	609
913.278	693
913.377	845
913.477	396
913.577	822
913.676	1688
913.776	2127
913.875	973
913.975	982
914.074	469
914.174	898
914.273	421
914.373	1610
914.472	710
914.572	928
914.671	974
914.770	1163
914.870	816
914.969	935
915.068	561
915.167	1790
915.267	1317
915.366	645
915.465	1199
915.564	1730
915.663	1462
915.763	1874
915.862	1594
915.961	2340
916.060	642
916.159	1087
916.258	859
916.357	870
916.456	966
916.555	2040
916.654	927
916.752	2992
916.851	1471
916.950	336
917.049	255
917.148	928
917.247	297
917.345	569
917.444	495
917.543	701
917.642	1296
917.740	2118
917.839	2476
917.937	2592
918.036	2263
918.135	1527
918.233	705
918.332	498
918.430	192
918.529	1647
918.627	674
918.726	2034
918.824	704
918.923	1203
919.021	1808
919.119	1080
919.218	616
919.316	2396
919.414	754
919.512	1885
919.611	1814
919.709	1613
919.807	2412
919.905	2310
920.003	2414
920.102	1723
920.200	1146
920.298	1648
920.396	1968
920.494	1588
920.592	1302
920.690	1733
920.788	1533
920.886	2117
920.984	2214
921.082	3588
921.180	2941
921.277	2741
921.375	2836
921.473	4833
921.571	4837
921.669	3978
921.766	4155
921.864	3942
921.962	4424
922.060	3951
922.157	4168
922.255	4928
922.352	4025
922.450	5223
922.548	4268
922.645	6317
922.743	7575
922.840	12024
922.938	13322
923.035	12520
923.133	11398
923.230	14114
923.327	15621
923.425	14964
923.522	14743
923.619	13807
923.717	12373
923.814	12487
923.911	11301
924.008	13052
924.106	11763
924.203	11821
924.300	11517
924.397	11985
924.494	11373
924.591	11930
924.688	11107
924.786	11207
924.883	10995
924.979	11881
925.077	10724
925.173	11152
925.270	11835
925.367	10533
925.464	11572
925.561	12025
925.658	12756
925.755	9447
925.852	11118
925.948	11039
926.045	10901
926.142	10948
926.239	10991
926.335	9447
926.432	10896
926.529	10465
926.625	11963
926.722	9290
926.818	9511
926.915	11595
927.011	8952
927.108	10083
927.204	11052
927.301	9718
927.397	10253
927.494	12114
927.590	8301
927.687	8659
927.783	11122
927.879	11784
927.976	8358
928.072	8996
928.168	10421
928.264	10703
928.361	9335
928.457	11489
928.553	8465
928.649	9733
928.745	9521
928.841	8497
928.937	8977
929.033	10159
929.129	9093
929.225	10485
929.321	9058
929.417	8539
929.513	9775
929.609	8607
929.705	8486
929.801	10167
929.897	7029
929.993	8450
930.089	8534
930.184	8771
930.280	8140
930.376	11586
930.471	7572
930.567	6941
930.663	8607
930.758	8311
930.854	8345
930.950	8239
931.045	7137
931.141	8097
931.236	9543
931.332	7849
931.427	6666
931.523	10343
931.618	8231
931.714	5470
931.809	7634
931.905	10125
932.000	5871
932.095	6113
932.191	9336
932.286	9877
932.381	8287
932.476	6389
932.572	7176
932.667	6084
932.762	6244
932.857	8302
932.952	8623
933.047	7487
933.142	5577
933.237	7547
933.332	7233
933.427	8661
933.522	6988
933.617	6959
933.712	6289
933.807	9281
933.902	9130
933.997	9789
934.092	6200
934.187	7820
934.282	6936
934.376	7137
934.471	8349
934.566	5936
934.661	5114
934.755	7798
934.850	8242
934.945	6949
935.039	4776
935.134	4476
935.228	6480
935.323	9301
935.417	5585
935.512	3859
935.606	4448
935.701	7805
935.795	7727
935.890	6680
935.984	6322
936.079	4451
936.173	6136
936.267	5157
936.362	4778
936.456	6560
936.550	9040
936.644	7485
936.738	4666
936.833	4796
936.927	4035
937.021	5502
937.115	6181
937.209	6641
937.303	6088
937.397	4820
937.491	4844
937.585	6918
937.679	5608
937.773	5567
937.867	3655
937.961	4367
938.055	6530
938.149	6641
938.243	3453
938.337	3652
938.430	4264
938.524	6707
938.618	4332
938.712	5140
938.805	5411
938.899	6485
938.993	7055
939.086	4789
939.180	2394
939.274	3893
939.367	5753
939.461	6958
939.554	4304
939.648	4531
939.741	4799
939.835	5542
939.928	6556
940.022	6310
940.115	4096
940.208	5725
940.302	7097
940.395	7753
940.488	4238
940.582	4933
940.675	3065
940.768	3995
940.861	4767
940.954	6812
941.048	2940
941.141	3765
941.234	3856
941.327	4777
941.420	5361
941.513	5841
941.606	3696
941.699	4171
941.792	5156
941.885	4125
941.978	5426
942.071	5038
942.164	2831
942.257	2896
942.349	3496
942.442	4976
942.535	3266
942.628	3441
942.721	4407
942.813	4570
942.906	5499
942.999	3508
943.091	3484
943.184	3629
943.277	3811
943.369	4150
943.462	1771
943.554	4226
943.647	3392
943.739	5441
943.832	5392
943.924	1972
944.017	2450
944.109	2109
944.201	3353
944.294	3241
944.386	3823
944.478	3846
944.571	2593
944.663	3600
944.755	3882
944.847	4159
944.940	2323
945.032	2126
945.124	2293
945.216	4505
945.308	3738
945.400	4573
945.492	3175
945.584	4898
945.676	5533
945.768	4449
945.860	4237
945.952	4899
946.044	3518
946.136	3386
946.228	2930
946.320	3390
946.412	3431
946.503	5096
946.595	3833
946.687	3024
946.779	2581
946.870	2427
946.962	2202
947.054	3605
947.145	3557
947.237	3205
947.329	2915
947.420	3443
947.512	2933
947.603	2155
947.695	2319
947.786	2915
947.878	1802
947.969	3993
948.061	3110
948.152	3454
948.243	2188
948.335	2391
948.426	1998
948.517	2777
948.609	3908
948.700	4158
948.791	2544
948.882	1957
948.973	1771
949.065	3025
949.156	2497
949.247	1048
949.338	3217
949.429	1587
949.520	1217
949.611	2923
949.702	3967
949.793	2983
949.884	2150
949.975	3179
950.066	1008
950.157	1693
950.247	1546
950.338	1418
950.429	825
950.520	2386
950.611	1996
950.701	2505
950.792	3276
950.883	3860
950.973	2544
951.064	3498
951.155	3297
951.245	3544
951.336	2581
951.427	3105
951.517	4766
951.608	4525
951.698	1785
951.788	2717
951.879	722
951.969	2625
952.060	1736
952.150	2654
952.240	3112
952.331	2369
952.421	3531
952.511	1479
952.602	935
952.692	1725
952.782	1439
952.872	1999
952.962	2718
953.052	3045
953.143	550
953.233	2975
953.323	1672
953.413	2417
953.503	2891
953.593	2357
953.683	1827
953.773	1142
953.863	1200
953.953	1235
954.042	1892
954.132	2383
954.222	2572
954.312	1302
954.402	1688
954.492	1422
954.581	1707
954.671	2383
954.761	1071
954.850	2135
954.940	176
955.030	1297
955.119	994
955.209	1794
955.298	1716
955.388	2192
955.477	2191
955.567	1308
955.656	751
955.746	1414
955.835	712
955.925	1127
956.014	1451
956.103	3046
956.193	3516
956.282	3489
956.371	1912
956.461	1711
956.550	1700
956.639	1704
956.728	1214
956.817	1925
956.906	884
956.995	2687
957.085	1322
957.174	1501
957.263	1326
957.352	1987
957.441	1144
957.530	1409
957.619	1156
957.708	1940
957.796	1329
957.885	2341
957.974	1114
958.063	2475
958.152	-188
958.241	1617
958.329	563
958.418	1494
958.507	1058
958.596	2979
958.684	1344
958.773	2166
958.861	567
958.950	2066
959.039	992
959.127	1780
959.216	1644
959.304	1944
959.393	882
959.481	2520
959.570	1398
959.658	1153
959.746	687
959.835	1880
959.923	1137
960.011	579
960.100	1270
960.188	2494
960.276	1167
960.365	791
960.453	236
960.541	213
960.629	637
960.717	633
960.805	-125
960.893	1249
960.981	1023
961.069	3676
961.158	1547
961.245	3601
961.333	2653
961.421	1473
961.509	887
961.597	2000
961.685	780
961.773	1667
961.861	1087
961.949	2761
962.036	479
962.124	2492
962.212	375
962.299	920
962.387	375
962.475	933
962.562	-115
962.650	2098
962.738	815
962.825	899
962.913	-255
963.000	740
963.088	1765
963.175	1549
963.263	660
963.350	971
963.438	765
963.525	1162
963.612	834
963.700	1439
963.787	1082
963.874	828
963.962	623
964.049	1094
964.136	-253
964.223	1832
964.310	702
964.398	827
964.485	660
964.572	1378
964.659	487
964.746	565
964.833	-72
964.920	982
965.007	93
965.094	1245
965.181	487
965.268	2279
965.355	1075
965.441	1603
965.528	-306
965.615	1929
965.702	325
965.789	1059
965.875	1095
965.962	1567
966.049	556
966.136	2206
966.222	293
966.309	1379
966.395	507
966.482	1659
966.569	823
966.655	1628
966.742	207
966.828	1440
966.915	-285
967.001	1012
967.087	-446
967.174	607
967.260	439
967.347	697
967.433	456
967.519	1643
967.605	-199
967.692	764
967.778	113
967.864	251
967.950	376
968.036	950
968.123	1389
968.209	644
968.295	-240
968.381	1437
968.467	379
968.553	-134
968.639	1353
968.725	92
968.811	620
968.897	2216
968.983	1641
969.069	683
969.154	810
969.240	1220
969.326	138
969.412	1057
969.497	-245
969.583	-239
969.669	1591
969.755	985
969.840	893
969.926	2444
970.012	2677
970.097	3799
970.183	2035
970.268	1633
970.354	624
970.439	935
970.525	1221
970.610	-846
970.696	767
970.781	980
970.866	-844
970.952	1048
971.037	191
971.122	984
971.208	778
971.293	1072
971.378	-360
971.463	1358
971.549	845
971.634	273
971.719	365
971.804	1414
971.889	921
971.974	645
972.059	-374
972.144	1331
972.229	746
972.314	861
972.399	485
972.484	397
972.569	719
972.654	-314
972.739	915
972.824	292
972.908	-60
972.993	139
973.078	183
973.163	502
973.247	523
973.332	-387
973.417	1544
973.501	-546
973.586	700
973.671	1598
973.755	373
973.840	1621
973.924	1075
974.009	1713
974.093	1864
974.178	2672
974.262	1049
974.346	624
974.431	359
974.515	198
974.600	573
974.684	1164
974.768	133
974.852	1897
974.937	-434
975.021	1649
975.105	399
975.189	1253
975.273	61
975.358	596
975.442	-294
975.526	1673
975.610	118
975.694	-248
975.778	868
975.862	133
975.946	-876
976.030	1836
976.114	-653
976.198	895
976.281	-400
976.365	1814
976.449	588
976.533	1368
976.617	-180
976.700	-115
976.784	193
976.868	813
976.951	59
977.035	1216
977.119	63
977.202	894
977.286	732
977.369	1829
977.453	2601
977.536	2499
977.620	1822
977.703	1794
977.787	909
977.870	2437
977.953	1573
978.037	180
978.120	1889
978.203	1264
978.287	784
978.370	1483
978.453	-119
978.536	820
978.620	1496
978.703	1622
978.786	125
978.869	194
978.952	-619
979.035	2280
979.118	1251
979.201	1421
979.284	706
979.367	590
979.450	1534
979.533	1120
979.616	157
979.699	804
979.782	766
979.865	1640
979.948	637
980.030	-264
980.113	329
980.196	-49
980.279	404
980.361	1065
980.444	654
980.526	1736
980.609	2106
980.692	3693
980.774	2272
980.857	1268
980.939	1814
981.022	2005
981.104	1243
981.187	2266
981.269	1404
981.352	1469
981.434	96
981.516	1111
981.599	2407
981.681	816
981.763	572
981.846	1565
981.928	1052
982.010	1347
982.092	375
982.174	1919
982.256	720
982.339	1919
982.421	604
982.503	1702
982.585	233
982.667	935
982.749	850
982.831	1524
982.913	284
982.995	1581
983.077	484
983.158	2917
983.240	903
983.322	2650
983.404	3109
983.486	3551
983.568	3486
983.649	2177
983.731	2325
983.813	1526
983.894	1547
983.976	2542
984.058	1408
984.139	2913
984.221	120
984.302	2569
984.384	987
984.465	1748
984.547	2499
984.628	1474
984.710	1642
984.791	1354
984.872	835
984.954	2428
985.035	2015
985.116	1847
985.198	1781
985.279	2869
985.360	2021
985.441	867
985.522	1973
985.604	2153
985.685	1225
985.766	2674
985.847	2927
985.928	1317
986.009	529
986.090	1702
986.171	2299
986.252	1557
986.333	1707
986.414	2138
986.495	2373
986.576	3618
986.656	3170
986.737	2817
986.818	2060
986.899	1911
986.980	1336
987.060	3547
987.141	2167
987.222	2939
987.302	3373
987.383	4871
987.464	2923
987.544	4242
987.625	1895
987.705	4235
987.786	3606
987.866	3264
987.947	3499
988.027	3327
988.108	2442
988.188	3274
988.268	2361
988.349	3048
988.429	2937
988.509	2603
988.589	1951
988.670	1534
988.750	3062
988.830	2070
988.910	2989
988.990	2708
989.070	2245
989.151	2301
989.231	2037
989.311	3168
989.391	1613
989.471	2605
989.551	2017
989.631	2008
989.711	2657
989.791	1696
989.870	1349
989.950	3234
990.030	1423
990.110	2535
990.190	1602
990.269	1903
990.349	1556
990.429	2152
990.509	1760
990.588	1030
990.668	1458
990.747	2021
990.827	1634
990.907	1837
990.986	1180
991.066	2460
991.145	1545
991.225	1919
991.304	1722
991.383	2178
991.463	1189
991.542	2044
991.622	1346
991.701	1278
991.780	694
991.859	1559
991.939	1099
992.018	2367
992.097	1834
992.176	891
992.256	1398
992.335	1477
992.414	2487
992.493	1132
992.572	217
992.651	2926
992.730	1536
992.809	1689
992.888	343
992.967	2114
993.046	1905
993.125	122
993.203	835
993.282	1173
993.361	1129
993.440	648
993.519	-243
993.597	1524
993.676	576
993.755	1612
993.834	848
993.912	-281
993.991	1022
994.069	374
994.148	-67
994.226	129
994.305	403
994.384	684
994.462	1323
994.540	519
994.619	28
994.697	891
994.776	711
994.854	2518
994.932	496
995.011	547
995.089	528
995.167	682
995.245	1359
995.324	550
995.402	1041
995.480	610
995.558	515
995.636	-308
995.714	-275
995.792	971
995.870	83
995.948	1030
996.026	850
996.104	-692
996.182	1095
996.260	803
996.338	309
996.416	-105
996.494	419
996.572	1249
996.649	-318
996.727	-369
996.805	245
996.883	313
996.960	-393
997.038	997
997.116	-170
997.193	446
997.271	-532
997.348	-86
997.426	50
997.504	11
997.581	236
997.658	840
997.736	-1042
997.813	-492
997.891	86
997.968	-514
998.046	-390
998.123	227
998.200	349
998.277	171
998.355	-418
998.432	-1703
998.509	-437
998.586	448
998.663	143
998.741	-85
998.818	-826
998.895	12
998.972	-76
999.049	499
999.126	-481
999.203	126
999.280	-79
999.357	181
999.434	-764
999.511	607
999.587	243
999.664	-1269
999.741	-459
999.818	538
999.895	-624
999.971	86
1000.048	-352
1000.125	681
1000.202	-821
1000.278	-379
1000.355	31
1000.431	-507
1000.508	-1357
1000.584	6
1000.661	-330
1000.738	-1006
1000.814	-1038
1000.890	137
1000.967	-1507
1001.043	333
1001.120	-981
1001.196	71
1001.272	-1363
1001.349	706
1001.425	-895
1001.501	-722
1001.577	-1348
1001.654	86
1001.730	-601
1001.806	-926
1001.882	-1504
1001.958	138
1002.034	89
1002.110	-153
1002.186	-1303
1002.262	-940
1002.338	-1244
1002.414	-366
1002.490	55
1002.566	-950
1002.642	-2054
1002.718	290
1002.794	-1025
1002.870	-1149
1002.945	-1865
1003.021	-678
1003.097	-1135
1003.173	134
1003.248	-1047
1003.324	-588
1003.400	-876
1003.475	-1095
1003.551	-405
1003.626	-1248
1003.702	-1594
1003.777	-514
1003.853	-1528
1003.928	-1544
1004.004	-1340
1004.079	188
1004.155	-624
1004.230	-1483
1004.305	-63
1004.381	-1572
1004.456	-1278
1004.531	-1070
1004.607	-1600
1004.682	-764
1004.757	-1151
1004.832	-870
1004.907	-1456
1004.982	-1066
1005.057	-349
1005.133	-985
1005.208	-1858
1005.283	-445
1005.358	-688
1005.433	-922
1005.508	-1337
1005.583	-1719
1005.657	-939
1005.732	-393
1005.807	-2025
1005.882	-1338
1005.957	-1376
1006.032	-1263
1006.106	-894
1006.181	-880
1006.256	51
1006.331	-1167
1006.405	-1988
1006.480	-821
1006.554	-1909
1006.629	-1218
1006.704	-2250
1006.778	-716
1006.853	-1091
1006.927	-1423
1007.002	-2654
1007.076	-471
1007.150	-1921
1007.225	-874
1007.299	-1432
1007.373	-1949
1007.448	-1709
1007.522	-630
1007.596	-1648
1007.671	-1449
1007.745	-2067
1007.819	-1751
1007.893	-2083
1007.967	-590
1008.041	-2901
1008.115	-505
1008.190	-2417
1008.264	-537
1008.338	-2176
1008.412	-1618
1008.486	-1638
1008.560	-680
1008.633	-1307
1008.707	-1093
1008.781	-1637
1008.855	-915
1008.929	-1424
1009.003	-1667
1009.076	-1884
1009.150	-963
1009.224	-1208
1009.298	-457
1009.371	-1874
1009.445	-1008
1009.519	-1833
1009.592	-2360
1009.666	-855
1009.739	-1173
1009.813	-2186
1009.886	-1377
1009.960	-1808
1010.033	-164
1010.107	-2080
1010.180	-1825
1010.253	-2372
1010.327	-1838
1010.400	-1768
1010.473	-1543
1010.547	-728
1010.620	-1215
1010.693	-1768
1010.766	-1536
1010.840	-1662
1010.913	-888
1010.986	-1914
1011.059	-2003
1011.132	-1981
1011.205	-1315
1011.278	-1306
1011.351	-1767
1011.424	-2219
1011.497	-1413
1011.570	-2186
1011.643	-1519
1011.716	-1758
1011.789	-1982
1011.862	-2355
1011.934	-391
1012.007	-2230
1012.080	-1742
1012.153	-1859
1012.225	-944
1012.298	-3020
1012.371	-1871
1012.443	-1936
1012.516	-1519
1012.588	-2033
1012.661	-1406
1012.733	-2328
1012.806	-340
1012.879	-1744
1012.951	-973
1013.023	-2489
1013.096	-854
1013.168	-2460
1013.241	-773
1013.313	-1922
1013.385	-2167
1013.458	-2025
1013.530	-926
1013.602	-2109
1013.674	-774
1013.746	-2823
1013.819	-2193
1013.891	-1723
1013.963	-2177
1014.035	-1481
1014.107	-1152
1014.179	-2071
1014.251	-2313
1014.323	-1136
1014.395	-1634
1014.467	-2549
1014.539	-2114
1014.611	-2322
1014.683	-999
1014.754	-1834
1014.826	-1221
1014.898	-1973
1014.970	-2024
1015.042	-1043
1015.113	-1001
1015.185	-1103
1015.257	-1686
1015.328	-1836
1015.400	-1857
1015.471	-1624
1015.543	-2917
1015.615	-919
1015.686	-1320
1015.757	-1273
1015.829	-1383
1015.901	-2507
1015.972	-1288
1016.043	-1983
1016.115	-433
1016.186	-2549
1016.257	-1827
1016.328	-1469
1016.400	-860
1016.471	-1843
1016.542	-1795
1016.613	-1507
1016.685	-951
1016.756	-736
1016.827	-2642
1016.898	-2464
1016.969	-743
1017.040	-1541
1017.111	-2082
1017.182	-2627
1017.253	-1637
1017.324	-1865
1017.395	-1381
1017.466	-2098
1017.537	-1476
1017.608	-1899
1017.678	-1521
1017.749	-2040
1017.820	-909
1017.891	-2377
1017.961	-1748
1018.032	-1997
1018.103	-1131
1018.173	-2282
1018.244	-1757
1018.315	-1580
1018.385	-1348
1018.456	-1998
1018.526	-2518
1018.597	-1490
1018.667	-1485
1018.738	-2463
1018.808	-1025
1018.878	-2326
1018.949	-1385
1019.019	-1974
1019.089	-2438
1019.160	-2163
1019.230	-2324
1019.300	-1953
1019.371	-2573
1019.441	-1189
1019.511	-1679
1019.581	-2659
1019.651	-1593
1019.721	-2479
1019.791	-1873
1019.861	-1708
1019.931	-1419
1020.001	-1830
1020.071	-1327
1020.141	-2487
1020.211	-1380
1020.281	-2386
1020.351	-2294
1020.421	-1188
1020.491	-1595
1020.560	-1890
1020.630	-1457
1020.700	-1907
1020.770	-1385
1020.839	-1648
1020.909	-1471
1020.979	-1678
1021.048	-2683
1021.118	-3159
1021.187	-2651
1021.257	-1645
1021.326	-1229
1021.396	-2628
1021.465	-1679
1021.535	-2562
1021.604	-2226
1021.674	-2307
1021.743	-2427
1021.812	-2032
1021.882	-1672
1021.951	-2085
1022.020	-1372
1022.089	-1373
1022.159	-2178
1022.228	-1863
1022.297	-2668
1022.366	-2478
1022.435	-1871
1022.504	-2332
1022.573	-2536
1022.642	-1831
1022.711	-2390
1022.781	-2531
1022.849	-2173
1022.918	-3340
1022.987	-1765
1023.056	-2408
1023.125	-1571
1023.194	-1921
1023.263	-1080
1023.331	-1707
1023.400	-1812
1023.469	-2407
1023.538	-1867
1023.606	-2578
1023.675	-2124
1023.744	-2736
1023.812	-2086
1023.881	-2219
1023.949	-1807
1024.018	-2297
1024.086	-2077
1024.155	-2081
1024.223	-2177
1024.292	-2010
1024.360	-2703
1024.429	-2469
1024.497	-2691
1024.565	-1918
1024.634	-1698
1024.702	-1635
1024.770	-2405
1024.838	-2037
1024.907	-1616
1024.975	-2536
1025.043	-1491
1025.111	-2401
1025.179	-1790
1025.247	-2728
1025.315	-1911
1025.383	-2178
1025.451	-1740
1025.519	-2302
1025.587	-1997
1025.655	-2009
1025.723	-2483
1025.791	-2982
1025.859	-1541
1025.927	-1963
1025.995	-2410
1026.062	-2876
1026.130	-2042
1026.198	-2499
1026.266	-2314
1026.333	-1960
1026.401	-2538
1026.469	-2424
1026.536	-1695
1026.604	-2100
1026.671	-1657
1026.739	-2052
1026.806	-2329
1026.874	-2955
1026.941	-1567
1027.009	-2410
1027.076	-2062
1027.144	-2390
1027.211	-2728
1027.278	-3108
1027.345	-1563
1027.413	-2343
1027.480	-2401
1027.547	-2722
1027.614	-1802
1027.682	-2354
1027.749	-2047
1027.816	-2675
1027.883	-1898
1027.950	-1861
1028.017	-2030
1028.084	-2139
1028.151	-2390
1028.218	-3032
1028.285	-1750
1028.352	-2271
1028.419	-2352
1028.486	-3402
1028.553	-2266
1028.619	-2438
1028.686	-1331
1028.753	-2275
1028.820	-2116
1028.886	-2202
1028.953	-1722
1029.020	-2350
1029.086	-2108
1029.153	-3080
1029.220	-2388
1029.286	-2092
1029.353	-1969
1029.419	-3539
1029.486	-2086
1029.552	-2564
1029.619	-2082
1029.685	-2597
1029.751	-1552
1029.818	-2168
1029.884	-2481
1029.951	-1607
1030.017	-2014
1030.083	-2507
1030.149	-2114
1030.216	-2786
1030.282	-2631
1030.348	-2650
1030.414	-2500
1030.480	-2051
1030.546	-2287
1030.612	-2773
1030.678	-2225
1030.744	-2795
1030.810	-2382
1030.876	-2778
1030.942	-2349
1031.008	-3054
1031.074	-2278
1031.140	-1878
1031.206	-2077
1031.272	-2891
1031.337	-2471
1031.403	-1886
1031.469	-1747
1031.534	-2487
1031.600	-1482
1031.666	-2581
1031.731	-2023
1031.797	-2371
1031.863	-2331
1031.928	-2569
1031.994	-2390
1032.059	-1988
1032.125	-2825
1032.190	-2423
1032.256	-2790
1032.321	-2756
1032.386	-2359
1032.452	-1975
1032.517	-1827
1032.582	-2116
1032.647	-1884
1032.713	-3002
1032.778	-3402
1032.843	-3196
1032.908	-2441
1032.974	-3309
1033.039	-1733
1033.104	-2023
1033.169	-2493
1033.234	-3018
1033.299	-2065
1033.364	-2109
1033.429	-2344
1033.494	-2262
1033.559	-2489
1033.624	-2778
1033.688	-1735
1033.753	-2806
1033.818	-1931
1033.883	-2594
1033.948	-1302
1034.013	-1958
1034.077	-1030
1034.142	-1430
1034.207	-1117
1034.271	-685
1034.336	-262
1034.400	-1278
1034.465	-1254
1034.530	-2727
1034.594	-2365
1034.658	-2126
1034.723	-2285
1034.787	-2317
1034.852	-1731
1034.916	-2562
1034.981	-1865
1035.045	-2021
1035.109	-2332
1035.173	-2294
1035.238	-2958
1035.302	-3062
1035.366	-1945
1035.430	-1892
1035.495	-2431
1035.559	-2067
1035.623	-2296
1035.687	-2716
1035.751	-2169
1035.815	-2920
1035.879	-3028
1035.943	-2792
1036.007	-1834
1036.071	-2495
1036.135	-1541
1036.198	-3119
1036.262	-2266
1036.326	-2906
1036.390	-2257
1036.454	-2155
1036.517	-1657
1036.581	-2372
1036.645	-2356
1036.709	-2929
1036.772	-2282
1036.836	-2553
1036.900	-2098
1036.963	-2531
1037.026	-2483
1037.090	-2636
1037.154	-2443
1037.217	-3049
1037.280	-1981
1037.344	-1904
1037.407	-1809
1037.471	-3356
1037.534	-2372
1037.597	-2910
1037.661	-2032
1037.724	-2800
1037.787	-1617
1037.850	-2300
1037.913	-1774
1037.977	-2430
1038.040	-2384
1038.103	-3275
1038.166	-2257
1038.229	-2132
1038.292	-1758
1038.355	-2832
1038.418	-2607
1038.481	-2059
1038.544	-2901
1038.607	-1821
1038.670	-1922
1038.732	-3620
1038.795	-1925
1038.858	-2880
1038.921	-2597
1038.984	-2812
1039.046	-1821
1039.109	-2069
1039.172	-1956
1039.234	-2681
1039.297	-2559
1039.360	-2882
1039.422	-2677
1039.485	-3070
1039.547	-2968
1039.610	-2101
1039.672	-2068
1039.734	-2744
1039.797	-2010
1039.859	-1802
1039.922	-2032
1039.984	-2577
1040.046	-1476
1040.109	-2604
1040.171	-2673
1040.233	-2117
1040.295	-2628
1040.358	-2472
1040.420	-2622
1040.482	-3151
1040.544	-2137
1040.606	-2623
1040.668	-1391
1040.730	-2345
1040.792	-1659
1040.854	-2428
1040.916	-1771
1040.978	-3149
1041.040	-1489
1041.102	-2137
1041.164	-3170
1041.225	-2461
1041.287	-2333
1041.349	-2038
1041.411	-2153
1041.472	-2689
1041.534	-2725
1041.596	-2936
1041.657	-2707
1041.719	-2244
1041.781	-2690
1041.842	-3370
1041.904	-1448
1041.965	-2700
1042.027	-1723
1042.088	-2485
1042.150	-1561
1042.211	-2924
1042.272	-1771
1042.334	-2579
1042.395	-2214
1042.456	-2133
1042.518	-1866
1042.579	-2733
1042.640	-1687
1042.701	-2419
1042.763	-2711
1042.824	-2505
1042.885	-1692
1042.946	-2502
1043.007	-2099
1043.068	-2912
1043.129	-1963
1043.190	-2942
1043.251	-1675
1043.312	-2917
1043.373	-1368
1043.434	-2680
1043.495	-2780
1043.556	-2170
1043.616	-1057
1043.677	-2663
1043.738	-2475
1043.799	-3309
1043.859	-2706
1043.920	-2210
1043.981	-2175
1044.041	-2276
1044.102	-2127
1044.162	-2725
1044.223	-1840
1044.284	-2186
1044.344	-2051
1044.405	-2337
1044.465	-1428
1044.525	-2582
1044.586	-2220
1044.646	-2373
1044.707	-1461
1044.767	-2218
1044.827	-1780
1044.887	-2773
1044.948	-1168
1045.008	-2228
1045.068	-2580
1045.128	-1961
1045.188	-1958
1045.249	-1874
1045.309	-1269
1045.369	-2317
1045.429	-2168
1045.489	-2005
1045.549	-2081
1045.609	-2588
1045.669	-2557
1045.729	-2506
1045.789	-2161
1045.848	-2114
1045.908	-2278
1045.968	-1990
1046.028	-1412
1046.088	-1721
1046.147	-1712
1046.207	-2121
1046.267	-1613
1046.326	-2409
1046.386	-1730
1046.446	-1486
1046.505	-857
1046.565	-1407
1046.624	-393
1046.684	-1142
1046.743	-347
1046.803	-901
1046.862	-849
1046.922	0
